rt,responses,trial_type,time_elapsed,sequence,stimulus,graphorder,button_pressed,response,key_press,stimulus_left,stimulus_right,accuracy,cumulative_accuracy,stimulus_down_left,stimulus_down_mid,stimulus_down_right,stimulus_correct,stimulus_short,stimulus_far,weighted_accuracy,missedtrial,condition,specific_pairs,imgL_ID,imgR_ID,linedress,linedressed,linedressed_detor,detour_trial
14712.200000017881,{worker_id:560ce65601c38a0012769e20},id_enter,14714,blocked,replication,GW/newhope.png; GW/boulder.png; GW/westpalmbeach.png; GW/peoria.png; GW/racine.png; GW/huntsville.png; GW/shreveport.png; GW/leesburg.png; GW/cornwall.png; GW/carmel.png; GW/gatlinburg.png; GW/hotsprings.png; GW/hanover.png,,,,,,,,,,,,,,,,,,,,,,,
34062.09999999404,,fullscreen,48778,,fullscreen,,0,,,,,,,,,,,,,,,,,,,,,,
19465.90000000596,,intro_1,68245,,instruct,,0,,,,,,,,,,,,,,,,,,,,,,
33449,,intro_2,101695,,instruct,,1,Next,,,,,,,,,,,,,,,,,,,,,
11605.300000011921,,intro_3,113301,,instruct,,1,Next,,,,,,,,,,,,,,,,,,,,,
null,,learn_prac_1,116303,,lean_prac_1,,,,null,,,,,,,,,,,,,,,,,,,,
null,,html-keyboard-response,117304,,<p></p>,,,,null,,,,,,,,,,,,,,,,,,,,
12646.700000017881,,intro_1,129951,,instruct,,0,,,,,,,,,,,,,,,,,,,,,,
9566.799999982119,,intro_2,139519,,instruct,,1,Next,,,,,,,,,,,,,,,,,,,,,
null,,learn_prac_2,142520,,lean_prac_2,,,,null,,,,,,,,,,,,,,,,,,,,
null,,html-keyboard-response,143522,,<p></p>,,,,null,,,,,,,,,,,,,,,,,,,,
6390.5,,intro_1,149913,,instruct,,0,,,,,,,,,,,,,,,,,,,,,,
10691.300000011921,,intro_2,160605,,instruct,,1,Next,,,,,,,,,,,,,,,,,,,,,
17665.59999999404,,intro_3,178271,,instruct,,1,Next,,,,,,,,,,,,,,,,,,,,,
null,,prac_atten_color_black,178768,,black_plus_sign,,,,null,,,,,,,,,,,,,,,,,,,,
904.9000000059605,,prac_atten_color,179674,,prac_stop_color,,,,49,,,,,,,,,,,,,,,,,,,,
null,,prac_atten_color_black,181676,,black_plus_sign,,,,null,,,,,,,,,,,,,,,,,,,,
null,,prac_atten_color_black,182172,,black_plus_sign,,,,null,,,,,,,,,,,,,,,,,,,,
499.2000000178814,,prac_atten_color,182942,,prac_stop_color,,,,50,,,,,,,,,,,,,,,,,,,,
null,,prac_atten_color_black,184943,,black_plus_sign,,,,null,,,,,,,,,,,,,,,,,,,,
null,,prac_atten_color_black,185575,,black_plus_sign,,,,null,,,,,,,,,,,,,,,,,,,,
316.30000001192093,,prac_atten_color,186000,,prac_stop_color,,,,49,,,,,,,,,,,,,,,,,,,,
null,,prac_atten_color_black,188002,,black_plus_sign,,,,null,,,,,,,,,,,,,,,,,,,,
4596.800000011921,,attentioncheck_help,192600,,instruct,,,,32,,,,,,,,,,,,,,,,,,,,
null,,prac_atten_color_black,193577,,black_plus_sign,,,,null,,,,,,,,,,,,,,,,,,,,
473.10000002384186,,prac_atten_color,194666,,prac_stop_color,,,,49,,,,,,,,,,,,,,,,,,,,
null,,prac_atten_color_black,196667,,black_plus_sign,,,,null,,,,,,,,,,,,,,,,,,,,
null,,prac_atten_color_black,196981,,black_plus_sign,,,,null,,,,,,,,,,,,,,,,,,,,
421.80000001192093,,prac_atten_color,197484,,prac_stop_color,,,,50,,,,,,,,,,,,,,,,,,,,
null,,prac_atten_color_black,199486,,black_plus_sign,,,,null,,,,,,,,,,,,,,,,,,,,
null,,prac_atten_color_black,200386,,black_plus_sign,,,,null,,,,,,,,,,,,,,,,,,,,
325,,prac_atten_color,201125,,prac_stop_color,,,,50,,,,,,,,,,,,,,,,,,,,
null,,prac_atten_color_black,203126,,black_plus_sign,,,,null,,,,,,,,,,,,,,,,,,,,
null,,prac_atten_color_black,203791,,black_plus_sign,,,,null,,,,,,,,,,,,,,,,,,,,
432.30000001192093,,prac_atten_color,204788,,prac_stop_color,,,,49,,,,,,,,,,,,,,,,,,,,
null,,prac_atten_color_black,206790,,black_plus_sign,,,,null,,,,,,,,,,,,,,,,,,,,
null,,prac_atten_color_black,207194,,black_plus_sign,,,,null,,,,,,,,,,,,,,,,,,,,
349.40000000596046,,prac_atten_color,207924,,prac_stop_color,,,,50,,,,,,,,,,,,,,,,,,,,
null,,prac_atten_color_black,209925,,black_plus_sign,,,,null,,,,,,,,,,,,,,,,,,,,
null,,prac_atten_color_black,210598,,black_plus_sign,,,,null,,,,,,,,,,,,,,,,,,,,
465.7000000178814,,prac_atten_color,211130,,prac_stop_color,,,,49,,,,,,,,,,,,,,,,,,,,
null,,prac_atten_color_black,213132,,black_plus_sign,,,,null,,,,,,,,,,,,,,,,,,,,
null,,prac_atten_color_black,214012,,black_plus_sign,,,,null,,,,,,,,,,,,,,,,,,,,
null,,prac_atten_color,214599,,prac_stop_color,,,,null,,,,,,,,,,,,,,,,,,,,
18.80000001192093,,prac_atten_color_black,216601,,black_plus_sign,,,,49,,,,,,,,,,,,,,,,,,,,
8151.700000017881,,attentioncheck_feedback,224754,,cross_check_feedback,,0,,,,,,,,,,,,,,,,,,,,,,
24124.29999998212,,last_instruct,248878,,instruct,,,,32,,,,,,,,,,,,,,,,,,,,
null,,learn_phase(without_color),251880,,black_plus_sign,,,,null,GW/carmel.png,GW/leesburg.png,,,,,,,,,,,,,,,,,,
null,,black_cross(without_color),252604,,blue,,,,null,GW/carmel.png,GW/leesburg.png,,,,,,,,,,,,,,,,,,
null,,rt_plussign_withcolor,253106,,blue,,,,null,GW/carmel.png,GW/leesburg.png,,,,,,,,,,,,,,,,,,
1117.5,,rt_thecrossant_black,254384,,black_plus_sign,,,,49,,,1,1,,,,,,,,,,,,,,,,
null,,color_black,254499,,black_plus_sign,,,,null,,,,,,,,,,,,,,,,,,,,
null,,learn_phase(without_color),257501,,black_plus_sign,,,,null,GW/huntsville.png,GW/shreveport.png,,,,,,,,,,,,,,,,,,
null,,black_cross(without_color),258146,,yellow,,,,null,GW/huntsville.png,GW/shreveport.png,,,,,,,,,,,,,,,,,,
null,,rt_plussign_withcolor,258647,,yellow,,,,null,GW/huntsville.png,GW/shreveport.png,,,,,,,,,,,,,,,,,,
924.6000000238419,,rt_thecrossant_black,260004,,black_plus_sign,,,,50,,,1,1,,,,,,,,,,,,,,,,
null,,color_black,260106,,black_plus_sign,,,,null,,,,,,,,,,,,,,,,,,,,
null,,learn_phase(without_color),263108,,black_plus_sign,,,,null,GW/carmel.png,GW/leesburg.png,,,,,,,,,,,,,,,,,,
null,,black_cross(without_color),263525,,blue,,,,null,GW/carmel.png,GW/leesburg.png,,,,,,,,,,,,,,,,,,
null,,rt_plussign_withcolor,264026,,blue,,,,null,GW/carmel.png,GW/leesburg.png,,,,,,,,,,,,,,,,,,
879.2999999821186,,rt_thecrossant_black,265612,,black_plus_sign,,,,49,,,1,1,,,,,,,,,,,,,,,,
null,,color_black,265714,,black_plus_sign,,,,null,,,,,,,,,,,,,,,,,,,,
null,,learn_phase(without_color),268715,,black_plus_sign,,,,null,GW/cornwall.png,GW/gatlinburg.png,,,,,,,,,,,,,,,,,,
null,,black_cross(without_color),269617,,yellow,,,,null,GW/cornwall.png,GW/gatlinburg.png,,,,,,,,,,,,,,,,,,
402.5,,rt_plussign_withcolor,270117,,yellow,,,,50,GW/cornwall.png,GW/gatlinburg.png,,,,,,,,,,,,,,,,,,
null,,rt_thecrossant_black,271218,,black_plus_sign,,,,null,,,1,1,,,,,,,,,,,,,,,,
null,,color_black,271320,,black_plus_sign,,,,null,,,,,,,,,,,,,,,,,,,,
null,,learn_phase(without_color),274322,,black_plus_sign,,,,null,GW/carmel.png,GW/leesburg.png,,,,,,,,,,,,,,,,,,
null,,black_cross(without_color),274753,,yellow,,,,null,GW/carmel.png,GW/leesburg.png,,,,,,,,,,,,,,,,,,
472,,rt_plussign_withcolor,275254,,yellow,,,,50,GW/carmel.png,GW/leesburg.png,,,,,,,,,,,,,,,,,,
null,,rt_thecrossant_black,276827,,black_plus_sign,,,,null,,,1,1,,,,,,,,,,,,,,,,
null,,color_black,276928,,black_plus_sign,,,,null,,,,,,,,,,,,,,,,,,,,
null,,learn_phase(without_color),279930,,black_plus_sign,,,,null,GW/hotsprings.png,GW/peoria.png,,,,,,,,,,,,,,,,,,
null,,black_cross(without_color),280684,,blue,,,,null,GW/hotsprings.png,GW/peoria.png,,,,,,,,,,,,,,,,,,
464.5,,rt_plussign_withcolor,281185,,blue,,,,49,GW/hotsprings.png,GW/peoria.png,,,,,,,,,,,,,,,,,,
null,,rt_thecrossant_black,282433,,black_plus_sign,,,,null,,,1,1,,,,,,,,,,,,,,,,
null,,color_black,282538,,black_plus_sign,,,,null,,,,,,,,,,,,,,,,,,,,
null,,learn_phase(without_color),285540,,black_plus_sign,,,,null,GW/huntsville.png,GW/shreveport.png,,,,,,,,,,,,,,,,,,
null,,black_cross(without_color),286120,,blue,,,,null,GW/huntsville.png,GW/shreveport.png,,,,,,,,,,,,,,,,,,
456.09999999403954,,rt_plussign_withcolor,286621,,blue,,,,49,GW/huntsville.png,GW/shreveport.png,,,,,,,,,,,,,,,,,,
null,,rt_thecrossant_black,288043,,black_plus_sign,,,,null,,,1,1,,,,,,,,,,,,,,,,
null,,color_black,288145,,black_plus_sign,,,,null,,,,,,,,,,,,,,,,,,,,
null,,learn_phase(without_color),291147,,black_plus_sign,,,,null,GW/hotsprings.png,GW/peoria.png,,,,,,,,,,,,,,,,,,
null,,black_cross(without_color),291573,,yellow,,,,null,GW/hotsprings.png,GW/peoria.png,,,,,,,,,,,,,,,,,,
496,,rt_plussign_withcolor,292074,,yellow,,,,50,GW/hotsprings.png,GW/peoria.png,,,,,,,,,,,,,,,,,,
null,,rt_thecrossant_black,293651,,black_plus_sign,,,,null,,,1,1,,,,,,,,,,,,,,,,
null,,color_black,293752,,black_plus_sign,,,,null,,,,,,,,,,,,,,,,,,,,
null,,learn_phase(without_color),296753,,black_plus_sign,,,,null,GW/cornwall.png,GW/gatlinburg.png,,,,,,,,,,,,,,,,,,
null,,black_cross(without_color),297462,,blue,,,,null,GW/cornwall.png,GW/gatlinburg.png,,,,,,,,,,,,,,,,,,
381.90000000596046,,rt_plussign_withcolor,297963,,blue,,,,50,GW/cornwall.png,GW/gatlinburg.png,,,,,,,,,,,,,,,,,,
null,,rt_thecrossant_black,299257,,black_plus_sign,,,,null,,,0,0.8888888888888888,,,,,,,,,,,,,,,,
null,,color_black,299358,,black_plus_sign,,,,null,,,,,,,,,,,,,,,,,,,,
null,,learn_phase(without_color),302360,,black_plus_sign,,,,null,GW/peoria.png,GW/hotsprings.png,,,,,,,,,,,,,,,,,,
null,,black_cross(without_color),303287,,yellow,,,,null,GW/peoria.png,GW/hotsprings.png,,,,,,,,,,,,,,,,,,
null,,rt_plussign_withcolor,303788,,yellow,,,,null,GW/peoria.png,GW/hotsprings.png,,,,,,,,,,,,,,,,,,
952.5999999940395,,rt_thecrossant_black,304873,,black_plus_sign,,,,50,,,1,0.9,,,,,,,,,,,,,,,,
null,,color_black,304974,,black_plus_sign,,,,null,,,,,,,,,,,,,,,,,,,,
null,,learn_phase(without_color),307976,,black_plus_sign,,,,null,GW/huntsville.png,GW/shreveport.png,,,,,,,,,,,,,,,,,,
null,,black_cross(without_color),308664,,blue,,,,null,GW/huntsville.png,GW/shreveport.png,,,,,,,,,,,,,,,,,,
null,,rt_plussign_withcolor,309165,,blue,,,,null,GW/huntsville.png,GW/shreveport.png,,,,,,,,,,,,,,,,,,
1093.800000011921,,rt_thecrossant_black,310480,,black_plus_sign,,,,49,,,1,0.9090909090909091,,,,,,,,,,,,,,,,
null,,color_black,310582,,black_plus_sign,,,,null,,,,,,,,,,,,,,,,,,,,
null,,learn_phase(without_color),313584,,black_plus_sign,,,,null,GW/leesburg.png,GW/carmel.png,,,,,,,,,,,,,,,,,,
null,,black_cross(without_color),314360,,blue,,,,null,GW/leesburg.png,GW/carmel.png,,,,,,,,,,,,,,,,,,
null,,rt_plussign_withcolor,314861,,blue,,,,null,GW/leesburg.png,GW/carmel.png,,,,,,,,,,,,,,,,,,
803.5999999940395,,rt_thecrossant_black,316087,,black_plus_sign,,,,49,,,1,0.9166666666666666,,,,,,,,,,,,,,,,
null,,color_black,316188,,black_plus_sign,,,,null,,,,,,,,,,,,,,,,,,,,
null,,learn_phase(without_color),319191,,black_plus_sign,,,,null,GW/huntsville.png,GW/shreveport.png,,,,,,,,,,,,,,,,,,
null,,black_cross(without_color),320186,,yellow,,,,null,GW/huntsville.png,GW/shreveport.png,,,,,,,,,,,,,,,,,,
355.69999998807907,,rt_plussign_withcolor,320687,,yellow,,,,50,GW/huntsville.png,GW/shreveport.png,,,,,,,,,,,,,,,,,,
null,,rt_thecrossant_black,321694,,black_plus_sign,,,,null,,,1,0.9230769230769231,,,,,,,,,,,,,,,,
null,,color_black,321795,,black_plus_sign,,,,null,,,,,,,,,,,,,,,,,,,,
null,,learn_phase(without_color),324796,,black_plus_sign,,,,null,GW/cornwall.png,GW/gatlinburg.png,,,,,,,,,,,,,,,,,,
null,,black_cross(without_color),325842,,blue,,,,null,GW/cornwall.png,GW/gatlinburg.png,,,,,,,,,,,,,,,,,,
433.80000001192093,,rt_plussign_withcolor,326343,,blue,,,,49,GW/cornwall.png,GW/gatlinburg.png,,,,,,,,,,,,,,,,,,
null,,rt_thecrossant_black,327299,,black_plus_sign,,,,null,,,1,0.9285714285714286,,,,,,,,,,,,,,,,
null,,color_black,327401,,black_plus_sign,,,,null,,,,,,,,,,,,,,,,,,,,
null,,learn_phase(without_color),330402,,black_plus_sign,,,,null,GW/carmel.png,GW/leesburg.png,,,,,,,,,,,,,,,,,,
null,,black_cross(without_color),331175,,blue,,,,null,GW/carmel.png,GW/leesburg.png,,,,,,,,,,,,,,,,,,
448.59999999403954,,rt_plussign_withcolor,331676,,blue,,,,49,GW/carmel.png,GW/leesburg.png,,,,,,,,,,,,,,,,,,
null,,rt_thecrossant_black,332908,,black_plus_sign,,,,null,,,1,0.9333333333333333,,,,,,,,,,,,,,,,
null,,color_black,333010,,black_plus_sign,,,,null,,,,,,,,,,,,,,,,,,,,
null,,learn_phase(without_color),336011,,black_plus_sign,,,,null,GW/peoria.png,GW/hotsprings.png,,,,,,,,,,,,,,,,,,
null,,black_cross(without_color),336893,,yellow,,,,null,GW/peoria.png,GW/hotsprings.png,,,,,,,,,,,,,,,,,,
null,,rt_plussign_withcolor,337394,,yellow,,,,null,GW/peoria.png,GW/hotsprings.png,,,,,,,,,,,,,,,,,,
909.7000000178814,,rt_thecrossant_black,338515,,black_plus_sign,,,,50,,,1,0.9375,,,,,,,,,,,,,,,,
null,,color_black,338617,,black_plus_sign,,,,null,,,,,,,,,,,,,,,,,,,,
null,,learn_phase(without_color),341619,,black_plus_sign,,,,null,GW/huntsville.png,GW/shreveport.png,,,,,,,,,,,,,,,,,,
null,,black_cross(without_color),342353,,yellow,,,,null,GW/huntsville.png,GW/shreveport.png,,,,,,,,,,,,,,,,,,
484.09999999403954,,rt_plussign_withcolor,342854,,yellow,,,,50,GW/huntsville.png,GW/shreveport.png,,,,,,,,,,,,,,,,,,
null,,rt_thecrossant_black,344122,,black_plus_sign,,,,null,,,1,0.9411764705882353,,,,,,,,,,,,,,,,
null,,color_black,344224,,black_plus_sign,,,,null,,,,,,,,,,,,,,,,,,,,
null,,learn_phase(without_color),347225,,black_plus_sign,,,,null,GW/carmel.png,GW/leesburg.png,,,,,,,,,,,,,,,,,,
null,,black_cross(without_color),347705,,yellow,,,,null,GW/carmel.png,GW/leesburg.png,,,,,,,,,,,,,,,,,,
null,,rt_plussign_withcolor,348206,,yellow,,,,null,GW/carmel.png,GW/leesburg.png,,,,,,,,,,,,,,,,,,
859.4000000059605,,rt_thecrossant_black,349729,,black_plus_sign,,,,50,,,1,0.9444444444444444,,,,,,,,,,,,,,,,
null,,color_black,349831,,black_plus_sign,,,,null,,,,,,,,,,,,,,,,,,,,
null,,learn_phase(without_color),352832,,black_plus_sign,,,,null,GW/huntsville.png,GW/shreveport.png,,,,,,,,,,,,,,,,,,
null,,black_cross(without_color),353885,,blue,,,,null,GW/huntsville.png,GW/shreveport.png,,,,,,,,,,,,,,,,,,
377.7999999821186,,rt_plussign_withcolor,354387,,blue,,,,49,GW/huntsville.png,GW/shreveport.png,,,,,,,,,,,,,,,,,,
null,,rt_thecrossant_black,355340,,black_plus_sign,,,,49,,,1,0.9473684210526315,,,,,,,,,,,,,,,,
null,,color_black,355441,,black_plus_sign,,,,null,,,,,,,,,,,,,,,,,,,,
null,,learn_phase(without_color),358442,,black_plus_sign,,,,null,GW/carmel.png,GW/leesburg.png,,,,,,,,,,,,,,,,,,
null,,black_cross(without_color),359345,,blue,,,,null,GW/carmel.png,GW/leesburg.png,,,,,,,,,,,,,,,,,,
466.2999999821186,,rt_plussign_withcolor,359846,,blue,,,,49,GW/carmel.png,GW/leesburg.png,,,,,,,,,,,,,,,,,,
null,,rt_thecrossant_black,360947,,black_plus_sign,,,,null,,,1,0.95,,,,,,,,,,,,,,,,
null,,color_black,361048,,black_plus_sign,,,,null,,,,,,,,,,,,,,,,,,,,
null,,learn_phase(without_color),364050,,black_plus_sign,,,,null,GW/gatlinburg.png,GW/cornwall.png,,,,,,,,,,,,,,,,,,
null,,black_cross(without_color),364542,,yellow,,,,null,GW/gatlinburg.png,GW/cornwall.png,,,,,,,,,,,,,,,,,,
null,,rt_plussign_withcolor,365042,,yellow,,,,null,GW/gatlinburg.png,GW/cornwall.png,,,,,,,,,,,,,,,,,,
1216.199999988079,,rt_thecrossant_black,366553,,black_plus_sign,,,,50,,,1,0.9523809523809523,,,,,,,,,,,,,,,,
null,,color_black,366655,,black_plus_sign,,,,null,,,,,,,,,,,,,,,,,,,,
null,,learn_phase(without_color),369655,,black_plus_sign,,,,null,GW/leesburg.png,GW/carmel.png,,,,,,,,,,,,,,,,,,
null,,black_cross(without_color),370520,,yellow,,,,null,GW/leesburg.png,GW/carmel.png,,,,,,,,,,,,,,,,,,
350.19999998807907,,rt_plussign_withcolor,371021,,yellow,,,,50,GW/leesburg.png,GW/carmel.png,,,,,,,,,,,,,,,,,,
null,,rt_thecrossant_black,372160,,black_plus_sign,,,,null,,,1,0.9545454545454546,,,,,,,,,,,,,,,,
null,,color_black,372262,,black_plus_sign,,,,null,,,,,,,,,,,,,,,,,,,,
null,,learn_phase(without_color),375263,,black_plus_sign,,,,null,GW/cornwall.png,GW/gatlinburg.png,,,,,,,,,,,,,,,,,,
null,,black_cross(without_color),376336,,yellow,,,,null,GW/cornwall.png,GW/gatlinburg.png,,,,,,,,,,,,,,,,,,
377.59999999403954,,rt_plussign_withcolor,376837,,yellow,,,,50,GW/cornwall.png,GW/gatlinburg.png,,,,,,,,,,,,,,,,,,
null,,rt_thecrossant_black,377774,,black_plus_sign,,,,null,,,1,0.9565217391304348,,,,,,,,,,,,,,,,
null,,color_black,377876,,black_plus_sign,,,,null,,,,,,,,,,,,,,,,,,,,
null,,learn_phase(without_color),380878,,black_plus_sign,,,,null,GW/peoria.png,GW/hotsprings.png,,,,,,,,,,,,,,,,,,
null,,black_cross(without_color),381334,,blue,,,,null,GW/peoria.png,GW/hotsprings.png,,,,,,,,,,,,,,,,,,
null,,rt_plussign_withcolor,381836,,blue,,,,null,GW/peoria.png,GW/hotsprings.png,,,,,,,,,,,,,,,,,,
1292.0999999940395,,rt_thecrossant_black,383381,,black_plus_sign,,,,49,,,1,0.9583333333333334,,,,,,,,,,,,,,,,
null,,color_black,383483,,black_plus_sign,,,,null,,,,,,,,,,,,,,,,,,,,
null,,learn_phase(without_color),386484,,black_plus_sign,,,,null,GW/shreveport.png,GW/huntsville.png,,,,,,,,,,,,,,,,,,
null,,black_cross(without_color),387432,,yellow,,,,null,GW/shreveport.png,GW/huntsville.png,,,,,,,,,,,,,,,,,,
398,,rt_plussign_withcolor,387933,,yellow,,,,50,GW/shreveport.png,GW/huntsville.png,,,,,,,,,,,,,,,,,,
null,,rt_thecrossant_black,388987,,black_plus_sign,,,,null,,,1,0.96,,,,,,,,,,,,,,,,
null,,color_black,389088,,black_plus_sign,,,,null,,,,,,,,,,,,,,,,,,,,
null,,learn_phase(without_color),392090,,black_plus_sign,,,,null,GW/peoria.png,GW/hotsprings.png,,,,,,,,,,,,,,,,,,
null,,black_cross(without_color),392703,,blue,,,,null,GW/peoria.png,GW/hotsprings.png,,,,,,,,,,,,,,,,,,
null,,rt_plussign_withcolor,393204,,blue,,,,null,GW/peoria.png,GW/hotsprings.png,,,,,,,,,,,,,,,,,,
1063.199999988079,,rt_thecrossant_black,394593,,black_plus_sign,,,,49,,,1,0.9615384615384616,,,,,,,,,,,,,,,,
null,,color_black,394693,,black_plus_sign,,,,null,,,,,,,,,,,,,,,,,,,,
null,,learn_phase(without_color),397696,,black_plus_sign,,,,null,GW/cornwall.png,GW/gatlinburg.png,,,,,,,,,,,,,,,,,,
null,,black_cross(without_color),398599,,yellow,,,,null,GW/cornwall.png,GW/gatlinburg.png,,,,,,,,,,,,,,,,,,
447.59999999403954,,rt_plussign_withcolor,399100,,yellow,,,,50,GW/cornwall.png,GW/gatlinburg.png,,,,,,,,,,,,,,,,,,
null,,rt_thecrossant_black,400200,,black_plus_sign,,,,null,,,1,0.9629629629629629,,,,,,,,,,,,,,,,
null,,color_black,400301,,black_plus_sign,,,,null,,,,,,,,,,,,,,,,,,,,
null,,learn_phase(without_color),403302,,black_plus_sign,,,,null,GW/shreveport.png,GW/huntsville.png,,,,,,,,,,,,,,,,,,
null,,black_cross(without_color),404134,,blue,,,,null,GW/shreveport.png,GW/huntsville.png,,,,,,,,,,,,,,,,,,
341,,rt_plussign_withcolor,404634,,blue,,,,49,GW/shreveport.png,GW/huntsville.png,,,,,,,,,,,,,,,,,,
null,,rt_thecrossant_black,405805,,black_plus_sign,,,,null,,,1,0.9642857142857143,,,,,,,,,,,,,,,,
null,,color_black,405906,,black_plus_sign,,,,null,,,,,,,,,,,,,,,,,,,,
null,,learn_phase(without_color),408908,,black_plus_sign,,,,null,GW/peoria.png,GW/hotsprings.png,,,,,,,,,,,,,,,,,,
null,,black_cross(without_color),409784,,yellow,,,,null,GW/peoria.png,GW/hotsprings.png,,,,,,,,,,,,,,,,,,
419.90000000596046,,rt_plussign_withcolor,410300,,yellow,,,,50,GW/peoria.png,GW/hotsprings.png,,,,,,,,,,,,,,,,,,
null,,rt_thecrossant_black,411427,,black_plus_sign,,,,null,,,1,0.9655172413793104,,,,,,,,,,,,,,,,
null,,color_black,411530,,black_plus_sign,,,,null,,,,,,,,,,,,,,,,,,,,
null,,learn_phase(without_color),414532,,black_plus_sign,,,,null,GW/gatlinburg.png,GW/cornwall.png,,,,,,,,,,,,,,,,,,
null,,black_cross(without_color),414980,,blue,,,,null,GW/gatlinburg.png,GW/cornwall.png,,,,,,,,,,,,,,,,,,
500.19999998807907,,rt_plussign_withcolor,415481,,blue,,,,49,GW/gatlinburg.png,GW/cornwall.png,,,,,,,,,,,,,,,,,,
null,,rt_thecrossant_black,417037,,black_plus_sign,,,,null,,,1,0.9666666666666667,,,,,,,,,,,,,,,,
null,,color_black,417138,,black_plus_sign,,,,null,,,,,,,,,,,,,,,,,,,,
null,,learn_phase(without_color),420140,,black_plus_sign,,,,null,GW/hotsprings.png,GW/peoria.png,,,,,,,,,,,,,,,,,,
null,,black_cross(without_color),420931,,blue,,,,null,GW/hotsprings.png,GW/peoria.png,,,,,,,,,,,,,,,,,,
null,,rt_plussign_withcolor,421432,,blue,,,,null,GW/hotsprings.png,GW/peoria.png,,,,,,,,,,,,,,,,,,
607.9000000059605,,rt_thecrossant_black,422644,,black_plus_sign,,,,49,,,1,0.967741935483871,,,,,,,,,,,,,,,,
null,,color_black,422745,,black_plus_sign,,,,null,,,,,,,,,,,,,,,,,,,,
null,,learn_phase(without_color),425747,,black_plus_sign,,,,null,GW/gatlinburg.png,GW/cornwall.png,,,,,,,,,,,,,,,,,,
null,,black_cross(without_color),426810,,blue,,,,null,GW/gatlinburg.png,GW/cornwall.png,,,,,,,,,,,,,,,,,,
441.59999999403954,,rt_plussign_withcolor,427312,,blue,,,,49,GW/gatlinburg.png,GW/cornwall.png,,,,,,,,,,,,,,,,,,
null,,rt_thecrossant_black,428252,,black_plus_sign,,,,null,,,1,0.96875,,,,,,,,,,,,,,,,
null,,color_black,428354,,black_plus_sign,,,,null,,,,,,,,,,,,,,,,,,,,
null,,learn_phase(without_color),431356,,black_plus_sign,,,,null,GW/racine.png,GW/peoria.png,,,,,,,,,,,,,,,,,,
null,,black_cross(without_color),431937,,yellow,,,,null,GW/racine.png,GW/peoria.png,,,,,,,,,,,,,,,,,,
497.19999998807907,,rt_plussign_withcolor,432438,,yellow,,,,50,GW/racine.png,GW/peoria.png,,,,,,,,,,,,,,,,,,
null,,rt_thecrossant_black,433861,,black_plus_sign,,,,null,,,1,0.9696969696969697,,,,,,,,,,,,,,,,
null,,color_black,433962,,black_plus_sign,,,,null,,,,,,,,,,,,,,,,,,,,
null,,learn_phase(without_color),436963,,black_plus_sign,,,,null,GW/boulder.png,GW/newhope.png,,,,,,,,,,,,,,,,,,
null,,black_cross(without_color),437737,,blue,,,,null,GW/boulder.png,GW/newhope.png,,,,,,,,,,,,,,,,,,
null,,rt_plussign_withcolor,438238,,blue,,,,null,GW/boulder.png,GW/newhope.png,,,,,,,,,,,,,,,,,,
871.3000000119209,,rt_thecrossant_black,439468,,black_plus_sign,,,,50,,,0,0.9411764705882353,,,,,,,,,,,,,,,,
null,,color_black,439569,,black_plus_sign,,,,null,,,,,,,,,,,,,,,,,,,,
null,,learn_phase(without_color),442571,,black_plus_sign,,,,null,GW/huntsville.png,GW/westpalmbeach.png,,,,,,,,,,,,,,,,,,
null,,black_cross(without_color),443474,,yellow,,,,null,GW/huntsville.png,GW/westpalmbeach.png,,,,,,,,,,,,,,,,,,
495,,rt_plussign_withcolor,443975,,yellow,,,,50,GW/huntsville.png,GW/westpalmbeach.png,,,,,,,,,,,,,,,,,,
null,,rt_thecrossant_black,445074,,black_plus_sign,,,,null,,,1,0.9428571428571428,,,,,,,,,,,,,,,,
null,,color_black,445179,,black_plus_sign,,,,null,,,,,,,,,,,,,,,,,,,,
null,,learn_phase(without_color),448182,,black_plus_sign,,,,null,GW/racine.png,GW/peoria.png,,,,,,,,,,,,,,,,,,
null,,black_cross(without_color),448977,,blue,,,,null,GW/racine.png,GW/peoria.png,,,,,,,,,,,,,,,,,,
null,,rt_plussign_withcolor,449478,,blue,,,,null,GW/racine.png,GW/peoria.png,,,,,,,,,,,,,,,,,,
1202.5999999940395,,rt_thecrossant_black,450687,,black_plus_sign,,,,50,,,0,0.9166666666666666,,,,,,,,,,,,,,,,
null,,color_black,450788,,black_plus_sign,,,,null,,,,,,,,,,,,,,,,,,,,
null,,learn_phase(without_color),453790,,black_plus_sign,,,,null,GW/cornwall.png,GW/shreveport.png,,,,,,,,,,,,,,,,,,
null,,black_cross(without_color),454255,,blue,,,,null,GW/cornwall.png,GW/shreveport.png,,,,,,,,,,,,,,,,,,
459.59999999403954,,rt_plussign_withcolor,454757,,blue,,,,49,GW/cornwall.png,GW/shreveport.png,,,,,,,,,,,,,,,,,,
null,,rt_thecrossant_black,456294,,black_plus_sign,,,,null,,,1,0.918918918918919,,,,,,,,,,,,,,,,
null,,color_black,456396,,black_plus_sign,,,,null,,,,,,,,,,,,,,,,,,,,
null,,learn_phase(without_color),459398,,black_plus_sign,,,,null,GW/huntsville.png,GW/westpalmbeach.png,,,,,,,,,,,,,,,,,,
null,,black_cross(without_color),460419,,yellow,,,,null,GW/huntsville.png,GW/westpalmbeach.png,,,,,,,,,,,,,,,,,,
325.59999999403954,,rt_plussign_withcolor,460920,,yellow,,,,50,GW/huntsville.png,GW/westpalmbeach.png,,,,,,,,,,,,,,,,,,
null,,rt_thecrossant_black,461901,,black_plus_sign,,,,null,,,1,0.9210526315789473,,,,,,,,,,,,,,,,
null,,color_black,462004,,black_plus_sign,,,,null,,,,,,,,,,,,,,,,,,,,
null,,learn_phase(without_color),465006,,black_plus_sign,,,,null,GW/boulder.png,GW/newhope.png,,,,,,,,,,,,,,,,,,
null,,black_cross(without_color),465581,,yellow,,,,null,GW/boulder.png,GW/newhope.png,,,,,,,,,,,,,,,,,,
null,,rt_plussign_withcolor,466082,,yellow,,,,null,GW/boulder.png,GW/newhope.png,,,,,,,,,,,,,,,,,,
1150.5999999940395,,rt_thecrossant_black,467511,,black_plus_sign,,,,50,,,1,0.9230769230769231,,,,,,,,,,,,,,,,
null,,color_black,467612,,black_plus_sign,,,,null,,,,,,,,,,,,,,,,,,,,
null,,learn_phase(without_color),470613,,black_plus_sign,,,,null,GW/cornwall.png,GW/shreveport.png,,,,,,,,,,,,,,,,,,
null,,black_cross(without_color),471023,,blue,,,,null,GW/cornwall.png,GW/shreveport.png,,,,,,,,,,,,,,,,,,
null,,rt_plussign_withcolor,471524,,blue,,,,null,GW/cornwall.png,GW/shreveport.png,,,,,,,,,,,,,,,,,,
777.1999999880791,,rt_thecrossant_black,473117,,black_plus_sign,,,,49,,,1,0.925,,,,,,,,,,,,,,,,
null,,color_black,473218,,black_plus_sign,,,,null,,,,,,,,,,,,,,,,,,,,
null,,learn_phase(without_color),476220,,black_plus_sign,,,,null,GW/westpalmbeach.png,GW/huntsville.png,,,,,,,,,,,,,,,,,,
null,,black_cross(without_color),476692,,yellow,,,,null,GW/westpalmbeach.png,GW/huntsville.png,,,,,,,,,,,,,,,,,,
null,,rt_plussign_withcolor,477194,,yellow,,,,null,GW/westpalmbeach.png,GW/huntsville.png,,,,,,,,,,,,,,,,,,
603.7000000178814,,rt_thecrossant_black,478724,,black_plus_sign,,,,50,,,1,0.926829268292683,,,,,,,,,,,,,,,,
null,,color_black,478841,,black_plus_sign,,,,null,,,,,,,,,,,,,,,,,,,,
null,,learn_phase(without_color),481842,,black_plus_sign,,,,null,GW/newhope.png,GW/boulder.png,,,,,,,,,,,,,,,,,,
null,,black_cross(without_color),482714,,yellow,,,,null,GW/newhope.png,GW/boulder.png,,,,,,,,,,,,,,,,,,
null,,rt_plussign_withcolor,483215,,yellow,,,,null,GW/newhope.png,GW/boulder.png,,,,,,,,,,,,,,,,,,
572,,rt_thecrossant_black,484347,,black_plus_sign,,,,50,,,1,0.9285714285714286,,,,,,,,,,,,,,,,
null,,color_black,484448,,black_plus_sign,,,,null,,,,,,,,,,,,,,,,,,,,
null,,learn_phase(without_color),487450,,black_plus_sign,,,,null,GW/peoria.png,GW/racine.png,,,,,,,,,,,,,,,,,,
null,,black_cross(without_color),488041,,yellow,,,,null,GW/peoria.png,GW/racine.png,,,,,,,,,,,,,,,,,,
null,,rt_plussign_withcolor,488543,,yellow,,,,null,GW/peoria.png,GW/racine.png,,,,,,,,,,,,,,,,,,
987.7000000178814,,rt_thecrossant_black,489954,,black_plus_sign,,,,50,,,1,0.9302325581395349,,,,,,,,,,,,,,,,
null,,color_black,490055,,black_plus_sign,,,,null,,,,,,,,,,,,,,,,,,,,
null,,learn_phase(without_color),493057,,black_plus_sign,,,,null,GW/huntsville.png,GW/westpalmbeach.png,,,,,,,,,,,,,,,,,,
null,,black_cross(without_color),494065,,blue,,,,null,GW/huntsville.png,GW/westpalmbeach.png,,,,,,,,,,,,,,,,,,
419,,rt_plussign_withcolor,494566,,blue,,,,49,GW/huntsville.png,GW/westpalmbeach.png,,,,,,,,,,,,,,,,,,
null,,rt_thecrossant_black,495561,,black_plus_sign,,,,null,,,1,0.9318181818181818,,,,,,,,,,,,,,,,
null,,color_black,495662,,black_plus_sign,,,,null,,,,,,,,,,,,,,,,,,,,
null,,learn_phase(without_color),498664,,black_plus_sign,,,,null,GW/peoria.png,GW/racine.png,,,,,,,,,,,,,,,,,,
null,,black_cross(without_color),499568,,blue,,,,null,GW/peoria.png,GW/racine.png,,,,,,,,,,,,,,,,,,
null,,rt_plussign_withcolor,500070,,blue,,,,null,GW/peoria.png,GW/racine.png,,,,,,,,,,,,,,,,,,
1118.5,,rt_thecrossant_black,501168,,black_plus_sign,,,,49,,,1,0.9333333333333333,,,,,,,,,,,,,,,,
null,,color_black,501270,,black_plus_sign,,,,null,,,,,,,,,,,,,,,,,,,,
null,,learn_phase(without_color),504271,,black_plus_sign,,,,null,GW/newhope.png,GW/boulder.png,,,,,,,,,,,,,,,,,,
null,,black_cross(without_color),504773,,blue,,,,null,GW/newhope.png,GW/boulder.png,,,,,,,,,,,,,,,,,,
null,,rt_plussign_withcolor,505274,,blue,,,,null,GW/newhope.png,GW/boulder.png,,,,,,,,,,,,,,,,,,
1023.5,,rt_thecrossant_black,506775,,black_plus_sign,,,,49,,,1,0.9347826086956522,,,,,,,,,,,,,,,,
null,,color_black,506877,,black_plus_sign,,,,null,,,,,,,,,,,,,,,,,,,,
null,,learn_phase(without_color),509878,,black_plus_sign,,,,null,GW/shreveport.png,GW/cornwall.png,,,,,,,,,,,,,,,,,,
null,,black_cross(without_color),510493,,yellow,,,,null,GW/shreveport.png,GW/cornwall.png,,,,,,,,,,,,,,,,,,
377.40000000596046,,rt_plussign_withcolor,510994,,yellow,,,,50,GW/shreveport.png,GW/cornwall.png,,,,,,,,,,,,,,,,,,
null,,rt_thecrossant_black,512382,,black_plus_sign,,,,null,,,1,0.9361702127659575,,,,,,,,,,,,,,,,
null,,color_black,512483,,black_plus_sign,,,,null,,,,,,,,,,,,,,,,,,,,
null,,learn_phase(without_color),515484,,black_plus_sign,,,,null,GW/westpalmbeach.png,GW/huntsville.png,,,,,,,,,,,,,,,,,,
null,,black_cross(without_color),515933,,yellow,,,,null,GW/westpalmbeach.png,GW/huntsville.png,,,,,,,,,,,,,,,,,,
null,,rt_plussign_withcolor,516434,,yellow,,,,null,GW/westpalmbeach.png,GW/huntsville.png,,,,,,,,,,,,,,,,,,
747.0999999940395,,rt_thecrossant_black,517989,,black_plus_sign,,,,50,,,1,0.9375,,,,,,,,,,,,,,,,
null,,color_black,518090,,black_plus_sign,,,,null,,,,,,,,,,,,,,,,,,,,
null,,learn_phase(without_color),521092,,black_plus_sign,,,,null,GW/newhope.png,GW/boulder.png,,,,,,,,,,,,,,,,,,
null,,black_cross(without_color),521913,,yellow,,,,null,GW/newhope.png,GW/boulder.png,,,,,,,,,,,,,,,,,,
423.2000000178814,,rt_plussign_withcolor,522415,,yellow,,,,50,GW/newhope.png,GW/boulder.png,,,,,,,,,,,,,,,,,,
null,,rt_thecrossant_black,523595,,black_plus_sign,,,,null,,,1,0.9387755102040817,,,,,,,,,,,,,,,,
null,,color_black,523698,,black_plus_sign,,,,null,,,,,,,,,,,,,,,,,,,,
null,,learn_phase(without_color),526700,,black_plus_sign,,,,null,GW/cornwall.png,GW/shreveport.png,,,,,,,,,,,,,,,,,,
null,,black_cross(without_color),527510,,yellow,,,,null,GW/cornwall.png,GW/shreveport.png,,,,,,,,,,,,,,,,,,
500.09999999403954,,rt_plussign_withcolor,528011,,yellow,,,,50,GW/cornwall.png,GW/shreveport.png,,,,,,,,,,,,,,,,,,
null,,rt_thecrossant_black,529204,,black_plus_sign,,,,null,,,1,0.94,,,,,,,,,,,,,,,,
null,,color_black,529319,,black_plus_sign,,,,null,,,,,,,,,,,,,,,,,,,,
null,,learn_phase(without_color),532320,,black_plus_sign,,,,null,GW/boulder.png,GW/newhope.png,,,,,,,,,,,,,,,,,,
null,,black_cross(without_color),532844,,blue,,,,null,GW/boulder.png,GW/newhope.png,,,,,,,,,,,,,,,,,,
null,,rt_plussign_withcolor,533345,,blue,,,,null,GW/boulder.png,GW/newhope.png,,,,,,,,,,,,,,,,,,
1172.0999999940395,,rt_thecrossant_black,534824,,black_plus_sign,,,,49,,,1,0.9411764705882353,,,,,,,,,,,,,,,,
null,,color_black,534930,,black_plus_sign,,,,null,,,,,,,,,,,,,,,,,,,,
null,,learn_phase(without_color),537932,,black_plus_sign,,,,null,GW/shreveport.png,GW/cornwall.png,,,,,,,,,,,,,,,,,,
null,,black_cross(without_color),538675,,yellow,,,,null,GW/shreveport.png,GW/cornwall.png,,,,,,,,,,,,,,,,,,
null,,rt_plussign_withcolor,539175,,yellow,,,,null,GW/shreveport.png,GW/cornwall.png,,,,,,,,,,,,,,,,,,
691.0999999940395,,rt_thecrossant_black,540435,,black_plus_sign,,,,50,,,1,0.9423076923076923,,,,,,,,,,,,,,,,
null,,color_black,540536,,black_plus_sign,,,,null,,,,,,,,,,,,,,,,,,,,
null,,learn_phase(without_color),543537,,black_plus_sign,,,,null,GW/westpalmbeach.png,GW/huntsville.png,,,,,,,,,,,,,,,,,,
null,,black_cross(without_color),544039,,blue,,,,null,GW/westpalmbeach.png,GW/huntsville.png,,,,,,,,,,,,,,,,,,
null,,rt_plussign_withcolor,544541,,blue,,,,null,GW/westpalmbeach.png,GW/huntsville.png,,,,,,,,,,,,,,,,,,
997.6999999880791,,rt_thecrossant_black,546042,,black_plus_sign,,,,49,,,1,0.9433962264150944,,,,,,,,,,,,,,,,
null,,color_black,546144,,black_plus_sign,,,,null,,,,,,,,,,,,,,,,,,,,
null,,learn_phase(without_color),549146,,black_plus_sign,,,,null,GW/peoria.png,GW/racine.png,,,,,,,,,,,,,,,,,,
null,,black_cross(without_color),550145,,yellow,,,,null,GW/peoria.png,GW/racine.png,,,,,,,,,,,,,,,,,,
417.5,,rt_plussign_withcolor,550646,,yellow,,,,50,GW/peoria.png,GW/racine.png,,,,,,,,,,,,,,,,,,
null,,rt_thecrossant_black,551650,,black_plus_sign,,,,null,,,1,0.9444444444444444,,,,,,,,,,,,,,,,
null,,color_black,551751,,black_plus_sign,,,,null,,,,,,,,,,,,,,,,,,,,
null,,learn_phase(without_color),554753,,black_plus_sign,,,,null,GW/cornwall.png,GW/shreveport.png,,,,,,,,,,,,,,,,,,
null,,black_cross(without_color),555360,,blue,,,,null,GW/cornwall.png,GW/shreveport.png,,,,,,,,,,,,,,,,,,
465.40000000596046,,rt_plussign_withcolor,555861,,blue,,,,49,GW/cornwall.png,GW/shreveport.png,,,,,,,,,,,,,,,,,,
null,,rt_thecrossant_black,557257,,black_plus_sign,,,,null,,,1,0.9454545454545454,,,,,,,,,,,,,,,,
null,,color_black,557358,,black_plus_sign,,,,null,,,,,,,,,,,,,,,,,,,,
null,,learn_phase(without_color),560360,,black_plus_sign,,,,null,GW/westpalmbeach.png,GW/huntsville.png,,,,,,,,,,,,,,,,,,
null,,black_cross(without_color),561055,,yellow,,,,null,GW/westpalmbeach.png,GW/huntsville.png,,,,,,,,,,,,,,,,,,
null,,rt_plussign_withcolor,561557,,yellow,,,,null,GW/westpalmbeach.png,GW/huntsville.png,,,,,,,,,,,,,,,,,,
713.6000000238419,,rt_thecrossant_black,562864,,black_plus_sign,,,,50,,,1,0.9464285714285714,,,,,,,,,,,,,,,,
null,,color_black,562966,,black_plus_sign,,,,null,,,,,,,,,,,,,,,,,,,,
null,,learn_phase(without_color),565967,,black_plus_sign,,,,null,GW/shreveport.png,GW/cornwall.png,,,,,,,,,,,,,,,,,,
null,,black_cross(without_color),566860,,blue,,,,null,GW/shreveport.png,GW/cornwall.png,,,,,,,,,,,,,,,,,,
null,,rt_plussign_withcolor,567362,,blue,,,,null,GW/shreveport.png,GW/cornwall.png,,,,,,,,,,,,,,,,,,
820.8000000119209,,rt_thecrossant_black,568471,,black_plus_sign,,,,49,,,1,0.9473684210526315,,,,,,,,,,,,,,,,
null,,color_black,568573,,black_plus_sign,,,,null,,,,,,,,,,,,,,,,,,,,
null,,learn_phase(without_color),571575,,black_plus_sign,,,,null,GW/boulder.png,GW/newhope.png,,,,,,,,,,,,,,,,,,
null,,black_cross(without_color),572402,,blue,,,,null,GW/boulder.png,GW/newhope.png,,,,,,,,,,,,,,,,,,
471.09999999403954,,rt_plussign_withcolor,572902,,blue,,,,49,GW/boulder.png,GW/newhope.png,,,,,,,,,,,,,,,,,,
null,,rt_thecrossant_black,574080,,black_plus_sign,,,,null,,,1,0.9482758620689655,,,,,,,,,,,,,,,,
null,,color_black,574182,,black_plus_sign,,,,null,,,,,,,,,,,,,,,,,,,,
null,,learn_phase(without_color),577184,,black_plus_sign,,,,null,GW/westpalmbeach.png,GW/huntsville.png,,,,,,,,,,,,,,,,,,
null,,black_cross(without_color),578157,,yellow,,,,null,GW/westpalmbeach.png,GW/huntsville.png,,,,,,,,,,,,,,,,,,
458.69999998807907,,rt_plussign_withcolor,578658,,yellow,,,,50,GW/westpalmbeach.png,GW/huntsville.png,,,,,,,,,,,,,,,,,,
null,,rt_thecrossant_black,579688,,black_plus_sign,,,,null,,,1,0.9491525423728814,,,,,,,,,,,,,,,,
null,,color_black,579789,,black_plus_sign,,,,null,,,,,,,,,,,,,,,,,,,,
null,,learn_phase(without_color),582791,,black_plus_sign,,,,null,GW/cornwall.png,GW/shreveport.png,,,,,,,,,,,,,,,,,,
null,,black_cross(without_color),583265,,blue,,,,null,GW/cornwall.png,GW/shreveport.png,,,,,,,,,,,,,,,,,,
null,,rt_plussign_withcolor,583766,,blue,,,,null,GW/cornwall.png,GW/shreveport.png,,,,,,,,,,,,,,,,,,
1116.1000000238419,,rt_thecrossant_black,585295,,black_plus_sign,,,,50,,,0,0.9333333333333333,,,,,,,,,,,,,,,,
null,,color_black,585397,,black_plus_sign,,,,null,,,,,,,,,,,,,,,,,,,,
null,,learn_phase(without_color),588398,,black_plus_sign,,,,null,GW/peoria.png,GW/racine.png,,,,,,,,,,,,,,,,,,
null,,black_cross(without_color),588907,,blue,,,,null,GW/peoria.png,GW/racine.png,,,,,,,,,,,,,,,,,,
356.7999999821186,,rt_plussign_withcolor,589409,,blue,,,,49,GW/peoria.png,GW/racine.png,,,,,,,,,,,,,,,,,,
null,,rt_thecrossant_black,590902,,black_plus_sign,,,,null,,,1,0.9344262295081968,,,,,,,,,,,,,,,,
null,,color_black,591003,,black_plus_sign,,,,null,,,,,,,,,,,,,,,,,,,,
null,,learn_phase(without_color),594005,,black_plus_sign,,,,null,GW/peoria.png,GW/racine.png,,,,,,,,,,,,,,,,,,
null,,black_cross(without_color),595020,,yellow,,,,null,GW/peoria.png,GW/racine.png,,,,,,,,,,,,,,,,,,
356.5,,rt_plussign_withcolor,595521,,yellow,,,,50,GW/peoria.png,GW/racine.png,,,,,,,,,,,,,,,,,,
null,,rt_thecrossant_black,596509,,black_plus_sign,,,,null,,,1,0.9354838709677419,,,,,,,,,,,,,,,,
null,,color_black,596611,,black_plus_sign,,,,null,,,,,,,,,,,,,,,,,,,,
null,,learn_phase(without_color),599613,,black_plus_sign,,,,null,GW/boulder.png,GW/newhope.png,,,,,,,,,,,,,,,,,,
null,,black_cross(without_color),600661,,blue,,,,null,GW/boulder.png,GW/newhope.png,,,,,,,,,,,,,,,,,,
null,,rt_plussign_withcolor,601162,,blue,,,,null,GW/boulder.png,GW/newhope.png,,,,,,,,,,,,,,,,,,
1125.2000000178814,,rt_thecrossant_black,602123,,black_plus_sign,,,,49,,,1,0.9365079365079365,,,,,,,,,,,,,,,,
null,,color_black,602224,,black_plus_sign,,,,null,,,,,,,,,,,,,,,,,,,,
null,,learn_phase(without_color),605225,,black_plus_sign,,,,null,GW/racine.png,GW/peoria.png,,,,,,,,,,,,,,,,,,
null,,black_cross(without_color),606039,,blue,,,,null,GW/racine.png,GW/peoria.png,,,,,,,,,,,,,,,,,,
null,,rt_plussign_withcolor,606540,,blue,,,,null,GW/racine.png,GW/peoria.png,,,,,,,,,,,,,,,,,,
1195.5,,rt_thecrossant_black,607728,,black_plus_sign,,,,49,,,1,0.9375,,,,,,,,,,,,,,,,
null,,color_black,607830,,black_plus_sign,,,,null,,,,,,,,,,,,,,,,,,,,
5383,,learn_break,613214,,learn_break,,,,32,,,,,,,,,,,,,,,,,,,,
null,,html-keyboard-response,614216,,<p></p>,,,,null,,,,,,,,,,,,,,,,,,,,
null,,learn_phase(without_color),617217,,black_plus_sign,,,,null,GW/hotsprings.png,GW/gatlinburg.png,,,,,,,,,,,,,,,,,,
null,,black_cross(without_color),617847,,yellow,,,,null,GW/hotsprings.png,GW/gatlinburg.png,,,,,,,,,,,,,,,,,,
438.80000001192093,,rt_plussign_withcolor,618348,,yellow,,,,50,GW/hotsprings.png,GW/gatlinburg.png,,,,,,,,,,,,,,,,,,
null,,rt_thecrossant_black,619720,,black_plus_sign,,,,null,,,1,0.9384615384615385,,,,,,,,,,,,,,,,
null,,color_black,619821,,black_plus_sign,,,,null,,,,,,,,,,,,,,,,,,,,
null,,learn_phase(without_color),622823,,black_plus_sign,,,,null,GW/boulder.png,GW/westpalmbeach.png,,,,,,,,,,,,,,,,,,
null,,black_cross(without_color),623331,,yellow,,,,null,GW/boulder.png,GW/westpalmbeach.png,,,,,,,,,,,,,,,,,,
null,,rt_plussign_withcolor,623832,,yellow,,,,null,GW/boulder.png,GW/westpalmbeach.png,,,,,,,,,,,,,,,,,,
762.8000000119209,,rt_thecrossant_black,625326,,black_plus_sign,,,,50,,,1,0.9393939393939394,,,,,,,,,,,,,,,,
null,,color_black,625428,,black_plus_sign,,,,null,,,,,,,,,,,,,,,,,,,,
null,,learn_phase(without_color),628430,,black_plus_sign,,,,null,GW/huntsville.png,GW/cornwall.png,,,,,,,,,,,,,,,,,,
null,,black_cross(without_color),628970,,yellow,,,,null,GW/huntsville.png,GW/cornwall.png,,,,,,,,,,,,,,,,,,
null,,rt_plussign_withcolor,629471,,yellow,,,,null,GW/huntsville.png,GW/cornwall.png,,,,,,,,,,,,,,,,,,
643.3000000119209,,rt_thecrossant_black,630935,,black_plus_sign,,,,50,,,1,0.9402985074626866,,,,,,,,,,,,,,,,
null,,color_black,631037,,black_plus_sign,,,,null,,,,,,,,,,,,,,,,,,,,
null,,learn_phase(without_color),634038,,black_plus_sign,,,,null,GW/shreveport.png,GW/leesburg.png,,,,,,,,,,,,,,,,,,
null,,black_cross(without_color),634824,,yellow,,,,null,GW/shreveport.png,GW/leesburg.png,,,,,,,,,,,,,,,,,,
487,,rt_plussign_withcolor,635324,,yellow,,,,50,GW/shreveport.png,GW/leesburg.png,,,,,,,,,,,,,,,,,,
null,,rt_thecrossant_black,636542,,black_plus_sign,,,,null,,,1,0.9411764705882353,,,,,,,,,,,,,,,,
null,,color_black,636644,,black_plus_sign,,,,null,,,,,,,,,,,,,,,,,,,,
null,,learn_phase(without_color),639645,,black_plus_sign,,,,null,GW/gatlinburg.png,GW/hotsprings.png,,,,,,,,,,,,,,,,,,
null,,black_cross(without_color),640410,,yellow,,,,null,GW/gatlinburg.png,GW/hotsprings.png,,,,,,,,,,,,,,,,,,
424.2999999821186,,rt_plussign_withcolor,640915,,yellow,,,,50,GW/gatlinburg.png,GW/hotsprings.png,,,,,,,,,,,,,,,,,,
null,,rt_thecrossant_black,642153,,black_plus_sign,,,,null,,,1,0.9420289855072463,,,,,,,,,,,,,,,,
null,,color_black,642255,,black_plus_sign,,,,null,,,,,,,,,,,,,,,,,,,,
null,,learn_phase(without_color),645256,,black_plus_sign,,,,null,GW/huntsville.png,GW/cornwall.png,,,,,,,,,,,,,,,,,,
null,,black_cross(without_color),645757,,blue,,,,null,GW/huntsville.png,GW/cornwall.png,,,,,,,,,,,,,,,,,,
461.5,,rt_plussign_withcolor,646258,,blue,,,,49,GW/huntsville.png,GW/cornwall.png,,,,,,,,,,,,,,,,,,
null,,rt_thecrossant_black,647760,,black_plus_sign,,,,null,,,1,0.9428571428571428,,,,,,,,,,,,,,,,
null,,color_black,647862,,black_plus_sign,,,,null,,,,,,,,,,,,,,,,,,,,
null,,learn_phase(without_color),650863,,black_plus_sign,,,,null,GW/gatlinburg.png,GW/hotsprings.png,,,,,,,,,,,,,,,,,,
null,,black_cross(without_color),651972,,yellow,,,,null,GW/gatlinburg.png,GW/hotsprings.png,,,,,,,,,,,,,,,,,,
null,,rt_plussign_withcolor,652474,,yellow,,,,null,GW/gatlinburg.png,GW/hotsprings.png,,,,,,,,,,,,,,,,,,
694.7999999821186,,rt_thecrossant_black,653379,,black_plus_sign,,,,49,,,0,0.9295774647887324,,,,,,,,,,,,,,,,
null,,color_black,653480,,black_plus_sign,,,,null,,,,,,,,,,,,,,,,,,,,
null,,learn_phase(without_color),656481,,black_plus_sign,,,,null,GW/cornwall.png,GW/huntsville.png,,,,,,,,,,,,,,,,,,
null,,black_cross(without_color),657265,,blue,,,,null,GW/cornwall.png,GW/huntsville.png,,,,,,,,,,,,,,,,,,
null,,rt_plussign_withcolor,657767,,blue,,,,null,GW/cornwall.png,GW/huntsville.png,,,,,,,,,,,,,,,,,,
1349.4000000059605,,rt_thecrossant_black,658985,,black_plus_sign,,,,49,,,1,0.9305555555555556,,,,,,,,,,,,,,,,
null,,color_black,659087,,black_plus_sign,,,,null,,,,,,,,,,,,,,,,,,,,
null,,learn_phase(without_color),662088,,black_plus_sign,,,,null,GW/hotsprings.png,GW/gatlinburg.png,,,,,,,,,,,,,,,,,,
null,,black_cross(without_color),662704,,yellow,,,,null,GW/hotsprings.png,GW/gatlinburg.png,,,,,,,,,,,,,,,,,,
444.10000002384186,,rt_plussign_withcolor,663206,,yellow,,,,50,GW/hotsprings.png,GW/gatlinburg.png,,,,,,,,,,,,,,,,,,
null,,rt_thecrossant_black,664593,,black_plus_sign,,,,null,,,1,0.9315068493150684,,,,,,,,,,,,,,,,
null,,color_black,664695,,black_plus_sign,,,,null,,,,,,,,,,,,,,,,,,,,
null,,learn_phase(without_color),667697,,black_plus_sign,,,,null,GW/shreveport.png,GW/leesburg.png,,,,,,,,,,,,,,,,,,
null,,black_cross(without_color),668437,,yellow,,,,null,GW/shreveport.png,GW/leesburg.png,,,,,,,,,,,,,,,,,,
null,,rt_plussign_withcolor,668938,,yellow,,,,null,GW/shreveport.png,GW/leesburg.png,,,,,,,,,,,,,,,,,,
944.2999999821186,,rt_thecrossant_black,670201,,black_plus_sign,,,,50,,,1,0.9324324324324325,,,,,,,,,,,,,,,,
null,,color_black,670302,,black_plus_sign,,,,null,,,,,,,,,,,,,,,,,,,,
null,,learn_phase(without_color),673304,,black_plus_sign,,,,null,GW/hotsprings.png,GW/gatlinburg.png,,,,,,,,,,,,,,,,,,
null,,black_cross(without_color),673866,,yellow,,,,null,GW/hotsprings.png,GW/gatlinburg.png,,,,,,,,,,,,,,,,,,
null,,rt_plussign_withcolor,674367,,yellow,,,,null,GW/hotsprings.png,GW/gatlinburg.png,,,,,,,,,,,,,,,,,,
847.7999999821186,,rt_thecrossant_black,675808,,black_plus_sign,,,,50,,,1,0.9333333333333333,,,,,,,,,,,,,,,,
null,,color_black,675910,,black_plus_sign,,,,null,,,,,,,,,,,,,,,,,,,,
null,,learn_phase(without_color),678912,,black_plus_sign,,,,null,GW/boulder.png,GW/westpalmbeach.png,,,,,,,,,,,,,,,,,,
null,,black_cross(without_color),679880,,yellow,,,,null,GW/boulder.png,GW/westpalmbeach.png,,,,,,,,,,,,,,,,,,
460.19999998807907,,rt_plussign_withcolor,680382,,yellow,,,,50,GW/boulder.png,GW/westpalmbeach.png,,,,,,,,,,,,,,,,,,
null,,rt_thecrossant_black,681415,,black_plus_sign,,,,null,,,1,0.9342105263157895,,,,,,,,,,,,,,,,
null,,color_black,681517,,black_plus_sign,,,,null,,,,,,,,,,,,,,,,,,,,
null,,learn_phase(without_color),684518,,black_plus_sign,,,,null,GW/hotsprings.png,GW/gatlinburg.png,,,,,,,,,,,,,,,,,,
null,,black_cross(without_color),685097,,yellow,,,,null,GW/hotsprings.png,GW/gatlinburg.png,,,,,,,,,,,,,,,,,,
null,,rt_plussign_withcolor,685597,,yellow,,,,null,GW/hotsprings.png,GW/gatlinburg.png,,,,,,,,,,,,,,,,,,
1093.0999999940395,,rt_thecrossant_black,687022,,black_plus_sign,,,,50,,,1,0.935064935064935,,,,,,,,,,,,,,,,
null,,color_black,687123,,black_plus_sign,,,,null,,,,,,,,,,,,,,,,,,,,
null,,learn_phase(without_color),690125,,black_plus_sign,,,,null,GW/shreveport.png,GW/leesburg.png,,,,,,,,,,,,,,,,,,
null,,black_cross(without_color),690906,,blue,,,,null,GW/shreveport.png,GW/leesburg.png,,,,,,,,,,,,,,,,,,
null,,rt_plussign_withcolor,691407,,blue,,,,null,GW/shreveport.png,GW/leesburg.png,,,,,,,,,,,,,,,,,,
695.5,,rt_thecrossant_black,692628,,black_plus_sign,,,,49,,,1,0.9358974358974359,,,,,,,,,,,,,,,,
null,,color_black,692729,,black_plus_sign,,,,null,,,,,,,,,,,,,,,,,,,,
null,,learn_phase(without_color),695731,,black_plus_sign,,,,null,GW/westpalmbeach.png,GW/boulder.png,,,,,,,,,,,,,,,,,,
null,,black_cross(without_color),696676,,blue,,,,null,GW/westpalmbeach.png,GW/boulder.png,,,,,,,,,,,,,,,,,,
354.09999999403954,,rt_plussign_withcolor,697177,,blue,,,,49,GW/westpalmbeach.png,GW/boulder.png,,,,,,,,,,,,,,,,,,
null,,rt_thecrossant_black,698236,,black_plus_sign,,,,null,,,1,0.9367088607594937,,,,,,,,,,,,,,,,
null,,color_black,698337,,black_plus_sign,,,,null,,,,,,,,,,,,,,,,,,,,
null,,learn_phase(without_color),701339,,black_plus_sign,,,,null,GW/gatlinburg.png,GW/hotsprings.png,,,,,,,,,,,,,,,,,,
null,,black_cross(without_color),702122,,yellow,,,,null,GW/gatlinburg.png,GW/hotsprings.png,,,,,,,,,,,,,,,,,,
373.2999999821186,,rt_plussign_withcolor,702623,,yellow,,,,50,GW/gatlinburg.png,GW/hotsprings.png,,,,,,,,,,,,,,,,,,
null,,rt_thecrossant_black,703844,,black_plus_sign,,,,null,,,1,0.9375,,,,,,,,,,,,,,,,
null,,color_black,703945,,black_plus_sign,,,,null,,,,,,,,,,,,,,,,,,,,
null,,learn_phase(without_color),706947,,black_plus_sign,,,,null,GW/shreveport.png,GW/leesburg.png,,,,,,,,,,,,,,,,,,
null,,black_cross(without_color),708045,,blue,,,,null,GW/shreveport.png,GW/leesburg.png,,,,,,,,,,,,,,,,,,
405.19999998807907,,rt_plussign_withcolor,708546,,blue,,,,49,GW/shreveport.png,GW/leesburg.png,,,,,,,,,,,,,,,,,,
null,,rt_thecrossant_black,709451,,black_plus_sign,,,,null,,,1,0.9382716049382716,,,,,,,,,,,,,,,,
null,,color_black,709553,,black_plus_sign,,,,null,,,,,,,,,,,,,,,,,,,,
null,,learn_phase(without_color),712555,,black_plus_sign,,,,null,GW/westpalmbeach.png,GW/boulder.png,,,,,,,,,,,,,,,,,,
null,,black_cross(without_color),713592,,yellow,,,,null,GW/westpalmbeach.png,GW/boulder.png,,,,,,,,,,,,,,,,,,
422.19999998807907,,rt_plussign_withcolor,714093,,yellow,,,,50,GW/westpalmbeach.png,GW/boulder.png,,,,,,,,,,,,,,,,,,
null,,rt_thecrossant_black,715064,,black_plus_sign,,,,null,,,1,0.9390243902439024,,,,,,,,,,,,,,,,
null,,color_black,715166,,black_plus_sign,,,,null,,,,,,,,,,,,,,,,,,,,
null,,learn_phase(without_color),718167,,black_plus_sign,,,,null,GW/hotsprings.png,GW/gatlinburg.png,,,,,,,,,,,,,,,,,,
null,,black_cross(without_color),718781,,blue,,,,null,GW/hotsprings.png,GW/gatlinburg.png,,,,,,,,,,,,,,,,,,
351,,rt_plussign_withcolor,719282,,blue,,,,49,GW/hotsprings.png,GW/gatlinburg.png,,,,,,,,,,,,,,,,,,
null,,rt_thecrossant_black,720671,,black_plus_sign,,,,null,,,1,0.9397590361445783,,,,,,,,,,,,,,,,
null,,color_black,720772,,black_plus_sign,,,,null,,,,,,,,,,,,,,,,,,,,
null,,learn_phase(without_color),723774,,black_plus_sign,,,,null,GW/leesburg.png,GW/shreveport.png,,,,,,,,,,,,,,,,,,
null,,black_cross(without_color),724429,,yellow,,,,null,GW/leesburg.png,GW/shreveport.png,,,,,,,,,,,,,,,,,,
null,,rt_plussign_withcolor,724930,,yellow,,,,null,GW/leesburg.png,GW/shreveport.png,,,,,,,,,,,,,,,,,,
740.1999999880791,,rt_thecrossant_black,726277,,black_plus_sign,,,,50,,,1,0.9404761904761905,,,,,,,,,,,,,,,,
null,,color_black,726378,,black_plus_sign,,,,null,,,,,,,,,,,,,,,,,,,,
null,,learn_phase(without_color),729380,,black_plus_sign,,,,null,GW/westpalmbeach.png,GW/boulder.png,,,,,,,,,,,,,,,,,,
null,,black_cross(without_color),729948,,blue,,,,null,GW/westpalmbeach.png,GW/boulder.png,,,,,,,,,,,,,,,,,,
null,,rt_plussign_withcolor,730450,,blue,,,,null,GW/westpalmbeach.png,GW/boulder.png,,,,,,,,,,,,,,,,,,
813.2999999821186,,rt_thecrossant_black,731884,,black_plus_sign,,,,49,,,1,0.9411764705882353,,,,,,,,,,,,,,,,
null,,color_black,731985,,black_plus_sign,,,,null,,,,,,,,,,,,,,,,,,,,
null,,learn_phase(without_color),734987,,black_plus_sign,,,,null,GW/cornwall.png,GW/huntsville.png,,,,,,,,,,,,,,,,,,
null,,black_cross(without_color),735578,,yellow,,,,null,GW/cornwall.png,GW/huntsville.png,,,,,,,,,,,,,,,,,,
375,,rt_plussign_withcolor,736079,,yellow,,,,50,GW/cornwall.png,GW/huntsville.png,,,,,,,,,,,,,,,,,,
null,,rt_thecrossant_black,737492,,black_plus_sign,,,,null,,,1,0.9418604651162791,,,,,,,,,,,,,,,,
null,,color_black,737594,,black_plus_sign,,,,null,,,,,,,,,,,,,,,,,,,,
null,,learn_phase(without_color),740595,,black_plus_sign,,,,null,GW/westpalmbeach.png,GW/boulder.png,,,,,,,,,,,,,,,,,,
null,,black_cross(without_color),741214,,yellow,,,,null,GW/westpalmbeach.png,GW/boulder.png,,,,,,,,,,,,,,,,,,
356.19999998807907,,rt_plussign_withcolor,741719,,yellow,,,,50,GW/westpalmbeach.png,GW/boulder.png,,,,,,,,,,,,,,,,,,
null,,rt_thecrossant_black,743104,,black_plus_sign,,,,null,,,1,0.9425287356321839,,,,,,,,,,,,,,,,
null,,color_black,743212,,black_plus_sign,,,,null,,,,,,,,,,,,,,,,,,,,
null,,learn_phase(without_color),746213,,black_plus_sign,,,,null,GW/huntsville.png,GW/cornwall.png,,,,,,,,,,,,,,,,,,
null,,black_cross(without_color),747000,,blue,,,,null,GW/huntsville.png,GW/cornwall.png,,,,,,,,,,,,,,,,,,
349.59999999403954,,rt_plussign_withcolor,747501,,blue,,,,49,GW/huntsville.png,GW/cornwall.png,,,,,,,,,,,,,,,,,,
null,,rt_thecrossant_black,748719,,black_plus_sign,,,,null,,,1,0.9431818181818182,,,,,,,,,,,,,,,,
null,,color_black,748821,,black_plus_sign,,,,null,,,,,,,,,,,,,,,,,,,,
null,,learn_phase(without_color),751823,,black_plus_sign,,,,null,GW/shreveport.png,GW/leesburg.png,,,,,,,,,,,,,,,,,,
null,,black_cross(without_color),752394,,yellow,,,,null,GW/shreveport.png,GW/leesburg.png,,,,,,,,,,,,,,,,,,
355.09999999403954,,rt_plussign_withcolor,752896,,yellow,,,,50,GW/shreveport.png,GW/leesburg.png,,,,,,,,,,,,,,,,,,
null,,rt_thecrossant_black,754328,,black_plus_sign,,,,null,,,1,0.9438202247191011,,,,,,,,,,,,,,,,
null,,color_black,754430,,black_plus_sign,,,,null,,,,,,,,,,,,,,,,,,,,
null,,learn_phase(without_color),757431,,black_plus_sign,,,,null,GW/huntsville.png,GW/cornwall.png,,,,,,,,,,,,,,,,,,
null,,black_cross(without_color),758304,,yellow,,,,null,GW/huntsville.png,GW/cornwall.png,,,,,,,,,,,,,,,,,,
401.69999998807907,,rt_plussign_withcolor,758807,,yellow,,,,50,GW/huntsville.png,GW/cornwall.png,,,,,,,,,,,,,,,,,,
null,,rt_thecrossant_black,759937,,black_plus_sign,,,,null,,,1,0.9444444444444444,,,,,,,,,,,,,,,,
null,,color_black,760039,,black_plus_sign,,,,null,,,,,,,,,,,,,,,,,,,,
null,,learn_phase(without_color),763041,,black_plus_sign,,,,null,GW/westpalmbeach.png,GW/boulder.png,,,,,,,,,,,,,,,,,,
null,,black_cross(without_color),763720,,blue,,,,null,GW/westpalmbeach.png,GW/boulder.png,,,,,,,,,,,,,,,,,,
316.2000000178814,,rt_plussign_withcolor,764221,,blue,,,,49,GW/westpalmbeach.png,GW/boulder.png,,,,,,,,,,,,,,,,,,
null,,rt_thecrossant_black,765545,,black_plus_sign,,,,null,,,1,0.945054945054945,,,,,,,,,,,,,,,,
null,,color_black,765646,,black_plus_sign,,,,null,,,,,,,,,,,,,,,,,,,,
null,,learn_phase(without_color),768647,,black_plus_sign,,,,null,GW/huntsville.png,GW/cornwall.png,,,,,,,,,,,,,,,,,,
null,,black_cross(without_color),769341,,blue,,,,null,GW/huntsville.png,GW/cornwall.png,,,,,,,,,,,,,,,,,,
336.30000001192093,,rt_plussign_withcolor,769842,,blue,,,,49,GW/huntsville.png,GW/cornwall.png,,,,,,,,,,,,,,,,,,
null,,rt_thecrossant_black,771151,,black_plus_sign,,,,null,,,1,0.9456521739130435,,,,,,,,,,,,,,,,
null,,color_black,771252,,black_plus_sign,,,,null,,,,,,,,,,,,,,,,,,,,
null,,learn_phase(without_color),774254,,black_plus_sign,,,,null,GW/leesburg.png,GW/shreveport.png,,,,,,,,,,,,,,,,,,
null,,black_cross(without_color),774973,,yellow,,,,null,GW/leesburg.png,GW/shreveport.png,,,,,,,,,,,,,,,,,,
368.2999999821186,,rt_plussign_withcolor,775474,,yellow,,,,50,GW/leesburg.png,GW/shreveport.png,,,,,,,,,,,,,,,,,,
null,,rt_thecrossant_black,776757,,black_plus_sign,,,,null,,,1,0.946236559139785,,,,,,,,,,,,,,,,
null,,color_black,776859,,black_plus_sign,,,,null,,,,,,,,,,,,,,,,,,,,
null,,learn_phase(without_color),779860,,black_plus_sign,,,,null,GW/westpalmbeach.png,GW/boulder.png,,,,,,,,,,,,,,,,,,
null,,black_cross(without_color),780433,,yellow,,,,null,GW/westpalmbeach.png,GW/boulder.png,,,,,,,,,,,,,,,,,,
369.59999999403954,,rt_plussign_withcolor,780933,,yellow,,,,50,GW/westpalmbeach.png,GW/boulder.png,,,,,,,,,,,,,,,,,,
null,,rt_thecrossant_black,782364,,black_plus_sign,,,,null,,,1,0.9468085106382979,,,,,,,,,,,,,,,,
null,,color_black,782465,,black_plus_sign,,,,null,,,,,,,,,,,,,,,,,,,,
null,,learn_phase(without_color),785466,,black_plus_sign,,,,null,GW/huntsville.png,GW/cornwall.png,,,,,,,,,,,,,,,,,,
null,,black_cross(without_color),786337,,yellow,,,,null,GW/huntsville.png,GW/cornwall.png,,,,,,,,,,,,,,,,,,
387.30000001192093,,rt_plussign_withcolor,786838,,yellow,,,,50,GW/huntsville.png,GW/cornwall.png,,,,,,,,,,,,,,,,,,
null,,rt_thecrossant_black,787970,,black_plus_sign,,,,null,,,1,0.9473684210526315,,,,,,,,,,,,,,,,
null,,color_black,788071,,black_plus_sign,,,,null,,,,,,,,,,,,,,,,,,,,
null,,learn_phase(without_color),791072,,black_plus_sign,,,,null,GW/shreveport.png,GW/leesburg.png,,,,,,,,,,,,,,,,,,
null,,black_cross(without_color),791817,,blue,,,,null,GW/shreveport.png,GW/leesburg.png,,,,,,,,,,,,,,,,,,
350,,rt_plussign_withcolor,792319,,blue,,,,49,GW/shreveport.png,GW/leesburg.png,,,,,,,,,,,,,,,,,,
null,,rt_thecrossant_black,793576,,black_plus_sign,,,,null,,,1,0.9479166666666666,,,,,,,,,,,,,,,,
null,,color_black,793678,,black_plus_sign,,,,null,,,,,,,,,,,,,,,,,,,,
null,,learn_phase(without_color),796680,,black_plus_sign,,,,null,GW/cornwall.png,GW/leesburg.png,,,,,,,,,,,,,,,,,,
null,,black_cross(without_color),797694,,blue,,,,null,GW/cornwall.png,GW/leesburg.png,,,,,,,,,,,,,,,,,,
330.09999999403954,,rt_plussign_withcolor,798195,,blue,,,,49,GW/cornwall.png,GW/leesburg.png,,,,,,,,,,,,,,,,,,
null,,rt_thecrossant_black,799184,,black_plus_sign,,,,null,,,1,0.9484536082474226,,,,,,,,,,,,,,,,
null,,color_black,799300,,black_plus_sign,,,,null,,,,,,,,,,,,,,,,,,,,
null,,learn_phase(without_color),802302,,black_plus_sign,,,,null,GW/boulder.png,GW/peoria.png,,,,,,,,,,,,,,,,,,
null,,black_cross(without_color),802798,,blue,,,,null,GW/boulder.png,GW/peoria.png,,,,,,,,,,,,,,,,,,
null,,rt_plussign_withcolor,803300,,blue,,,,null,GW/boulder.png,GW/peoria.png,,,,,,,,,,,,,,,,,,
1187.2000000178814,,rt_thecrossant_black,804806,,black_plus_sign,,,,50,,,0,0.9387755102040817,,,,,,,,,,,,,,,,
null,,color_black,804907,,black_plus_sign,,,,null,,,,,,,,,,,,,,,,,,,,
null,,learn_phase(without_color),807908,,black_plus_sign,,,,null,GW/gatlinburg.png,GW/westpalmbeach.png,,,,,,,,,,,,,,,,,,
null,,black_cross(without_color),809002,,yellow,,,,null,GW/gatlinburg.png,GW/westpalmbeach.png,,,,,,,,,,,,,,,,,,
341.69999998807907,,rt_plussign_withcolor,809502,,yellow,,,,50,GW/gatlinburg.png,GW/westpalmbeach.png,,,,,,,,,,,,,,,,,,
null,,rt_thecrossant_black,810412,,black_plus_sign,,,,null,,,1,0.9393939393939394,,,,,,,,,,,,,,,,
null,,color_black,810513,,black_plus_sign,,,,null,,,,,,,,,,,,,,,,,,,,
null,,learn_phase(without_color),813514,,black_plus_sign,,,,null,GW/shreveport.png,GW/hanover.png,,,,,,,,,,,,,,,,,,
null,,black_cross(without_color),814569,,blue,,,,null,GW/shreveport.png,GW/hanover.png,,,,,,,,,,,,,,,,,,
332.40000000596046,,rt_plussign_withcolor,815070,,blue,,,,49,GW/shreveport.png,GW/hanover.png,,,,,,,,,,,,,,,,,,
null,,rt_thecrossant_black,816018,,black_plus_sign,,,,null,,,1,0.94,,,,,,,,,,,,,,,,
null,,color_black,816120,,black_plus_sign,,,,null,,,,,,,,,,,,,,,,,,,,
null,,learn_phase(without_color),819121,,black_plus_sign,,,,null,GW/cornwall.png,GW/leesburg.png,,,,,,,,,,,,,,,,,,
null,,black_cross(without_color),819988,,blue,,,,null,GW/cornwall.png,GW/leesburg.png,,,,,,,,,,,,,,,,,,
352.19999998807907,,rt_plussign_withcolor,820489,,blue,,,,49,GW/cornwall.png,GW/leesburg.png,,,,,,,,,,,,,,,,,,
null,,rt_thecrossant_black,821626,,black_plus_sign,,,,null,,,1,0.9405940594059405,,,,,,,,,,,,,,,,
null,,color_black,821727,,black_plus_sign,,,,null,,,,,,,,,,,,,,,,,,,,
null,,learn_phase(without_color),824730,,black_plus_sign,,,,null,GW/peoria.png,GW/boulder.png,,,,,,,,,,,,,,,,,,
null,,black_cross(without_color),825480,,blue,,,,null,GW/peoria.png,GW/boulder.png,,,,,,,,,,,,,,,,,,
329.30000001192093,,rt_plussign_withcolor,825982,,blue,,,,49,GW/peoria.png,GW/boulder.png,,,,,,,,,,,,,,,,,,
null,,rt_thecrossant_black,827235,,black_plus_sign,,,,null,,,1,0.9411764705882353,,,,,,,,,,,,,,,,
null,,color_black,827336,,black_plus_sign,,,,null,,,,,,,,,,,,,,,,,,,,
null,,learn_phase(without_color),830339,,black_plus_sign,,,,null,GW/hanover.png,GW/shreveport.png,,,,,,,,,,,,,,,,,,
null,,black_cross(without_color),831063,,blue,,,,null,GW/hanover.png,GW/shreveport.png,,,,,,,,,,,,,,,,,,
326.59999999403954,,rt_plussign_withcolor,831564,,blue,,,,49,GW/hanover.png,GW/shreveport.png,,,,,,,,,,,,,,,,,,
null,,rt_thecrossant_black,832843,,black_plus_sign,,,,null,,,1,0.941747572815534,,,,,,,,,,,,,,,,
null,,color_black,832946,,black_plus_sign,,,,null,,,,,,,,,,,,,,,,,,,,
null,,learn_phase(without_color),835947,,black_plus_sign,,,,null,GW/cornwall.png,GW/leesburg.png,,,,,,,,,,,,,,,,,,
null,,black_cross(without_color),837048,,yellow,,,,null,GW/cornwall.png,GW/leesburg.png,,,,,,,,,,,,,,,,,,
378.90000000596046,,rt_plussign_withcolor,837550,,yellow,,,,50,GW/cornwall.png,GW/leesburg.png,,,,,,,,,,,,,,,,,,
null,,rt_thecrossant_black,838452,,black_plus_sign,,,,null,,,1,0.9423076923076923,,,,,,,,,,,,,,,,
null,,color_black,838555,,black_plus_sign,,,,null,,,,,,,,,,,,,,,,,,,,
null,,learn_phase(without_color),841556,,black_plus_sign,,,,null,GW/gatlinburg.png,GW/westpalmbeach.png,,,,,,,,,,,,,,,,,,
null,,black_cross(without_color),842006,,yellow,,,,null,GW/gatlinburg.png,GW/westpalmbeach.png,,,,,,,,,,,,,,,,,,
476.7000000178814,,rt_plussign_withcolor,842508,,yellow,,,,50,GW/gatlinburg.png,GW/westpalmbeach.png,,,,,,,,,,,,,,,,,,
null,,rt_thecrossant_black,844060,,black_plus_sign,,,,null,,,1,0.9428571428571428,,,,,,,,,,,,,,,,
null,,color_black,844161,,black_plus_sign,,,,null,,,,,,,,,,,,,,,,,,,,
null,,learn_phase(without_color),847163,,black_plus_sign,,,,null,GW/shreveport.png,GW/hanover.png,,,,,,,,,,,,,,,,,,
null,,black_cross(without_color),847683,,blue,,,,null,GW/shreveport.png,GW/hanover.png,,,,,,,,,,,,,,,,,,
473.19999998807907,,rt_plussign_withcolor,848184,,blue,,,,49,GW/shreveport.png,GW/hanover.png,,,,,,,,,,,,,,,,,,
null,,rt_thecrossant_black,849667,,black_plus_sign,,,,null,,,1,0.9433962264150944,,,,,,,,,,,,,,,,
null,,color_black,849768,,black_plus_sign,,,,null,,,,,,,,,,,,,,,,,,,,
null,,learn_phase(without_color),852770,,black_plus_sign,,,,null,GW/boulder.png,GW/peoria.png,,,,,,,,,,,,,,,,,,
null,,black_cross(without_color),853631,,blue,,,,null,GW/boulder.png,GW/peoria.png,,,,,,,,,,,,,,,,,,
318.30000001192093,,rt_plussign_withcolor,854132,,blue,,,,49,GW/boulder.png,GW/peoria.png,,,,,,,,,,,,,,,,,,
null,,rt_thecrossant_black,855274,,black_plus_sign,,,,null,,,1,0.9439252336448598,,,,,,,,,,,,,,,,
null,,color_black,855376,,black_plus_sign,,,,null,,,,,,,,,,,,,,,,,,,,
null,,learn_phase(without_color),858378,,black_plus_sign,,,,null,GW/gatlinburg.png,GW/westpalmbeach.png,,,,,,,,,,,,,,,,,,
null,,black_cross(without_color),859217,,blue,,,,null,GW/gatlinburg.png,GW/westpalmbeach.png,,,,,,,,,,,,,,,,,,
330.90000000596046,,rt_plussign_withcolor,859718,,blue,,,,49,GW/gatlinburg.png,GW/westpalmbeach.png,,,,,,,,,,,,,,,,,,
null,,rt_thecrossant_black,860881,,black_plus_sign,,,,null,,,1,0.9444444444444444,,,,,,,,,,,,,,,,
null,,color_black,860984,,black_plus_sign,,,,null,,,,,,,,,,,,,,,,,,,,
null,,learn_phase(without_color),863986,,black_plus_sign,,,,null,GW/hanover.png,GW/shreveport.png,,,,,,,,,,,,,,,,,,
null,,black_cross(without_color),864696,,yellow,,,,null,GW/hanover.png,GW/shreveport.png,,,,,,,,,,,,,,,,,,
357.90000000596046,,rt_plussign_withcolor,865197,,yellow,,,,50,GW/hanover.png,GW/shreveport.png,,,,,,,,,,,,,,,,,,
null,,rt_thecrossant_black,866491,,black_plus_sign,,,,null,,,1,0.944954128440367,,,,,,,,,,,,,,,,
null,,color_black,866592,,black_plus_sign,,,,null,,,,,,,,,,,,,,,,,,,,
null,,learn_phase(without_color),869593,,black_plus_sign,,,,null,GW/gatlinburg.png,GW/westpalmbeach.png,,,,,,,,,,,,,,,,,,
null,,black_cross(without_color),870384,,yellow,,,,null,GW/gatlinburg.png,GW/westpalmbeach.png,,,,,,,,,,,,,,,,,,
399.5,,rt_plussign_withcolor,870884,,yellow,,,,50,GW/gatlinburg.png,GW/westpalmbeach.png,,,,,,,,,,,,,,,,,,
null,,rt_thecrossant_black,872098,,black_plus_sign,,,,null,,,1,0.9454545454545454,,,,,,,,,,,,,,,,
null,,color_black,872200,,black_plus_sign,,,,null,,,,,,,,,,,,,,,,,,,,
null,,learn_phase(without_color),875201,,black_plus_sign,,,,null,GW/leesburg.png,GW/cornwall.png,,,,,,,,,,,,,,,,,,
null,,black_cross(without_color),876125,,yellow,,,,null,GW/leesburg.png,GW/cornwall.png,,,,,,,,,,,,,,,,,,
373.7000000178814,,rt_plussign_withcolor,876626,,yellow,,,,50,GW/leesburg.png,GW/cornwall.png,,,,,,,,,,,,,,,,,,
null,,rt_thecrossant_black,877706,,black_plus_sign,,,,null,,,1,0.9459459459459459,,,,,,,,,,,,,,,,
null,,color_black,877808,,black_plus_sign,,,,null,,,,,,,,,,,,,,,,,,,,
null,,learn_phase(without_color),880810,,black_plus_sign,,,,null,GW/westpalmbeach.png,GW/gatlinburg.png,,,,,,,,,,,,,,,,,,
null,,black_cross(without_color),881699,,blue,,,,null,GW/westpalmbeach.png,GW/gatlinburg.png,,,,,,,,,,,,,,,,,,
421.7000000178814,,rt_plussign_withcolor,882200,,blue,,,,50,GW/westpalmbeach.png,GW/gatlinburg.png,,,,,,,,,,,,,,,,,,
null,,rt_thecrossant_black,883314,,black_plus_sign,,,,null,,,0,0.9375,,,,,,,,,,,,,,,,
null,,color_black,883416,,black_plus_sign,,,,null,,,,,,,,,,,,,,,,,,,,
null,,learn_phase(without_color),886417,,black_plus_sign,,,,null,GW/peoria.png,GW/boulder.png,,,,,,,,,,,,,,,,,,
null,,black_cross(without_color),886972,,blue,,,,null,GW/peoria.png,GW/boulder.png,,,,,,,,,,,,,,,,,,
414.60000002384186,,rt_plussign_withcolor,887472,,blue,,,,49,GW/peoria.png,GW/boulder.png,,,,,,,,,,,,,,,,,,
null,,rt_thecrossant_black,888921,,black_plus_sign,,,,null,,,1,0.9380530973451328,,,,,,,,,,,,,,,,
null,,color_black,889022,,black_plus_sign,,,,null,,,,,,,,,,,,,,,,,,,,
null,,learn_phase(without_color),892024,,black_plus_sign,,,,null,GW/gatlinburg.png,GW/westpalmbeach.png,,,,,,,,,,,,,,,,,,
null,,black_cross(without_color),892990,,yellow,,,,null,GW/gatlinburg.png,GW/westpalmbeach.png,,,,,,,,,,,,,,,,,,
332,,rt_plussign_withcolor,893503,,yellow,,,,50,GW/gatlinburg.png,GW/westpalmbeach.png,,,,,,,,,,,,,,,,,,
null,,rt_thecrossant_black,894540,,black_plus_sign,,,,null,,,1,0.9385964912280702,,,,,,,,,,,,,,,,
null,,color_black,894642,,black_plus_sign,,,,null,,,,,,,,,,,,,,,,,,,,
null,,learn_phase(without_color),897644,,black_plus_sign,,,,null,GW/shreveport.png,GW/hanover.png,,,,,,,,,,,,,,,,,,
null,,black_cross(without_color),898677,,yellow,,,,null,GW/shreveport.png,GW/hanover.png,,,,,,,,,,,,,,,,,,
365,,rt_plussign_withcolor,899178,,yellow,,,,50,GW/shreveport.png,GW/hanover.png,,,,,,,,,,,,,,,,,,
null,,rt_thecrossant_black,900148,,black_plus_sign,,,,null,,,1,0.9391304347826087,,,,,,,,,,,,,,,,
null,,color_black,900250,,black_plus_sign,,,,null,,,,,,,,,,,,,,,,,,,,
null,,learn_phase(without_color),903252,,black_plus_sign,,,,null,GW/peoria.png,GW/boulder.png,,,,,,,,,,,,,,,,,,
null,,black_cross(without_color),904237,,blue,,,,null,GW/peoria.png,GW/boulder.png,,,,,,,,,,,,,,,,,,
331,,rt_plussign_withcolor,904738,,blue,,,,49,GW/peoria.png,GW/boulder.png,,,,,,,,,,,,,,,,,,
null,,rt_thecrossant_black,905764,,black_plus_sign,,,,null,,,1,0.9396551724137931,,,,,,,,,,,,,,,,
null,,color_black,905873,,black_plus_sign,,,,null,,,,,,,,,,,,,,,,,,,,
null,,learn_phase(without_color),908874,,black_plus_sign,,,,null,GW/westpalmbeach.png,GW/gatlinburg.png,,,,,,,,,,,,,,,,,,
null,,black_cross(without_color),909562,,yellow,,,,null,GW/westpalmbeach.png,GW/gatlinburg.png,,,,,,,,,,,,,,,,,,
350.90000000596046,,rt_plussign_withcolor,910064,,yellow,,,,50,GW/westpalmbeach.png,GW/gatlinburg.png,,,,,,,,,,,,,,,,,,
null,,rt_thecrossant_black,911377,,black_plus_sign,,,,null,,,1,0.9401709401709402,,,,,,,,,,,,,,,,
null,,color_black,911479,,black_plus_sign,,,,null,,,,,,,,,,,,,,,,,,,,
null,,learn_phase(without_color),914480,,black_plus_sign,,,,null,GW/cornwall.png,GW/leesburg.png,,,,,,,,,,,,,,,,,,
null,,black_cross(without_color),915352,,yellow,,,,null,GW/cornwall.png,GW/leesburg.png,,,,,,,,,,,,,,,,,,
432.39999997615814,,rt_plussign_withcolor,915854,,yellow,,,,50,GW/cornwall.png,GW/leesburg.png,,,,,,,,,,,,,,,,,,
null,,rt_thecrossant_black,916987,,black_plus_sign,,,,null,,,1,0.940677966101695,,,,,,,,,,,,,,,,
null,,color_black,917088,,black_plus_sign,,,,null,,,,,,,,,,,,,,,,,,,,
null,,learn_phase(without_color),920090,,black_plus_sign,,,,null,GW/boulder.png,GW/peoria.png,,,,,,,,,,,,,,,,,,
null,,black_cross(without_color),921075,,yellow,,,,null,GW/boulder.png,GW/peoria.png,,,,,,,,,,,,,,,,,,
437.90000000596046,,rt_plussign_withcolor,921576,,yellow,,,,50,GW/boulder.png,GW/peoria.png,,,,,,,,,,,,,,,,,,
null,,rt_thecrossant_black,922593,,black_plus_sign,,,,null,,,1,0.9411764705882353,,,,,,,,,,,,,,,,
null,,color_black,922694,,black_plus_sign,,,,null,,,,,,,,,,,,,,,,,,,,
null,,learn_phase(without_color),925695,,black_plus_sign,,,,null,GW/hanover.png,GW/shreveport.png,,,,,,,,,,,,,,,,,,
null,,black_cross(without_color),926531,,yellow,,,,null,GW/hanover.png,GW/shreveport.png,,,,,,,,,,,,,,,,,,
null,,rt_plussign_withcolor,927032,,yellow,,,,null,GW/hanover.png,GW/shreveport.png,,,,,,,,,,,,,,,,,,
1144.7000000178814,,rt_thecrossant_black,928200,,black_plus_sign,,,,49,,,0,0.9333333333333333,,,,,,,,,,,,,,,,
null,,color_black,928302,,black_plus_sign,,,,null,,,,,,,,,,,,,,,,,,,,
null,,learn_phase(without_color),931303,,black_plus_sign,,,,null,GW/cornwall.png,GW/leesburg.png,,,,,,,,,,,,,,,,,,
null,,black_cross(without_color),932384,,blue,,,,null,GW/cornwall.png,GW/leesburg.png,,,,,,,,,,,,,,,,,,
343.40000000596046,,rt_plussign_withcolor,932885,,blue,,,,49,GW/cornwall.png,GW/leesburg.png,,,,,,,,,,,,,,,,,,
null,,rt_thecrossant_black,933807,,black_plus_sign,,,,null,,,1,0.9338842975206612,,,,,,,,,,,,,,,,
null,,color_black,933908,,black_plus_sign,,,,null,,,,,,,,,,,,,,,,,,,,
null,,learn_phase(without_color),936910,,black_plus_sign,,,,null,GW/hanover.png,GW/shreveport.png,,,,,,,,,,,,,,,,,,
null,,black_cross(without_color),937585,,yellow,,,,null,GW/hanover.png,GW/shreveport.png,,,,,,,,,,,,,,,,,,
369.7999999821186,,rt_plussign_withcolor,938087,,yellow,,,,50,GW/hanover.png,GW/shreveport.png,,,,,,,,,,,,,,,,,,
null,,rt_thecrossant_black,939414,,black_plus_sign,,,,null,,,1,0.9344262295081968,,,,,,,,,,,,,,,,
null,,color_black,939516,,black_plus_sign,,,,null,,,,,,,,,,,,,,,,,,,,
null,,learn_phase(without_color),942517,,black_plus_sign,,,,null,GW/westpalmbeach.png,GW/gatlinburg.png,,,,,,,,,,,,,,,,,,
null,,black_cross(without_color),943404,,yellow,,,,null,GW/westpalmbeach.png,GW/gatlinburg.png,,,,,,,,,,,,,,,,,,
391.60000002384186,,rt_plussign_withcolor,943904,,yellow,,,,50,GW/westpalmbeach.png,GW/gatlinburg.png,,,,,,,,,,,,,,,,,,
null,,rt_thecrossant_black,945020,,black_plus_sign,,,,null,,,1,0.9349593495934959,,,,,,,,,,,,,,,,
null,,color_black,945122,,black_plus_sign,,,,null,,,,,,,,,,,,,,,,,,,,
null,,learn_phase(without_color),948124,,black_plus_sign,,,,null,GW/peoria.png,GW/boulder.png,,,,,,,,,,,,,,,,,,
null,,black_cross(without_color),949141,,yellow,,,,null,GW/peoria.png,GW/boulder.png,,,,,,,,,,,,,,,,,,
392.2999999821186,,rt_plussign_withcolor,949641,,yellow,,,,50,GW/peoria.png,GW/boulder.png,,,,,,,,,,,,,,,,,,
null,,rt_thecrossant_black,950628,,black_plus_sign,,,,null,,,1,0.9354838709677419,,,,,,,,,,,,,,,,
null,,color_black,950731,,black_plus_sign,,,,null,,,,,,,,,,,,,,,,,,,,
null,,learn_phase(without_color),953733,,black_plus_sign,,,,null,GW/leesburg.png,GW/cornwall.png,,,,,,,,,,,,,,,,,,
null,,black_cross(without_color),954223,,yellow,,,,null,GW/leesburg.png,GW/cornwall.png,,,,,,,,,,,,,,,,,,
null,,rt_plussign_withcolor,954723,,yellow,,,,null,GW/leesburg.png,GW/cornwall.png,,,,,,,,,,,,,,,,,,
1205.5,,rt_thecrossant_black,956237,,black_plus_sign,,,,50,,,1,0.936,,,,,,,,,,,,,,,,
null,,color_black,956339,,black_plus_sign,,,,null,,,,,,,,,,,,,,,,,,,,
null,,learn_phase(without_color),959340,,black_plus_sign,,,,null,GW/shreveport.png,GW/hanover.png,,,,,,,,,,,,,,,,,,
null,,black_cross(without_color),960139,,yellow,,,,null,GW/shreveport.png,GW/hanover.png,,,,,,,,,,,,,,,,,,
370.5,,rt_plussign_withcolor,960640,,yellow,,,,50,GW/shreveport.png,GW/hanover.png,,,,,,,,,,,,,,,,,,
null,,rt_thecrossant_black,961844,,black_plus_sign,,,,null,,,1,0.9365079365079365,,,,,,,,,,,,,,,,
null,,color_black,961948,,black_plus_sign,,,,null,,,,,,,,,,,,,,,,,,,,
null,,learn_phase(without_color),964950,,black_plus_sign,,,,null,GW/boulder.png,GW/peoria.png,,,,,,,,,,,,,,,,,,
null,,black_cross(without_color),965471,,yellow,,,,null,GW/boulder.png,GW/peoria.png,,,,,,,,,,,,,,,,,,
456.80000001192093,,rt_plussign_withcolor,965972,,yellow,,,,50,GW/boulder.png,GW/peoria.png,,,,,,,,,,,,,,,,,,
null,,rt_thecrossant_black,967453,,black_plus_sign,,,,null,,,1,0.937007874015748,,,,,,,,,,,,,,,,
null,,color_black,967555,,black_plus_sign,,,,null,,,,,,,,,,,,,,,,,,,,
null,,learn_phase(without_color),970557,,black_plus_sign,,,,null,GW/leesburg.png,GW/cornwall.png,,,,,,,,,,,,,,,,,,
null,,black_cross(without_color),970983,,yellow,,,,null,GW/leesburg.png,GW/cornwall.png,,,,,,,,,,,,,,,,,,
428.19999998807907,,rt_plussign_withcolor,971484,,yellow,,,,50,GW/leesburg.png,GW/cornwall.png,,,,,,,,,,,,,,,,,,
null,,rt_thecrossant_black,973061,,black_plus_sign,,,,null,,,1,0.9375,,,,,,,,,,,,,,,,
null,,color_black,973163,,black_plus_sign,,,,null,,,,,,,,,,,,,,,,,,,,
1870.4000000059605,,learn_break,975034,,learn_break,,,,32,,,,,,,,,,,,,,,,,,,,
66376.5,,intro_1,1037741,,instruct,,0,Start,,,,,,,,,,,,,,,,,,,,,
2502.7999999821186,,directmemory_phase,1040245,,GW/leesburg.png,,,,50,,,1,1,GW/huntsville.png,GW/cornwall.png,GW/hotsprings.png,GW/cornwall.png,GW/huntsville.png,GW/hotsprings.png,1,,,,,,,,,
null,,html-keyboard-response,1041247,,<p></p>,,,,null,,,,,,,,,,,,,,,,,,,,
4865.5,,directmemory_phase,1046113,,GW/boulder.png,,,,51,,,1,1,GW/cornwall.png,GW/huntsville.png,GW/newhope.png,GW/newhope.png,GW/huntsville.png,GW/cornwall.png,1,,,,,,,,,
null,,html-keyboard-response,1047114,,<p></p>,,,,null,,,,,,,,,,,,,,,,,,,,
3889.9000000059605,,directmemory_phase,1051005,,GW/gatlinburg.png,,,,50,,,0,0.6666666666666666,GW/racine.png,GW/huntsville.png,GW/cornwall.png,GW/cornwall.png,GW/huntsville.png,GW/racine.png,0.5,closer,,,,,,,,
null,,html-keyboard-response,1052007,,<p></p>,,,,null,,,,,,,,,,,,,,,,,,,,
2037.7000000178814,,directmemory_phase,1054045,,GW/shreveport.png,,,,49,,,1,0.75,GW/leesburg.png,GW/newhope.png,GW/gatlinburg.png,GW/leesburg.png,GW/gatlinburg.png,GW/newhope.png,1,,,,,,,,,
null,,html-keyboard-response,1055047,,<p></p>,,,,null,,,,,,,,,,,,,,,,,,,,
2993.5999999940395,,directmemory_phase,1058041,,GW/cornwall.png,,,,51,,,1,0.8,GW/racine.png,GW/carmel.png,GW/huntsville.png,GW/huntsville.png,GW/carmel.png,GW/racine.png,1,,,,,,,,,
null,,html-keyboard-response,1059043,,<p></p>,,,,null,,,,,,,,,,,,,,,,,,,,
4411.300000011921,,directmemory_phase,1063455,,GW/peoria.png,,,,51,,,1,0.8333333333333334,GW/cornwall.png,GW/gatlinburg.png,GW/racine.png,GW/racine.png,GW/gatlinburg.png,GW/cornwall.png,1,,,,,,,,,
null,,html-keyboard-response,1064457,,<p></p>,,,,null,,,,,,,,,,,,,,,,,,,,
4953.300000011921,,directmemory_phase,1069411,,GW/shreveport.png,,,,50,,,1,0.8571428571428571,GW/westpalmbeach.png,GW/huntsville.png,GW/boulder.png,GW/huntsville.png,GW/westpalmbeach.png,GW/boulder.png,1,,,,,,,,,
null,,html-keyboard-response,1070413,,<p></p>,,,,null,,,,,,,,,,,,,,,,,,,,
1584.300000011921,,directmemory_phase,1071998,,GW/gatlinburg.png,,,,50,,,1,0.875,GW/leesburg.png,GW/westpalmbeach.png,GW/carmel.png,GW/westpalmbeach.png,GW/leesburg.png,GW/carmel.png,1,,,,,,,,,
null,,html-keyboard-response,1072999,,<p></p>,,,,null,,,,,,,,,,,,,,,,,,,,
4102.800000011921,,directmemory_phase,1077103,,GW/shreveport.png,,,,50,,,0,0.7777777777777778,GW/cornwall.png,GW/peoria.png,GW/westpalmbeach.png,GW/cornwall.png,GW/westpalmbeach.png,GW/peoria.png,0.5,closer,,,,,,,,
null,,html-keyboard-response,1078104,,<p></p>,,,,null,,,,,,,,,,,,,,,,,,,,
5538.700000017881,,directmemory_phase,1083644,,GW/westpalmbeach.png,,,,49,,,1,0.8,GW/huntsville.png,GW/carmel.png,GW/peoria.png,GW/huntsville.png,GW/peoria.png,GW/carmel.png,1,,,,,,,,,
null,,html-keyboard-response,1084645,,<p></p>,,,,null,,,,,,,,,,,,,,,,,,,,
null,,directmemory_phase,1091147,,GW/cornwall.png,,,,null,,,0,0.7272727272727273,GW/carmel.png,GW/gatlinburg.png,GW/racine.png,GW/gatlinburg.png,GW/carmel.png,GW/racine.png,0,,,,,,,,,
null,,warning_page,1094148,,warning,,,,null,,,,,,,,,,,,,,,,,,,,
null,,html-keyboard-response,1095151,,<p></p>,,,,null,,,,,,,,,,,,,,,,,,,,
2541.0999999940395,,directmemory_phase,1097693,,GW/huntsville.png,,,,51,,,1,0.75,GW/racine.png,GW/hanover.png,GW/shreveport.png,GW/shreveport.png,GW/hanover.png,GW/racine.png,1,,,,,,,,,
null,,html-keyboard-response,1098696,,<p></p>,,,,null,,,,,,,,,,,,,,,,,,,,
3515,,directmemory_phase,1102212,,GW/westpalmbeach.png,,,,49,,,0,0.6923076923076923,GW/leesburg.png,GW/hotsprings.png,GW/gatlinburg.png,GW/gatlinburg.png,GW/hotsprings.png,GW/leesburg.png,0.5,closer,,,,,,,,
null,,html-keyboard-response,1103213,,<p></p>,,,,null,,,,,,,,,,,,,,,,,,,,
2392.9000000059605,,directmemory_phase,1105607,,GW/cornwall.png,,,,49,,,1,0.7142857142857143,GW/leesburg.png,GW/peoria.png,GW/hanover.png,GW/leesburg.png,GW/hanover.png,GW/peoria.png,1,,,,,,,,,
null,,html-keyboard-response,1106608,,<p></p>,,,,null,,,,,,,,,,,,,,,,,,,,
1294.9000000059605,,directmemory_phase,1107904,,GW/hotsprings.png,,,,50,,,1,0.7333333333333333,GW/westpalmbeach.png,GW/gatlinburg.png,GW/huntsville.png,GW/gatlinburg.png,GW/westpalmbeach.png,GW/huntsville.png,1,,,,,,,,,
null,,html-keyboard-response,1108907,,<p></p>,,,,null,,,,,,,,,,,,,,,,,,,,
3490.800000011921,,directmemory_phase,1112398,,GW/huntsville.png,,,,50,,,1,0.75,GW/gatlinburg.png,GW/cornwall.png,GW/hotsprings.png,GW/cornwall.png,GW/gatlinburg.png,GW/hotsprings.png,1,,,,,,,,,
null,,html-keyboard-response,1113414,,<p></p>,,,,null,,,,,,,,,,,,,,,,,,,,
2989.300000011921,,directmemory_phase,1116404,,GW/newhope.png,,,,49,,,1,0.7647058823529411,GW/boulder.png,GW/racine.png,GW/westpalmbeach.png,GW/boulder.png,GW/westpalmbeach.png,GW/racine.png,1,,,,,,,,,
null,,html-keyboard-response,1117405,,<p></p>,,,,null,,,,,,,,,,,,,,,,,,,,
2171.800000011921,,directmemory_phase,1119578,,GW/hanover.png,,,,49,,,1,0.7777777777777778,GW/shreveport.png,GW/gatlinburg.png,GW/huntsville.png,GW/shreveport.png,GW/huntsville.png,GW/gatlinburg.png,1,,,,,,,,,
null,,html-keyboard-response,1120580,,<p></p>,,,,null,,,,,,,,,,,,,,,,,,,,
4175.0999999940395,,directmemory_phase,1124756,,GW/westpalmbeach.png,,,,51,,,0,0.7368421052631579,GW/boulder.png,GW/racine.png,GW/cornwall.png,GW/boulder.png,GW/cornwall.png,GW/racine.png,0.5,closer,,,,,,,,
null,,html-keyboard-response,1125758,,<p></p>,,,,null,,,,,,,,,,,,,,,,,,,,
2315.5999999940395,,directmemory_phase,1128074,,GW/leesburg.png,,,,50,,,1,0.75,GW/hanover.png,GW/shreveport.png,GW/boulder.png,GW/shreveport.png,GW/hanover.png,GW/boulder.png,1,,,,,,,,,
null,,html-keyboard-response,1129076,,<p></p>,,,,null,,,,,,,,,,,,,,,,,,,,
4596.300000011921,,directmemory_phase,1133673,,GW/hotsprings.png,,,,49,,,1,0.7619047619047619,GW/peoria.png,GW/leesburg.png,GW/boulder.png,GW/peoria.png,GW/boulder.png,GW/leesburg.png,1,,,,,,,,,
null,,html-keyboard-response,1134674,,<p></p>,,,,null,,,,,,,,,,,,,,,,,,,,
4291.199999988079,,directmemory_phase,1138966,,GW/huntsville.png,,,,50,,,0,0.7272727272727273,GW/racine.png,GW/boulder.png,GW/westpalmbeach.png,GW/westpalmbeach.png,GW/boulder.png,GW/racine.png,0.5,closer,,,,,,,,
null,,html-keyboard-response,1139967,,<p></p>,,,,null,,,,,,,,,,,,,,,,,,,,
4380.9000000059605,,directmemory_phase,1144349,,GW/peoria.png,,,,50,,,0,0.6956521739130435,GW/cornwall.png,GW/newhope.png,GW/hotsprings.png,GW/hotsprings.png,GW/newhope.png,GW/cornwall.png,0.5,closer,,,,,,,,
null,,html-keyboard-response,1145351,,<p></p>,,,,null,,,,,,,,,,,,,,,,,,,,
4295.4000000059605,,directmemory_phase,1149647,,GW/leesburg.png,,,,51,,,1,0.7083333333333334,GW/boulder.png,GW/hanover.png,GW/carmel.png,GW/carmel.png,GW/hanover.png,GW/boulder.png,1,,,,,,,,,
null,,html-keyboard-response,1150648,,<p></p>,,,,null,,,,,,,,,,,,,,,,,,,,
1937,,directmemory_phase,1152586,,GW/shreveport.png,,,,50,,,1,0.72,GW/westpalmbeach.png,GW/hanover.png,GW/peoria.png,GW/hanover.png,GW/westpalmbeach.png,GW/peoria.png,1,,,,,,,,,
null,,html-keyboard-response,1153588,,<p></p>,,,,null,,,,,,,,,,,,,,,,,,,,
1991.300000011921,,directmemory_phase,1155580,,GW/boulder.png,,,,49,,,1,0.7307692307692307,GW/westpalmbeach.png,GW/shreveport.png,GW/hotsprings.png,GW/westpalmbeach.png,GW/hotsprings.png,GW/shreveport.png,1,,,,,,,,,
null,,html-keyboard-response,1156581,,<p></p>,,,,null,,,,,,,,,,,,,,,,,,,,
4056.4000000059605,,directmemory_phase,1160638,,GW/carmel.png,,,,49,,,1,0.7407407407407407,GW/leesburg.png,GW/hotsprings.png,GW/cornwall.png,GW/leesburg.png,GW/cornwall.png,GW/hotsprings.png,1,,,,,,,,,
null,,html-keyboard-response,1161640,,<p></p>,,,,null,,,,,,,,,,,,,,,,,,,,
3903.5,,directmemory_phase,1165544,,GW/racine.png,,,,50,,,1,0.75,GW/boulder.png,GW/peoria.png,GW/newhope.png,GW/peoria.png,GW/boulder.png,GW/newhope.png,1,,,,,,,,,
null,,html-keyboard-response,1166545,,<p></p>,,,,null,,,,,,,,,,,,,,,,,,,,
1473.6000000238419,,directmemory_phase,1168020,,GW/gatlinburg.png,,,,49,,,1,0.7586206896551724,GW/hotsprings.png,GW/racine.png,GW/boulder.png,GW/hotsprings.png,GW/boulder.png,GW/racine.png,1,,,,,,,,,
null,,html-keyboard-response,1169022,,<p></p>,,,,null,,,,,,,,,,,,,,,,,,,,
2435.4000000059605,,directmemory_phase,1171458,,GW/boulder.png,,,,50,,,0,0.7333333333333333,GW/leesburg.png,GW/gatlinburg.png,GW/peoria.png,GW/peoria.png,GW/gatlinburg.png,GW/leesburg.png,0.5,closer,,,,,,,,
null,,html-keyboard-response,1172460,,<p></p>,,,,null,,,,,,,,,,,,,,,,,,,,
4749.300000011921,,directmemory_phase,1177210,,GW/cornwall.png,,,,49,,,0,0.7096774193548387,GW/westpalmbeach.png,GW/shreveport.png,GW/boulder.png,GW/shreveport.png,GW/westpalmbeach.png,GW/boulder.png,0.5,closer,,,,,,,,
null,,html-keyboard-response,1178213,,<p></p>,,,,null,,,,,,,,,,,,,,,,,,,,
2289.100000023842,,directmemory_phase,1180503,,GW/peoria.png,,,,51,,,1,0.71875,GW/huntsville.png,GW/newhope.png,GW/boulder.png,GW/boulder.png,GW/newhope.png,GW/huntsville.png,1,,,,,,,,,
null,,html-keyboard-response,1181504,,<p></p>,,,,null,,,,,,,,,,,,,,,,,,,,
43186.19999998808,,intro_1,1224691,,instruct,,0,,,,,,,,,,,,,,,,,,,,,,
11101.09999999404,,intro_2,1235793,,instruct,,1,Next,,,,,,,,,,,,,,,,,,,,,
3261,,intro_3,1239055,,instruct,,1,Next,,,,,,,,,,,,,,,,,,,,,
14829,,intro_4,1253886,,instruct,,0,Previous,,,,,,,,,,,,,,,,,,,,,
586.5999999940395,,intro_3,1254473,,instruct,,1,Next,,,,,,,,,,,,,,,,,,,,,
286.69999998807907,,intro_4,1254761,,instruct,,1,Next,,,,,,,,,,,,,,,,,,,,,
31640.5,,intro_5,1286403,,instruct,,1,Next,,,,,,,,,,,,,,,,,,,,,
22853.29999998212,,intro_6,1309257,,instruct,,1,Next,,,,,,,,,,,,,,,,,,,,,
14579.09999999404,,intro_7,1323837,,instruct,,1,Next,,,,,,,,,,,,,,,,,,,,,
24028.90000000596,,intro_8,1347867,,instruct,,1,Next,,,,,,,,,,,,,,,,,,,,,
2880.300000011921,,shortestpath_phase,1350749,,GW/racine.png,,,,49,GW/hotsprings.png,GW/leesburg.png,1,1,,,,GW/hotsprings.png,,,,,Three Edge Diff,Two Edge Five Edge,,,,,,
null,,html-keyboard-response,1351751,,<p></p>,,,,null,,,,,,,,,,,,,,,,,,,,
1789.5,,shortestpath_phase,1353541,,GW/gatlinburg.png,,,,50,GW/racine.png,GW/peoria.png,1,1,,,,GW/peoria.png,,,,,One Edge Diff,Two Edge Three Edge,,,,,,
null,,html-keyboard-response,1354542,,<p></p>,,,,null,,,,,,,,,,,,,,,,,,,,
3055.5,,shortestpath_phase,1357599,,GW/carmel.png,,,,50,GW/shreveport.png,GW/racine.png,0,0.6666666666666666,,,,GW/shreveport.png,,,,,Four Edge Diff,Two Edge Six Edge,,,,,,
null,,html-keyboard-response,1358600,,<p></p>,,,,null,,,,,,,,,,,,,,,,,,,,
2112.4000000059605,,shortestpath_phase,1360714,,GW/racine.png,,,,49,GW/hanover.png,GW/hotsprings.png,0,0.5,,,,GW/hotsprings.png,,,,,Four Edge Diff,Two Edge Six Edge,,,,,,
null,,html-keyboard-response,1361715,,<p></p>,,,,null,,,,,,,,,,,,,,,,,,,,
3289.5999999940395,,shortestpath_phase,1365006,,GW/peoria.png,,,,50,GW/shreveport.png,GW/hanover.png,0,0.4,,,,GW/shreveport.png,,,,,One Edge Diff,Four Edge Five Edge,,,,,,
null,,html-keyboard-response,1366007,,<p></p>,,,,null,,,,,,,,,,,,,,,,,,,,
1940.7000000178814,,shortestpath_phase,1367948,,GW/carmel.png,,,,49,GW/hotsprings.png,GW/newhope.png,1,0.5,,,,GW/hotsprings.png,,,,,Two Edge Diff,Four Edge Six Edge,,,,,,
null,,html-keyboard-response,1368950,,<p></p>,,,,null,,,,,,,,,,,,,,,,,,,,
2859.800000011921,,shortestpath_phase,1371811,,GW/hanover.png,,,,50,GW/racine.png,GW/cornwall.png,1,0.5714285714285714,,,,GW/cornwall.png,,,,,Four Edge Diff,Two Edge Six Edge,,,,,,
null,,html-keyboard-response,1372812,,<p></p>,,,,null,,,,,,,,,,,,,,,,,,,,
2831.4000000059605,,shortestpath_phase,1375645,,GW/newhope.png,,,,49,GW/leesburg.png,GW/hotsprings.png,0,0.5,,,,GW/hotsprings.png,,,,,Two Edge Diff,Three Edge Five Edge,,,,,,
null,,html-keyboard-response,1376646,,<p></p>,,,,null,,,,,,,,,,,,,,,,,,,,
2014.4000000059605,,shortestpath_phase,1378661,,GW/carmel.png,,,,49,GW/shreveport.png,GW/peoria.png,1,0.5555555555555556,,,,GW/shreveport.png,,,,,Three Edge Diff,Two Edge Five Edge,,,,,,
null,,html-keyboard-response,1379663,,<p></p>,,,,null,,,,,,,,,,,,,,,,,,,,
3331.0999999940395,,shortestpath_phase,1382995,,GW/hanover.png,,,,50,GW/huntsville.png,GW/racine.png,0,0.5,,,,GW/huntsville.png,,,,,Four Edge Diff,Two Edge Six Edge,,,,,,
null,,html-keyboard-response,1383996,,<p></p>,,,,null,,,,,,,,,,,,,,,,,,,,
3575.7000000178814,,shortestpath_phase,1387572,,GW/carmel.png,,,,50,GW/cornwall.png,GW/racine.png,0,0.45454545454545453,,,,GW/cornwall.png,,,,,Four Edge Diff,Two Edge Six Edge,,,,,,
null,,html-keyboard-response,1388574,,<p></p>,,,,null,,,,,,,,,,,,,,,,,,,,
2689.9000000059605,,shortestpath_phase,1391264,,GW/hanover.png,,,,49,GW/leesburg.png,GW/peoria.png,1,0.5,,,,GW/leesburg.png,,,,,Three Edge Diff,Two Edge Five Edge,,,,,,
null,,html-keyboard-response,1392266,,<p></p>,,,,null,,,,,,,,,,,,,,,,,,,,
2610,,shortestpath_phase,1394877,,GW/newhope.png,,,,49,GW/gatlinburg.png,GW/hanover.png,1,0.5384615384615384,,,,GW/gatlinburg.png,,,,,Two Edge Diff,Three Edge Five Edge,,,,,,
null,,html-keyboard-response,1395878,,<p></p>,,,,null,,,,,,,,,,,,,,,,,,,,
2370.800000011921,,shortestpath_phase,1398250,,GW/leesburg.png,,,,50,GW/racine.png,GW/peoria.png,1,0.5714285714285714,,,,GW/peoria.png,,,,,One Edge Diff,Four Edge Five Edge,,,,,,
null,,html-keyboard-response,1399252,,<p></p>,,,,null,,,,,,,,,,,,,,,,,,,,
2659.800000011921,,shortestpath_phase,1401912,,GW/carmel.png,,,,50,GW/boulder.png,GW/shreveport.png,1,0.6,,,,GW/shreveport.png,,,,,Three Edge Diff,Three Edge Six Edge,,,,,,
null,,html-keyboard-response,1402914,,<p></p>,,,,null,,,,,,,,,,,,,,,,,,,,
3192.9000000059605,,shortestpath_phase,1406108,,GW/peoria.png,,,,50,GW/newhope.png,GW/shreveport.png,0,0.5625,,,,GW/newhope.png,,,,,Two Edge Diff,Two Edge Four Edge,,,,,,
null,,html-keyboard-response,1407110,,<p></p>,,,,null,,,,,,,,,,,,,,,,,,,,
3390.9000000059605,,shortestpath_phase,1410501,,GW/leesburg.png,,,,50,GW/boulder.png,GW/hanover.png,1,0.5882352941176471,,,,GW/hanover.png,,,,,Two Edge Diff,Two Edge Four Edge,,,,,,
null,,html-keyboard-response,1411502,,<p></p>,,,,null,,,,,,,,,,,,,,,,,,,,
2957.800000011921,,shortestpath_phase,1414461,,GW/peoria.png,,,,50,GW/carmel.png,GW/westpalmbeach.png,1,0.6111111111111112,,,,GW/westpalmbeach.png,,,,,Three Edge Diff,Three Edge Six Edge,,,,,,
null,,html-keyboard-response,1415462,,<p></p>,,,,null,,,,,,,,,,,,,,,,,,,,
2789.9000000059605,,shortestpath_phase,1418253,,GW/hanover.png,,,,49,GW/huntsville.png,GW/gatlinburg.png,1,0.631578947368421,,,,GW/huntsville.png,,,,,One Edge Diff,Two Edge Three Edge,,,,,,
null,,html-keyboard-response,1419254,,<p></p>,,,,null,,,,,,,,,,,,,,,,,,,,
3543.5,,shortestpath_phase,1422798,,GW/peoria.png,,,,50,GW/shreveport.png,GW/gatlinburg.png,1,0.65,,,,GW/gatlinburg.png,,,,,Two Edge Diff,Two Edge Four Edge,,,,,,
null,,html-keyboard-response,1423800,,<p></p>,,,,null,,,,,,,,,,,,,,,,,,,,
3071.699999988079,,shortestpath_phase,1426872,,GW/hanover.png,,,,49,GW/westpalmbeach.png,GW/hotsprings.png,1,0.6666666666666666,,,,GW/westpalmbeach.png,,,,,One Edge Diff,Three Edge Four Edge,,,,,,
null,,html-keyboard-response,1427875,,<p></p>,,,,null,,,,,,,,,,,,,,,,,,,,
2697.7000000178814,,shortestpath_phase,1430573,,GW/newhope.png,,,,49,GW/peoria.png,GW/leesburg.png,1,0.6818181818181818,,,,GW/peoria.png,,,,,Three Edge Diff,Three Edge Six Edge,,,,,,
null,,html-keyboard-response,1431575,,<p></p>,,,,null,,,,,,,,,,,,,,,,,,,,
3451.800000011921,,shortestpath_phase,1435027,,GW/carmel.png,,,,49,GW/gatlinburg.png,GW/westpalmbeach.png,1,0.6956521739130435,,,,GW/gatlinburg.png,,,,,One Edge Diff,Three Edge Four Edge,,,,,,
null,,html-keyboard-response,1436030,,<p></p>,,,,null,,,,,,,,,,,,,,,,,,,,
2705.699999988079,,shortestpath_phase,1438736,,GW/racine.png,,,,49,GW/carmel.png,GW/cornwall.png,0,0.6666666666666666,,,,GW/cornwall.png,,,,,Two Edge Diff,Four Edge Six Edge,,,,,,
null,,html-keyboard-response,1439737,,<p></p>,,,,null,,,,,,,,,,,,,,,,,,,,
2496.300000011921,,shortestpath_phase,1442234,,GW/carmel.png,,,,49,GW/shreveport.png,GW/newhope.png,1,0.68,,,,GW/shreveport.png,,,,,Four Edge Diff,Two Edge Six Edge,,,,,,
null,,html-keyboard-response,1443236,,<p></p>,,,,null,,,,,,,,,,,,,,,,,,,,
2941.300000011921,,shortestpath_phase,1446178,,GW/peoria.png,,,,49,GW/gatlinburg.png,GW/hanover.png,1,0.6923076923076923,,,,GW/gatlinburg.png,,,,,Three Edge Diff,Three Edge Six Edge,,,,,,
null,,html-keyboard-response,1447180,,<p></p>,,,,null,,,,,,,,,,,,,,,,,,,,
3479.7000000178814,,shortestpath_phase,1450660,,GW/hanover.png,,,,49,GW/peoria.png,GW/huntsville.png,0,0.6666666666666666,,,,GW/huntsville.png,,,,,Three Edge Diff,Three Edge Six Edge,,,,,,
null,,html-keyboard-response,1451663,,<p></p>,,,,null,,,,,,,,,,,,,,,,,,,,
4425.300000011921,,shortestpath_phase,1456089,,GW/peoria.png,,,,50,GW/westpalmbeach.png,GW/hanover.png,0,0.6428571428571429,,,,GW/westpalmbeach.png,,,,,Three Edge Diff,Two Edge Five Edge,,,,,,
null,,html-keyboard-response,1457092,,<p></p>,,,,null,,,,,,,,,,,,,,,,,,,,
1772.9000000059605,,shortestpath_phase,1458865,,GW/hanover.png,,,,50,GW/racine.png,GW/boulder.png,1,0.6551724137931034,,,,GW/boulder.png,,,,,Two Edge Diff,Four Edge Six Edge,,,,,,
null,,html-keyboard-response,1459867,,<p></p>,,,,null,,,,,,,,,,,,,,,,,,,,
1529.300000011921,,shortestpath_phase,1461397,,GW/carmel.png,,,,50,GW/westpalmbeach.png,GW/shreveport.png,1,0.6666666666666666,,,,GW/shreveport.png,,,,,Two Edge Diff,Two Edge Four Edge,,,,,,
null,,html-keyboard-response,1462400,,<p></p>,,,,null,,,,,,,,,,,,,,,,,,,,
2880.9000000059605,,shortestpath_phase,1465281,,GW/leesburg.png,,,,50,GW/racine.png,GW/hanover.png,1,0.6774193548387096,,,,GW/hanover.png,,,,,Three Edge Diff,Two Edge Five Edge,,,,,,
null,,html-keyboard-response,1466283,,<p></p>,,,,null,,,,,,,,,,,,,,,,,,,,
1642.0999999940395,,shortestpath_phase,1467926,,GW/racine.png,,,,50,GW/gatlinburg.png,GW/leesburg.png,0,0.65625,,,,GW/gatlinburg.png,,,,,Two Edge Diff,Three Edge Five Edge,,,,,,
null,,html-keyboard-response,1468928,,<p></p>,,,,null,,,,,,,,,,,,,,,,,,,,
3104.100000023842,,shortestpath_phase,1472032,,GW/hanover.png,,,,50,GW/peoria.png,GW/cornwall.png,1,0.6666666666666666,,,,GW/cornwall.png,,,,,Three Edge Diff,Two Edge Five Edge,,,,,,
null,,html-keyboard-response,1473034,,<p></p>,,,,null,,,,,,,,,,,,,,,,,,,,
3431.5,,shortestpath_phase,1476466,,GW/peoria.png,,,,50,GW/gatlinburg.png,GW/carmel.png,0,0.6470588235294118,,,,GW/gatlinburg.png,,,,,Three Edge Diff,Two Edge Five Edge,,,,,,
null,,html-keyboard-response,1477468,,<p></p>,,,,null,,,,,,,,,,,,,,,,,,,,
2181,,shortestpath_phase,1479649,,GW/newhope.png,,,,50,GW/carmel.png,GW/hanover.png,1,0.6571428571428571,,,,GW/hanover.png,,,,,One Edge Diff,Five Edge Six Edge,,,,,,
null,,html-keyboard-response,1480652,,<p></p>,,,,null,,,,,,,,,,,,,,,,,,,,
2294.899999976158,,shortestpath_phase,1482947,,GW/racine.png,,,,50,GW/boulder.png,GW/carmel.png,0,0.6388888888888888,,,,GW/boulder.png,,,,,Four Edge Diff,Two Edge Six Edge,,,,,,
null,,html-keyboard-response,1483949,,<p></p>,,,,null,,,,,,,,,,,,,,,,,,,,
3562.2999999821186,,shortestpath_phase,1487512,,GW/hanover.png,,,,49,GW/huntsville.png,GW/boulder.png,1,0.6486486486486487,,,,GW/huntsville.png,,,,,Two Edge Diff,Two Edge Four Edge,,,,,,
null,,html-keyboard-response,1488514,,<p></p>,,,,null,,,,,,,,,,,,,,,,,,,,
3978.5,,shortestpath_phase,1492493,,GW/carmel.png,,,,50,GW/peoria.png,GW/cornwall.png,1,0.6578947368421053,,,,GW/cornwall.png,,,,,Three Edge Diff,Three Edge Six Edge,,,,,,
null,,html-keyboard-response,1493495,,<p></p>,,,,null,,,,,,,,,,,,,,,,,,,,
3307.2999999821186,,shortestpath_phase,1496803,,GW/leesburg.png,,,,50,GW/gatlinburg.png,GW/newhope.png,0,0.6410256410256411,,,,GW/gatlinburg.png,,,,,Three Edge Diff,Two Edge Five Edge,,,,,,
null,,html-keyboard-response,1497805,,<p></p>,,,,null,,,,,,,,,,,,,,,,,,,,
2272.5999999940395,,shortestpath_phase,1500078,,GW/hanover.png,,,,49,GW/newhope.png,GW/racine.png,1,0.65,,,,GW/newhope.png,,,,,One Edge Diff,Five Edge Six Edge,,,,,,
null,,html-keyboard-response,1501079,,<p></p>,,,,null,,,,,,,,,,,,,,,,,,,,
2001.2000000178814,,shortestpath_phase,1503081,,GW/huntsville.png,,,,49,GW/boulder.png,GW/newhope.png,1,0.6585365853658537,,,,GW/boulder.png,,,,,One Edge Diff,Two Edge Three Edge,,,,,,
null,,html-keyboard-response,1504084,,<p></p>,,,,null,,,,,,,,,,,,,,,,,,,,
3279.600000023842,,shortestpath_phase,1507364,,GW/peoria.png,,,,49,GW/huntsville.png,GW/newhope.png,0,0.6428571428571429,,,,GW/newhope.png,,,,,One Edge Diff,Two Edge Three Edge,,,,,,
null,,html-keyboard-response,1508366,,<p></p>,,,,null,,,,,,,,,,,,,,,,,,,,
3280.4000000059605,,shortestpath_phase,1511647,,GW/shreveport.png,,,,49,GW/racine.png,GW/gatlinburg.png,0,0.627906976744186,,,,GW/gatlinburg.png,,,,,Three Edge Diff,Two Edge Five Edge,,,,,,
null,,html-keyboard-response,1512648,,<p></p>,,,,null,,,,,,,,,,,,,,,,,,,,
1773.300000011921,,shortestpath_phase,1514422,,GW/racine.png,,,,49,GW/cornwall.png,GW/hanover.png,1,0.6363636363636364,,,,GW/cornwall.png,,,,,Two Edge Diff,Four Edge Six Edge,,,,,,
null,,html-keyboard-response,1515424,,<p></p>,,,,null,,,,,,,,,,,,,,,,,,,,
4629.899999976158,,shortestpath_phase,1520054,,GW/hotsprings.png,,,,49,GW/huntsville.png,GW/carmel.png,1,0.6444444444444445,,,,GW/huntsville.png,,,,,One Edge Diff,Three Edge Four Edge,,,,,,
null,,html-keyboard-response,1521056,,<p></p>,,,,null,,,,,,,,,,,,,,,,,,,,
3201,,shortestpath_phase,1524258,,GW/racine.png,,,,49,GW/hanover.png,GW/boulder.png,0,0.6304347826086957,,,,GW/boulder.png,,,,,Four Edge Diff,Two Edge Six Edge,,,,,,
null,,html-keyboard-response,1525262,,<p></p>,,,,null,,,,,,,,,,,,,,,,,,,,
2705.5,,shortestpath_phase,1527968,,GW/peoria.png,,,,50,GW/hanover.png,GW/cornwall.png,1,0.6382978723404256,,,,GW/cornwall.png,,,,,Two Edge Diff,Three Edge Five Edge,,,,,,
null,,html-keyboard-response,1528970,,<p></p>,,,,null,,,,,,,,,,,,,,,,,,,,
2946.0999999940395,,shortestpath_phase,1531917,,GW/newhope.png,,,,50,GW/racine.png,GW/hanover.png,0,0.625,,,,GW/racine.png,,,,,Two Edge Diff,Three Edge Five Edge,,,,,,
null,,html-keyboard-response,1532920,,<p></p>,,,,null,,,,,,,,,,,,,,,,,,,,
1963.7999999821186,,shortestpath_phase,1534884,,GW/leesburg.png,,,,50,GW/racine.png,GW/huntsville.png,1,0.6326530612244898,,,,GW/huntsville.png,,,,,Three Edge Diff,Three Edge Six Edge,,,,,,
null,,html-keyboard-response,1535886,,<p></p>,,,,null,,,,,,,,,,,,,,,,,,,,
4434.5,,shortestpath_phase,1540321,,GW/westpalmbeach.png,,,,50,GW/carmel.png,GW/peoria.png,1,0.64,,,,GW/peoria.png,,,,,Two Edge Diff,Two Edge Four Edge,,,,,,
null,,html-keyboard-response,1541337,,<p></p>,,,,null,,,,,,,,,,,,,,,,,,,,
3639.399999976158,,shortestpath_phase,1544977,,GW/racine.png,,,,50,GW/carmel.png,GW/leesburg.png,1,0.6470588235294118,,,,GW/leesburg.png,,,,,One Edge Diff,Five Edge Six Edge,,,,,,
null,,html-keyboard-response,1545979,,<p></p>,,,,null,,,,,,,,,,,,,,,,,,,,
4768.899999976158,,shortestpath_phase,1550748,,GW/carmel.png,,,,49,GW/boulder.png,GW/westpalmbeach.png,0,0.6346153846153846,,,,GW/westpalmbeach.png,,,,,One Edge Diff,Four Edge Five Edge,,,,,,
null,,html-keyboard-response,1551750,,<p></p>,,,,null,,,,,,,,,,,,,,,,,,,,
1990.800000011921,,shortestpath_phase,1553741,,GW/leesburg.png,,,,50,GW/newhope.png,GW/peoria.png,1,0.6415094339622641,,,,GW/peoria.png,,,,,One Edge Diff,Four Edge Five Edge,,,,,,
null,,html-keyboard-response,1554742,,<p></p>,,,,null,,,,,,,,,,,,,,,,,,,,
4320.199999988079,,shortestpath_phase,1559063,,GW/newhope.png,,,,49,GW/shreveport.png,GW/carmel.png,1,0.6481481481481481,,,,GW/shreveport.png,,,,,Two Edge Diff,Four Edge Six Edge,,,,,,
null,,html-keyboard-response,1560065,,<p></p>,,,,null,,,,,,,,,,,,,,,,,,,,
2421.4000000059605,,shortestpath_phase,1562487,,GW/peoria.png,,,,49,GW/gatlinburg.png,GW/carmel.png,1,0.6545454545454545,,,,GW/gatlinburg.png,,,,,Three Edge Diff,Three Edge Six Edge,,,,,,
null,,html-keyboard-response,1563490,,<p></p>,,,,null,,,,,,,,,,,,,,,,,,,,
3615.7999999821186,,shortestpath_phase,1567106,,GW/carmel.png,,,,50,GW/newhope.png,GW/cornwall.png,1,0.6607142857142857,,,,GW/cornwall.png,,,,,Four Edge Diff,Two Edge Six Edge,,,,,,
null,,html-keyboard-response,1568108,,<p></p>,,,,null,,,,,,,,,,,,,,,,,,,,
3529.0999999940395,,shortestpath_phase,1571638,,GW/newhope.png,,,,50,GW/peoria.png,GW/carmel.png,0,0.6491228070175439,,,,GW/peoria.png,,,,,Four Edge Diff,Two Edge Six Edge,,,,,,
null,,html-keyboard-response,1572639,,<p></p>,,,,null,,,,,,,,,,,,,,,,,,,,
2398.2000000178814,,shortestpath_phase,1575038,,GW/racine.png,,,,49,GW/boulder.png,GW/leesburg.png,1,0.6551724137931034,,,,GW/boulder.png,,,,,Three Edge Diff,Three Edge Six Edge,,,,,,
null,,html-keyboard-response,1576040,,<p></p>,,,,null,,,,,,,,,,,,,,,,,,,,
4320.4000000059605,,shortestpath_phase,1580361,,GW/newhope.png,,,,49,GW/leesburg.png,GW/shreveport.png,0,0.6440677966101694,,,,GW/shreveport.png,,,,,One Edge Diff,Four Edge Five Edge,,,,,,
null,,html-keyboard-response,1581363,,<p></p>,,,,null,,,,,,,,,,,,,,,,,,,,
1620.7999999821186,,shortestpath_phase,1582984,,GW/peoria.png,,,,50,GW/carmel.png,GW/westpalmbeach.png,1,0.65,,,,GW/westpalmbeach.png,,,,,Three Edge Diff,Two Edge Five Edge,,,,,,
null,,html-keyboard-response,1583986,,<p></p>,,,,null,,,,,,,,,,,,,,,,,,,,
2799.2999999821186,,shortestpath_phase,1586786,,GW/carmel.png,,,,49,GW/hotsprings.png,GW/racine.png,1,0.6557377049180327,,,,GW/hotsprings.png,,,,,Two Edge Diff,Four Edge Six Edge,,,,,,
null,,html-keyboard-response,1587788,,<p></p>,,,,null,,,,,,,,,,,,,,,,,,,,
2564.199999988079,,shortestpath_phase,1590353,,GW/newhope.png,,,,50,GW/hanover.png,GW/westpalmbeach.png,1,0.6612903225806451,,,,GW/westpalmbeach.png,,,,,Three Edge Diff,Two Edge Five Edge,,,,,,
null,,html-keyboard-response,1591355,,<p></p>,,,,null,,,,,,,,,,,,,,,,,,,,
5081.699999988079,,shortestpath_phase,1596437,,GW/racine.png,,,,50,GW/leesburg.png,GW/cornwall.png,1,0.6666666666666666,,,,GW/cornwall.png,,,,,One Edge Diff,Four Edge Five Edge,,,,,,
null,,html-keyboard-response,1597439,,<p></p>,,,,null,,,,,,,,,,,,,,,,,,,,
1778.2999999821186,,shortestpath_phase,1599218,,GW/newhope.png,,,,49,GW/huntsville.png,GW/cornwall.png,1,0.671875,,,,GW/huntsville.png,,,,,One Edge Diff,Three Edge Four Edge,,,,,,
null,,html-keyboard-response,1600221,,<p></p>,,,,null,,,,,,,,,,,,,,,,,,,,
2941.5999999940395,,shortestpath_phase,1603163,,GW/westpalmbeach.png,,,,50,GW/racine.png,GW/carmel.png,0,0.6615384615384615,,,,GW/racine.png,,,,,One Edge Diff,Three Edge Four Edge,,,,,,
null,,html-keyboard-response,1604166,,<p></p>,,,,null,,,,,,,,,,,,,,,,,,,,
4120.0999999940395,,shortestpath_phase,1608287,,GW/newhope.png,,,,49,GW/huntsville.png,GW/hanover.png,1,0.6666666666666666,,,,GW/huntsville.png,,,,,Two Edge Diff,Three Edge Five Edge,,,,,,
null,,html-keyboard-response,1609289,,<p></p>,,,,null,,,,,,,,,,,,,,,,,,,,
1298.300000011921,,shortestpath_phase,1610588,,GW/boulder.png,,,,50,GW/carmel.png,GW/gatlinburg.png,1,0.6716417910447762,,,,GW/gatlinburg.png,,,,,Three Edge Diff,Three Edge Six Edge,,,,,,
null,,html-keyboard-response,1611591,,<p></p>,,,,null,,,,,,,,,,,,,,,,,,,,
3883.5999999940395,,shortestpath_phase,1615475,,GW/leesburg.png,,,,50,GW/huntsville.png,GW/newhope.png,0,0.6617647058823529,,,,GW/huntsville.png,,,,,Three Edge Diff,Three Edge Six Edge,,,,,,
null,,html-keyboard-response,1616477,,<p></p>,,,,null,,,,,,,,,,,,,,,,,,,,
3377.4000000059605,,shortestpath_phase,1619855,,GW/boulder.png,,,,50,GW/carmel.png,GW/cornwall.png,1,0.6666666666666666,,,,GW/cornwall.png,,,,,Two Edge Diff,Three Edge Five Edge,,,,,,
null,,html-keyboard-response,1620857,,<p></p>,,,,null,,,,,,,,,,,,,,,,,,,,
5561.899999976158,,shortestpath_phase,1626419,,GW/carmel.png,,,,49,GW/peoria.png,GW/newhope.png,1,0.6714285714285714,,,,GW/peoria.png,,,,,One Edge Diff,Five Edge Six Edge,,,,,,
null,,html-keyboard-response,1627421,,<p></p>,,,,null,,,,,,,,,,,,,,,,,,,,
2282.5,,shortestpath_phase,1629704,,GW/racine.png,,,,50,GW/huntsville.png,GW/hanover.png,0,0.6619718309859155,,,,GW/huntsville.png,,,,,Two Edge Diff,Four Edge Six Edge,,,,,,
null,,html-keyboard-response,1630706,,<p></p>,,,,null,,,,,,,,,,,,,,,,,,,,
3845.0999999940395,,shortestpath_phase,1634552,,GW/newhope.png,,,,50,GW/westpalmbeach.png,GW/leesburg.png,0,0.6527777777777778,,,,GW/westpalmbeach.png,,,,,Three Edge Diff,Three Edge Six Edge,,,,,,
null,,html-keyboard-response,1635554,,<p></p>,,,,null,,,,,,,,,,,,,,,,,,,,
3343.5,,shortestpath_phase,1638898,,GW/racine.png,,,,50,GW/carmel.png,GW/hotsprings.png,1,0.6575342465753424,,,,GW/hotsprings.png,,,,,Four Edge Diff,Two Edge Six Edge,,,,,,
null,,html-keyboard-response,1639900,,<p></p>,,,,null,,,,,,,,,,,,,,,,,,,,
2651.7000000178814,,shortestpath_phase,1642552,,GW/carmel.png,,,,50,GW/racine.png,GW/westpalmbeach.png,1,0.6621621621621622,,,,GW/westpalmbeach.png,,,,,Two Edge Diff,Four Edge Six Edge,,,,,,
null,,html-keyboard-response,1643557,,<p></p>,,,,null,,,,,,,,,,,,,,,,,,,,
3595.4000000059605,,shortestpath_phase,1647153,,GW/hanover.png,,,,50,GW/gatlinburg.png,GW/peoria.png,0,0.6533333333333333,,,,GW/gatlinburg.png,,,,,Two Edge Diff,Three Edge Five Edge,,,,,,
null,,html-keyboard-response,1648154,,<p></p>,,,,null,,,,,,,,,,,,,,,,,,,,
4801.300000011921,,shortestpath_phase,1652956,,GW/hotsprings.png,,,,49,GW/hanover.png,GW/cornwall.png,0,0.6447368421052632,,,,GW/cornwall.png,,,,,Two Edge Diff,Two Edge Four Edge,,,,,,
null,,html-keyboard-response,1653957,,<p></p>,,,,null,,,,,,,,,,,,,,,,,,,,
4933.800000011921,,shortestpath_phase,1658892,,GW/hanover.png,,,,49,GW/leesburg.png,GW/racine.png,1,0.6493506493506493,,,,GW/leesburg.png,,,,,Four Edge Diff,Two Edge Six Edge,,,,,,
null,,html-keyboard-response,1659893,,<p></p>,,,,null,,,,,,,,,,,,,,,,,,,,
4026.0999999940395,,shortestpath_phase,1663920,,GW/racine.png,,,,50,GW/gatlinburg.png,GW/cornwall.png,0,0.6410256410256411,,,,GW/gatlinburg.png,,,,,One Edge Diff,Three Edge Four Edge,,,,,,
null,,html-keyboard-response,1664921,,<p></p>,,,,null,,,,,,,,,,,,,,,,,,,,
4698.600000023842,,shortestpath_phase,1669621,,GW/newhope.png,,,,50,GW/leesburg.png,GW/carmel.png,0,0.6329113924050633,,,,GW/leesburg.png,,,,,One Edge Diff,Five Edge Six Edge,,,,,,
null,,html-keyboard-response,1670622,,<p></p>,,,,null,,,,,,,,,,,,,,,,,,,,
2401.800000011921,,shortestpath_phase,1673025,,GW/peoria.png,,,,50,GW/huntsville.png,GW/gatlinburg.png,1,0.6375,,,,GW/gatlinburg.png,,,,,One Edge Diff,Two Edge Three Edge,,,,,,
null,,html-keyboard-response,1674026,,<p></p>,,,,null,,,,,,,,,,,,,,,,,,,,
2243.800000011921,,shortestpath_phase,1676271,,GW/hanover.png,,,,50,GW/huntsville.png,GW/newhope.png,0,0.6296296296296297,,,,GW/huntsville.png,,,,,Three Edge Diff,Two Edge Five Edge,,,,,,
null,,html-keyboard-response,1677273,,<p></p>,,,,null,,,,,,,,,,,,,,,,,,,,
5217.5999999940395,,shortestpath_phase,1682491,,GW/westpalmbeach.png,,,,50,GW/peoria.png,GW/leesburg.png,0,0.6219512195121951,,,,GW/peoria.png,,,,,One Edge Diff,Two Edge Three Edge,,,,,,
null,,html-keyboard-response,1683494,,<p></p>,,,,null,,,,,,,,,,,,,,,,,,,,
5315.4000000059605,,shortestpath_phase,1688810,,GW/huntsville.png,,,,50,GW/racine.png,GW/gatlinburg.png,1,0.6265060240963856,,,,GW/gatlinburg.png,,,,,Two Edge Diff,Two Edge Four Edge,,,,,,
