rt,responses,trial_type,time_elapsed,sequence,stimulus,graphorder,button_pressed,response,key_press,stimulus_left,stimulus_right,accuracy,cumulative_accuracy,stimulus_down_left,stimulus_down_mid,stimulus_down_right,stimulus_correct,stimulus_short,stimulus_far,weighted_accuracy,missedtrial,condition,specific_pairs,imgL_ID,imgR_ID,linedress,linedressed,detour_trial,linedressed_detor
9431.299999999814,{worker_id:56d39b96da2aaa000dab6178},id_enter,9432,blocked,replication,GW/racine.png; GW/boulder.png; GW/hotsprings.png; GW/westpalmbeach.png; GW/gatlinburg.png; GW/leesburg.png; GW/peoria.png; GW/hanover.png; GW/carmel.png; GW/newhope.png; GW/huntsville.png; GW/shreveport.png; GW/cornwall.png,,,,,,,,,,,,,,,,,,,,,,,
9355.5,,fullscreen,18790,,fullscreen,,0,,,,,,,,,,,,,,,,,,,,,,
14061.400000000373,,intro_1,32852,,instruct,,0,,,,,,,,,,,,,,,,,,,,,,
18189.799999999814,,intro_2,51043,,instruct,,1,Next,,,,,,,,,,,,,,,,,,,,,
8150.0999999996275,,intro_3,59194,,instruct,,1,Next,,,,,,,,,,,,,,,,,,,,,
null,,learn_prac_1,62197,,lean_prac_1,,,,null,,,,,,,,,,,,,,,,,,,,
null,,html-keyboard-response,63202,,<p></p>,,,,null,,,,,,,,,,,,,,,,,,,,
3519.2999999998137,,intro_1,66723,,instruct,,0,,,,,,,,,,,,,,,,,,,,,,
4179.4000000003725,,intro_2,70903,,instruct,,1,Next,,,,,,,,,,,,,,,,,,,,,
null,,learn_prac_2,73906,,lean_prac_2,,,,null,,,,,,,,,,,,,,,,,,,,
null,,html-keyboard-response,74908,,<p></p>,,,,null,,,,,,,,,,,,,,,,,,,,
1684.2000000001863,,intro_1,76593,,instruct,,0,,,,,,,,,,,,,,,,,,,,,,
1938.2999999998137,,intro_2,78532,,instruct,,1,Next,,,,,,,,,,,,,,,,,,,,,
13567.200000000186,,intro_3,92100,,instruct,,1,Next,,,,,,,,,,,,,,,,,,,,,
null,,prac_atten_color_black,93084,,black_plus_sign,,,,null,,,,,,,,,,,,,,,,,,,,
null,,prac_atten_color,93507,,prac_stop_color,,,,null,,,,,,,,,,,,,,,,,,,,
498.40000000037253,,prac_atten_color_black,95509,,black_plus_sign,,,,49,,,,,,,,,,,,,,,,,,,,
null,,prac_atten_color_black,96496,,black_plus_sign,,,,null,,,,,,,,,,,,,,,,,,,,
694.2999999998137,,prac_atten_color,97427,,prac_stop_color,,,,50,,,,,,,,,,,,,,,,,,,,
null,,prac_atten_color_black,99428,,black_plus_sign,,,,null,,,,,,,,,,,,,,,,,,,,
null,,prac_atten_color_black,99902,,black_plus_sign,,,,null,,,,,,,,,,,,,,,,,,,,
569.2999999998137,,prac_atten_color,100553,,prac_stop_color,,,,50,,,,,,,,,,,,,,,,,,,,
null,,prac_atten_color_black,102555,,black_plus_sign,,,,null,,,,,,,,,,,,,,,,,,,,
null,,prac_atten_color_black,103311,,black_plus_sign,,,,null,,,,,,,,,,,,,,,,,,,,
444.6000000005588,,prac_atten_color,103988,,prac_stop_color,,,,49,,,,,,,,,,,,,,,,,,,,
null,,prac_atten_color_black,105991,,black_plus_sign,,,,null,,,,,,,,,,,,,,,,,,,,
null,,prac_atten_color_black,106719,,black_plus_sign,,,,null,,,,,,,,,,,,,,,,,,,,
390.40000000037253,,prac_atten_color,107479,,prac_stop_color,,,,50,,,,,,,,,,,,,,,,,,,,
null,,prac_atten_color_black,109481,,black_plus_sign,,,,null,,,,,,,,,,,,,,,,,,,,
null,,prac_atten_color_black,110129,,black_plus_sign,,,,null,,,,,,,,,,,,,,,,,,,,
372.5,,prac_atten_color,110783,,prac_stop_color,,,,50,,,,,,,,,,,,,,,,,,,,
null,,prac_atten_color_black,112786,,black_plus_sign,,,,null,,,,,,,,,,,,,,,,,,,,
null,,prac_atten_color_black,113539,,black_plus_sign,,,,null,,,,,,,,,,,,,,,,,,,,
null,,prac_atten_color,113987,,prac_stop_color,,,,null,,,,,,,,,,,,,,,,,,,,
41.799999999813735,,prac_atten_color_black,115989,,black_plus_sign,,,,49,,,,,,,,,,,,,,,,,,,,
null,,prac_atten_color_black,116947,,black_plus_sign,,,,null,,,,,,,,,,,,,,,,,,,,
550.5999999996275,,prac_atten_color,117812,,prac_stop_color,,,,50,,,,,,,,,,,,,,,,,,,,
null,,prac_atten_color_black,119815,,black_plus_sign,,,,null,,,,,,,,,,,,,,,,,,,,
null,,prac_atten_color_black,120355,,black_plus_sign,,,,null,,,,,,,,,,,,,,,,,,,,
544.7000000001863,,prac_atten_color,121302,,prac_stop_color,,,,49,,,,,,,,,,,,,,,,,,,,
null,,prac_atten_color_black,123306,,black_plus_sign,,,,null,,,,,,,,,,,,,,,,,,,,
null,,prac_atten_color_black,123763,,black_plus_sign,,,,null,,,,,,,,,,,,,,,,,,,,
464.69999999925494,,prac_atten_color,124435,,prac_stop_color,,,,49,,,,,,,,,,,,,,,,,,,,
null,,prac_atten_color_black,126438,,black_plus_sign,,,,null,,,,,,,,,,,,,,,,,,,,
3339.2000000001863,,attentioncheck_feedback,129780,,cross_check_feedback,,0,,,,,,,,,,,,,,,,,,,,,,
11826.100000000559,,last_instruct,141607,,instruct,,,,32,,,,,,,,,,,,,,,,,,,,
null,,learn_phase(without_color),144611,,black_plus_sign,,,,null,GW/racine.png,GW/boulder.png,,,,,,,,,,,,,,,,,,
null,,black_cross(without_color),145537,,yellow,,,,null,GW/racine.png,GW/boulder.png,,,,,,,,,,,,,,,,,,
null,,rt_plussign_withcolor,146040,,yellow,,,,null,GW/racine.png,GW/boulder.png,,,,,,,,,,,,,,,,,,
1067.3999999994412,,rt_thecrossant_black,147120,,black_plus_sign,,,,50,,,1,1,,,,,,,,,,,,,,,,
null,,color_black,147224,,black_plus_sign,,,,null,,,,,,,,,,,,,,,,,,,,
null,,learn_phase(without_color),150228,,black_plus_sign,,,,null,GW/peoria.png,GW/leesburg.png,,,,,,,,,,,,,,,,,,
null,,black_cross(without_color),150699,,yellow,,,,null,GW/peoria.png,GW/leesburg.png,,,,,,,,,,,,,,,,,,
null,,rt_plussign_withcolor,151201,,yellow,,,,null,GW/peoria.png,GW/leesburg.png,,,,,,,,,,,,,,,,,,
1093.3999999994412,,rt_thecrossant_black,152737,,black_plus_sign,,,,50,,,1,1,,,,,,,,,,,,,,,,
null,,color_black,152839,,black_plus_sign,,,,null,,,,,,,,,,,,,,,,,,,,
null,,learn_phase(without_color),155843,,black_plus_sign,,,,null,GW/huntsville.png,GW/shreveport.png,,,,,,,,,,,,,,,,,,
null,,black_cross(without_color),156283,,yellow,,,,null,GW/huntsville.png,GW/shreveport.png,,,,,,,,,,,,,,,,,,
null,,rt_plussign_withcolor,156786,,yellow,,,,null,GW/huntsville.png,GW/shreveport.png,,,,,,,,,,,,,,,,,,
593,,rt_thecrossant_black,158351,,black_plus_sign,,,,50,,,1,1,,,,,,,,,,,,,,,,
null,,color_black,158454,,black_plus_sign,,,,null,,,,,,,,,,,,,,,,,,,,
null,,learn_phase(without_color),161458,,black_plus_sign,,,,null,GW/hanover.png,GW/carmel.png,,,,,,,,,,,,,,,,,,
null,,black_cross(without_color),162496,,blue,,,,null,GW/hanover.png,GW/carmel.png,,,,,,,,,,,,,,,,,,
null,,rt_plussign_withcolor,162999,,blue,,,,null,GW/hanover.png,GW/carmel.png,,,,,,,,,,,,,,,,,,
590.9000000003725,,rt_thecrossant_black,163967,,black_plus_sign,,,,49,,,1,1,,,,,,,,,,,,,,,,
null,,color_black,164071,,black_plus_sign,,,,null,,,,,,,,,,,,,,,,,,,,
null,,learn_phase(without_color),167074,,black_plus_sign,,,,null,GW/huntsville.png,GW/shreveport.png,,,,,,,,,,,,,,,,,,
null,,black_cross(without_color),167726,,blue,,,,null,GW/huntsville.png,GW/shreveport.png,,,,,,,,,,,,,,,,,,
null,,rt_plussign_withcolor,168229,,blue,,,,null,GW/huntsville.png,GW/shreveport.png,,,,,,,,,,,,,,,,,,
1222.7999999998137,,rt_thecrossant_black,169588,,black_plus_sign,,,,49,,,1,1,,,,,,,,,,,,,,,,
null,,color_black,169690,,black_plus_sign,,,,null,,,,,,,,,,,,,,,,,,,,
null,,learn_phase(without_color),172693,,black_plus_sign,,,,null,GW/boulder.png,GW/racine.png,,,,,,,,,,,,,,,,,,
null,,black_cross(without_color),173277,,blue,,,,null,GW/boulder.png,GW/racine.png,,,,,,,,,,,,,,,,,,
null,,rt_plussign_withcolor,173780,,blue,,,,null,GW/boulder.png,GW/racine.png,,,,,,,,,,,,,,,,,,
791.9000000003725,,rt_thecrossant_black,175200,,black_plus_sign,,,,49,,,1,1,,,,,,,,,,,,,,,,
null,,color_black,175307,,black_plus_sign,,,,null,,,,,,,,,,,,,,,,,,,,
null,,learn_phase(without_color),178310,,black_plus_sign,,,,null,GW/carmel.png,GW/hanover.png,,,,,,,,,,,,,,,,,,
null,,black_cross(without_color),179351,,blue,,,,null,GW/carmel.png,GW/hanover.png,,,,,,,,,,,,,,,,,,
null,,rt_plussign_withcolor,179854,,blue,,,,null,GW/carmel.png,GW/hanover.png,,,,,,,,,,,,,,,,,,
701,,rt_thecrossant_black,180820,,black_plus_sign,,,,49,,,1,1,,,,,,,,,,,,,,,,
null,,color_black,180923,,black_plus_sign,,,,null,,,,,,,,,,,,,,,,,,,,
null,,learn_phase(without_color),183927,,black_plus_sign,,,,null,GW/racine.png,GW/boulder.png,,,,,,,,,,,,,,,,,,
null,,black_cross(without_color),184725,,blue,,,,null,GW/racine.png,GW/boulder.png,,,,,,,,,,,,,,,,,,
null,,rt_plussign_withcolor,185228,,blue,,,,null,GW/racine.png,GW/boulder.png,,,,,,,,,,,,,,,,,,
1306.4000000003725,,rt_thecrossant_black,186436,,black_plus_sign,,,,49,,,1,1,,,,,,,,,,,,,,,,
null,,color_black,186539,,black_plus_sign,,,,null,,,,,,,,,,,,,,,,,,,,
null,,learn_phase(without_color),189543,,black_plus_sign,,,,null,GW/huntsville.png,GW/shreveport.png,,,,,,,,,,,,,,,,,,
null,,black_cross(without_color),189992,,yellow,,,,null,GW/huntsville.png,GW/shreveport.png,,,,,,,,,,,,,,,,,,
447.5,,rt_plussign_withcolor,190493,,yellow,,,,50,GW/huntsville.png,GW/shreveport.png,,,,,,,,,,,,,,,,,,
null,,rt_thecrossant_black,192050,,black_plus_sign,,,,null,,,1,1,,,,,,,,,,,,,,,,
null,,color_black,192154,,black_plus_sign,,,,null,,,,,,,,,,,,,,,,,,,,
null,,learn_phase(without_color),195158,,black_plus_sign,,,,null,GW/peoria.png,GW/leesburg.png,,,,,,,,,,,,,,,,,,
null,,black_cross(without_color),196183,,blue,,,,null,GW/peoria.png,GW/leesburg.png,,,,,,,,,,,,,,,,,,
null,,rt_plussign_withcolor,196686,,blue,,,,null,GW/peoria.png,GW/leesburg.png,,,,,,,,,,,,,,,,,,
576.9000000003725,,rt_thecrossant_black,197666,,black_plus_sign,,,,49,,,1,1,,,,,,,,,,,,,,,,
null,,color_black,197770,,black_plus_sign,,,,null,,,,,,,,,,,,,,,,,,,,
null,,learn_phase(without_color),200774,,black_plus_sign,,,,null,GW/racine.png,GW/boulder.png,,,,,,,,,,,,,,,,,,
null,,black_cross(without_color),201436,,yellow,,,,null,GW/racine.png,GW/boulder.png,,,,,,,,,,,,,,,,,,
null,,rt_plussign_withcolor,201938,,yellow,,,,null,GW/racine.png,GW/boulder.png,,,,,,,,,,,,,,,,,,
1172.4000000003725,,rt_thecrossant_black,203284,,black_plus_sign,,,,50,,,1,1,,,,,,,,,,,,,,,,
null,,color_black,203387,,black_plus_sign,,,,null,,,,,,,,,,,,,,,,,,,,
null,,learn_phase(without_color),206391,,black_plus_sign,,,,null,GW/shreveport.png,GW/huntsville.png,,,,,,,,,,,,,,,,,,
null,,black_cross(without_color),206978,,blue,,,,null,GW/shreveport.png,GW/huntsville.png,,,,,,,,,,,,,,,,,,
434.09999999962747,,rt_plussign_withcolor,207479,,blue,,,,49,GW/shreveport.png,GW/huntsville.png,,,,,,,,,,,,,,,,,,
null,,rt_thecrossant_black,208899,,black_plus_sign,,,,null,,,1,1,,,,,,,,,,,,,,,,
null,,color_black,209002,,black_plus_sign,,,,null,,,,,,,,,,,,,,,,,,,,
null,,learn_phase(without_color),212005,,black_plus_sign,,,,null,GW/boulder.png,GW/racine.png,,,,,,,,,,,,,,,,,,
null,,black_cross(without_color),212616,,blue,,,,null,GW/boulder.png,GW/racine.png,,,,,,,,,,,,,,,,,,
null,,rt_plussign_withcolor,213118,,blue,,,,null,GW/boulder.png,GW/racine.png,,,,,,,,,,,,,,,,,,
808.5999999996275,,rt_thecrossant_black,214515,,black_plus_sign,,,,49,,,1,1,,,,,,,,,,,,,,,,
null,,color_black,214618,,black_plus_sign,,,,null,,,,,,,,,,,,,,,,,,,,
null,,learn_phase(without_color),217622,,black_plus_sign,,,,null,GW/carmel.png,GW/hanover.png,,,,,,,,,,,,,,,,,,
null,,black_cross(without_color),218703,,yellow,,,,null,GW/carmel.png,GW/hanover.png,,,,,,,,,,,,,,,,,,
null,,rt_plussign_withcolor,219205,,yellow,,,,null,GW/carmel.png,GW/hanover.png,,,,,,,,,,,,,,,,,,
745.2000000001863,,rt_thecrossant_black,220131,,black_plus_sign,,,,50,,,1,1,,,,,,,,,,,,,,,,
null,,color_black,220235,,black_plus_sign,,,,null,,,,,,,,,,,,,,,,,,,,
null,,learn_phase(without_color),223237,,black_plus_sign,,,,null,GW/boulder.png,GW/racine.png,,,,,,,,,,,,,,,,,,
null,,black_cross(without_color),223875,,yellow,,,,null,GW/boulder.png,GW/racine.png,,,,,,,,,,,,,,,,,,
499.20000000018626,,rt_plussign_withcolor,224377,,yellow,,,,50,GW/boulder.png,GW/racine.png,,,,,,,,,,,,,,,,,,
null,,rt_thecrossant_black,225746,,black_plus_sign,,,,null,,,1,1,,,,,,,,,,,,,,,,
null,,color_black,225849,,black_plus_sign,,,,null,,,,,,,,,,,,,,,,,,,,
null,,learn_phase(without_color),228852,,black_plus_sign,,,,null,GW/leesburg.png,GW/peoria.png,,,,,,,,,,,,,,,,,,
null,,black_cross(without_color),229392,,blue,,,,null,GW/leesburg.png,GW/peoria.png,,,,,,,,,,,,,,,,,,
null,,rt_plussign_withcolor,229895,,blue,,,,null,GW/leesburg.png,GW/peoria.png,,,,,,,,,,,,,,,,,,
811.2999999998137,,rt_thecrossant_black,231361,,black_plus_sign,,,,49,,,1,1,,,,,,,,,,,,,,,,
null,,color_black,231465,,black_plus_sign,,,,null,,,,,,,,,,,,,,,,,,,,
null,,learn_phase(without_color),234468,,black_plus_sign,,,,null,GW/racine.png,GW/boulder.png,,,,,,,,,,,,,,,,,,
null,,black_cross(without_color),235073,,yellow,,,,null,GW/racine.png,GW/boulder.png,,,,,,,,,,,,,,,,,,
411.70000000018626,,rt_plussign_withcolor,235576,,yellow,,,,50,GW/racine.png,GW/boulder.png,,,,,,,,,,,,,,,,,,
null,,rt_thecrossant_black,236977,,black_plus_sign,,,,null,,,1,1,,,,,,,,,,,,,,,,
null,,color_black,237079,,black_plus_sign,,,,null,,,,,,,,,,,,,,,,,,,,
null,,learn_phase(without_color),240082,,black_plus_sign,,,,null,GW/carmel.png,GW/hanover.png,,,,,,,,,,,,,,,,,,
null,,black_cross(without_color),240797,,blue,,,,null,GW/carmel.png,GW/hanover.png,,,,,,,,,,,,,,,,,,
498,,rt_plussign_withcolor,241299,,blue,,,,49,GW/carmel.png,GW/hanover.png,,,,,,,,,,,,,,,,,,
null,,rt_thecrossant_black,242589,,black_plus_sign,,,,null,,,1,1,,,,,,,,,,,,,,,,
null,,color_black,242699,,black_plus_sign,,,,null,,,,,,,,,,,,,,,,,,,,
null,,learn_phase(without_color),245703,,black_plus_sign,,,,null,GW/huntsville.png,GW/shreveport.png,,,,,,,,,,,,,,,,,,
null,,black_cross(without_color),246325,,yellow,,,,null,GW/huntsville.png,GW/shreveport.png,,,,,,,,,,,,,,,,,,
499.3999999994412,,rt_plussign_withcolor,246826,,yellow,,,,50,GW/huntsville.png,GW/shreveport.png,,,,,,,,,,,,,,,,,,
null,,rt_thecrossant_black,248209,,black_plus_sign,,,,null,,,1,1,,,,,,,,,,,,,,,,
null,,color_black,248324,,black_plus_sign,,,,null,,,,,,,,,,,,,,,,,,,,
null,,learn_phase(without_color),251328,,black_plus_sign,,,,null,GW/racine.png,GW/boulder.png,,,,,,,,,,,,,,,,,,
null,,black_cross(without_color),251759,,yellow,,,,null,GW/racine.png,GW/boulder.png,,,,,,,,,,,,,,,,,,
null,,rt_plussign_withcolor,252261,,yellow,,,,null,GW/racine.png,GW/boulder.png,,,,,,,,,,,,,,,,,,
844.4000000003725,,rt_thecrossant_black,253838,,black_plus_sign,,,,50,,,1,1,,,,,,,,,,,,,,,,
null,,color_black,253942,,black_plus_sign,,,,null,,,,,,,,,,,,,,,,,,,,
null,,learn_phase(without_color),256944,,black_plus_sign,,,,null,GW/peoria.png,GW/leesburg.png,,,,,,,,,,,,,,,,,,
null,,black_cross(without_color),257926,,yellow,,,,null,GW/peoria.png,GW/leesburg.png,,,,,,,,,,,,,,,,,,
430,,rt_plussign_withcolor,258428,,yellow,,,,50,GW/peoria.png,GW/leesburg.png,,,,,,,,,,,,,,,,,,
null,,rt_thecrossant_black,259450,,black_plus_sign,,,,null,,,1,1,,,,,,,,,,,,,,,,
null,,color_black,259552,,black_plus_sign,,,,null,,,,,,,,,,,,,,,,,,,,
null,,learn_phase(without_color),262558,,black_plus_sign,,,,null,GW/shreveport.png,GW/huntsville.png,,,,,,,,,,,,,,,,,,
null,,black_cross(without_color),263569,,blue,,,,null,GW/shreveport.png,GW/huntsville.png,,,,,,,,,,,,,,,,,,
403.40000000037253,,rt_plussign_withcolor,264072,,blue,,,,49,GW/shreveport.png,GW/huntsville.png,,,,,,,,,,,,,,,,,,
null,,rt_thecrossant_black,265067,,black_plus_sign,,,,null,,,1,1,,,,,,,,,,,,,,,,
null,,color_black,265171,,black_plus_sign,,,,null,,,,,,,,,,,,,,,,,,,,
null,,learn_phase(without_color),268176,,black_plus_sign,,,,null,GW/carmel.png,GW/hanover.png,,,,,,,,,,,,,,,,,,
null,,black_cross(without_color),268814,,yellow,,,,null,GW/carmel.png,GW/hanover.png,,,,,,,,,,,,,,,,,,
null,,rt_plussign_withcolor,269317,,yellow,,,,null,GW/carmel.png,GW/hanover.png,,,,,,,,,,,,,,,,,,
1148.3999999994412,,rt_thecrossant_black,270684,,black_plus_sign,,,,50,,,1,1,,,,,,,,,,,,,,,,
null,,color_black,270788,,black_plus_sign,,,,null,,,,,,,,,,,,,,,,,,,,
null,,learn_phase(without_color),273793,,black_plus_sign,,,,null,GW/peoria.png,GW/leesburg.png,,,,,,,,,,,,,,,,,,
null,,black_cross(without_color),274215,,yellow,,,,null,GW/peoria.png,GW/leesburg.png,,,,,,,,,,,,,,,,,,
null,,rt_plussign_withcolor,274718,,yellow,,,,null,GW/peoria.png,GW/leesburg.png,,,,,,,,,,,,,,,,,,
822.1000000005588,,rt_thecrossant_black,276303,,black_plus_sign,,,,50,,,1,1,,,,,,,,,,,,,,,,
null,,color_black,276406,,black_plus_sign,,,,null,,,,,,,,,,,,,,,,,,,,
null,,learn_phase(without_color),279409,,black_plus_sign,,,,null,GW/shreveport.png,GW/huntsville.png,,,,,,,,,,,,,,,,,,
null,,black_cross(without_color),280421,,blue,,,,null,GW/shreveport.png,GW/huntsville.png,,,,,,,,,,,,,,,,,,
null,,rt_plussign_withcolor,280923,,blue,,,,null,GW/shreveport.png,GW/huntsville.png,,,,,,,,,,,,,,,,,,
631.9000000003725,,rt_thecrossant_black,281915,,black_plus_sign,,,,49,,,1,1,,,,,,,,,,,,,,,,
null,,color_black,282018,,black_plus_sign,,,,null,,,,,,,,,,,,,,,,,,,,
null,,learn_phase(without_color),285019,,black_plus_sign,,,,null,GW/hanover.png,GW/carmel.png,,,,,,,,,,,,,,,,,,
null,,black_cross(without_color),285837,,blue,,,,null,GW/hanover.png,GW/carmel.png,,,,,,,,,,,,,,,,,,
null,,rt_plussign_withcolor,286339,,blue,,,,null,GW/hanover.png,GW/carmel.png,,,,,,,,,,,,,,,,,,
1231.9000000003725,,rt_thecrossant_black,287526,,black_plus_sign,,,,49,,,1,1,,,,,,,,,,,,,,,,
null,,color_black,287628,,black_plus_sign,,,,null,,,,,,,,,,,,,,,,,,,,
null,,learn_phase(without_color),290635,,black_plus_sign,,,,null,GW/huntsville.png,GW/shreveport.png,,,,,,,,,,,,,,,,,,
null,,black_cross(without_color),291271,,blue,,,,null,GW/huntsville.png,GW/shreveport.png,,,,,,,,,,,,,,,,,,
null,,rt_plussign_withcolor,291776,,blue,,,,null,GW/huntsville.png,GW/shreveport.png,,,,,,,,,,,,,,,,,,
1050.0999999996275,,rt_thecrossant_black,293148,,black_plus_sign,,,,49,,,1,1,,,,,,,,,,,,,,,,
null,,color_black,293250,,black_plus_sign,,,,null,,,,,,,,,,,,,,,,,,,,
null,,learn_phase(without_color),296254,,black_plus_sign,,,,null,GW/leesburg.png,GW/peoria.png,,,,,,,,,,,,,,,,,,
null,,black_cross(without_color),296799,,blue,,,,null,GW/leesburg.png,GW/peoria.png,,,,,,,,,,,,,,,,,,
null,,rt_plussign_withcolor,297301,,blue,,,,null,GW/leesburg.png,GW/peoria.png,,,,,,,,,,,,,,,,,,
793.5,,rt_thecrossant_black,298765,,black_plus_sign,,,,49,,,1,1,,,,,,,,,,,,,,,,
null,,color_black,298868,,black_plus_sign,,,,null,,,,,,,,,,,,,,,,,,,,
null,,learn_phase(without_color),301871,,black_plus_sign,,,,null,GW/hanover.png,GW/carmel.png,,,,,,,,,,,,,,,,,,
null,,black_cross(without_color),302513,,yellow,,,,null,GW/hanover.png,GW/carmel.png,,,,,,,,,,,,,,,,,,
null,,rt_plussign_withcolor,303016,,yellow,,,,null,GW/hanover.png,GW/carmel.png,,,,,,,,,,,,,,,,,,
674.0999999996275,,rt_thecrossant_black,304380,,black_plus_sign,,,,50,,,1,1,,,,,,,,,,,,,,,,
null,,color_black,304483,,black_plus_sign,,,,null,,,,,,,,,,,,,,,,,,,,
null,,learn_phase(without_color),307487,,black_plus_sign,,,,null,GW/peoria.png,GW/leesburg.png,,,,,,,,,,,,,,,,,,
null,,black_cross(without_color),308383,,yellow,,,,null,GW/peoria.png,GW/leesburg.png,,,,,,,,,,,,,,,,,,
null,,rt_plussign_withcolor,308885,,yellow,,,,null,GW/peoria.png,GW/leesburg.png,,,,,,,,,,,,,,,,,,
858.2000000001863,,rt_thecrossant_black,309996,,black_plus_sign,,,,50,,,1,1,,,,,,,,,,,,,,,,
null,,color_black,310099,,black_plus_sign,,,,null,,,,,,,,,,,,,,,,,,,,
null,,learn_phase(without_color),313101,,black_plus_sign,,,,null,GW/carmel.png,GW/hanover.png,,,,,,,,,,,,,,,,,,
null,,black_cross(without_color),313786,,yellow,,,,null,GW/carmel.png,GW/hanover.png,,,,,,,,,,,,,,,,,,
475.5,,rt_plussign_withcolor,314289,,yellow,,,,50,GW/carmel.png,GW/hanover.png,,,,,,,,,,,,,,,,,,
null,,rt_thecrossant_black,315611,,black_plus_sign,,,,null,,,1,1,,,,,,,,,,,,,,,,
null,,color_black,315721,,black_plus_sign,,,,null,,,,,,,,,,,,,,,,,,,,
null,,learn_phase(without_color),318725,,black_plus_sign,,,,null,GW/peoria.png,GW/leesburg.png,,,,,,,,,,,,,,,,,,
null,,black_cross(without_color),319810,,blue,,,,null,GW/peoria.png,GW/leesburg.png,,,,,,,,,,,,,,,,,,
null,,rt_plussign_withcolor,320313,,blue,,,,null,GW/peoria.png,GW/leesburg.png,,,,,,,,,,,,,,,,,,
790.9000000003725,,rt_thecrossant_black,321235,,black_plus_sign,,,,49,,,1,1,,,,,,,,,,,,,,,,
null,,color_black,321338,,black_plus_sign,,,,null,,,,,,,,,,,,,,,,,,,,
null,,learn_phase(without_color),324341,,black_plus_sign,,,,null,GW/hanover.png,GW/peoria.png,,,,,,,,,,,,,,,,,,
null,,black_cross(without_color),324858,,blue,,,,null,GW/hanover.png,GW/peoria.png,,,,,,,,,,,,,,,,,,
null,,rt_plussign_withcolor,325360,,blue,,,,null,GW/hanover.png,GW/peoria.png,,,,,,,,,,,,,,,,,,
1468.8999999994412,,rt_thecrossant_black,326850,,black_plus_sign,,,,49,,,1,1,,,,,,,,,,,,,,,,
null,,color_black,326952,,black_plus_sign,,,,null,,,,,,,,,,,,,,,,,,,,
null,,learn_phase(without_color),329957,,black_plus_sign,,,,null,GW/leesburg.png,GW/hotsprings.png,,,,,,,,,,,,,,,,,,
null,,black_cross(without_color),330833,,blue,,,,null,GW/leesburg.png,GW/hotsprings.png,,,,,,,,,,,,,,,,,,
null,,rt_plussign_withcolor,331336,,blue,,,,null,GW/leesburg.png,GW/hotsprings.png,,,,,,,,,,,,,,,,,,
663.4000000003725,,rt_thecrossant_black,332467,,black_plus_sign,,,,49,,,1,1,,,,,,,,,,,,,,,,
null,,color_black,332571,,black_plus_sign,,,,null,,,,,,,,,,,,,,,,,,,,
null,,learn_phase(without_color),335576,,black_plus_sign,,,,null,GW/huntsville.png,GW/carmel.png,,,,,,,,,,,,,,,,,,
null,,black_cross(without_color),336139,,yellow,,,,null,GW/huntsville.png,GW/carmel.png,,,,,,,,,,,,,,,,,,
458.40000000037253,,rt_plussign_withcolor,336641,,yellow,,,,50,GW/huntsville.png,GW/carmel.png,,,,,,,,,,,,,,,,,,
null,,rt_thecrossant_black,338080,,black_plus_sign,,,,null,,,1,1,,,,,,,,,,,,,,,,
null,,color_black,338181,,black_plus_sign,,,,null,,,,,,,,,,,,,,,,,,,,
null,,learn_phase(without_color),341185,,black_plus_sign,,,,null,GW/hanover.png,GW/peoria.png,,,,,,,,,,,,,,,,,,
null,,black_cross(without_color),341843,,yellow,,,,null,GW/hanover.png,GW/peoria.png,,,,,,,,,,,,,,,,,,
433.09999999962747,,rt_plussign_withcolor,342344,,yellow,,,,50,GW/hanover.png,GW/peoria.png,,,,,,,,,,,,,,,,,,
null,,rt_thecrossant_black,343693,,black_plus_sign,,,,null,,,1,1,,,,,,,,,,,,,,,,
null,,color_black,343795,,black_plus_sign,,,,null,,,,,,,,,,,,,,,,,,,,
null,,learn_phase(without_color),346799,,black_plus_sign,,,,null,GW/leesburg.png,GW/hotsprings.png,,,,,,,,,,,,,,,,,,
null,,black_cross(without_color),347362,,blue,,,,null,GW/leesburg.png,GW/hotsprings.png,,,,,,,,,,,,,,,,,,
null,,rt_plussign_withcolor,347865,,blue,,,,null,GW/leesburg.png,GW/hotsprings.png,,,,,,,,,,,,,,,,,,
820.0999999996275,,rt_thecrossant_black,349308,,black_plus_sign,,,,49,,,1,1,,,,,,,,,,,,,,,,
null,,color_black,349411,,black_plus_sign,,,,null,,,,,,,,,,,,,,,,,,,,
null,,learn_phase(without_color),352414,,black_plus_sign,,,,null,GW/carmel.png,GW/huntsville.png,,,,,,,,,,,,,,,,,,
null,,black_cross(without_color),353257,,yellow,,,,null,GW/carmel.png,GW/huntsville.png,,,,,,,,,,,,,,,,,,
null,,rt_plussign_withcolor,353758,,yellow,,,,null,GW/carmel.png,GW/huntsville.png,,,,,,,,,,,,,,,,,,
665.1999999992549,,rt_thecrossant_black,354920,,black_plus_sign,,,,50,,,1,1,,,,,,,,,,,,,,,,
null,,color_black,355035,,black_plus_sign,,,,null,,,,,,,,,,,,,,,,,,,,
null,,learn_phase(without_color),358039,,black_plus_sign,,,,null,GW/leesburg.png,GW/hotsprings.png,,,,,,,,,,,,,,,,,,
null,,black_cross(without_color),359002,,blue,,,,null,GW/leesburg.png,GW/hotsprings.png,,,,,,,,,,,,,,,,,,
459.09999999962747,,rt_plussign_withcolor,359505,,blue,,,,49,GW/leesburg.png,GW/hotsprings.png,,,,,,,,,,,,,,,,,,
null,,rt_thecrossant_black,360547,,black_plus_sign,,,,null,,,1,1,,,,,,,,,,,,,,,,
null,,color_black,360650,,black_plus_sign,,,,null,,,,,,,,,,,,,,,,,,,,
null,,learn_phase(without_color),363653,,black_plus_sign,,,,null,GW/peoria.png,GW/hanover.png,,,,,,,,,,,,,,,,,,
null,,black_cross(without_color),364226,,yellow,,,,null,GW/peoria.png,GW/hanover.png,,,,,,,,,,,,,,,,,,
null,,rt_plussign_withcolor,364730,,yellow,,,,null,GW/peoria.png,GW/hanover.png,,,,,,,,,,,,,,,,,,
1134.0999999996275,,rt_thecrossant_black,366163,,black_plus_sign,,,,50,,,1,1,,,,,,,,,,,,,,,,
null,,color_black,366266,,black_plus_sign,,,,null,,,,,,,,,,,,,,,,,,,,
null,,learn_phase(without_color),369268,,black_plus_sign,,,,null,GW/shreveport.png,GW/westpalmbeach.png,,,,,,,,,,,,,,,,,,
null,,black_cross(without_color),370200,,blue,,,,null,GW/shreveport.png,GW/westpalmbeach.png,,,,,,,,,,,,,,,,,,
407,,rt_plussign_withcolor,370701,,blue,,,,49,GW/shreveport.png,GW/westpalmbeach.png,,,,,,,,,,,,,,,,,,
null,,rt_thecrossant_black,371775,,black_plus_sign,,,,null,,,1,1,,,,,,,,,,,,,,,,
null,,color_black,371880,,black_plus_sign,,,,null,,,,,,,,,,,,,,,,,,,,
null,,learn_phase(without_color),374883,,black_plus_sign,,,,null,GW/hotsprings.png,GW/leesburg.png,,,,,,,,,,,,,,,,,,
null,,black_cross(without_color),375371,,blue,,,,null,GW/hotsprings.png,GW/leesburg.png,,,,,,,,,,,,,,,,,,
null,,rt_plussign_withcolor,375874,,blue,,,,null,GW/hotsprings.png,GW/leesburg.png,,,,,,,,,,,,,,,,,,
1292.2999999998137,,rt_thecrossant_black,377392,,black_plus_sign,,,,49,,,1,1,,,,,,,,,,,,,,,,
null,,color_black,377496,,black_plus_sign,,,,null,,,,,,,,,,,,,,,,,,,,
null,,learn_phase(without_color),380500,,black_plus_sign,,,,null,GW/huntsville.png,GW/carmel.png,,,,,,,,,,,,,,,,,,
null,,black_cross(without_color),381493,,yellow,,,,null,GW/huntsville.png,GW/carmel.png,,,,,,,,,,,,,,,,,,
406,,rt_plussign_withcolor,381995,,yellow,,,,50,GW/huntsville.png,GW/carmel.png,,,,,,,,,,,,,,,,,,
null,,rt_thecrossant_black,383007,,black_plus_sign,,,,null,,,1,1,,,,,,,,,,,,,,,,
null,,color_black,383111,,black_plus_sign,,,,null,,,,,,,,,,,,,,,,,,,,
null,,learn_phase(without_color),386114,,black_plus_sign,,,,null,GW/hotsprings.png,GW/leesburg.png,,,,,,,,,,,,,,,,,,
null,,black_cross(without_color),386591,,yellow,,,,null,GW/hotsprings.png,GW/leesburg.png,,,,,,,,,,,,,,,,,,
null,,rt_plussign_withcolor,387092,,yellow,,,,null,GW/hotsprings.png,GW/leesburg.png,,,,,,,,,,,,,,,,,,
1113.2000000001863,,rt_thecrossant_black,388622,,black_plus_sign,,,,50,,,1,1,,,,,,,,,,,,,,,,
null,,color_black,388725,,black_plus_sign,,,,null,,,,,,,,,,,,,,,,,,,,
null,,learn_phase(without_color),391729,,black_plus_sign,,,,null,GW/shreveport.png,GW/westpalmbeach.png,,,,,,,,,,,,,,,,,,
null,,black_cross(without_color),392700,,yellow,,,,null,GW/shreveport.png,GW/westpalmbeach.png,,,,,,,,,,,,,,,,,,
null,,rt_plussign_withcolor,393203,,yellow,,,,null,GW/shreveport.png,GW/westpalmbeach.png,,,,,,,,,,,,,,,,,,
599.2000000001863,,rt_thecrossant_black,394239,,black_plus_sign,,,,50,,,1,1,,,,,,,,,,,,,,,,
null,,color_black,394342,,black_plus_sign,,,,null,,,,,,,,,,,,,,,,,,,,
null,,learn_phase(without_color),397346,,black_plus_sign,,,,null,GW/huntsville.png,GW/carmel.png,,,,,,,,,,,,,,,,,,
null,,black_cross(without_color),398348,,yellow,,,,null,GW/huntsville.png,GW/carmel.png,,,,,,,,,,,,,,,,,,
null,,rt_plussign_withcolor,398850,,yellow,,,,null,GW/huntsville.png,GW/carmel.png,,,,,,,,,,,,,,,,,,
1149.7000000001863,,rt_thecrossant_black,399853,,black_plus_sign,,,,50,,,1,1,,,,,,,,,,,,,,,,
null,,color_black,399957,,black_plus_sign,,,,null,,,,,,,,,,,,,,,,,,,,
null,,learn_phase(without_color),402961,,black_plus_sign,,,,null,GW/peoria.png,GW/hanover.png,,,,,,,,,,,,,,,,,,
null,,black_cross(without_color),403974,,blue,,,,null,GW/peoria.png,GW/hanover.png,,,,,,,,,,,,,,,,,,
null,,rt_plussign_withcolor,404477,,blue,,,,null,GW/peoria.png,GW/hanover.png,,,,,,,,,,,,,,,,,,
1122.7999999998137,,rt_thecrossant_black,405469,,black_plus_sign,,,,49,,,1,1,,,,,,,,,,,,,,,,
null,,color_black,405575,,black_plus_sign,,,,null,,,,,,,,,,,,,,,,,,,,
null,,learn_phase(without_color),408578,,black_plus_sign,,,,null,GW/westpalmbeach.png,GW/shreveport.png,,,,,,,,,,,,,,,,,,
null,,black_cross(without_color),409083,,yellow,,,,null,GW/westpalmbeach.png,GW/shreveport.png,,,,,,,,,,,,,,,,,,
458.30000000074506,,rt_plussign_withcolor,409586,,yellow,,,,50,GW/westpalmbeach.png,GW/shreveport.png,,,,,,,,,,,,,,,,,,
null,,rt_thecrossant_black,411087,,black_plus_sign,,,,null,,,1,1,,,,,,,,,,,,,,,,
null,,color_black,411190,,black_plus_sign,,,,null,,,,,,,,,,,,,,,,,,,,
null,,learn_phase(without_color),414193,,black_plus_sign,,,,null,GW/huntsville.png,GW/carmel.png,,,,,,,,,,,,,,,,,,
null,,black_cross(without_color),414640,,yellow,,,,null,GW/huntsville.png,GW/carmel.png,,,,,,,,,,,,,,,,,,
469.79999999981374,,rt_plussign_withcolor,415142,,yellow,,,,50,GW/huntsville.png,GW/carmel.png,,,,,,,,,,,,,,,,,,
null,,rt_thecrossant_black,416700,,black_plus_sign,,,,null,,,1,1,,,,,,,,,,,,,,,,
null,,color_black,416804,,black_plus_sign,,,,null,,,,,,,,,,,,,,,,,,,,
null,,learn_phase(without_color),419807,,black_plus_sign,,,,null,GW/westpalmbeach.png,GW/shreveport.png,,,,,,,,,,,,,,,,,,
null,,black_cross(without_color),420488,,yellow,,,,null,GW/westpalmbeach.png,GW/shreveport.png,,,,,,,,,,,,,,,,,,
null,,rt_plussign_withcolor,420990,,yellow,,,,null,GW/westpalmbeach.png,GW/shreveport.png,,,,,,,,,,,,,,,,,,
551.1999999992549,,rt_thecrossant_black,422315,,black_plus_sign,,,,50,,,1,1,,,,,,,,,,,,,,,,
null,,color_black,422416,,black_plus_sign,,,,null,,,,,,,,,,,,,,,,,,,,
null,,learn_phase(without_color),425419,,black_plus_sign,,,,null,GW/hanover.png,GW/peoria.png,,,,,,,,,,,,,,,,,,
null,,black_cross(without_color),426099,,yellow,,,,null,GW/hanover.png,GW/peoria.png,,,,,,,,,,,,,,,,,,
null,,rt_plussign_withcolor,426601,,yellow,,,,null,GW/hanover.png,GW/peoria.png,,,,,,,,,,,,,,,,,,
844.5999999996275,,rt_thecrossant_black,427926,,black_plus_sign,,,,50,,,1,1,,,,,,,,,,,,,,,,
null,,color_black,428030,,black_plus_sign,,,,null,,,,,,,,,,,,,,,,,,,,
null,,learn_phase(without_color),431033,,black_plus_sign,,,,null,GW/carmel.png,GW/huntsville.png,,,,,,,,,,,,,,,,,,
null,,black_cross(without_color),431625,,yellow,,,,null,GW/carmel.png,GW/huntsville.png,,,,,,,,,,,,,,,,,,
null,,rt_plussign_withcolor,432127,,yellow,,,,null,GW/carmel.png,GW/huntsville.png,,,,,,,,,,,,,,,,,,
806.6000000005588,,rt_thecrossant_black,433542,,black_plus_sign,,,,50,,,1,1,,,,,,,,,,,,,,,,
null,,color_black,433645,,black_plus_sign,,,,null,,,,,,,,,,,,,,,,,,,,
null,,learn_phase(without_color),436650,,black_plus_sign,,,,null,GW/hotsprings.png,GW/leesburg.png,,,,,,,,,,,,,,,,,,
null,,black_cross(without_color),437607,,yellow,,,,null,GW/hotsprings.png,GW/leesburg.png,,,,,,,,,,,,,,,,,,
null,,rt_plussign_withcolor,438109,,yellow,,,,null,GW/hotsprings.png,GW/leesburg.png,,,,,,,,,,,,,,,,,,
742.5,,rt_thecrossant_black,439159,,black_plus_sign,,,,50,,,1,1,,,,,,,,,,,,,,,,
null,,color_black,439262,,black_plus_sign,,,,null,,,,,,,,,,,,,,,,,,,,
null,,learn_phase(without_color),442267,,black_plus_sign,,,,null,GW/hanover.png,GW/peoria.png,,,,,,,,,,,,,,,,,,
null,,black_cross(without_color),443046,,yellow,,,,null,GW/hanover.png,GW/peoria.png,,,,,,,,,,,,,,,,,,
null,,rt_plussign_withcolor,443548,,yellow,,,,null,GW/hanover.png,GW/peoria.png,,,,,,,,,,,,,,,,,,
1118,,rt_thecrossant_black,444775,,black_plus_sign,,,,50,,,1,1,,,,,,,,,,,,,,,,
null,,color_black,444879,,black_plus_sign,,,,null,,,,,,,,,,,,,,,,,,,,
null,,learn_phase(without_color),447881,,black_plus_sign,,,,null,GW/huntsville.png,GW/carmel.png,,,,,,,,,,,,,,,,,,
null,,black_cross(without_color),448464,,yellow,,,,null,GW/huntsville.png,GW/carmel.png,,,,,,,,,,,,,,,,,,
null,,rt_plussign_withcolor,448966,,yellow,,,,null,GW/huntsville.png,GW/carmel.png,,,,,,,,,,,,,,,,,,
889.5,,rt_thecrossant_black,450389,,black_plus_sign,,,,50,,,1,1,,,,,,,,,,,,,,,,
null,,color_black,450491,,black_plus_sign,,,,null,,,,,,,,,,,,,,,,,,,,
null,,learn_phase(without_color),453495,,black_plus_sign,,,,null,GW/leesburg.png,GW/hotsprings.png,,,,,,,,,,,,,,,,,,
null,,black_cross(without_color),453902,,yellow,,,,null,GW/leesburg.png,GW/hotsprings.png,,,,,,,,,,,,,,,,,,
478,,rt_plussign_withcolor,454403,,yellow,,,,50,GW/leesburg.png,GW/hotsprings.png,,,,,,,,,,,,,,,,,,
null,,rt_thecrossant_black,456001,,black_plus_sign,,,,null,,,1,1,,,,,,,,,,,,,,,,
null,,color_black,456105,,black_plus_sign,,,,null,,,,,,,,,,,,,,,,,,,,
null,,learn_phase(without_color),459109,,black_plus_sign,,,,null,GW/carmel.png,GW/huntsville.png,,,,,,,,,,,,,,,,,,
null,,black_cross(without_color),459577,,blue,,,,null,GW/carmel.png,GW/huntsville.png,,,,,,,,,,,,,,,,,,
null,,rt_plussign_withcolor,460079,,blue,,,,null,GW/carmel.png,GW/huntsville.png,,,,,,,,,,,,,,,,,,
588.9000000003725,,rt_thecrossant_black,461615,,black_plus_sign,,,,49,,,1,1,,,,,,,,,,,,,,,,
null,,color_black,461718,,black_plus_sign,,,,null,,,,,,,,,,,,,,,,,,,,
null,,learn_phase(without_color),464720,,black_plus_sign,,,,null,GW/westpalmbeach.png,GW/shreveport.png,,,,,,,,,,,,,,,,,,
null,,black_cross(without_color),465353,,yellow,,,,null,GW/westpalmbeach.png,GW/shreveport.png,,,,,,,,,,,,,,,,,,
386,,rt_plussign_withcolor,465855,,yellow,,,,50,GW/westpalmbeach.png,GW/shreveport.png,,,,,,,,,,,,,,,,,,
null,,rt_thecrossant_black,467227,,black_plus_sign,,,,null,,,1,1,,,,,,,,,,,,,,,,
null,,color_black,467330,,black_plus_sign,,,,null,,,,,,,,,,,,,,,,,,,,
null,,learn_phase(without_color),470334,,black_plus_sign,,,,null,GW/hotsprings.png,GW/leesburg.png,,,,,,,,,,,,,,,,,,
null,,black_cross(without_color),470870,,yellow,,,,null,GW/hotsprings.png,GW/leesburg.png,,,,,,,,,,,,,,,,,,
null,,rt_plussign_withcolor,471373,,yellow,,,,null,GW/hotsprings.png,GW/leesburg.png,,,,,,,,,,,,,,,,,,
811.5999999996275,,rt_thecrossant_black,472841,,black_plus_sign,,,,50,,,1,1,,,,,,,,,,,,,,,,
null,,color_black,472944,,black_plus_sign,,,,null,,,,,,,,,,,,,,,,,,,,
null,,learn_phase(without_color),475949,,black_plus_sign,,,,null,GW/westpalmbeach.png,GW/shreveport.png,,,,,,,,,,,,,,,,,,
null,,black_cross(without_color),476612,,blue,,,,null,GW/westpalmbeach.png,GW/shreveport.png,,,,,,,,,,,,,,,,,,
497,,rt_plussign_withcolor,477114,,blue,,,,49,GW/westpalmbeach.png,GW/shreveport.png,,,,,,,,,,,,,,,,,,
null,,rt_thecrossant_black,478455,,black_plus_sign,,,,null,,,1,1,,,,,,,,,,,,,,,,
null,,color_black,478556,,black_plus_sign,,,,null,,,,,,,,,,,,,,,,,,,,
null,,learn_phase(without_color),481558,,black_plus_sign,,,,null,GW/peoria.png,GW/hanover.png,,,,,,,,,,,,,,,,,,
null,,black_cross(without_color),482144,,blue,,,,null,GW/peoria.png,GW/hanover.png,,,,,,,,,,,,,,,,,,
null,,rt_plussign_withcolor,482645,,blue,,,,null,GW/peoria.png,GW/hanover.png,,,,,,,,,,,,,,,,,,
903.3000000007451,,rt_thecrossant_black,484063,,black_plus_sign,,,,49,,,1,1,,,,,,,,,,,,,,,,
null,,color_black,484164,,black_plus_sign,,,,null,,,,,,,,,,,,,,,,,,,,
null,,learn_phase(without_color),487165,,black_plus_sign,,,,null,GW/westpalmbeach.png,GW/shreveport.png,,,,,,,,,,,,,,,,,,
null,,black_cross(without_color),488236,,blue,,,,null,GW/westpalmbeach.png,GW/shreveport.png,,,,,,,,,,,,,,,,,,
null,,rt_plussign_withcolor,488736,,blue,,,,null,GW/westpalmbeach.png,GW/shreveport.png,,,,,,,,,,,,,,,,,,
800.2000000001863,,rt_thecrossant_black,489669,,black_plus_sign,,,,49,,,1,1,,,,,,,,,,,,,,,,
null,,color_black,489770,,black_plus_sign,,,,null,,,,,,,,,,,,,,,,,,,,
null,,learn_phase(without_color),492772,,black_plus_sign,,,,null,GW/hanover.png,GW/peoria.png,,,,,,,,,,,,,,,,,,
null,,black_cross(without_color),493692,,yellow,,,,null,GW/hanover.png,GW/peoria.png,,,,,,,,,,,,,,,,,,
null,,rt_plussign_withcolor,494194,,yellow,,,,null,GW/hanover.png,GW/peoria.png,,,,,,,,,,,,,,,,,,
1242.2999999998137,,rt_thecrossant_black,495279,,black_plus_sign,,,,50,,,1,1,,,,,,,,,,,,,,,,
null,,color_black,495380,,black_plus_sign,,,,null,,,,,,,,,,,,,,,,,,,,
null,,learn_phase(without_color),498382,,black_plus_sign,,,,null,GW/shreveport.png,GW/westpalmbeach.png,,,,,,,,,,,,,,,,,,
null,,black_cross(without_color),499235,,yellow,,,,null,GW/shreveport.png,GW/westpalmbeach.png,,,,,,,,,,,,,,,,,,
null,,rt_plussign_withcolor,499736,,yellow,,,,null,GW/shreveport.png,GW/westpalmbeach.png,,,,,,,,,,,,,,,,,,
1131.699999999255,,rt_thecrossant_black,500889,,black_plus_sign,,,,50,,,1,1,,,,,,,,,,,,,,,,
null,,color_black,500991,,black_plus_sign,,,,null,,,,,,,,,,,,,,,,,,,,
39158.700000000186,,learn_break,540152,,learn_break,,,,32,,,,,,,,,,,,,,,,,,,,
null,,html-keyboard-response,541155,,<p></p>,,,,null,,,,,,,,,,,,,,,,,,,,
null,,learn_phase(without_color),544157,,black_plus_sign,,,,null,GW/newhope.png,GW/hanover.png,,,,,,,,,,,,,,,,,,
null,,black_cross(without_color),545135,,blue,,,,null,GW/newhope.png,GW/hanover.png,,,,,,,,,,,,,,,,,,
null,,rt_plussign_withcolor,545638,,blue,,,,null,GW/newhope.png,GW/hanover.png,,,,,,,,,,,,,,,,,,
1067.8999999994412,,rt_thecrossant_black,546666,,black_plus_sign,,,,49,,,1,1,,,,,,,,,,,,,,,,
null,,color_black,546769,,black_plus_sign,,,,null,,,,,,,,,,,,,,,,,,,,
null,,learn_phase(without_color),549772,,black_plus_sign,,,,null,GW/boulder.png,GW/hotsprings.png,,,,,,,,,,,,,,,,,,
null,,black_cross(without_color),550279,,yellow,,,,null,GW/boulder.png,GW/hotsprings.png,,,,,,,,,,,,,,,,,,
494.59999999962747,,rt_plussign_withcolor,550781,,yellow,,,,50,GW/boulder.png,GW/hotsprings.png,,,,,,,,,,,,,,,,,,
null,,rt_thecrossant_black,552279,,black_plus_sign,,,,null,,,1,1,,,,,,,,,,,,,,,,
null,,color_black,552382,,black_plus_sign,,,,null,,,,,,,,,,,,,,,,,,,,
null,,learn_phase(without_color),555386,,black_plus_sign,,,,null,GW/newhope.png,GW/hanover.png,,,,,,,,,,,,,,,,,,
null,,black_cross(without_color),556070,,blue,,,,null,GW/newhope.png,GW/hanover.png,,,,,,,,,,,,,,,,,,
null,,rt_plussign_withcolor,556572,,blue,,,,null,GW/newhope.png,GW/hanover.png,,,,,,,,,,,,,,,,,,
645.5999999996275,,rt_thecrossant_black,557894,,black_plus_sign,,,,49,,,1,1,,,,,,,,,,,,,,,,
null,,color_black,557998,,black_plus_sign,,,,null,,,,,,,,,,,,,,,,,,,,
null,,learn_phase(without_color),561003,,black_plus_sign,,,,null,GW/peoria.png,GW/carmel.png,,,,,,,,,,,,,,,,,,
null,,black_cross(without_color),562054,,blue,,,,null,GW/peoria.png,GW/carmel.png,,,,,,,,,,,,,,,,,,
null,,rt_plussign_withcolor,562556,,blue,,,,null,GW/peoria.png,GW/carmel.png,,,,,,,,,,,,,,,,,,
842.9000000003725,,rt_thecrossant_black,563511,,black_plus_sign,,,,49,,,1,1,,,,,,,,,,,,,,,,
null,,color_black,563615,,black_plus_sign,,,,null,,,,,,,,,,,,,,,,,,,,
null,,learn_phase(without_color),566619,,black_plus_sign,,,,null,GW/newhope.png,GW/hanover.png,,,,,,,,,,,,,,,,,,
null,,black_cross(without_color),567176,,yellow,,,,null,GW/newhope.png,GW/hanover.png,,,,,,,,,,,,,,,,,,
null,,rt_plussign_withcolor,567678,,yellow,,,,null,GW/newhope.png,GW/hanover.png,,,,,,,,,,,,,,,,,,
1194.5,,rt_thecrossant_black,569126,,black_plus_sign,,,,50,,,1,1,,,,,,,,,,,,,,,,
null,,color_black,569229,,black_plus_sign,,,,null,,,,,,,,,,,,,,,,,,,,
null,,learn_phase(without_color),572233,,black_plus_sign,,,,null,GW/hotsprings.png,GW/boulder.png,,,,,,,,,,,,,,,,,,
null,,black_cross(without_color),572678,,blue,,,,null,GW/hotsprings.png,GW/boulder.png,,,,,,,,,,,,,,,,,,
null,,rt_plussign_withcolor,573180,,blue,,,,null,GW/hotsprings.png,GW/boulder.png,,,,,,,,,,,,,,,,,,
696,,rt_thecrossant_black,574742,,black_plus_sign,,,,49,,,1,1,,,,,,,,,,,,,,,,
null,,color_black,574846,,black_plus_sign,,,,null,,,,,,,,,,,,,,,,,,,,
null,,learn_phase(without_color),577851,,black_plus_sign,,,,null,GW/carmel.png,GW/peoria.png,,,,,,,,,,,,,,,,,,
null,,black_cross(without_color),578364,,yellow,,,,null,GW/carmel.png,GW/peoria.png,,,,,,,,,,,,,,,,,,
null,,rt_plussign_withcolor,578866,,yellow,,,,null,GW/carmel.png,GW/peoria.png,,,,,,,,,,,,,,,,,,
583.5,,rt_thecrossant_black,580360,,black_plus_sign,,,,50,,,1,1,,,,,,,,,,,,,,,,
null,,color_black,580463,,black_plus_sign,,,,null,,,,,,,,,,,,,,,,,,,,
null,,learn_phase(without_color),583467,,black_plus_sign,,,,null,GW/gatlinburg.png,GW/westpalmbeach.png,,,,,,,,,,,,,,,,,,
null,,black_cross(without_color),583892,,yellow,,,,null,GW/gatlinburg.png,GW/westpalmbeach.png,,,,,,,,,,,,,,,,,,
null,,rt_plussign_withcolor,584395,,yellow,,,,null,GW/gatlinburg.png,GW/westpalmbeach.png,,,,,,,,,,,,,,,,,,
739.5,,rt_thecrossant_black,585976,,black_plus_sign,,,,50,,,1,1,,,,,,,,,,,,,,,,
null,,color_black,586078,,black_plus_sign,,,,null,,,,,,,,,,,,,,,,,,,,
null,,learn_phase(without_color),589080,,black_plus_sign,,,,null,GW/hanover.png,GW/newhope.png,,,,,,,,,,,,,,,,,,
null,,black_cross(without_color),589488,,blue,,,,null,GW/hanover.png,GW/newhope.png,,,,,,,,,,,,,,,,,,
null,,rt_plussign_withcolor,589990,,blue,,,,null,GW/hanover.png,GW/newhope.png,,,,,,,,,,,,,,,,,,
624.5999999996275,,rt_thecrossant_black,591589,,black_plus_sign,,,,49,,,1,1,,,,,,,,,,,,,,,,
null,,color_black,591694,,black_plus_sign,,,,null,,,,,,,,,,,,,,,,,,,,
null,,learn_phase(without_color),594696,,black_plus_sign,,,,null,GW/peoria.png,GW/carmel.png,,,,,,,,,,,,,,,,,,
null,,black_cross(without_color),595409,,yellow,,,,null,GW/peoria.png,GW/carmel.png,,,,,,,,,,,,,,,,,,
437.20000000018626,,rt_plussign_withcolor,595911,,yellow,,,,50,GW/peoria.png,GW/carmel.png,,,,,,,,,,,,,,,,,,
null,,rt_thecrossant_black,597202,,black_plus_sign,,,,null,,,1,1,,,,,,,,,,,,,,,,
null,,color_black,597306,,black_plus_sign,,,,null,,,,,,,,,,,,,,,,,,,,
null,,learn_phase(without_color),600309,,black_plus_sign,,,,null,GW/newhope.png,GW/hanover.png,,,,,,,,,,,,,,,,,,
null,,black_cross(without_color),600874,,yellow,,,,null,GW/newhope.png,GW/hanover.png,,,,,,,,,,,,,,,,,,
386.90000000037253,,rt_plussign_withcolor,601377,,yellow,,,,50,GW/newhope.png,GW/hanover.png,,,,,,,,,,,,,,,,,,
null,,rt_thecrossant_black,602818,,black_plus_sign,,,,null,,,1,1,,,,,,,,,,,,,,,,
null,,color_black,602920,,black_plus_sign,,,,null,,,,,,,,,,,,,,,,,,,,
null,,learn_phase(without_color),605924,,black_plus_sign,,,,null,GW/gatlinburg.png,GW/westpalmbeach.png,,,,,,,,,,,,,,,,,,
null,,black_cross(without_color),606871,,blue,,,,null,GW/gatlinburg.png,GW/westpalmbeach.png,,,,,,,,,,,,,,,,,,
431.09999999962747,,rt_plussign_withcolor,607374,,blue,,,,49,GW/gatlinburg.png,GW/westpalmbeach.png,,,,,,,,,,,,,,,,,,
null,,rt_thecrossant_black,608433,,black_plus_sign,,,,null,,,1,1,,,,,,,,,,,,,,,,
null,,color_black,608537,,black_plus_sign,,,,null,,,,,,,,,,,,,,,,,,,,
null,,learn_phase(without_color),611541,,black_plus_sign,,,,null,GW/newhope.png,GW/hanover.png,,,,,,,,,,,,,,,,,,
null,,black_cross(without_color),612161,,blue,,,,null,GW/newhope.png,GW/hanover.png,,,,,,,,,,,,,,,,,,
null,,rt_plussign_withcolor,612663,,blue,,,,null,GW/newhope.png,GW/hanover.png,,,,,,,,,,,,,,,,,,
1144.6000000005588,,rt_thecrossant_black,614050,,black_plus_sign,,,,49,,,1,1,,,,,,,,,,,,,,,,
null,,color_black,614153,,black_plus_sign,,,,null,,,,,,,,,,,,,,,,,,,,
null,,learn_phase(without_color),617156,,black_plus_sign,,,,null,GW/hotsprings.png,GW/boulder.png,,,,,,,,,,,,,,,,,,
null,,black_cross(without_color),618176,,yellow,,,,null,GW/hotsprings.png,GW/boulder.png,,,,,,,,,,,,,,,,,,
445.80000000074506,,rt_plussign_withcolor,618678,,yellow,,,,50,GW/hotsprings.png,GW/boulder.png,,,,,,,,,,,,,,,,,,
null,,rt_thecrossant_black,619665,,black_plus_sign,,,,null,,,1,1,,,,,,,,,,,,,,,,
null,,color_black,619768,,black_plus_sign,,,,null,,,,,,,,,,,,,,,,,,,,
null,,learn_phase(without_color),622771,,black_plus_sign,,,,null,GW/gatlinburg.png,GW/westpalmbeach.png,,,,,,,,,,,,,,,,,,
null,,black_cross(without_color),623634,,yellow,,,,null,GW/gatlinburg.png,GW/westpalmbeach.png,,,,,,,,,,,,,,,,,,
478.79999999981374,,rt_plussign_withcolor,624136,,yellow,,,,50,GW/gatlinburg.png,GW/westpalmbeach.png,,,,,,,,,,,,,,,,,,
null,,rt_thecrossant_black,625278,,black_plus_sign,,,,null,,,1,1,,,,,,,,,,,,,,,,
null,,color_black,625382,,black_plus_sign,,,,null,,,,,,,,,,,,,,,,,,,,
null,,learn_phase(without_color),628386,,black_plus_sign,,,,null,GW/carmel.png,GW/peoria.png,,,,,,,,,,,,,,,,,,
null,,black_cross(without_color),629050,,blue,,,,null,GW/carmel.png,GW/peoria.png,,,,,,,,,,,,,,,,,,
null,,rt_plussign_withcolor,629553,,blue,,,,null,GW/carmel.png,GW/peoria.png,,,,,,,,,,,,,,,,,,
964.8000000007451,,rt_thecrossant_black,630893,,black_plus_sign,,,,49,,,1,1,,,,,,,,,,,,,,,,
null,,color_black,630997,,black_plus_sign,,,,null,,,,,,,,,,,,,,,,,,,,
null,,learn_phase(without_color),634001,,black_plus_sign,,,,null,GW/gatlinburg.png,GW/westpalmbeach.png,,,,,,,,,,,,,,,,,,
null,,black_cross(without_color),634710,,yellow,,,,null,GW/gatlinburg.png,GW/westpalmbeach.png,,,,,,,,,,,,,,,,,,
447.5,,rt_plussign_withcolor,635213,,yellow,,,,50,GW/gatlinburg.png,GW/westpalmbeach.png,,,,,,,,,,,,,,,,,,
null,,rt_thecrossant_black,636510,,black_plus_sign,,,,null,,,1,1,,,,,,,,,,,,,,,,
null,,color_black,636614,,black_plus_sign,,,,null,,,,,,,,,,,,,,,,,,,,
null,,learn_phase(without_color),639618,,black_plus_sign,,,,null,GW/hanover.png,GW/newhope.png,,,,,,,,,,,,,,,,,,
null,,black_cross(without_color),640463,,yellow,,,,null,GW/hanover.png,GW/newhope.png,,,,,,,,,,,,,,,,,,
null,,rt_plussign_withcolor,640966,,yellow,,,,null,GW/hanover.png,GW/newhope.png,,,,,,,,,,,,,,,,,,
829.5999999996275,,rt_thecrossant_black,642127,,black_plus_sign,,,,50,,,1,1,,,,,,,,,,,,,,,,
null,,color_black,642230,,black_plus_sign,,,,null,,,,,,,,,,,,,,,,,,,,
null,,learn_phase(without_color),645236,,black_plus_sign,,,,null,GW/peoria.png,GW/carmel.png,,,,,,,,,,,,,,,,,,
null,,black_cross(without_color),645906,,blue,,,,null,GW/peoria.png,GW/carmel.png,,,,,,,,,,,,,,,,,,
null,,rt_plussign_withcolor,646408,,blue,,,,null,GW/peoria.png,GW/carmel.png,,,,,,,,,,,,,,,,,,
1056.2000000001863,,rt_thecrossant_black,647744,,black_plus_sign,,,,49,,,1,1,,,,,,,,,,,,,,,,
null,,color_black,647847,,black_plus_sign,,,,null,,,,,,,,,,,,,,,,,,,,
null,,learn_phase(without_color),650852,,black_plus_sign,,,,null,GW/hotsprings.png,GW/boulder.png,,,,,,,,,,,,,,,,,,
null,,black_cross(without_color),651942,,yellow,,,,null,GW/hotsprings.png,GW/boulder.png,,,,,,,,,,,,,,,,,,
414.6000000005588,,rt_plussign_withcolor,652454,,yellow,,,,50,GW/hotsprings.png,GW/boulder.png,,,,,,,,,,,,,,,,,,
null,,rt_thecrossant_black,653371,,black_plus_sign,,,,null,,,1,1,,,,,,,,,,,,,,,,
null,,color_black,653474,,black_plus_sign,,,,null,,,,,,,,,,,,,,,,,,,,
null,,learn_phase(without_color),656478,,black_plus_sign,,,,null,GW/gatlinburg.png,GW/westpalmbeach.png,,,,,,,,,,,,,,,,,,
null,,black_cross(without_color),656936,,yellow,,,,null,GW/gatlinburg.png,GW/westpalmbeach.png,,,,,,,,,,,,,,,,,,
null,,rt_plussign_withcolor,657439,,yellow,,,,null,GW/gatlinburg.png,GW/westpalmbeach.png,,,,,,,,,,,,,,,,,,
1319.5,,rt_thecrossant_black,658988,,black_plus_sign,,,,50,,,1,1,,,,,,,,,,,,,,,,
null,,color_black,659091,,black_plus_sign,,,,null,,,,,,,,,,,,,,,,,,,,
null,,learn_phase(without_color),662095,,black_plus_sign,,,,null,GW/hotsprings.png,GW/boulder.png,,,,,,,,,,,,,,,,,,
null,,black_cross(without_color),662703,,blue,,,,null,GW/hotsprings.png,GW/boulder.png,,,,,,,,,,,,,,,,,,
null,,rt_plussign_withcolor,663205,,blue,,,,null,GW/hotsprings.png,GW/boulder.png,,,,,,,,,,,,,,,,,,
714.5999999996275,,rt_thecrossant_black,664603,,black_plus_sign,,,,49,,,1,1,,,,,,,,,,,,,,,,
null,,color_black,664706,,black_plus_sign,,,,null,,,,,,,,,,,,,,,,,,,,
null,,learn_phase(without_color),667710,,black_plus_sign,,,,null,GW/newhope.png,GW/hanover.png,,,,,,,,,,,,,,,,,,
null,,black_cross(without_color),668189,,yellow,,,,null,GW/newhope.png,GW/hanover.png,,,,,,,,,,,,,,,,,,
null,,rt_plussign_withcolor,668691,,yellow,,,,null,GW/newhope.png,GW/hanover.png,,,,,,,,,,,,,,,,,,
779.6999999992549,,rt_thecrossant_black,670217,,black_plus_sign,,,,50,,,1,1,,,,,,,,,,,,,,,,
null,,color_black,670321,,black_plus_sign,,,,null,,,,,,,,,,,,,,,,,,,,
null,,learn_phase(without_color),673325,,black_plus_sign,,,,null,GW/peoria.png,GW/carmel.png,,,,,,,,,,,,,,,,,,
null,,black_cross(without_color),673780,,yellow,,,,null,GW/peoria.png,GW/carmel.png,,,,,,,,,,,,,,,,,,
null,,rt_plussign_withcolor,674283,,yellow,,,,null,GW/peoria.png,GW/carmel.png,,,,,,,,,,,,,,,,,,
740.5999999996275,,rt_thecrossant_black,675835,,black_plus_sign,,,,50,,,1,1,,,,,,,,,,,,,,,,
null,,color_black,675938,,black_plus_sign,,,,null,,,,,,,,,,,,,,,,,,,,
null,,learn_phase(without_color),678941,,black_plus_sign,,,,null,GW/hotsprings.png,GW/boulder.png,,,,,,,,,,,,,,,,,,
null,,black_cross(without_color),679520,,blue,,,,null,GW/hotsprings.png,GW/boulder.png,,,,,,,,,,,,,,,,,,
null,,rt_plussign_withcolor,680022,,blue,,,,null,GW/hotsprings.png,GW/boulder.png,,,,,,,,,,,,,,,,,,
581,,rt_thecrossant_black,681451,,black_plus_sign,,,,49,,,1,1,,,,,,,,,,,,,,,,
null,,color_black,681555,,black_plus_sign,,,,null,,,,,,,,,,,,,,,,,,,,
null,,learn_phase(without_color),684560,,black_plus_sign,,,,null,GW/gatlinburg.png,GW/westpalmbeach.png,,,,,,,,,,,,,,,,,,
null,,black_cross(without_color),685656,,yellow,,,,null,GW/gatlinburg.png,GW/westpalmbeach.png,,,,,,,,,,,,,,,,,,
461.90000000037253,,rt_plussign_withcolor,686158,,yellow,,,,50,GW/gatlinburg.png,GW/westpalmbeach.png,,,,,,,,,,,,,,,,,,
null,,rt_thecrossant_black,687069,,black_plus_sign,,,,null,,,1,1,,,,,,,,,,,,,,,,
null,,color_black,687172,,black_plus_sign,,,,null,,,,,,,,,,,,,,,,,,,,
null,,learn_phase(without_color),690177,,black_plus_sign,,,,null,GW/peoria.png,GW/carmel.png,,,,,,,,,,,,,,,,,,
null,,black_cross(without_color),690680,,yellow,,,,null,GW/peoria.png,GW/carmel.png,,,,,,,,,,,,,,,,,,
null,,rt_plussign_withcolor,691183,,yellow,,,,null,GW/peoria.png,GW/carmel.png,,,,,,,,,,,,,,,,,,
1261.4000000003725,,rt_thecrossant_black,692687,,black_plus_sign,,,,50,,,1,1,,,,,,,,,,,,,,,,
null,,color_black,692790,,black_plus_sign,,,,null,,,,,,,,,,,,,,,,,,,,
null,,learn_phase(without_color),695794,,black_plus_sign,,,,null,GW/westpalmbeach.png,GW/gatlinburg.png,,,,,,,,,,,,,,,,,,
null,,black_cross(without_color),696225,,yellow,,,,null,GW/westpalmbeach.png,GW/gatlinburg.png,,,,,,,,,,,,,,,,,,
null,,rt_plussign_withcolor,696727,,yellow,,,,null,GW/westpalmbeach.png,GW/gatlinburg.png,,,,,,,,,,,,,,,,,,
621.1000000005588,,rt_thecrossant_black,698304,,black_plus_sign,,,,50,,,1,1,,,,,,,,,,,,,,,,
null,,color_black,698407,,black_plus_sign,,,,null,,,,,,,,,,,,,,,,,,,,
null,,learn_phase(without_color),701411,,black_plus_sign,,,,null,GW/hotsprings.png,GW/boulder.png,,,,,,,,,,,,,,,,,,
null,,black_cross(without_color),702426,,yellow,,,,null,GW/hotsprings.png,GW/boulder.png,,,,,,,,,,,,,,,,,,
null,,rt_plussign_withcolor,702928,,yellow,,,,null,GW/hotsprings.png,GW/boulder.png,,,,,,,,,,,,,,,,,,
563.5999999996275,,rt_thecrossant_black,703918,,black_plus_sign,,,,50,,,1,1,,,,,,,,,,,,,,,,
null,,color_black,704021,,black_plus_sign,,,,null,,,,,,,,,,,,,,,,,,,,
null,,learn_phase(without_color),707025,,black_plus_sign,,,,null,GW/peoria.png,GW/carmel.png,,,,,,,,,,,,,,,,,,
null,,black_cross(without_color),707931,,blue,,,,null,GW/peoria.png,GW/carmel.png,,,,,,,,,,,,,,,,,,
null,,rt_plussign_withcolor,708435,,blue,,,,null,GW/peoria.png,GW/carmel.png,,,,,,,,,,,,,,,,,,
1113.2999999998137,,rt_thecrossant_black,709536,,black_plus_sign,,,,49,,,1,1,,,,,,,,,,,,,,,,
null,,color_black,709639,,black_plus_sign,,,,null,,,,,,,,,,,,,,,,,,,,
null,,learn_phase(without_color),712645,,black_plus_sign,,,,null,GW/gatlinburg.png,GW/westpalmbeach.png,,,,,,,,,,,,,,,,,,
null,,black_cross(without_color),713087,,yellow,,,,null,GW/gatlinburg.png,GW/westpalmbeach.png,,,,,,,,,,,,,,,,,,
null,,rt_plussign_withcolor,713590,,yellow,,,,null,GW/gatlinburg.png,GW/westpalmbeach.png,,,,,,,,,,,,,,,,,,
1002.4000000003725,,rt_thecrossant_black,715156,,black_plus_sign,,,,50,,,1,1,,,,,,,,,,,,,,,,
null,,color_black,715258,,black_plus_sign,,,,null,,,,,,,,,,,,,,,,,,,,
null,,learn_phase(without_color),718262,,black_plus_sign,,,,null,GW/hotsprings.png,GW/boulder.png,,,,,,,,,,,,,,,,,,
null,,black_cross(without_color),718775,,yellow,,,,null,GW/hotsprings.png,GW/boulder.png,,,,,,,,,,,,,,,,,,
488.6000000005588,,rt_plussign_withcolor,719277,,yellow,,,,50,GW/hotsprings.png,GW/boulder.png,,,,,,,,,,,,,,,,,,
null,,rt_thecrossant_black,720770,,black_plus_sign,,,,null,,,1,1,,,,,,,,,,,,,,,,
null,,color_black,720874,,black_plus_sign,,,,null,,,,,,,,,,,,,,,,,,,,
null,,learn_phase(without_color),723879,,black_plus_sign,,,,null,GW/hotsprings.png,GW/huntsville.png,,,,,,,,,,,,,,,,,,
null,,black_cross(without_color),724406,,blue,,,,null,GW/hotsprings.png,GW/huntsville.png,,,,,,,,,,,,,,,,,,
null,,rt_plussign_withcolor,724909,,blue,,,,null,GW/hotsprings.png,GW/huntsville.png,,,,,,,,,,,,,,,,,,
722.7999999998137,,rt_thecrossant_black,726389,,black_plus_sign,,,,49,,,1,1,,,,,,,,,,,,,,,,
null,,color_black,726493,,black_plus_sign,,,,null,,,,,,,,,,,,,,,,,,,,
null,,learn_phase(without_color),729496,,black_plus_sign,,,,null,GW/cornwall.png,GW/peoria.png,,,,,,,,,,,,,,,,,,
null,,black_cross(without_color),730321,,yellow,,,,null,GW/cornwall.png,GW/peoria.png,,,,,,,,,,,,,,,,,,
388.59999999962747,,rt_plussign_withcolor,730824,,yellow,,,,50,GW/cornwall.png,GW/peoria.png,,,,,,,,,,,,,,,,,,
null,,rt_thecrossant_black,732007,,black_plus_sign,,,,null,,,1,1,,,,,,,,,,,,,,,,
null,,color_black,732111,,black_plus_sign,,,,null,,,,,,,,,,,,,,,,,,,,
null,,learn_phase(without_color),735115,,black_plus_sign,,,,null,GW/huntsville.png,GW/hotsprings.png,,,,,,,,,,,,,,,,,,
null,,black_cross(without_color),736000,,yellow,,,,null,GW/huntsville.png,GW/hotsprings.png,,,,,,,,,,,,,,,,,,
421.09999999962747,,rt_plussign_withcolor,736503,,yellow,,,,50,GW/huntsville.png,GW/hotsprings.png,,,,,,,,,,,,,,,,,,
null,,rt_thecrossant_black,737625,,black_plus_sign,,,,null,,,1,1,,,,,,,,,,,,,,,,
null,,color_black,737728,,black_plus_sign,,,,null,,,,,,,,,,,,,,,,,,,,
null,,learn_phase(without_color),740732,,black_plus_sign,,,,null,GW/cornwall.png,GW/peoria.png,,,,,,,,,,,,,,,,,,
null,,black_cross(without_color),741233,,yellow,,,,null,GW/cornwall.png,GW/peoria.png,,,,,,,,,,,,,,,,,,
412.19999999925494,,rt_plussign_withcolor,741736,,yellow,,,,50,GW/cornwall.png,GW/peoria.png,,,,,,,,,,,,,,,,,,
null,,rt_thecrossant_black,743242,,black_plus_sign,,,,null,,,1,1,,,,,,,,,,,,,,,,
null,,color_black,743346,,black_plus_sign,,,,null,,,,,,,,,,,,,,,,,,,,
null,,learn_phase(without_color),746349,,black_plus_sign,,,,null,GW/leesburg.png,GW/carmel.png,,,,,,,,,,,,,,,,,,
null,,black_cross(without_color),746933,,yellow,,,,null,GW/leesburg.png,GW/carmel.png,,,,,,,,,,,,,,,,,,
null,,rt_plussign_withcolor,747435,,yellow,,,,null,GW/leesburg.png,GW/carmel.png,,,,,,,,,,,,,,,,,,
629.9000000003725,,rt_thecrossant_black,748858,,black_plus_sign,,,,50,,,1,1,,,,,,,,,,,,,,,,
null,,color_black,748961,,black_plus_sign,,,,null,,,,,,,,,,,,,,,,,,,,
null,,learn_phase(without_color),751965,,black_plus_sign,,,,null,GW/huntsville.png,GW/hotsprings.png,,,,,,,,,,,,,,,,,,
null,,black_cross(without_color),752980,,blue,,,,null,GW/huntsville.png,GW/hotsprings.png,,,,,,,,,,,,,,,,,,
null,,rt_plussign_withcolor,753483,,blue,,,,null,GW/huntsville.png,GW/hotsprings.png,,,,,,,,,,,,,,,,,,
755.4000000003725,,rt_thecrossant_black,754475,,black_plus_sign,,,,49,,,1,1,,,,,,,,,,,,,,,,
null,,color_black,754578,,black_plus_sign,,,,null,,,,,,,,,,,,,,,,,,,,
null,,learn_phase(without_color),757583,,black_plus_sign,,,,null,GW/cornwall.png,GW/peoria.png,,,,,,,,,,,,,,,,,,
null,,black_cross(without_color),758034,,blue,,,,null,GW/cornwall.png,GW/peoria.png,,,,,,,,,,,,,,,,,,
null,,rt_plussign_withcolor,758537,,blue,,,,null,GW/cornwall.png,GW/peoria.png,,,,,,,,,,,,,,,,,,
1290.6000000005588,,rt_thecrossant_black,760093,,black_plus_sign,,,,49,,,1,1,,,,,,,,,,,,,,,,
null,,color_black,760195,,black_plus_sign,,,,null,,,,,,,,,,,,,,,,,,,,
null,,learn_phase(without_color),763200,,black_plus_sign,,,,null,GW/carmel.png,GW/leesburg.png,,,,,,,,,,,,,,,,,,
null,,black_cross(without_color),764195,,yellow,,,,null,GW/carmel.png,GW/leesburg.png,,,,,,,,,,,,,,,,,,
null,,rt_plussign_withcolor,764698,,yellow,,,,null,GW/carmel.png,GW/leesburg.png,,,,,,,,,,,,,,,,,,
571.2999999998137,,rt_thecrossant_black,765710,,black_plus_sign,,,,50,,,1,1,,,,,,,,,,,,,,,,
null,,color_black,765828,,black_plus_sign,,,,null,,,,,,,,,,,,,,,,,,,,
null,,learn_phase(without_color),768832,,black_plus_sign,,,,null,GW/hotsprings.png,GW/huntsville.png,,,,,,,,,,,,,,,,,,
null,,black_cross(without_color),769536,,blue,,,,null,GW/hotsprings.png,GW/huntsville.png,,,,,,,,,,,,,,,,,,
null,,rt_plussign_withcolor,770038,,blue,,,,null,GW/hotsprings.png,GW/huntsville.png,,,,,,,,,,,,,,,,,,
1226,,rt_thecrossant_black,771341,,black_plus_sign,,,,49,,,1,1,,,,,,,,,,,,,,,,
null,,color_black,771445,,black_plus_sign,,,,null,,,,,,,,,,,,,,,,,,,,
null,,learn_phase(without_color),774450,,black_plus_sign,,,,null,GW/peoria.png,GW/cornwall.png,,,,,,,,,,,,,,,,,,
null,,black_cross(without_color),775366,,blue,,,,null,GW/peoria.png,GW/cornwall.png,,,,,,,,,,,,,,,,,,
null,,rt_plussign_withcolor,775867,,blue,,,,null,GW/peoria.png,GW/cornwall.png,,,,,,,,,,,,,,,,,,
932,,rt_thecrossant_black,776958,,black_plus_sign,,,,49,,,1,1,,,,,,,,,,,,,,,,
null,,color_black,777061,,black_plus_sign,,,,null,,,,,,,,,,,,,,,,,,,,
null,,learn_phase(without_color),780065,,black_plus_sign,,,,null,GW/carmel.png,GW/leesburg.png,,,,,,,,,,,,,,,,,,
null,,black_cross(without_color),780757,,yellow,,,,null,GW/carmel.png,GW/leesburg.png,,,,,,,,,,,,,,,,,,
null,,rt_plussign_withcolor,781260,,yellow,,,,null,GW/carmel.png,GW/leesburg.png,,,,,,,,,,,,,,,,,,
1116.800000000745,,rt_thecrossant_black,782576,,black_plus_sign,,,,50,,,1,1,,,,,,,,,,,,,,,,
null,,color_black,782679,,black_plus_sign,,,,null,,,,,,,,,,,,,,,,,,,,
null,,learn_phase(without_color),785683,,black_plus_sign,,,,null,GW/huntsville.png,GW/hotsprings.png,,,,,,,,,,,,,,,,,,
null,,black_cross(without_color),786352,,yellow,,,,null,GW/huntsville.png,GW/hotsprings.png,,,,,,,,,,,,,,,,,,
null,,rt_plussign_withcolor,786856,,yellow,,,,null,GW/huntsville.png,GW/hotsprings.png,,,,,,,,,,,,,,,,,,
834.5999999996275,,rt_thecrossant_black,788193,,black_plus_sign,,,,50,,,1,1,,,,,,,,,,,,,,,,
null,,color_black,788296,,black_plus_sign,,,,null,,,,,,,,,,,,,,,,,,,,
null,,learn_phase(without_color),791300,,black_plus_sign,,,,null,GW/leesburg.png,GW/carmel.png,,,,,,,,,,,,,,,,,,
null,,black_cross(without_color),791938,,blue,,,,null,GW/leesburg.png,GW/carmel.png,,,,,,,,,,,,,,,,,,
null,,rt_plussign_withcolor,792440,,blue,,,,null,GW/leesburg.png,GW/carmel.png,,,,,,,,,,,,,,,,,,
1163,,rt_thecrossant_black,793809,,black_plus_sign,,,,49,,,1,1,,,,,,,,,,,,,,,,
null,,color_black,793914,,black_plus_sign,,,,null,,,,,,,,,,,,,,,,,,,,
null,,learn_phase(without_color),796918,,black_plus_sign,,,,null,GW/peoria.png,GW/cornwall.png,,,,,,,,,,,,,,,,,,
null,,black_cross(without_color),797607,,blue,,,,null,GW/peoria.png,GW/cornwall.png,,,,,,,,,,,,,,,,,,
null,,rt_plussign_withcolor,798110,,blue,,,,null,GW/peoria.png,GW/cornwall.png,,,,,,,,,,,,,,,,,,
804.7999999998137,,rt_thecrossant_black,799428,,black_plus_sign,,,,49,,,1,1,,,,,,,,,,,,,,,,
null,,color_black,799531,,black_plus_sign,,,,null,,,,,,,,,,,,,,,,,,,,
null,,learn_phase(without_color),802536,,black_plus_sign,,,,null,GW/westpalmbeach.png,GW/boulder.png,,,,,,,,,,,,,,,,,,
null,,black_cross(without_color),803219,,yellow,,,,null,GW/westpalmbeach.png,GW/boulder.png,,,,,,,,,,,,,,,,,,
442.70000000018626,,rt_plussign_withcolor,803722,,yellow,,,,50,GW/westpalmbeach.png,GW/boulder.png,,,,,,,,,,,,,,,,,,
null,,rt_thecrossant_black,805046,,black_plus_sign,,,,null,,,1,1,,,,,,,,,,,,,,,,
null,,color_black,805149,,black_plus_sign,,,,null,,,,,,,,,,,,,,,,,,,,
null,,learn_phase(without_color),808153,,black_plus_sign,,,,null,GW/peoria.png,GW/cornwall.png,,,,,,,,,,,,,,,,,,
null,,black_cross(without_color),808889,,blue,,,,null,GW/peoria.png,GW/cornwall.png,,,,,,,,,,,,,,,,,,
420.59999999962747,,rt_plussign_withcolor,809392,,blue,,,,49,GW/peoria.png,GW/cornwall.png,,,,,,,,,,,,,,,,,,
null,,rt_thecrossant_black,810662,,black_plus_sign,,,,null,,,1,1,,,,,,,,,,,,,,,,
null,,color_black,810763,,black_plus_sign,,,,null,,,,,,,,,,,,,,,,,,,,
null,,learn_phase(without_color),813767,,black_plus_sign,,,,null,GW/leesburg.png,GW/carmel.png,,,,,,,,,,,,,,,,,,
null,,black_cross(without_color),814179,,blue,,,,null,GW/leesburg.png,GW/carmel.png,,,,,,,,,,,,,,,,,,
null,,rt_plussign_withcolor,814682,,blue,,,,null,GW/leesburg.png,GW/carmel.png,,,,,,,,,,,,,,,,,,
924.1999999992549,,rt_thecrossant_black,816275,,black_plus_sign,,,,49,,,1,1,,,,,,,,,,,,,,,,
null,,color_black,816377,,black_plus_sign,,,,null,,,,,,,,,,,,,,,,,,,,
null,,learn_phase(without_color),819381,,black_plus_sign,,,,null,GW/westpalmbeach.png,GW/boulder.png,,,,,,,,,,,,,,,,,,
null,,black_cross(without_color),820249,,blue,,,,null,GW/westpalmbeach.png,GW/boulder.png,,,,,,,,,,,,,,,,,,
null,,rt_plussign_withcolor,820752,,blue,,,,null,GW/westpalmbeach.png,GW/boulder.png,,,,,,,,,,,,,,,,,,
595.2000000001863,,rt_thecrossant_black,821891,,black_plus_sign,,,,49,,,1,1,,,,,,,,,,,,,,,,
null,,color_black,821996,,black_plus_sign,,,,null,,,,,,,,,,,,,,,,,,,,
null,,learn_phase(without_color),825001,,black_plus_sign,,,,null,GW/huntsville.png,GW/hotsprings.png,,,,,,,,,,,,,,,,,,
null,,black_cross(without_color),825941,,yellow,,,,null,GW/huntsville.png,GW/hotsprings.png,,,,,,,,,,,,,,,,,,
384.5,,rt_plussign_withcolor,826443,,yellow,,,,50,GW/huntsville.png,GW/hotsprings.png,,,,,,,,,,,,,,,,,,
null,,rt_thecrossant_black,827510,,black_plus_sign,,,,null,,,1,1,,,,,,,,,,,,,,,,
null,,color_black,827615,,black_plus_sign,,,,null,,,,,,,,,,,,,,,,,,,,
null,,learn_phase(without_color),830618,,black_plus_sign,,,,null,GW/westpalmbeach.png,GW/boulder.png,,,,,,,,,,,,,,,,,,
null,,black_cross(without_color),831299,,blue,,,,null,GW/westpalmbeach.png,GW/boulder.png,,,,,,,,,,,,,,,,,,
411.1000000005588,,rt_plussign_withcolor,831801,,blue,,,,49,GW/westpalmbeach.png,GW/boulder.png,,,,,,,,,,,,,,,,,,
null,,rt_thecrossant_black,833126,,black_plus_sign,,,,null,,,1,1,,,,,,,,,,,,,,,,
null,,color_black,833228,,black_plus_sign,,,,null,,,,,,,,,,,,,,,,,,,,
null,,learn_phase(without_color),836231,,black_plus_sign,,,,null,GW/peoria.png,GW/cornwall.png,,,,,,,,,,,,,,,,,,
null,,black_cross(without_color),837201,,blue,,,,null,GW/peoria.png,GW/cornwall.png,,,,,,,,,,,,,,,,,,
500.09999999962747,,rt_plussign_withcolor,837705,,blue,,,,49,GW/peoria.png,GW/cornwall.png,,,,,,,,,,,,,,,,,,
null,,rt_thecrossant_black,838741,,black_plus_sign,,,,null,,,1,1,,,,,,,,,,,,,,,,
null,,color_black,838844,,black_plus_sign,,,,null,,,,,,,,,,,,,,,,,,,,
null,,learn_phase(without_color),841845,,black_plus_sign,,,,null,GW/hotsprings.png,GW/huntsville.png,,,,,,,,,,,,,,,,,,
null,,black_cross(without_color),842523,,blue,,,,null,GW/hotsprings.png,GW/huntsville.png,,,,,,,,,,,,,,,,,,
450.5,,rt_plussign_withcolor,843025,,blue,,,,49,GW/hotsprings.png,GW/huntsville.png,,,,,,,,,,,,,,,,,,
null,,rt_thecrossant_black,844355,,black_plus_sign,,,,null,,,1,1,,,,,,,,,,,,,,,,
null,,color_black,844458,,black_plus_sign,,,,null,,,,,,,,,,,,,,,,,,,,
null,,learn_phase(without_color),847462,,black_plus_sign,,,,null,GW/westpalmbeach.png,GW/boulder.png,,,,,,,,,,,,,,,,,,
null,,black_cross(without_color),848266,,yellow,,,,null,GW/westpalmbeach.png,GW/boulder.png,,,,,,,,,,,,,,,,,,
473.29999999981374,,rt_plussign_withcolor,848769,,yellow,,,,50,GW/westpalmbeach.png,GW/boulder.png,,,,,,,,,,,,,,,,,,
null,,rt_thecrossant_black,849969,,black_plus_sign,,,,null,,,1,1,,,,,,,,,,,,,,,,
null,,color_black,850087,,black_plus_sign,,,,null,,,,,,,,,,,,,,,,,,,,
null,,learn_phase(without_color),853090,,black_plus_sign,,,,null,GW/carmel.png,GW/leesburg.png,,,,,,,,,,,,,,,,,,
null,,black_cross(without_color),853578,,yellow,,,,null,GW/carmel.png,GW/leesburg.png,,,,,,,,,,,,,,,,,,
null,,rt_plussign_withcolor,854080,,yellow,,,,null,GW/carmel.png,GW/leesburg.png,,,,,,,,,,,,,,,,,,
1177.5,,rt_thecrossant_black,855598,,black_plus_sign,,,,50,,,1,1,,,,,,,,,,,,,,,,
null,,color_black,855700,,black_plus_sign,,,,null,,,,,,,,,,,,,,,,,,,,
null,,learn_phase(without_color),858705,,black_plus_sign,,,,null,GW/westpalmbeach.png,GW/boulder.png,,,,,,,,,,,,,,,,,,
null,,black_cross(without_color),859680,,yellow,,,,null,GW/westpalmbeach.png,GW/boulder.png,,,,,,,,,,,,,,,,,,
null,,rt_plussign_withcolor,860182,,yellow,,,,null,GW/westpalmbeach.png,GW/boulder.png,,,,,,,,,,,,,,,,,,
615.6999999992549,,rt_thecrossant_black,861215,,black_plus_sign,,,,50,,,1,1,,,,,,,,,,,,,,,,
null,,color_black,861319,,black_plus_sign,,,,null,,,,,,,,,,,,,,,,,,,,
null,,learn_phase(without_color),864323,,black_plus_sign,,,,null,GW/hotsprings.png,GW/huntsville.png,,,,,,,,,,,,,,,,,,
null,,black_cross(without_color),864877,,blue,,,,null,GW/hotsprings.png,GW/huntsville.png,,,,,,,,,,,,,,,,,,
null,,rt_plussign_withcolor,865380,,blue,,,,null,GW/hotsprings.png,GW/huntsville.png,,,,,,,,,,,,,,,,,,
1144.2000000001863,,rt_thecrossant_black,866833,,black_plus_sign,,,,49,,,1,1,,,,,,,,,,,,,,,,
null,,color_black,866937,,black_plus_sign,,,,null,,,,,,,,,,,,,,,,,,,,
null,,learn_phase(without_color),869941,,black_plus_sign,,,,null,GW/boulder.png,GW/westpalmbeach.png,,,,,,,,,,,,,,,,,,
null,,black_cross(without_color),870843,,yellow,,,,null,GW/boulder.png,GW/westpalmbeach.png,,,,,,,,,,,,,,,,,,
402.5,,rt_plussign_withcolor,871346,,yellow,,,,50,GW/boulder.png,GW/westpalmbeach.png,,,,,,,,,,,,,,,,,,
null,,rt_thecrossant_black,872450,,black_plus_sign,,,,null,,,1,1,,,,,,,,,,,,,,,,
null,,color_black,872553,,black_plus_sign,,,,null,,,,,,,,,,,,,,,,,,,,
null,,learn_phase(without_color),875557,,black_plus_sign,,,,null,GW/leesburg.png,GW/carmel.png,,,,,,,,,,,,,,,,,,
null,,black_cross(without_color),876632,,blue,,,,null,GW/leesburg.png,GW/carmel.png,,,,,,,,,,,,,,,,,,
null,,rt_plussign_withcolor,877135,,blue,,,,null,GW/leesburg.png,GW/carmel.png,,,,,,,,,,,,,,,,,,
1276.3999999994412,,rt_thecrossant_black,878066,,black_plus_sign,,,,49,,,1,1,,,,,,,,,,,,,,,,
null,,color_black,878169,,black_plus_sign,,,,null,,,,,,,,,,,,,,,,,,,,
null,,learn_phase(without_color),881173,,black_plus_sign,,,,null,GW/boulder.png,GW/westpalmbeach.png,,,,,,,,,,,,,,,,,,
null,,black_cross(without_color),882137,,blue,,,,null,GW/boulder.png,GW/westpalmbeach.png,,,,,,,,,,,,,,,,,,
null,,rt_plussign_withcolor,882640,,blue,,,,null,GW/boulder.png,GW/westpalmbeach.png,,,,,,,,,,,,,,,,,,
1224.7000000001863,,rt_thecrossant_black,883680,,black_plus_sign,,,,49,,,1,1,,,,,,,,,,,,,,,,
null,,color_black,883784,,black_plus_sign,,,,null,,,,,,,,,,,,,,,,,,,,
null,,learn_phase(without_color),886788,,black_plus_sign,,,,null,GW/peoria.png,GW/cornwall.png,,,,,,,,,,,,,,,,,,
null,,black_cross(without_color),887726,,yellow,,,,null,GW/peoria.png,GW/cornwall.png,,,,,,,,,,,,,,,,,,
439.59999999962747,,rt_plussign_withcolor,888228,,yellow,,,,50,GW/peoria.png,GW/cornwall.png,,,,,,,,,,,,,,,,,,
null,,rt_thecrossant_black,889296,,black_plus_sign,,,,null,,,1,1,,,,,,,,,,,,,,,,
null,,color_black,889399,,black_plus_sign,,,,null,,,,,,,,,,,,,,,,,,,,
null,,learn_phase(without_color),892404,,black_plus_sign,,,,null,GW/leesburg.png,GW/carmel.png,,,,,,,,,,,,,,,,,,
null,,black_cross(without_color),893359,,yellow,,,,null,GW/leesburg.png,GW/carmel.png,,,,,,,,,,,,,,,,,,
null,,rt_plussign_withcolor,893861,,yellow,,,,null,GW/leesburg.png,GW/carmel.png,,,,,,,,,,,,,,,,,,
1049.2000000001863,,rt_thecrossant_black,894912,,black_plus_sign,,,,50,,,1,1,,,,,,,,,,,,,,,,
null,,color_black,895016,,black_plus_sign,,,,null,,,,,,,,,,,,,,,,,,,,
null,,learn_phase(without_color),898021,,black_plus_sign,,,,null,GW/boulder.png,GW/westpalmbeach.png,,,,,,,,,,,,,,,,,,
null,,black_cross(without_color),898997,,blue,,,,null,GW/boulder.png,GW/westpalmbeach.png,,,,,,,,,,,,,,,,,,
480.90000000037253,,rt_plussign_withcolor,899500,,blue,,,,49,GW/boulder.png,GW/westpalmbeach.png,,,,,,,,,,,,,,,,,,
null,,rt_thecrossant_black,900527,,black_plus_sign,,,,null,,,1,1,,,,,,,,,,,,,,,,
null,,color_black,900630,,black_plus_sign,,,,null,,,,,,,,,,,,,,,,,,,,
13574.399999999441,,learn_break,914208,,learn_break,,,,32,,,,,,,,,,,,,,,,,,,,
10881.700000000186,,intro_1,925092,,instruct,,0,Start,,,,,,,,,,,,,,,,,,,,,
null,,directmemory_phase,931595,,GW/peoria.png,,,,null,,,0,0,GW/leesburg.png,GW/westpalmbeach.png,GW/hotsprings.png,GW/leesburg.png,GW/hotsprings.png,GW/westpalmbeach.png,0,,,,,,,,,
null,,warning_page,934602,,warning,,,,null,,,,,,,,,,,,,,,,,,,,
null,,html-keyboard-response,935605,,<p></p>,,,,null,,,,,,,,,,,,,,,,,,,,
1250.199999999255,,directmemory_phase,936858,,GW/shreveport.png,,,,49,,,1,0.5,GW/huntsville.png,GW/newhope.png,GW/hotsprings.png,GW/huntsville.png,GW/hotsprings.png,GW/newhope.png,1,,,,,,,,,
null,,html-keyboard-response,937862,,<p></p>,,,,null,,,,,,,,,,,,,,,,,,,,
1975.0999999996275,,directmemory_phase,939840,,GW/newhope.png,,,,50,,,1,0.6666666666666666,GW/peoria.png,GW/hanover.png,GW/cornwall.png,GW/hanover.png,GW/peoria.png,GW/cornwall.png,1,,,,,,,,,
null,,html-keyboard-response,940845,,<p></p>,,,,null,,,,,,,,,,,,,,,,,,,,
2630.0999999996275,,directmemory_phase,943477,,GW/huntsville.png,,,,49,,,1,0.75,GW/carmel.png,GW/racine.png,GW/boulder.png,GW/carmel.png,GW/boulder.png,GW/racine.png,1,,,,,,,,,
null,,html-keyboard-response,944479,,<p></p>,,,,null,,,,,,,,,,,,,,,,,,,,
1924.4000000003725,,directmemory_phase,946406,,GW/cornwall.png,,,,50,,,1,0.8,GW/leesburg.png,GW/peoria.png,GW/huntsville.png,GW/peoria.png,GW/leesburg.png,GW/huntsville.png,1,,,,,,,,,
null,,html-keyboard-response,947409,,<p></p>,,,,null,,,,,,,,,,,,,,,,,,,,
1908.2000000001863,,directmemory_phase,949320,,GW/hotsprings.png,,,,49,,,1,0.8333333333333334,GW/huntsville.png,GW/cornwall.png,GW/peoria.png,GW/huntsville.png,GW/peoria.png,GW/cornwall.png,1,,,,,,,,,
null,,html-keyboard-response,950324,,<p></p>,,,,null,,,,,,,,,,,,,,,,,,,,
3705,,directmemory_phase,954030,,GW/peoria.png,,,,50,,,0,0.7142857142857143,GW/carmel.png,GW/racine.png,GW/huntsville.png,GW/carmel.png,GW/huntsville.png,GW/racine.png,0.5,closer,,,,,,,,
null,,html-keyboard-response,955035,,<p></p>,,,,null,,,,,,,,,,,,,,,,,,,,
4424.299999999814,,directmemory_phase,959461,,GW/racine.png,,,,51,,,1,0.75,GW/gatlinburg.png,GW/westpalmbeach.png,GW/boulder.png,GW/boulder.png,GW/westpalmbeach.png,GW/gatlinburg.png,1,,,,,,,,,
null,,html-keyboard-response,960462,,<p></p>,,,,null,,,,,,,,,,,,,,,,,,,,
3313.100000000559,,directmemory_phase,963778,,GW/hanover.png,,,,50,,,1,0.7777777777777778,GW/leesburg.png,GW/carmel.png,GW/westpalmbeach.png,GW/carmel.png,GW/leesburg.png,GW/westpalmbeach.png,1,,,,,,,,,
null,,html-keyboard-response,964780,,<p></p>,,,,null,,,,,,,,,,,,,,,,,,,,
3712.2000000001863,,directmemory_phase,968495,,GW/westpalmbeach.png,,,,51,,,1,0.8,GW/carmel.png,GW/huntsville.png,GW/boulder.png,GW/boulder.png,GW/huntsville.png,GW/carmel.png,1,,,,,,,,,
null,,html-keyboard-response,969500,,<p></p>,,,,null,,,,,,,,,,,,,,,,,,,,
3327.2000000001863,,directmemory_phase,972829,,GW/carmel.png,,,,50,,,1,0.8181818181818182,GW/cornwall.png,GW/peoria.png,GW/boulder.png,GW/peoria.png,GW/cornwall.png,GW/boulder.png,1,,,,,,,,,
null,,html-keyboard-response,973831,,<p></p>,,,,null,,,,,,,,,,,,,,,,,,,,
3621,,directmemory_phase,977456,,GW/shreveport.png,,,,51,,,0,0.75,GW/carmel.png,GW/westpalmbeach.png,GW/hanover.png,GW/westpalmbeach.png,GW/carmel.png,GW/hanover.png,0.5,closer,,,,,,,,
null,,html-keyboard-response,978461,,<p></p>,,,,null,,,,,,,,,,,,,,,,,,,,
3001.5999999996275,,directmemory_phase,981465,,GW/peoria.png,,,,50,,,1,0.7692307692307693,GW/newhope.png,GW/cornwall.png,GW/racine.png,GW/cornwall.png,GW/newhope.png,GW/racine.png,1,,,,,,,,,
null,,html-keyboard-response,982469,,<p></p>,,,,null,,,,,,,,,,,,,,,,,,,,
2192,,directmemory_phase,984664,,GW/boulder.png,,,,50,,,1,0.7857142857142857,GW/huntsville.png,GW/hotsprings.png,GW/hanover.png,GW/hotsprings.png,GW/huntsville.png,GW/hanover.png,1,,,,,,,,,
null,,html-keyboard-response,985669,,<p></p>,,,,null,,,,,,,,,,,,,,,,,,,,
3129.0999999996275,,directmemory_phase,988800,,GW/carmel.png,,,,50,,,0,0.7333333333333333,GW/racine.png,GW/newhope.png,GW/hanover.png,GW/hanover.png,GW/newhope.png,GW/racine.png,0.5,closer,,,,,,,,
null,,html-keyboard-response,989804,,<p></p>,,,,null,,,,,,,,,,,,,,,,,,,,
4241.299999999814,,directmemory_phase,994047,,GW/hotsprings.png,,,,51,,,1,0.75,GW/hanover.png,GW/shreveport.png,GW/leesburg.png,GW/leesburg.png,GW/shreveport.png,GW/hanover.png,1,,,,,,,,,
null,,html-keyboard-response,995052,,<p></p>,,,,null,,,,,,,,,,,,,,,,,,,,
3520.2999999998137,,directmemory_phase,998575,,GW/hanover.png,,,,50,,,0,0.7058823529411765,GW/hotsprings.png,GW/leesburg.png,GW/peoria.png,GW/peoria.png,GW/leesburg.png,GW/hotsprings.png,0.5,closer,,,,,,,,
null,,html-keyboard-response,999579,,<p></p>,,,,null,,,,,,,,,,,,,,,,,,,,
2874.7000000001863,,directmemory_phase,1002454,,GW/huntsville.png,,,,51,,,1,0.7222222222222222,GW/racine.png,GW/westpalmbeach.png,GW/hotsprings.png,GW/hotsprings.png,GW/westpalmbeach.png,GW/racine.png,1,,,,,,,,,
null,,html-keyboard-response,1003457,,<p></p>,,,,null,,,,,,,,,,,,,,,,,,,,
4915,,directmemory_phase,1008375,,GW/westpalmbeach.png,,,,50,,,0,0.6842105263157895,GW/shreveport.png,GW/peoria.png,GW/huntsville.png,GW/shreveport.png,GW/huntsville.png,GW/peoria.png,0.5,closer,,,,,,,,
null,,html-keyboard-response,1009378,,<p></p>,,,,null,,,,,,,,,,,,,,,,,,,,
4090.899999999441,,directmemory_phase,1013472,,GW/peoria.png,,,,50,,,0,0.65,GW/boulder.png,GW/huntsville.png,GW/hanover.png,GW/hanover.png,GW/huntsville.png,GW/boulder.png,0.5,closer,,,,,,,,
null,,html-keyboard-response,1014475,,<p></p>,,,,null,,,,,,,,,,,,,,,,,,,,
2569.600000000559,,directmemory_phase,1017048,,GW/leesburg.png,,,,51,,,1,0.6666666666666666,GW/newhope.png,GW/huntsville.png,GW/carmel.png,GW/carmel.png,GW/huntsville.png,GW/newhope.png,1,,,,,,,,,
null,,html-keyboard-response,1018052,,<p></p>,,,,null,,,,,,,,,,,,,,,,,,,,
2273.5999999996275,,directmemory_phase,1020328,,GW/westpalmbeach.png,,,,50,,,1,0.6818181818181818,GW/racine.png,GW/gatlinburg.png,GW/leesburg.png,GW/gatlinburg.png,GW/racine.png,GW/leesburg.png,1,,,,,,,,,
null,,html-keyboard-response,1021333,,<p></p>,,,,null,,,,,,,,,,,,,,,,,,,,
4656.5,,directmemory_phase,1025993,,GW/carmel.png,,,,50,,,0,0.6521739130434783,GW/gatlinburg.png,GW/cornwall.png,GW/huntsville.png,GW/huntsville.png,GW/cornwall.png,GW/gatlinburg.png,0.5,closer,,,,,,,,
null,,html-keyboard-response,1026998,,<p></p>,,,,null,,,,,,,,,,,,,,,,,,,,
4775.199999999255,,directmemory_phase,1031776,,GW/boulder.png,,,,51,,,1,0.6666666666666666,GW/carmel.png,GW/huntsville.png,GW/racine.png,GW/racine.png,GW/huntsville.png,GW/carmel.png,1,,,,,,,,,
null,,html-keyboard-response,1032780,,<p></p>,,,,null,,,,,,,,,,,,,,,,,,,,
4623.5,,directmemory_phase,1037406,,GW/carmel.png,,,,51,,,1,0.68,GW/boulder.png,GW/cornwall.png,GW/leesburg.png,GW/leesburg.png,GW/cornwall.png,GW/boulder.png,1,,,,,,,,,
null,,html-keyboard-response,1038409,,<p></p>,,,,null,,,,,,,,,,,,,,,,,,,,
2364.7000000001863,,directmemory_phase,1040776,,GW/boulder.png,,,,51,,,1,0.6923076923076923,GW/cornwall.png,GW/shreveport.png,GW/westpalmbeach.png,GW/westpalmbeach.png,GW/shreveport.png,GW/cornwall.png,1,,,,,,,,,
null,,html-keyboard-response,1041779,,<p></p>,,,,null,,,,,,,,,,,,,,,,,,,,
2523,,directmemory_phase,1044305,,GW/hanover.png,,,,49,,,1,0.7037037037037037,GW/newhope.png,GW/shreveport.png,GW/leesburg.png,GW/newhope.png,GW/leesburg.png,GW/shreveport.png,1,,,,,,,,,
null,,html-keyboard-response,1045310,,<p></p>,,,,null,,,,,,,,,,,,,,,,,,,,
3903.4000000003725,,directmemory_phase,1049216,,GW/leesburg.png,,,,51,,,1,0.7142857142857143,GW/racine.png,GW/cornwall.png,GW/hotsprings.png,GW/hotsprings.png,GW/cornwall.png,GW/racine.png,1,,,,,,,,,
null,,html-keyboard-response,1050219,,<p></p>,,,,null,,,,,,,,,,,,,,,,,,,,
1369.699999999255,,directmemory_phase,1051592,,GW/gatlinburg.png,,,,49,,,1,0.7241379310344828,GW/westpalmbeach.png,GW/carmel.png,GW/boulder.png,GW/westpalmbeach.png,GW/boulder.png,GW/carmel.png,1,,,,,,,,,
null,,html-keyboard-response,1052597,,<p></p>,,,,null,,,,,,,,,,,,,,,,,,,,
3959.7000000001863,,directmemory_phase,1056559,,GW/leesburg.png,,,,51,,,1,0.7333333333333333,GW/westpalmbeach.png,GW/hanover.png,GW/peoria.png,GW/peoria.png,GW/hanover.png,GW/westpalmbeach.png,1,,,,,,,,,
null,,html-keyboard-response,1057563,,<p></p>,,,,null,,,,,,,,,,,,,,,,,,,,
2484.600000000559,,directmemory_phase,1060050,,GW/hotsprings.png,,,,51,,,1,0.7419354838709677,GW/gatlinburg.png,GW/westpalmbeach.png,GW/boulder.png,GW/boulder.png,GW/westpalmbeach.png,GW/gatlinburg.png,1,,,,,,,,,
null,,html-keyboard-response,1061055,,<p></p>,,,,null,,,,,,,,,,,,,,,,,,,,
1885.5,,directmemory_phase,1062944,,GW/huntsville.png,,,,49,,,1,0.75,GW/shreveport.png,GW/newhope.png,GW/westpalmbeach.png,GW/shreveport.png,GW/westpalmbeach.png,GW/newhope.png,1,,,,,,,,,
null,,html-keyboard-response,1063948,,<p></p>,,,,null,,,,,,,,,,,,,,,,,,,,
12965.099999999627,,intro_1,1076915,,instruct,,0,,,,,,,,,,,,,,,,,,,,,,
7989.699999999255,,intro_2,1084906,,instruct,,1,Next,,,,,,,,,,,,,,,,,,,,,
4283.899999999441,,intro_3,1089191,,instruct,,1,Next,,,,,,,,,,,,,,,,,,,,,
4223.700000000186,,intro_4,1093415,,instruct,,1,Next,,,,,,,,,,,,,,,,,,,,,
11832.799999999814,,intro_5,1105250,,instruct,,1,Next,,,,,,,,,,,,,,,,,,,,,
7913.0999999996275,,intro_6,1113163,,instruct,,1,Next,,,,,,,,,,,,,,,,,,,,,
5257.9000000003725,,intro_7,1118422,,instruct,,1,Next,,,,,,,,,,,,,,,,,,,,,
6115.300000000745,,intro_8,1124539,,instruct,,1,Next,,,,,,,,,,,,,,,,,,,,,
3587.800000000745,,shortestpath_phase,1128128,,GW/hanover.png,,,,50,GW/racine.png,GW/leesburg.png,1,1,,,,GW/leesburg.png,,,,,Three Edge Diff,Two Edge Five Edge,,,,,,
null,,html-keyboard-response,1129132,,<p></p>,,,,null,,,,,,,,,,,,,,,,,,,,
4432.600000000559,,shortestpath_phase,1133567,,GW/gatlinburg.png,,,,49,GW/cornwall.png,GW/carmel.png,0,0.5,,,,GW/carmel.png,,,,,Two Edge Diff,Four Edge Six Edge,,,,,,
null,,html-keyboard-response,1134571,,<p></p>,,,,null,,,,,,,,,,,,,,,,,,,,
4627.800000000745,,shortestpath_phase,1139202,,GW/boulder.png,,,,49,GW/peoria.png,GW/leesburg.png,0,0.3333333333333333,,,,GW/leesburg.png,,,,,One Edge Diff,Two Edge Three Edge,,,,,,
null,,html-keyboard-response,1140206,,<p></p>,,,,null,,,,,,,,,,,,,,,,,,,,
4487.299999999814,,shortestpath_phase,1144697,,GW/newhope.png,,,,49,GW/racine.png,GW/westpalmbeach.png,0,0.25,,,,GW/westpalmbeach.png,,,,,One Edge Diff,Five Edge Six Edge,,,,,,
null,,html-keyboard-response,1145701,,<p></p>,,,,null,,,,,,,,,,,,,,,,,,,,
3735.9000000003725,,shortestpath_phase,1149440,,GW/boulder.png,,,,50,GW/gatlinburg.png,GW/newhope.png,0,0.2,,,,GW/gatlinburg.png,,,,,Three Edge Diff,Three Edge Six Edge,,,,,,
null,,html-keyboard-response,1150443,,<p></p>,,,,null,,,,,,,,,,,,,,,,,,,,
3017.2999999998137,,shortestpath_phase,1153464,,GW/leesburg.png,,,,50,GW/racine.png,GW/hanover.png,1,0.3333333333333333,,,,GW/hanover.png,,,,,One Edge Diff,Two Edge Three Edge,,,,,,
null,,html-keyboard-response,1154467,,<p></p>,,,,null,,,,,,,,,,,,,,,,,,,,
3321.9000000003725,,shortestpath_phase,1157792,,GW/newhope.png,,,,49,GW/boulder.png,GW/huntsville.png,0,0.2857142857142857,,,,GW/huntsville.png,,,,,Two Edge Diff,Three Edge Five Edge,,,,,,
null,,html-keyboard-response,1158796,,<p></p>,,,,null,,,,,,,,,,,,,,,,,,,,
3560.2999999998137,,shortestpath_phase,1162360,,GW/racine.png,,,,49,GW/carmel.png,GW/newhope.png,1,0.375,,,,GW/carmel.png,,,,,Two Edge Diff,Four Edge Six Edge,,,,,,
null,,html-keyboard-response,1163363,,<p></p>,,,,null,,,,,,,,,,,,,,,,,,,,
3769.2999999998137,,shortestpath_phase,1167136,,GW/cornwall.png,,,,49,GW/westpalmbeach.png,GW/leesburg.png,0,0.3333333333333333,,,,GW/leesburg.png,,,,,Three Edge Diff,Two Edge Five Edge,,,,,,
null,,html-keyboard-response,1168143,,<p></p>,,,,null,,,,,,,,,,,,,,,,,,,,
3986.800000000745,,shortestpath_phase,1172133,,GW/peoria.png,,,,49,GW/newhope.png,GW/gatlinburg.png,1,0.4,,,,GW/newhope.png,,,,,Three Edge Diff,Three Edge Six Edge,,,,,,
null,,html-keyboard-response,1173134,,<p></p>,,,,null,,,,,,,,,,,,,,,,,,,,
2656.2999999998137,,shortestpath_phase,1175792,,GW/gatlinburg.png,,,,50,GW/newhope.png,GW/carmel.png,1,0.45454545454545453,,,,GW/carmel.png,,,,,Two Edge Diff,Four Edge Six Edge,,,,,,
null,,html-keyboard-response,1176796,,<p></p>,,,,null,,,,,,,,,,,,,,,,,,,,
4360.5999999996275,,shortestpath_phase,1181158,,GW/newhope.png,,,,50,GW/gatlinburg.png,GW/peoria.png,1,0.5,,,,GW/peoria.png,,,,,Four Edge Diff,Two Edge Six Edge,,,,,,
null,,html-keyboard-response,1182161,,<p></p>,,,,null,,,,,,,,,,,,,,,,,,,,
2997.2000000001863,,shortestpath_phase,1185160,,GW/boulder.png,,,,49,GW/gatlinburg.png,GW/hanover.png,1,0.5384615384615384,,,,GW/gatlinburg.png,,,,,Two Edge Diff,Two Edge Four Edge,,,,,,
null,,html-keyboard-response,1186163,,<p></p>,,,,null,,,,,,,,,,,,,,,,,,,,
3753.9000000003725,,shortestpath_phase,1189920,,GW/newhope.png,,,,49,GW/carmel.png,GW/boulder.png,1,0.5714285714285714,,,,GW/carmel.png,,,,,Three Edge Diff,Two Edge Five Edge,,,,,,
null,,html-keyboard-response,1190924,,<p></p>,,,,null,,,,,,,,,,,,,,,,,,,,
3441.4000000003725,,shortestpath_phase,1194368,,GW/gatlinburg.png,,,,50,GW/racine.png,GW/hanover.png,0,0.5333333333333333,,,,GW/racine.png,,,,,Two Edge Diff,Three Edge Five Edge,,,,,,
null,,html-keyboard-response,1195371,,<p></p>,,,,null,,,,,,,,,,,,,,,,,,,,
4073.399999999441,,shortestpath_phase,1199448,,GW/newhope.png,,,,50,GW/westpalmbeach.png,GW/gatlinburg.png,0,0.5,,,,GW/westpalmbeach.png,,,,,One Edge Diff,Five Edge Six Edge,,,,,,
null,,html-keyboard-response,1200452,,<p></p>,,,,null,,,,,,,,,,,,,,,,,,,,
3144.7000000001863,,shortestpath_phase,1203599,,GW/cornwall.png,,,,50,GW/gatlinburg.png,GW/racine.png,1,0.5294117647058824,,,,GW/racine.png,,,,,One Edge Diff,Five Edge Six Edge,,,,,,
null,,html-keyboard-response,1204605,,<p></p>,,,,null,,,,,,,,,,,,,,,,,,,,
2936.5,,shortestpath_phase,1207544,,GW/gatlinburg.png,,,,49,GW/hanover.png,GW/cornwall.png,1,0.5555555555555556,,,,GW/hanover.png,,,,,One Edge Diff,Five Edge Six Edge,,,,,,
null,,html-keyboard-response,1208548,,<p></p>,,,,null,,,,,,,,,,,,,,,,,,,,
2600.7000000001863,,shortestpath_phase,1211152,,GW/carmel.png,,,,50,GW/gatlinburg.png,GW/cornwall.png,1,0.5789473684210527,,,,GW/cornwall.png,,,,,Two Edge Diff,Two Edge Four Edge,,,,,,
null,,html-keyboard-response,1212156,,<p></p>,,,,null,,,,,,,,,,,,,,,,,,,,
3097.699999999255,,shortestpath_phase,1215254,,GW/racine.png,,,,50,GW/carmel.png,GW/leesburg.png,1,0.6,,,,GW/leesburg.png,,,,,One Edge Diff,Three Edge Four Edge,,,,,,
null,,html-keyboard-response,1216257,,<p></p>,,,,null,,,,,,,,,,,,,,,,,,,,
3107.7000000001863,,shortestpath_phase,1219368,,GW/cornwall.png,,,,49,GW/shreveport.png,GW/racine.png,1,0.6190476190476191,,,,GW/shreveport.png,,,,,One Edge Diff,Four Edge Five Edge,,,,,,
null,,html-keyboard-response,1220372,,<p></p>,,,,null,,,,,,,,,,,,,,,,,,,,
3456.4000000003725,,shortestpath_phase,1223831,,GW/carmel.png,,,,49,GW/hotsprings.png,GW/gatlinburg.png,1,0.6363636363636364,,,,GW/hotsprings.png,,,,,Two Edge Diff,Two Edge Four Edge,,,,,,
null,,html-keyboard-response,1224833,,<p></p>,,,,null,,,,,,,,,,,,,,,,,,,,
3243.5999999996275,,shortestpath_phase,1228077,,GW/boulder.png,,,,50,GW/newhope.png,GW/hanover.png,1,0.6521739130434783,,,,GW/hanover.png,,,,,One Edge Diff,Four Edge Five Edge,,,,,,
null,,html-keyboard-response,1229079,,<p></p>,,,,null,,,,,,,,,,,,,,,,,,,,
3598.600000000559,,shortestpath_phase,1232680,,GW/newhope.png,,,,49,GW/carmel.png,GW/racine.png,1,0.6666666666666666,,,,GW/carmel.png,,,,,Four Edge Diff,Two Edge Six Edge,,,,,,
null,,html-keyboard-response,1233685,,<p></p>,,,,null,,,,,,,,,,,,,,,,,,,,
2320.5999999996275,,shortestpath_phase,1236008,,GW/gatlinburg.png,,,,50,GW/cornwall.png,GW/shreveport.png,1,0.68,,,,GW/shreveport.png,,,,,Four Edge Diff,Two Edge Six Edge,,,,,,
null,,html-keyboard-response,1237012,,<p></p>,,,,null,,,,,,,,,,,,,,,,,,,,
2222.7999999998137,,shortestpath_phase,1239238,,GW/cornwall.png,,,,50,GW/gatlinburg.png,GW/carmel.png,1,0.6923076923076923,,,,GW/carmel.png,,,,,Four Edge Diff,Two Edge Six Edge,,,,,,
null,,html-keyboard-response,1240240,,<p></p>,,,,null,,,,,,,,,,,,,,,,,,,,
2821.5999999996275,,shortestpath_phase,1243064,,GW/newhope.png,,,,50,GW/hotsprings.png,GW/racine.png,0,0.6666666666666666,,,,GW/hotsprings.png,,,,,Two Edge Diff,Four Edge Six Edge,,,,,,
null,,html-keyboard-response,1244066,,<p></p>,,,,null,,,,,,,,,,,,,,,,,,,,
2332.2000000001863,,shortestpath_phase,1246400,,GW/gatlinburg.png,,,,50,GW/boulder.png,GW/hanover.png,0,0.6428571428571429,,,,GW/boulder.png,,,,,Three Edge Diff,Three Edge Six Edge,,,,,,
null,,html-keyboard-response,1247404,,<p></p>,,,,null,,,,,,,,,,,,,,,,,,,,
2975.9000000003725,,shortestpath_phase,1250383,,GW/cornwall.png,,,,50,GW/racine.png,GW/leesburg.png,1,0.6551724137931034,,,,GW/leesburg.png,,,,,Three Edge Diff,Two Edge Five Edge,,,,,,
null,,html-keyboard-response,1251390,,<p></p>,,,,null,,,,,,,,,,,,,,,,,,,,
3214.2000000001863,,shortestpath_phase,1254608,,GW/gatlinburg.png,,,,49,GW/newhope.png,GW/shreveport.png,0,0.6333333333333333,,,,GW/shreveport.png,,,,,Four Edge Diff,Two Edge Six Edge,,,,,,
null,,html-keyboard-response,1255612,,<p></p>,,,,null,,,,,,,,,,,,,,,,,,,,
2369.2999999998137,,shortestpath_phase,1257984,,GW/westpalmbeach.png,,,,50,GW/newhope.png,GW/leesburg.png,1,0.6451612903225806,,,,GW/leesburg.png,,,,,Two Edge Diff,Three Edge Five Edge,,,,,,
null,,html-keyboard-response,1258989,,<p></p>,,,,null,,,,,,,,,,,,,,,,,,,,
3608.2000000001863,,shortestpath_phase,1262600,,GW/gatlinburg.png,,,,49,GW/hanover.png,GW/huntsville.png,0,0.625,,,,GW/huntsville.png,,,,,Two Edge Diff,Three Edge Five Edge,,,,,,
null,,html-keyboard-response,1263605,,<p></p>,,,,null,,,,,,,,,,,,,,,,,,,,
4055.7000000001863,,shortestpath_phase,1267664,,GW/newhope.png,,,,49,GW/boulder.png,GW/peoria.png,0,0.6060606060606061,,,,GW/peoria.png,,,,,Three Edge Diff,Two Edge Five Edge,,,,,,
null,,html-keyboard-response,1268668,,<p></p>,,,,null,,,,,,,,,,,,,,,,,,,,
2072.9000000003725,,shortestpath_phase,1270744,,GW/gatlinburg.png,,,,49,GW/boulder.png,GW/hanover.png,1,0.6176470588235294,,,,GW/boulder.png,,,,,Three Edge Diff,Two Edge Five Edge,,,,,,
null,,html-keyboard-response,1271749,,<p></p>,,,,null,,,,,,,,,,,,,,,,,,,,
3144.0999999996275,,shortestpath_phase,1274896,,GW/westpalmbeach.png,,,,50,GW/peoria.png,GW/leesburg.png,1,0.6285714285714286,,,,GW/leesburg.png,,,,,One Edge Diff,Three Edge Four Edge,,,,,,
null,,html-keyboard-response,1275899,,<p></p>,,,,null,,,,,,,,,,,,,,,,,,,,
3314.7000000001863,,shortestpath_phase,1279216,,GW/gatlinburg.png,,,,49,GW/peoria.png,GW/cornwall.png,1,0.6388888888888888,,,,GW/peoria.png,,,,,One Edge Diff,Five Edge Six Edge,,,,,,
null,,html-keyboard-response,1280220,,<p></p>,,,,null,,,,,,,,,,,,,,,,,,,,
3141,,shortestpath_phase,1283362,,GW/carmel.png,,,,50,GW/westpalmbeach.png,GW/hotsprings.png,1,0.6486486486486487,,,,GW/hotsprings.png,,,,,One Edge Diff,Two Edge Three Edge,,,,,,
null,,html-keyboard-response,1284366,,<p></p>,,,,null,,,,,,,,,,,,,,,,,,,,
1982.8999999994412,,shortestpath_phase,1286352,,GW/gatlinburg.png,,,,49,GW/leesburg.png,GW/cornwall.png,1,0.6578947368421053,,,,GW/leesburg.png,,,,,Two Edge Diff,Four Edge Six Edge,,,,,,
null,,html-keyboard-response,1287358,,<p></p>,,,,null,,,,,,,,,,,,,,,,,,,,
2768.7000000001863,,shortestpath_phase,1290128,,GW/newhope.png,,,,49,GW/carmel.png,GW/gatlinburg.png,1,0.6666666666666666,,,,GW/carmel.png,,,,,Four Edge Diff,Two Edge Six Edge,,,,,,
null,,html-keyboard-response,1291134,,<p></p>,,,,null,,,,,,,,,,,,,,,,,,,,
2039.4000000003725,,shortestpath_phase,1293176,,GW/cornwall.png,,,,50,GW/hanover.png,GW/huntsville.png,0,0.65,,,,GW/hanover.png,,,,,One Edge Diff,Two Edge Three Edge,,,,,,
null,,html-keyboard-response,1294180,,<p></p>,,,,null,,,,,,,,,,,,,,,,,,,,
2849.7000000001863,,shortestpath_phase,1297032,,GW/newhope.png,,,,49,GW/peoria.png,GW/racine.png,1,0.6585365853658537,,,,GW/peoria.png,,,,,Four Edge Diff,Two Edge Six Edge,,,,,,
null,,html-keyboard-response,1298036,,<p></p>,,,,null,,,,,,,,,,,,,,,,,,,,
2880.2000000001863,,shortestpath_phase,1300920,,GW/cornwall.png,,,,49,GW/carmel.png,GW/racine.png,1,0.6666666666666666,,,,GW/carmel.png,,,,,Three Edge Diff,Two Edge Five Edge,,,,,,
null,,html-keyboard-response,1301923,,<p></p>,,,,null,,,,,,,,,,,,,,,,,,,,
3496.399999999441,,shortestpath_phase,1305423,,GW/peoria.png,,,,50,GW/newhope.png,GW/boulder.png,0,0.6511627906976745,,,,GW/newhope.png,,,,,One Edge Diff,Two Edge Three Edge,,,,,,
null,,html-keyboard-response,1306427,,<p></p>,,,,null,,,,,,,,,,,,,,,,,,,,
2356.7999999998137,,shortestpath_phase,1308786,,GW/cornwall.png,,,,49,GW/carmel.png,GW/westpalmbeach.png,1,0.6590909090909091,,,,GW/carmel.png,,,,,Three Edge Diff,Two Edge Five Edge,,,,,,
null,,html-keyboard-response,1309790,,<p></p>,,,,null,,,,,,,,,,,,,,,,,,,,
2598.2999999998137,,shortestpath_phase,1312392,,GW/westpalmbeach.png,,,,49,GW/racine.png,GW/hanover.png,1,0.6666666666666666,,,,GW/racine.png,,,,,Two Edge Diff,Two Edge Four Edge,,,,,,
null,,html-keyboard-response,1313395,,<p></p>,,,,null,,,,,,,,,,,,,,,,,,,,
2042.7000000001863,,shortestpath_phase,1315439,,GW/cornwall.png,,,,49,GW/leesburg.png,GW/gatlinburg.png,1,0.6739130434782609,,,,GW/leesburg.png,,,,,Four Edge Diff,Two Edge Six Edge,,,,,,
null,,html-keyboard-response,1316445,,<p></p>,,,,null,,,,,,,,,,,,,,,,,,,,
2456.9000000003725,,shortestpath_phase,1318905,,GW/westpalmbeach.png,,,,50,GW/huntsville.png,GW/newhope.png,0,0.6595744680851063,,,,GW/huntsville.png,,,,,Three Edge Diff,Three Edge Six Edge,,,,,,
null,,html-keyboard-response,1319908,,<p></p>,,,,null,,,,,,,,,,,,,,,,,,,,
2299.7000000001863,,shortestpath_phase,1322210,,GW/newhope.png,,,,50,GW/shreveport.png,GW/racine.png,0,0.6458333333333334,,,,GW/shreveport.png,,,,,Two Edge Diff,Four Edge Six Edge,,,,,,
null,,html-keyboard-response,1323215,,<p></p>,,,,null,,,,,,,,,,,,,,,,,,,,
2110,,shortestpath_phase,1325328,,GW/gatlinburg.png,,,,50,GW/racine.png,GW/peoria.png,0,0.6326530612244898,,,,GW/racine.png,,,,,Two Edge Diff,Three Edge Five Edge,,,,,,
null,,html-keyboard-response,1326333,,<p></p>,,,,null,,,,,,,,,,,,,,,,,,,,
2599.5999999996275,,shortestpath_phase,1328936,,GW/hanover.png,,,,49,GW/leesburg.png,GW/gatlinburg.png,1,0.64,,,,GW/leesburg.png,,,,,Three Edge Diff,Three Edge Six Edge,,,,,,
null,,html-keyboard-response,1329940,,<p></p>,,,,null,,,,,,,,,,,,,,,,,,,,
2256.5,,shortestpath_phase,1332199,,GW/newhope.png,,,,49,GW/shreveport.png,GW/gatlinburg.png,1,0.6470588235294118,,,,GW/shreveport.png,,,,,Two Edge Diff,Four Edge Six Edge,,,,,,
null,,html-keyboard-response,1333205,,<p></p>,,,,null,,,,,,,,,,,,,,,,,,,,
2039.7999999998137,,shortestpath_phase,1335248,,GW/gatlinburg.png,,,,49,GW/leesburg.png,GW/hanover.png,1,0.6538461538461539,,,,GW/leesburg.png,,,,,One Edge Diff,Four Edge Five Edge,,,,,,
null,,html-keyboard-response,1336252,,<p></p>,,,,null,,,,,,,,,,,,,,,,,,,,
2160.2999999998137,,shortestpath_phase,1338416,,GW/westpalmbeach.png,,,,49,GW/peoria.png,GW/hotsprings.png,0,0.6415094339622641,,,,GW/hotsprings.png,,,,,Two Edge Diff,Two Edge Four Edge,,,,,,
null,,html-keyboard-response,1339420,,<p></p>,,,,null,,,,,,,,,,,,,,,,,,,,
1673.7000000001863,,shortestpath_phase,1341097,,GW/hanover.png,,,,50,GW/racine.png,GW/leesburg.png,1,0.6481481481481481,,,,GW/leesburg.png,,,,,Three Edge Diff,Three Edge Six Edge,,,,,,
null,,html-keyboard-response,1342101,,<p></p>,,,,null,,,,,,,,,,,,,,,,,,,,
2302.7000000001863,,shortestpath_phase,1344407,,GW/westpalmbeach.png,,,,50,GW/racine.png,GW/cornwall.png,0,0.6363636363636364,,,,GW/racine.png,,,,,Three Edge Diff,Two Edge Five Edge,,,,,,
null,,html-keyboard-response,1345410,,<p></p>,,,,null,,,,,,,,,,,,,,,,,,,,
2050.5,,shortestpath_phase,1347464,,GW/gatlinburg.png,,,,49,GW/boulder.png,GW/newhope.png,1,0.6428571428571429,,,,GW/boulder.png,,,,,Four Edge Diff,Two Edge Six Edge,,,,,,
null,,html-keyboard-response,1348467,,<p></p>,,,,null,,,,,,,,,,,,,,,,,,,,
2449.699999999255,,shortestpath_phase,1350920,,GW/westpalmbeach.png,,,,50,GW/peoria.png,GW/cornwall.png,0,0.631578947368421,,,,GW/peoria.png,,,,,One Edge Diff,Four Edge Five Edge,,,,,,
null,,html-keyboard-response,1351926,,<p></p>,,,,null,,,,,,,,,,,,,,,,,,,,
1935.6000000005588,,shortestpath_phase,1353865,,GW/gatlinburg.png,,,,50,GW/cornwall.png,GW/boulder.png,1,0.6379310344827587,,,,GW/boulder.png,,,,,Four Edge Diff,Two Edge Six Edge,,,,,,
null,,html-keyboard-response,1354868,,<p></p>,,,,null,,,,,,,,,,,,,,,,,,,,
3112,,shortestpath_phase,1357984,,GW/westpalmbeach.png,,,,50,GW/carmel.png,GW/huntsville.png,1,0.6440677966101694,,,,GW/huntsville.png,,,,,One Edge Diff,Two Edge Three Edge,,,,,,
null,,html-keyboard-response,1358988,,<p></p>,,,,null,,,,,,,,,,,,,,,,,,,,
3008.5999999996275,,shortestpath_phase,1362000,,GW/cornwall.png,,,,49,GW/boulder.png,GW/leesburg.png,0,0.6333333333333333,,,,GW/leesburg.png,,,,,Two Edge Diff,Two Edge Four Edge,,,,,,
null,,html-keyboard-response,1363005,,<p></p>,,,,null,,,,,,,,,,,,,,,,,,,,
3261.300000000745,,shortestpath_phase,1366269,,GW/carmel.png,,,,49,GW/racine.png,GW/hotsprings.png,0,0.6229508196721312,,,,GW/hotsprings.png,,,,,Two Edge Diff,Two Edge Four Edge,,,,,,
null,,html-keyboard-response,1367272,,<p></p>,,,,null,,,,,,,,,,,,,,,,,,,,
2496.0999999996275,,shortestpath_phase,1369771,,GW/cornwall.png,,,,49,GW/hanover.png,GW/gatlinburg.png,1,0.6290322580645161,,,,GW/hanover.png,,,,,Four Edge Diff,Two Edge Six Edge,,,,,,
null,,html-keyboard-response,1370776,,<p></p>,,,,null,,,,,,,,,,,,,,,,,,,,
2525.2000000001863,,shortestpath_phase,1373304,,GW/carmel.png,,,,50,GW/boulder.png,GW/racine.png,0,0.6190476190476191,,,,GW/boulder.png,,,,,One Edge Diff,Three Edge Four Edge,,,,,,
null,,html-keyboard-response,1374307,,<p></p>,,,,null,,,,,,,,,,,,,,,,,,,,
2548.899999999441,,shortestpath_phase,1376859,,GW/cornwall.png,,,,50,GW/gatlinburg.png,GW/shreveport.png,1,0.625,,,,GW/shreveport.png,,,,,Two Edge Diff,Four Edge Six Edge,,,,,,
null,,html-keyboard-response,1377863,,<p></p>,,,,null,,,,,,,,,,,,,,,,,,,,
2531.4000000003725,,shortestpath_phase,1380397,,GW/gatlinburg.png,,,,50,GW/boulder.png,GW/peoria.png,0,0.6153846153846154,,,,GW/boulder.png,,,,,Three Edge Diff,Three Edge Six Edge,,,,,,
null,,html-keyboard-response,1381400,,<p></p>,,,,null,,,,,,,,,,,,,,,,,,,,
2627.399999999441,,shortestpath_phase,1384031,,GW/racine.png,,,,49,GW/hotsprings.png,GW/hanover.png,1,0.6212121212121212,,,,GW/hotsprings.png,,,,,Three Edge Diff,Two Edge Five Edge,,,,,,
null,,html-keyboard-response,1385037,,<p></p>,,,,null,,,,,,,,,,,,,,,,,,,,
2641.7000000001863,,shortestpath_phase,1387681,,GW/hanover.png,,,,50,GW/racine.png,GW/boulder.png,1,0.6268656716417911,,,,GW/boulder.png,,,,,One Edge Diff,Four Edge Five Edge,,,,,,
null,,html-keyboard-response,1388700,,<p></p>,,,,null,,,,,,,,,,,,,,,,,,,,
2009.6000000005588,,shortestpath_phase,1390712,,GW/cornwall.png,,,,49,GW/leesburg.png,GW/racine.png,1,0.6323529411764706,,,,GW/leesburg.png,,,,,Three Edge Diff,Three Edge Six Edge,,,,,,
null,,html-keyboard-response,1391725,,<p></p>,,,,null,,,,,,,,,,,,,,,,,,,,
2281.600000000559,,shortestpath_phase,1394009,,GW/hanover.png,,,,49,GW/hotsprings.png,GW/westpalmbeach.png,1,0.6376811594202898,,,,GW/hotsprings.png,,,,,One Edge Diff,Three Edge Four Edge,,,,,,
null,,html-keyboard-response,1395013,,<p></p>,,,,null,,,,,,,,,,,,,,,,,,,,
3119.4000000003725,,shortestpath_phase,1398136,,GW/cornwall.png,,,,49,GW/huntsville.png,GW/shreveport.png,1,0.6428571428571429,,,,GW/huntsville.png,,,,,One Edge Diff,Three Edge Four Edge,,,,,,
null,,html-keyboard-response,1399140,,<p></p>,,,,null,,,,,,,,,,,,,,,,,,,,
2113.2000000001863,,shortestpath_phase,1401256,,GW/newhope.png,,,,50,GW/gatlinburg.png,GW/boulder.png,1,0.647887323943662,,,,GW/boulder.png,,,,,One Edge Diff,Five Edge Six Edge,,,,,,
null,,html-keyboard-response,1402261,,<p></p>,,,,null,,,,,,,,,,,,,,,,,,,,
2226.7000000001863,,shortestpath_phase,1404490,,GW/hanover.png,,,,50,GW/cornwall.png,GW/racine.png,0,0.6388888888888888,,,,GW/cornwall.png,,,,,Three Edge Diff,Three Edge Six Edge,,,,,,
null,,html-keyboard-response,1405495,,<p></p>,,,,null,,,,,,,,,,,,,,,,,,,,
2605.5,,shortestpath_phase,1408103,,GW/westpalmbeach.png,,,,50,GW/leesburg.png,GW/cornwall.png,0,0.6301369863013698,,,,GW/leesburg.png,,,,,Two Edge Diff,Three Edge Five Edge,,,,,,
null,,html-keyboard-response,1409106,,<p></p>,,,,null,,,,,,,,,,,,,,,,,,,,
2435.7000000001863,,shortestpath_phase,1411545,,GW/cornwall.png,,,,50,GW/hanover.png,GW/westpalmbeach.png,0,0.6216216216216216,,,,GW/hanover.png,,,,,Three Edge Diff,Two Edge Five Edge,,,,,,
null,,html-keyboard-response,1412549,,<p></p>,,,,null,,,,,,,,,,,,,,,,,,,,
2024.4000000003725,,shortestpath_phase,1414576,,GW/racine.png,,,,50,GW/hotsprings.png,GW/newhope.png,0,0.6133333333333333,,,,GW/hotsprings.png,,,,,Four Edge Diff,Two Edge Six Edge,,,,,,
null,,html-keyboard-response,1415581,,<p></p>,,,,null,,,,,,,,,,,,,,,,,,,,
2656.5999999996275,,shortestpath_phase,1418240,,GW/gatlinburg.png,,,,50,GW/peoria.png,GW/leesburg.png,1,0.618421052631579,,,,GW/leesburg.png,,,,,One Edge Diff,Four Edge Five Edge,,,,,,
null,,html-keyboard-response,1419246,,<p></p>,,,,null,,,,,,,,,,,,,,,,,,,,
2334.7000000001863,,shortestpath_phase,1421584,,GW/cornwall.png,,,,49,GW/huntsville.png,GW/racine.png,1,0.6233766233766234,,,,GW/huntsville.png,,,,,Two Edge Diff,Three Edge Five Edge,,,,,,
null,,html-keyboard-response,1422588,,<p></p>,,,,null,,,,,,,,,,,,,,,,,,,,
1832.7999999998137,,shortestpath_phase,1424424,,GW/gatlinburg.png,,,,49,GW/peoria.png,GW/shreveport.png,0,0.6153846153846154,,,,GW/shreveport.png,,,,,Three Edge Diff,Three Edge Six Edge,,,,,,
null,,html-keyboard-response,1425427,,<p></p>,,,,null,,,,,,,,,,,,,,,,,,,,
2259.399999999441,,shortestpath_phase,1427690,,GW/hanover.png,,,,49,GW/racine.png,GW/cornwall.png,0,0.6075949367088608,,,,GW/cornwall.png,,,,,Three Edge Diff,Two Edge Five Edge,,,,,,
null,,html-keyboard-response,1428693,,<p></p>,,,,null,,,,,,,,,,,,,,,,,,,,
2071.2000000001863,,shortestpath_phase,1430767,,GW/carmel.png,,,,49,GW/shreveport.png,GW/gatlinburg.png,1,0.6125,,,,GW/shreveport.png,,,,,Two Edge Diff,Two Edge Four Edge,,,,,,
null,,html-keyboard-response,1431773,,<p></p>,,,,null,,,,,,,,,,,,,,,,,,,,
2254.0999999996275,,shortestpath_phase,1434029,,GW/newhope.png,,,,49,GW/huntsville.png,GW/hotsprings.png,1,0.6172839506172839,,,,GW/huntsville.png,,,,,One Edge Diff,Three Edge Four Edge,,,,,,
null,,html-keyboard-response,1435031,,<p></p>,,,,null,,,,,,,,,,,,,,,,,,,,
2540.5,,shortestpath_phase,1437575,,GW/gatlinburg.png,,,,49,GW/hotsprings.png,GW/hanover.png,1,0.6219512195121951,,,,GW/hotsprings.png,,,,,Two Edge Diff,Three Edge Five Edge,,,,,,
null,,html-keyboard-response,1438577,,<p></p>,,,,null,,,,,,,,,,,,,,,,,,,,
1843.0999999996275,,shortestpath_phase,1440423,,GW/newhope.png,,,,50,GW/westpalmbeach.png,GW/peoria.png,1,0.6265060240963856,,,,GW/peoria.png,,,,,Three Edge Diff,Three Edge Six Edge,,,,,,
null,,html-keyboard-response,1441427,,<p></p>,,,,null,,,,,,,,,,,,,,,,,,,,
1747,,shortestpath_phase,1443176,,GW/gatlinburg.png,,,,49,GW/hanover.png,GW/shreveport.png,0,0.6190476190476191,,,,GW/shreveport.png,,,,,Three Edge Diff,Three Edge Six Edge,,,,,,
null,,html-keyboard-response,1444181,,<p></p>,,,,null,,,,,,,,,,,,,,,,,,,,
49184.90000000037,,intro_1,1493368,,instruct,,0,,,,,,,,,,,,,,,,,,,,,,
4451.799999999814,,intro_2,1497821,,instruct,,1,Next,,,,,,,,,,,,,,,,,,,,,
8095.799999999814,,intro_3,1505918,,instruct,,1,Next,,,,,,,,,,,,,,,,,,,,,
7862.5,,intro_4,1513782,,instruct,,1,Next,,,,,,,,,,,,,,,,,,,,,
3871.899999999441,,intro_5,1517655,,instruct,,1,Next,,,,,,,,,,,,,,,,,,,,,
12511.5,,intro_6,1530168,,instruct,,1,Next,,,,,,,,,,,,,,,,,,,,,
,,Goal Directed Planning,1568966,,GDP-0,,,,,,,,,,,,,,,,,,,racine.png,leesburg.png,,undefinedimgLdrag10:[x1:74 x2:577.015625 y1:210 y2:218.609375]drag10imgR:[x1:577.015625 x2:1074 y1:218.609375 y2:210],false,
,,Goal Directed Planning,1629670,,GDP-1,,,,,,,,,,,,,,,,,,,leesburg.png,newhope.png,,undefineddrag02imgL:[x1:322 x2:74 y1:211.609375 y2:210]drag05drag02:[x1:600 x2:322 y1:208.609375 y2:211.609375]drag05imgR:[x1:600 x2:1074 y1:208.609375 y2:210],true,undefinedimgLdrag03:[x1:74 x2:331 y1:210 y2:195.609375]drag03drag07:[x1:331 x2:607 y1:195.609375 y2:198.609375]drag07drag11:[x1:607 x2:849 y1:198.609375 y2:224.609375]drag11imgR:[x1:849 x2:1074 y1:224.609375 y2:210]
,,Goal Directed Planning,1656751,,GDP-2,,,,,,,,,,,,,,,,,,,boulder.png,hanover.png,,undefinedimgLdrag09:[x1:74 x2:324 y1:210 y2:223]drag10drag09:[x1:556 x2:324 y1:196.609375 y2:223]drag12drag10:[x1:775 x2:556 y1:205.609375 y2:196.609375]drag12imgR:[x1:775 x2:1074 y1:205.609375 y2:210],false,
,,Goal Directed Planning,1685062,,GDP-3,,,,,,,,,,,,,,,,,,,hanover.png,huntsville.png,,undefinedimgLdrag04:[x1:74 x2:340 y1:210 y2:204]drag10drag04:[x1:558 x2:340 y1:198.609375 y2:204]drag10drag07:[x1:547 x2:756 y1:182 y2:198]drag07drag02:[x1:731 x2:934 y1:188 y2:214]drag02imgR:[x1:934 x2:1074 y1:214 y2:210],false,
,,Goal Directed Planning,1710101,,GDP-4,,,,,,,,,,,,,,,,,,,racine.png,carmel.png,,undefinedimgLdrag13:[x1:74 x2:380 y1:210 y2:222]drag13drag03:[x1:380 x2:581 y1:222 y2:106.609375]drag03drag07:[x1:581 x2:741 y1:106.609375 y2:228.609375]drag04drag07:[x1:863 x2:740 y1:223.609375 y2:229]drag04imgR:[x1:863 x2:1074 y1:223.609375 y2:210],false,
