rt,responses,trial_type,time_elapsed,sequence,stimulus,graphorder,button_pressed,response,key_press,stimulus_left,stimulus_right,accuracy,cumulative_accuracy,stimulus_down_left,stimulus_down_mid,stimulus_down_right,stimulus_correct,stimulus_short,stimulus_far,weighted_accuracy,missedtrial,condition,specific_pairs,imgL_ID,imgR_ID,linedress,linedressed,detour_trial,linedressed_detor
8150.300000011921,{worker_id:5b09f4f1d282ff00015b536d},id_enter,8153,interleaved,replication,GW/racine.png; GW/gatlinburg.png; GW/boulder.png; GW/shreveport.png; GW/cornwall.png; GW/carmel.png; GW/peoria.png; GW/huntsville.png; GW/leesburg.png; GW/westpalmbeach.png; GW/newhope.png; GW/hotsprings.png; GW/hanover.png,,,,,,,,,,,,,,,,,,,,,,,
4780.9000000059605,,fullscreen,12938,,fullscreen,,0,,,,,,,,,,,,,,,,,,,,,,
13139.59999999404,,intro_1,26079,,instruct,,0,,,,,,,,,,,,,,,,,,,,,,
16004,,intro_2,42085,,instruct,,1,Next,,,,,,,,,,,,,,,,,,,,,
12672.100000023842,,intro_3,54759,,instruct,,1,Next,,,,,,,,,,,,,,,,,,,,,
null,,learn_prac_1,57761,,lean_prac_1,,,,null,,,,,,,,,,,,,,,,,,,,
null,,html-keyboard-response,58764,,<p></p>,,,,null,,,,,,,,,,,,,,,,,,,,
3033.5999999940395,,intro_1,61799,,instruct,,0,,,,,,,,,,,,,,,,,,,,,,
9183,,intro_2,70983,,instruct,,1,Next,,,,,,,,,,,,,,,,,,,,,
null,,learn_prac_2,73986,,lean_prac_2,,,,null,,,,,,,,,,,,,,,,,,,,
null,,html-keyboard-response,74987,,<p></p>,,,,null,,,,,,,,,,,,,,,,,,,,
1992.7999999821186,,intro_1,76981,,instruct,,0,,,,,,,,,,,,,,,,,,,,,,
1710.5999999940395,,intro_2,78693,,instruct,,1,Next,,,,,,,,,,,,,,,,,,,,,
33931.70000001788,,intro_3,112627,,instruct,,1,Next,,,,,,,,,,,,,,,,,,,,,
null,,prac_atten_color_black,113464,,black_plus_sign,,,,null,,,,,,,,,,,,,,,,,,,,
null,,prac_atten_color,114033,,prac_stop_color,,,,null,,,,,,,,,,,,,,,,,,,,
435.60000002384186,,prac_atten_color_black,116034,,black_plus_sign,,,,49,,,,,,,,,,,,,,,,,,,,
null,,prac_atten_color_black,116871,,black_plus_sign,,,,null,,,,,,,,,,,,,,,,,,,,
127.40000000596046,,prac_atten_color,117532,,prac_stop_color,,,,49,,,,,,,,,,,,,,,,,,,,
67,,prac_atten_color_black,119534,,black_plus_sign,,,,50,,,,,,,,,,,,,,,,,,,,
null,,prac_atten_color_black,120278,,black_plus_sign,,,,null,,,,,,,,,,,,,,,,,,,,
669.0999999940395,,prac_atten_color,121379,,prac_stop_color,,,,50,,,,,,,,,,,,,,,,,,,,
null,,prac_atten_color_black,123381,,black_plus_sign,,,,null,,,,,,,,,,,,,,,,,,,,
null,,prac_atten_color_black,123685,,black_plus_sign,,,,null,,,,,,,,,,,,,,,,,,,,
575.0999999940395,,prac_atten_color,124632,,prac_stop_color,,,,49,,,,,,,,,,,,,,,,,,,,
null,,prac_atten_color_black,126634,,black_plus_sign,,,,null,,,,,,,,,,,,,,,,,,,,
null,,prac_atten_color_black,127093,,black_plus_sign,,,,null,,,,,,,,,,,,,,,,,,,,
748.5999999940395,,prac_atten_color,128182,,prac_stop_color,,,,50,,,,,,,,,,,,,,,,,,,,
null,,prac_atten_color_black,130183,,black_plus_sign,,,,null,,,,,,,,,,,,,,,,,,,,
null,,prac_atten_color_black,130499,,black_plus_sign,,,,null,,,,,,,,,,,,,,,,,,,,
null,,prac_atten_color,130916,,prac_stop_color,,,,null,,,,,,,,,,,,,,,,,,,,
200.30000001192093,,prac_atten_color_black,132919,,black_plus_sign,,,,50,,,,,,,,,,,,,,,,,,,,
null,,prac_atten_color_black,133907,,black_plus_sign,,,,null,,,,,,,,,,,,,,,,,,,,
null,,prac_atten_color,134401,,prac_stop_color,,,,null,,,,,,,,,,,,,,,,,,,,
87.5,,prac_atten_color_black,136403,,black_plus_sign,,,,50,,,,,,,,,,,,,,,,,,,,
5208.0999999940395,,attentioncheck_help,141612,,instruct,,,,32,,,,,,,,,,,,,,,,,,,,
null,,prac_atten_color_black,142521,,black_plus_sign,,,,null,,,,,,,,,,,,,,,,,,,,
728.0999999940395,,prac_atten_color,143360,,prac_stop_color,,,,50,,,,,,,,,,,,,,,,,,,,
null,,prac_atten_color_black,145362,,black_plus_sign,,,,null,,,,,,,,,,,,,,,,,,,,
null,,prac_atten_color_black,145926,,black_plus_sign,,,,null,,,,,,,,,,,,,,,,,,,,
646.5999999940395,,prac_atten_color,146861,,prac_stop_color,,,,49,,,,,,,,,,,,,,,,,,,,
null,,prac_atten_color_black,148864,,black_plus_sign,,,,null,,,,,,,,,,,,,,,,,,,,
null,,prac_atten_color_black,149334,,black_plus_sign,,,,null,,,,,,,,,,,,,,,,,,,,
null,,prac_atten_color,149763,,prac_stop_color,,,,null,,,,,,,,,,,,,,,,,,,,
153.09999999403954,,prac_atten_color_black,151766,,black_plus_sign,,,,49,,,,,,,,,,,,,,,,,,,,
8857.199999988079,,attentioncheck_feedback,160626,,cross_check_feedback,,0,,,,,,,,,,,,,,,,,,,,,,
21262.09999999404,,last_instruct,181889,,instruct,,,,32,,,,,,,,,,,,,,,,,,,,
null,,learn_phase(without_color),184890,,black_plus_sign,,,,null,GW/carmel.png,GW/leesburg.png,,,,,,,,,,,,,,,,,,
null,,black_cross(without_color),185576,,blue,,,,null,GW/carmel.png,GW/leesburg.png,,,,,,,,,,,,,,,,,,
null,,rt_plussign_withcolor,186077,,blue,,,,null,GW/carmel.png,GW/leesburg.png,,,,,,,,,,,,,,,,,,
1093.5,,rt_thecrossant_black,187395,,black_plus_sign,,,,49,,,1,1,,,,,,,,,,,,,,,,
null,,color_black,187497,,black_plus_sign,,,,null,,,,,,,,,,,,,,,,,,,,
null,,learn_phase(without_color),190499,,black_plus_sign,,,,null,GW/shreveport.png,GW/cornwall.png,,,,,,,,,,,,,,,,,,
null,,black_cross(without_color),191524,,yellow,,,,null,GW/shreveport.png,GW/cornwall.png,,,,,,,,,,,,,,,,,,
null,,rt_plussign_withcolor,192025,,yellow,,,,null,GW/shreveport.png,GW/cornwall.png,,,,,,,,,,,,,,,,,,
1080.2000000178814,,rt_thecrossant_black,193005,,black_plus_sign,,,,50,,,1,1,,,,,,,,,,,,,,,,
null,,color_black,193108,,black_plus_sign,,,,null,,,,,,,,,,,,,,,,,,,,
null,,learn_phase(without_color),196111,,black_plus_sign,,,,null,GW/westpalmbeach.png,GW/huntsville.png,,,,,,,,,,,,,,,,,,
null,,black_cross(without_color),196861,,yellow,,,,null,GW/westpalmbeach.png,GW/huntsville.png,,,,,,,,,,,,,,,,,,
null,,rt_plussign_withcolor,197363,,yellow,,,,null,GW/westpalmbeach.png,GW/huntsville.png,,,,,,,,,,,,,,,,,,
1598.199999988079,,rt_thecrossant_black,198619,,black_plus_sign,,,,50,,,1,1,,,,,,,,,,,,,,,,
null,,color_black,198721,,black_plus_sign,,,,null,,,,,,,,,,,,,,,,,,,,
null,,learn_phase(without_color),201724,,black_plus_sign,,,,null,GW/peoria.png,GW/huntsville.png,,,,,,,,,,,,,,,,,,
null,,black_cross(without_color),202477,,yellow,,,,null,GW/peoria.png,GW/huntsville.png,,,,,,,,,,,,,,,,,,
null,,rt_plussign_withcolor,202978,,yellow,,,,null,GW/peoria.png,GW/huntsville.png,,,,,,,,,,,,,,,,,,
1130.9000000059605,,rt_thecrossant_black,204230,,black_plus_sign,,,,50,,,1,1,,,,,,,,,,,,,,,,
null,,color_black,204332,,black_plus_sign,,,,null,,,,,,,,,,,,,,,,,,,,
null,,learn_phase(without_color),207335,,black_plus_sign,,,,null,GW/boulder.png,GW/carmel.png,,,,,,,,,,,,,,,,,,
null,,black_cross(without_color),207857,,blue,,,,null,GW/boulder.png,GW/carmel.png,,,,,,,,,,,,,,,,,,
null,,rt_plussign_withcolor,208358,,blue,,,,null,GW/boulder.png,GW/carmel.png,,,,,,,,,,,,,,,,,,
1021.9000000059605,,rt_thecrossant_black,209840,,black_plus_sign,,,,50,,,0,0.8,,,,,,,,,,,,,,,,
null,,color_black,209942,,black_plus_sign,,,,null,,,,,,,,,,,,,,,,,,,,
null,,learn_phase(without_color),212943,,black_plus_sign,,,,null,GW/carmel.png,GW/peoria.png,,,,,,,,,,,,,,,,,,
null,,black_cross(without_color),213613,,blue,,,,null,GW/carmel.png,GW/peoria.png,,,,,,,,,,,,,,,,,,
null,,rt_plussign_withcolor,214115,,blue,,,,null,GW/carmel.png,GW/peoria.png,,,,,,,,,,,,,,,,,,
1038.199999988079,,rt_thecrossant_black,215448,,black_plus_sign,,,,49,,,1,0.8333333333333334,,,,,,,,,,,,,,,,
null,,color_black,215551,,black_plus_sign,,,,null,,,,,,,,,,,,,,,,,,,,
null,,learn_phase(without_color),218554,,black_plus_sign,,,,null,GW/leesburg.png,GW/huntsville.png,,,,,,,,,,,,,,,,,,
null,,black_cross(without_color),219227,,yellow,,,,null,GW/leesburg.png,GW/huntsville.png,,,,,,,,,,,,,,,,,,
null,,rt_plussign_withcolor,219729,,yellow,,,,null,GW/leesburg.png,GW/huntsville.png,,,,,,,,,,,,,,,,,,
997.7000000178814,,rt_thecrossant_black,221062,,black_plus_sign,,,,50,,,1,0.8571428571428571,,,,,,,,,,,,,,,,
null,,color_black,221164,,black_plus_sign,,,,null,,,,,,,,,,,,,,,,,,,,
null,,learn_phase(without_color),224167,,black_plus_sign,,,,null,GW/boulder.png,GW/gatlinburg.png,,,,,,,,,,,,,,,,,,
null,,black_cross(without_color),225090,,blue,,,,null,GW/boulder.png,GW/gatlinburg.png,,,,,,,,,,,,,,,,,,
null,,rt_plussign_withcolor,225592,,blue,,,,null,GW/boulder.png,GW/gatlinburg.png,,,,,,,,,,,,,,,,,,
986.7999999821186,,rt_thecrossant_black,226675,,black_plus_sign,,,,49,,,1,0.875,,,,,,,,,,,,,,,,
null,,color_black,226778,,black_plus_sign,,,,null,,,,,,,,,,,,,,,,,,,,
null,,learn_phase(without_color),229781,,black_plus_sign,,,,null,GW/peoria.png,GW/carmel.png,,,,,,,,,,,,,,,,,,
null,,black_cross(without_color),230437,,blue,,,,null,GW/peoria.png,GW/carmel.png,,,,,,,,,,,,,,,,,,
null,,rt_plussign_withcolor,230939,,blue,,,,null,GW/peoria.png,GW/carmel.png,,,,,,,,,,,,,,,,,,
1151.800000011921,,rt_thecrossant_black,232289,,black_plus_sign,,,,49,,,1,0.8888888888888888,,,,,,,,,,,,,,,,
null,,color_black,232392,,black_plus_sign,,,,null,,,,,,,,,,,,,,,,,,,,
null,,learn_phase(without_color),235395,,black_plus_sign,,,,null,GW/boulder.png,GW/gatlinburg.png,,,,,,,,,,,,,,,,,,
null,,black_cross(without_color),236260,,blue,,,,null,GW/boulder.png,GW/gatlinburg.png,,,,,,,,,,,,,,,,,,
null,,rt_plussign_withcolor,236762,,blue,,,,null,GW/boulder.png,GW/gatlinburg.png,,,,,,,,,,,,,,,,,,
1268.5,,rt_thecrossant_black,237902,,black_plus_sign,,,,49,,,1,0.9,,,,,,,,,,,,,,,,
null,,color_black,238005,,black_plus_sign,,,,null,,,,,,,,,,,,,,,,,,,,
null,,learn_phase(without_color),241008,,black_plus_sign,,,,null,GW/newhope.png,GW/hotsprings.png,,,,,,,,,,,,,,,,,,
null,,black_cross(without_color),241501,,yellow,,,,null,GW/newhope.png,GW/hotsprings.png,,,,,,,,,,,,,,,,,,
null,,rt_plussign_withcolor,242002,,yellow,,,,null,GW/newhope.png,GW/hotsprings.png,,,,,,,,,,,,,,,,,,
1463.7000000178814,,rt_thecrossant_black,243515,,black_plus_sign,,,,50,,,1,0.9090909090909091,,,,,,,,,,,,,,,,
null,,color_black,243617,,black_plus_sign,,,,null,,,,,,,,,,,,,,,,,,,,
null,,learn_phase(without_color),246621,,black_plus_sign,,,,null,GW/hanover.png,GW/peoria.png,,,,,,,,,,,,,,,,,,
null,,black_cross(without_color),247448,,blue,,,,null,GW/hanover.png,GW/peoria.png,,,,,,,,,,,,,,,,,,
null,,rt_plussign_withcolor,247951,,blue,,,,null,GW/hanover.png,GW/peoria.png,,,,,,,,,,,,,,,,,,
1388.7000000178814,,rt_thecrossant_black,249128,,black_plus_sign,,,,49,,,1,0.9166666666666666,,,,,,,,,,,,,,,,
null,,color_black,249231,,black_plus_sign,,,,null,,,,,,,,,,,,,,,,,,,,
null,,learn_phase(without_color),252235,,black_plus_sign,,,,null,GW/gatlinburg.png,GW/racine.png,,,,,,,,,,,,,,,,,,
null,,black_cross(without_color),253240,,blue,,,,null,GW/gatlinburg.png,GW/racine.png,,,,,,,,,,,,,,,,,,
null,,rt_plussign_withcolor,253743,,blue,,,,null,GW/gatlinburg.png,GW/racine.png,,,,,,,,,,,,,,,,,,
1232.699999988079,,rt_thecrossant_black,254742,,black_plus_sign,,,,49,,,1,0.9230769230769231,,,,,,,,,,,,,,,,
null,,color_black,254844,,black_plus_sign,,,,null,,,,,,,,,,,,,,,,,,,,
null,,learn_phase(without_color),257847,,black_plus_sign,,,,null,GW/hanover.png,GW/peoria.png,,,,,,,,,,,,,,,,,,
null,,black_cross(without_color),258704,,yellow,,,,null,GW/hanover.png,GW/peoria.png,,,,,,,,,,,,,,,,,,
null,,rt_plussign_withcolor,259206,,yellow,,,,null,GW/hanover.png,GW/peoria.png,,,,,,,,,,,,,,,,,,
1302.2999999821186,,rt_thecrossant_black,260354,,black_plus_sign,,,,50,,,1,0.9285714285714286,,,,,,,,,,,,,,,,
null,,color_black,260457,,black_plus_sign,,,,null,,,,,,,,,,,,,,,,,,,,
null,,learn_phase(without_color),263460,,black_plus_sign,,,,null,GW/leesburg.png,GW/peoria.png,,,,,,,,,,,,,,,,,,
null,,black_cross(without_color),263930,,blue,,,,null,GW/leesburg.png,GW/peoria.png,,,,,,,,,,,,,,,,,,
null,,rt_plussign_withcolor,264432,,blue,,,,null,GW/leesburg.png,GW/peoria.png,,,,,,,,,,,,,,,,,,
1200.5,,rt_thecrossant_black,265966,,black_plus_sign,,,,49,,,1,0.9333333333333333,,,,,,,,,,,,,,,,
null,,color_black,266069,,black_plus_sign,,,,null,,,,,,,,,,,,,,,,,,,,
null,,learn_phase(without_color),269072,,black_plus_sign,,,,null,GW/newhope.png,GW/boulder.png,,,,,,,,,,,,,,,,,,
null,,black_cross(without_color),270040,,blue,,,,null,GW/newhope.png,GW/boulder.png,,,,,,,,,,,,,,,,,,
null,,rt_plussign_withcolor,270542,,blue,,,,null,GW/newhope.png,GW/boulder.png,,,,,,,,,,,,,,,,,,
905.9000000059605,,rt_thecrossant_black,271578,,black_plus_sign,,,,49,,,1,0.9375,,,,,,,,,,,,,,,,
null,,color_black,271681,,black_plus_sign,,,,null,,,,,,,,,,,,,,,,,,,,
null,,learn_phase(without_color),274684,,black_plus_sign,,,,null,GW/hotsprings.png,GW/shreveport.png,,,,,,,,,,,,,,,,,,
null,,black_cross(without_color),275303,,yellow,,,,null,GW/hotsprings.png,GW/shreveport.png,,,,,,,,,,,,,,,,,,
null,,rt_plussign_withcolor,275805,,yellow,,,,null,GW/hotsprings.png,GW/shreveport.png,,,,,,,,,,,,,,,,,,
1316,,rt_thecrossant_black,277190,,black_plus_sign,,,,50,,,1,0.9411764705882353,,,,,,,,,,,,,,,,
null,,color_black,277294,,black_plus_sign,,,,null,,,,,,,,,,,,,,,,,,,,
null,,learn_phase(without_color),280296,,black_plus_sign,,,,null,GW/leesburg.png,GW/huntsville.png,,,,,,,,,,,,,,,,,,
null,,black_cross(without_color),281017,,blue,,,,null,GW/leesburg.png,GW/huntsville.png,,,,,,,,,,,,,,,,,,
null,,rt_plussign_withcolor,281519,,blue,,,,null,GW/leesburg.png,GW/huntsville.png,,,,,,,,,,,,,,,,,,
1160.699999988079,,rt_thecrossant_black,282803,,black_plus_sign,,,,49,,,1,0.9444444444444444,,,,,,,,,,,,,,,,
null,,color_black,282905,,black_plus_sign,,,,null,,,,,,,,,,,,,,,,,,,,
null,,learn_phase(without_color),285907,,black_plus_sign,,,,null,GW/carmel.png,GW/leesburg.png,,,,,,,,,,,,,,,,,,
null,,black_cross(without_color),286459,,blue,,,,null,GW/carmel.png,GW/leesburg.png,,,,,,,,,,,,,,,,,,
null,,rt_plussign_withcolor,286961,,blue,,,,null,GW/carmel.png,GW/leesburg.png,,,,,,,,,,,,,,,,,,
990.0999999940395,,rt_thecrossant_black,288414,,black_plus_sign,,,,49,,,1,0.9473684210526315,,,,,,,,,,,,,,,,
null,,color_black,288516,,black_plus_sign,,,,null,,,,,,,,,,,,,,,,,,,,
null,,learn_phase(without_color),291518,,black_plus_sign,,,,null,GW/racine.png,GW/gatlinburg.png,,,,,,,,,,,,,,,,,,
null,,black_cross(without_color),292534,,blue,,,,null,GW/racine.png,GW/gatlinburg.png,,,,,,,,,,,,,,,,,,
null,,rt_plussign_withcolor,293036,,blue,,,,null,GW/racine.png,GW/gatlinburg.png,,,,,,,,,,,,,,,,,,
808.7999999821186,,rt_thecrossant_black,294024,,black_plus_sign,,,,49,,,1,0.95,,,,,,,,,,,,,,,,
null,,color_black,294126,,black_plus_sign,,,,null,,,,,,,,,,,,,,,,,,,,
null,,learn_phase(without_color),297129,,black_plus_sign,,,,null,GW/carmel.png,GW/boulder.png,,,,,,,,,,,,,,,,,,
null,,black_cross(without_color),298066,,yellow,,,,null,GW/carmel.png,GW/boulder.png,,,,,,,,,,,,,,,,,,
null,,rt_plussign_withcolor,298569,,yellow,,,,null,GW/carmel.png,GW/boulder.png,,,,,,,,,,,,,,,,,,
1695.5,,rt_thecrossant_black,299636,,black_plus_sign,,,,50,,,1,0.9523809523809523,,,,,,,,,,,,,,,,
null,,color_black,299738,,black_plus_sign,,,,null,,,,,,,,,,,,,,,,,,,,
null,,learn_phase(without_color),302741,,black_plus_sign,,,,null,GW/cornwall.png,GW/shreveport.png,,,,,,,,,,,,,,,,,,
null,,black_cross(without_color),303176,,yellow,,,,null,GW/cornwall.png,GW/shreveport.png,,,,,,,,,,,,,,,,,,
null,,rt_plussign_withcolor,303679,,yellow,,,,null,GW/cornwall.png,GW/shreveport.png,,,,,,,,,,,,,,,,,,
1383.5,,rt_thecrossant_black,305248,,black_plus_sign,,,,50,,,1,0.9545454545454546,,,,,,,,,,,,,,,,
null,,color_black,305349,,black_plus_sign,,,,null,,,,,,,,,,,,,,,,,,,,
null,,learn_phase(without_color),308350,,black_plus_sign,,,,null,GW/newhope.png,GW/hotsprings.png,,,,,,,,,,,,,,,,,,
null,,black_cross(without_color),309090,,blue,,,,null,GW/newhope.png,GW/hotsprings.png,,,,,,,,,,,,,,,,,,
null,,rt_plussign_withcolor,309591,,blue,,,,null,GW/newhope.png,GW/hotsprings.png,,,,,,,,,,,,,,,,,,
867.7999999821186,,rt_thecrossant_black,310855,,black_plus_sign,,,,49,,,1,0.9565217391304348,,,,,,,,,,,,,,,,
null,,color_black,310956,,black_plus_sign,,,,null,,,,,,,,,,,,,,,,,,,,
null,,learn_phase(without_color),313958,,black_plus_sign,,,,null,GW/carmel.png,GW/leesburg.png,,,,,,,,,,,,,,,,,,
null,,black_cross(without_color),314586,,blue,,,,null,GW/carmel.png,GW/leesburg.png,,,,,,,,,,,,,,,,,,
null,,rt_plussign_withcolor,315088,,blue,,,,null,GW/carmel.png,GW/leesburg.png,,,,,,,,,,,,,,,,,,
1136.4000000059605,,rt_thecrossant_black,316463,,black_plus_sign,,,,49,,,1,0.9583333333333334,,,,,,,,,,,,,,,,
null,,color_black,316566,,black_plus_sign,,,,null,,,,,,,,,,,,,,,,,,,,
null,,learn_phase(without_color),319570,,black_plus_sign,,,,null,GW/boulder.png,GW/gatlinburg.png,,,,,,,,,,,,,,,,,,
null,,black_cross(without_color),320103,,blue,,,,null,GW/boulder.png,GW/gatlinburg.png,,,,,,,,,,,,,,,,,,
null,,rt_plussign_withcolor,320605,,blue,,,,null,GW/boulder.png,GW/gatlinburg.png,,,,,,,,,,,,,,,,,,
1040.699999988079,,rt_thecrossant_black,322075,,black_plus_sign,,,,49,,,1,0.96,,,,,,,,,,,,,,,,
null,,color_black,322178,,black_plus_sign,,,,null,,,,,,,,,,,,,,,,,,,,
null,,learn_phase(without_color),325181,,black_plus_sign,,,,null,GW/leesburg.png,GW/peoria.png,,,,,,,,,,,,,,,,,,
null,,black_cross(without_color),326041,,yellow,,,,null,GW/leesburg.png,GW/peoria.png,,,,,,,,,,,,,,,,,,
null,,rt_plussign_withcolor,326544,,yellow,,,,null,GW/leesburg.png,GW/peoria.png,,,,,,,,,,,,,,,,,,
969.5999999940395,,rt_thecrossant_black,327688,,black_plus_sign,,,,50,,,1,0.9615384615384616,,,,,,,,,,,,,,,,
null,,color_black,327791,,black_plus_sign,,,,null,,,,,,,,,,,,,,,,,,,,
null,,learn_phase(without_color),330794,,black_plus_sign,,,,null,GW/peoria.png,GW/hanover.png,,,,,,,,,,,,,,,,,,
null,,black_cross(without_color),331756,,blue,,,,null,GW/peoria.png,GW/hanover.png,,,,,,,,,,,,,,,,,,
null,,rt_plussign_withcolor,332259,,blue,,,,null,GW/peoria.png,GW/hanover.png,,,,,,,,,,,,,,,,,,
1207.4000000059605,,rt_thecrossant_black,333301,,black_plus_sign,,,,49,,,1,0.9629629629629629,,,,,,,,,,,,,,,,
null,,color_black,333404,,black_plus_sign,,,,null,,,,,,,,,,,,,,,,,,,,
null,,learn_phase(without_color),336408,,black_plus_sign,,,,null,GW/shreveport.png,GW/gatlinburg.png,,,,,,,,,,,,,,,,,,
null,,black_cross(without_color),336984,,blue,,,,null,GW/shreveport.png,GW/gatlinburg.png,,,,,,,,,,,,,,,,,,
null,,rt_plussign_withcolor,337486,,blue,,,,null,GW/shreveport.png,GW/gatlinburg.png,,,,,,,,,,,,,,,,,,
1678.800000011921,,rt_thecrossant_black,338915,,black_plus_sign,,,,49,,,1,0.9642857142857143,,,,,,,,,,,,,,,,
null,,color_black,339017,,black_plus_sign,,,,null,,,,,,,,,,,,,,,,,,,,
null,,learn_phase(without_color),342020,,black_plus_sign,,,,null,GW/shreveport.png,GW/gatlinburg.png,,,,,,,,,,,,,,,,,,
null,,black_cross(without_color),343033,,yellow,,,,null,GW/shreveport.png,GW/gatlinburg.png,,,,,,,,,,,,,,,,,,
null,,rt_plussign_withcolor,343536,,yellow,,,,null,GW/shreveport.png,GW/gatlinburg.png,,,,,,,,,,,,,,,,,,
755.2999999821186,,rt_thecrossant_black,344528,,black_plus_sign,,,,50,,,1,0.9655172413793104,,,,,,,,,,,,,,,,
null,,color_black,344629,,black_plus_sign,,,,null,,,,,,,,,,,,,,,,,,,,
null,,learn_phase(without_color),347633,,black_plus_sign,,,,null,GW/leesburg.png,GW/carmel.png,,,,,,,,,,,,,,,,,,
null,,black_cross(without_color),348227,,yellow,,,,null,GW/leesburg.png,GW/carmel.png,,,,,,,,,,,,,,,,,,
null,,rt_plussign_withcolor,348729,,yellow,,,,null,GW/leesburg.png,GW/carmel.png,,,,,,,,,,,,,,,,,,
1472.5999999940395,,rt_thecrossant_black,350141,,black_plus_sign,,,,50,,,1,0.9666666666666667,,,,,,,,,,,,,,,,
null,,color_black,350243,,black_plus_sign,,,,null,,,,,,,,,,,,,,,,,,,,
null,,learn_phase(without_color),353246,,black_plus_sign,,,,null,GW/boulder.png,GW/newhope.png,,,,,,,,,,,,,,,,,,
null,,black_cross(without_color),354163,,blue,,,,null,GW/boulder.png,GW/newhope.png,,,,,,,,,,,,,,,,,,
null,,rt_plussign_withcolor,354665,,blue,,,,null,GW/boulder.png,GW/newhope.png,,,,,,,,,,,,,,,,,,
772.3000000119209,,rt_thecrossant_black,355754,,black_plus_sign,,,,49,,,1,0.967741935483871,,,,,,,,,,,,,,,,
null,,color_black,355856,,black_plus_sign,,,,null,,,,,,,,,,,,,,,,,,,,
null,,learn_phase(without_color),358860,,black_plus_sign,,,,null,GW/racine.png,GW/gatlinburg.png,,,,,,,,,,,,,,,,,,
null,,black_cross(without_color),359840,,blue,,,,null,GW/racine.png,GW/gatlinburg.png,,,,,,,,,,,,,,,,,,
null,,rt_plussign_withcolor,360342,,blue,,,,null,GW/racine.png,GW/gatlinburg.png,,,,,,,,,,,,,,,,,,
1423,,rt_thecrossant_black,361367,,black_plus_sign,,,,49,,,1,0.96875,,,,,,,,,,,,,,,,
null,,color_black,361470,,black_plus_sign,,,,null,,,,,,,,,,,,,,,,,,,,
null,,learn_phase(without_color),364474,,black_plus_sign,,,,null,GW/huntsville.png,GW/peoria.png,,,,,,,,,,,,,,,,,,
null,,black_cross(without_color),364890,,blue,,,,null,GW/huntsville.png,GW/peoria.png,,,,,,,,,,,,,,,,,,
null,,rt_plussign_withcolor,365393,,blue,,,,null,GW/huntsville.png,GW/peoria.png,,,,,,,,,,,,,,,,,,
1374,,rt_thecrossant_black,366980,,black_plus_sign,,,,49,,,1,0.9696969696969697,,,,,,,,,,,,,,,,
null,,color_black,367082,,black_plus_sign,,,,null,,,,,,,,,,,,,,,,,,,,
null,,learn_phase(without_color),370084,,black_plus_sign,,,,null,GW/newhope.png,GW/leesburg.png,,,,,,,,,,,,,,,,,,
null,,black_cross(without_color),370969,,blue,,,,null,GW/newhope.png,GW/leesburg.png,,,,,,,,,,,,,,,,,,
null,,rt_plussign_withcolor,371471,,blue,,,,null,GW/newhope.png,GW/leesburg.png,,,,,,,,,,,,,,,,,,
875.7999999821186,,rt_thecrossant_black,372592,,black_plus_sign,,,,49,,,1,0.9705882352941176,,,,,,,,,,,,,,,,
null,,color_black,372695,,black_plus_sign,,,,null,,,,,,,,,,,,,,,,,,,,
null,,learn_phase(without_color),375698,,black_plus_sign,,,,null,GW/newhope.png,GW/leesburg.png,,,,,,,,,,,,,,,,,,
null,,black_cross(without_color),376435,,blue,,,,null,GW/newhope.png,GW/leesburg.png,,,,,,,,,,,,,,,,,,
null,,rt_plussign_withcolor,376938,,blue,,,,null,GW/newhope.png,GW/leesburg.png,,,,,,,,,,,,,,,,,,
1154,,rt_thecrossant_black,378206,,black_plus_sign,,,,49,,,1,0.9714285714285714,,,,,,,,,,,,,,,,
null,,color_black,378309,,black_plus_sign,,,,null,,,,,,,,,,,,,,,,,,,,
null,,learn_phase(without_color),381312,,black_plus_sign,,,,null,GW/westpalmbeach.png,GW/huntsville.png,,,,,,,,,,,,,,,,,,
null,,black_cross(without_color),381753,,yellow,,,,null,GW/westpalmbeach.png,GW/huntsville.png,,,,,,,,,,,,,,,,,,
null,,rt_plussign_withcolor,382256,,yellow,,,,null,GW/westpalmbeach.png,GW/huntsville.png,,,,,,,,,,,,,,,,,,
934.5,,rt_thecrossant_black,383819,,black_plus_sign,,,,50,,,1,0.9722222222222222,,,,,,,,,,,,,,,,
null,,color_black,383922,,black_plus_sign,,,,null,,,,,,,,,,,,,,,,,,,,
null,,learn_phase(without_color),386925,,black_plus_sign,,,,null,GW/boulder.png,GW/carmel.png,,,,,,,,,,,,,,,,,,
null,,black_cross(without_color),387861,,blue,,,,null,GW/boulder.png,GW/carmel.png,,,,,,,,,,,,,,,,,,
null,,rt_plussign_withcolor,388363,,blue,,,,null,GW/boulder.png,GW/carmel.png,,,,,,,,,,,,,,,,,,
725.7999999821186,,rt_thecrossant_black,389432,,black_plus_sign,,,,49,,,1,0.972972972972973,,,,,,,,,,,,,,,,
null,,color_black,389535,,black_plus_sign,,,,null,,,,,,,,,,,,,,,,,,,,
null,,learn_phase(without_color),392539,,black_plus_sign,,,,null,GW/leesburg.png,GW/huntsville.png,,,,,,,,,,,,,,,,,,
null,,black_cross(without_color),393323,,yellow,,,,null,GW/leesburg.png,GW/huntsville.png,,,,,,,,,,,,,,,,,,
null,,rt_plussign_withcolor,393826,,yellow,,,,null,GW/leesburg.png,GW/huntsville.png,,,,,,,,,,,,,,,,,,
1233.699999988079,,rt_thecrossant_black,395047,,black_plus_sign,,,,50,,,1,0.9736842105263158,,,,,,,,,,,,,,,,
null,,color_black,395150,,black_plus_sign,,,,null,,,,,,,,,,,,,,,,,,,,
null,,learn_phase(without_color),398152,,black_plus_sign,,,,null,GW/huntsville.png,GW/westpalmbeach.png,,,,,,,,,,,,,,,,,,
null,,black_cross(without_color),399053,,yellow,,,,null,GW/huntsville.png,GW/westpalmbeach.png,,,,,,,,,,,,,,,,,,
null,,rt_plussign_withcolor,399555,,yellow,,,,null,GW/huntsville.png,GW/westpalmbeach.png,,,,,,,,,,,,,,,,,,
1448.5,,rt_thecrossant_black,400658,,black_plus_sign,,,,50,,,1,0.9743589743589743,,,,,,,,,,,,,,,,
null,,color_black,400760,,black_plus_sign,,,,null,,,,,,,,,,,,,,,,,,,,
null,,learn_phase(without_color),403763,,black_plus_sign,,,,null,GW/carmel.png,GW/leesburg.png,,,,,,,,,,,,,,,,,,
null,,black_cross(without_color),404510,,blue,,,,null,GW/carmel.png,GW/leesburg.png,,,,,,,,,,,,,,,,,,
null,,rt_plussign_withcolor,405012,,blue,,,,null,GW/carmel.png,GW/leesburg.png,,,,,,,,,,,,,,,,,,
1073.5,,rt_thecrossant_black,406269,,black_plus_sign,,,,49,,,1,0.975,,,,,,,,,,,,,,,,
null,,color_black,406372,,black_plus_sign,,,,null,,,,,,,,,,,,,,,,,,,,
null,,learn_phase(without_color),409374,,black_plus_sign,,,,null,GW/huntsville.png,GW/westpalmbeach.png,,,,,,,,,,,,,,,,,,
null,,black_cross(without_color),409984,,blue,,,,null,GW/huntsville.png,GW/westpalmbeach.png,,,,,,,,,,,,,,,,,,
null,,rt_plussign_withcolor,410486,,blue,,,,null,GW/huntsville.png,GW/westpalmbeach.png,,,,,,,,,,,,,,,,,,
1024.5999999940395,,rt_thecrossant_black,411880,,black_plus_sign,,,,49,,,1,0.975609756097561,,,,,,,,,,,,,,,,
null,,color_black,411982,,black_plus_sign,,,,null,,,,,,,,,,,,,,,,,,,,
null,,learn_phase(without_color),414984,,black_plus_sign,,,,null,GW/newhope.png,GW/hotsprings.png,,,,,,,,,,,,,,,,,,
null,,black_cross(without_color),415489,,yellow,,,,null,GW/newhope.png,GW/hotsprings.png,,,,,,,,,,,,,,,,,,
null,,rt_plussign_withcolor,415991,,yellow,,,,null,GW/newhope.png,GW/hotsprings.png,,,,,,,,,,,,,,,,,,
1054.8999999761581,,rt_thecrossant_black,417489,,black_plus_sign,,,,50,,,1,0.9761904761904762,,,,,,,,,,,,,,,,
null,,color_black,417591,,black_plus_sign,,,,null,,,,,,,,,,,,,,,,,,,,
null,,learn_phase(without_color),420593,,black_plus_sign,,,,null,GW/huntsville.png,GW/westpalmbeach.png,,,,,,,,,,,,,,,,,,
null,,black_cross(without_color),421424,,blue,,,,null,GW/huntsville.png,GW/westpalmbeach.png,,,,,,,,,,,,,,,,,,
null,,rt_plussign_withcolor,421926,,blue,,,,null,GW/huntsville.png,GW/westpalmbeach.png,,,,,,,,,,,,,,,,,,
816.4000000059605,,rt_thecrossant_black,423100,,black_plus_sign,,,,49,,,1,0.9767441860465116,,,,,,,,,,,,,,,,
null,,color_black,423202,,black_plus_sign,,,,null,,,,,,,,,,,,,,,,,,,,
null,,learn_phase(without_color),426205,,black_plus_sign,,,,null,GW/leesburg.png,GW/carmel.png,,,,,,,,,,,,,,,,,,
null,,black_cross(without_color),426765,,blue,,,,null,GW/leesburg.png,GW/carmel.png,,,,,,,,,,,,,,,,,,
null,,rt_plussign_withcolor,427267,,blue,,,,null,GW/leesburg.png,GW/carmel.png,,,,,,,,,,,,,,,,,,
1356,,rt_thecrossant_black,428714,,black_plus_sign,,,,49,,,1,0.9772727272727273,,,,,,,,,,,,,,,,
null,,color_black,428816,,black_plus_sign,,,,null,,,,,,,,,,,,,,,,,,,,
null,,learn_phase(without_color),431819,,black_plus_sign,,,,null,GW/newhope.png,GW/hotsprings.png,,,,,,,,,,,,,,,,,,
null,,black_cross(without_color),432686,,yellow,,,,null,GW/newhope.png,GW/hotsprings.png,,,,,,,,,,,,,,,,,,
null,,rt_plussign_withcolor,433189,,yellow,,,,null,GW/newhope.png,GW/hotsprings.png,,,,,,,,,,,,,,,,,,
852.9000000059605,,rt_thecrossant_black,434327,,black_plus_sign,,,,50,,,1,0.9777777777777777,,,,,,,,,,,,,,,,
null,,color_black,434429,,black_plus_sign,,,,null,,,,,,,,,,,,,,,,,,,,
null,,learn_phase(without_color),437432,,black_plus_sign,,,,null,GW/hotsprings.png,GW/shreveport.png,,,,,,,,,,,,,,,,,,
null,,black_cross(without_color),437903,,yellow,,,,null,GW/hotsprings.png,GW/shreveport.png,,,,,,,,,,,,,,,,,,
null,,rt_plussign_withcolor,438405,,yellow,,,,null,GW/hotsprings.png,GW/shreveport.png,,,,,,,,,,,,,,,,,,
1104.9000000059605,,rt_thecrossant_black,439937,,black_plus_sign,,,,50,,,1,0.9782608695652174,,,,,,,,,,,,,,,,
null,,color_black,440041,,black_plus_sign,,,,null,,,,,,,,,,,,,,,,,,,,
null,,learn_phase(without_color),443043,,black_plus_sign,,,,null,GW/newhope.png,GW/boulder.png,,,,,,,,,,,,,,,,,,
null,,black_cross(without_color),443579,,blue,,,,null,GW/newhope.png,GW/boulder.png,,,,,,,,,,,,,,,,,,
null,,rt_plussign_withcolor,444082,,blue,,,,null,GW/newhope.png,GW/boulder.png,,,,,,,,,,,,,,,,,,
858.7999999821186,,rt_thecrossant_black,445551,,black_plus_sign,,,,49,,,1,0.9787234042553191,,,,,,,,,,,,,,,,
null,,color_black,445654,,black_plus_sign,,,,null,,,,,,,,,,,,,,,,,,,,
null,,learn_phase(without_color),448657,,black_plus_sign,,,,null,GW/shreveport.png,GW/hotsprings.png,,,,,,,,,,,,,,,,,,
null,,black_cross(without_color),449588,,blue,,,,null,GW/shreveport.png,GW/hotsprings.png,,,,,,,,,,,,,,,,,,
null,,rt_plussign_withcolor,450089,,blue,,,,null,GW/shreveport.png,GW/hotsprings.png,,,,,,,,,,,,,,,,,,
834.9000000059605,,rt_thecrossant_black,451162,,black_plus_sign,,,,49,,,1,0.9791666666666666,,,,,,,,,,,,,,,,
null,,color_black,451265,,black_plus_sign,,,,null,,,,,,,,,,,,,,,,,,,,
null,,learn_phase(without_color),454269,,black_plus_sign,,,,null,GW/carmel.png,GW/boulder.png,,,,,,,,,,,,,,,,,,
null,,black_cross(without_color),454742,,yellow,,,,null,GW/carmel.png,GW/boulder.png,,,,,,,,,,,,,,,,,,
null,,rt_plussign_withcolor,455244,,yellow,,,,null,GW/carmel.png,GW/boulder.png,,,,,,,,,,,,,,,,,,
1273.5,,rt_thecrossant_black,456777,,black_plus_sign,,,,50,,,1,0.9795918367346939,,,,,,,,,,,,,,,,
null,,color_black,456880,,black_plus_sign,,,,null,,,,,,,,,,,,,,,,,,,,
null,,learn_phase(without_color),459883,,black_plus_sign,,,,null,GW/hotsprings.png,GW/shreveport.png,,,,,,,,,,,,,,,,,,
null,,black_cross(without_color),460588,,blue,,,,null,GW/hotsprings.png,GW/shreveport.png,,,,,,,,,,,,,,,,,,
null,,rt_plussign_withcolor,461090,,blue,,,,null,GW/hotsprings.png,GW/shreveport.png,,,,,,,,,,,,,,,,,,
911.9000000059605,,rt_thecrossant_black,462390,,black_plus_sign,,,,49,,,1,0.98,,,,,,,,,,,,,,,,
null,,color_black,462493,,black_plus_sign,,,,null,,,,,,,,,,,,,,,,,,,,
null,,learn_phase(without_color),465497,,black_plus_sign,,,,null,GW/leesburg.png,GW/huntsville.png,,,,,,,,,,,,,,,,,,
null,,black_cross(without_color),466430,,blue,,,,null,GW/leesburg.png,GW/huntsville.png,,,,,,,,,,,,,,,,,,
null,,rt_plussign_withcolor,466933,,blue,,,,null,GW/leesburg.png,GW/huntsville.png,,,,,,,,,,,,,,,,,,
1016.5999999940395,,rt_thecrossant_black,468004,,black_plus_sign,,,,49,,,1,0.9803921568627451,,,,,,,,,,,,,,,,
null,,color_black,468106,,black_plus_sign,,,,null,,,,,,,,,,,,,,,,,,,,
null,,learn_phase(without_color),471109,,black_plus_sign,,,,null,GW/newhope.png,GW/leesburg.png,,,,,,,,,,,,,,,,,,
null,,black_cross(without_color),471680,,blue,,,,null,GW/newhope.png,GW/leesburg.png,,,,,,,,,,,,,,,,,,
null,,rt_plussign_withcolor,472183,,blue,,,,null,GW/newhope.png,GW/leesburg.png,,,,,,,,,,,,,,,,,,
1272.6000000238419,,rt_thecrossant_black,473616,,black_plus_sign,,,,49,,,1,0.9807692307692307,,,,,,,,,,,,,,,,
null,,color_black,473719,,black_plus_sign,,,,null,,,,,,,,,,,,,,,,,,,,
null,,learn_phase(without_color),476721,,black_plus_sign,,,,null,GW/shreveport.png,GW/cornwall.png,,,,,,,,,,,,,,,,,,
null,,black_cross(without_color),477702,,blue,,,,null,GW/shreveport.png,GW/cornwall.png,,,,,,,,,,,,,,,,,,
496.09999999403954,,rt_plussign_withcolor,478204,,blue,,,,49,GW/shreveport.png,GW/cornwall.png,,,,,,,,,,,,,,,,,,
null,,rt_thecrossant_black,479226,,black_plus_sign,,,,null,,,1,0.9811320754716981,,,,,,,,,,,,,,,,
null,,color_black,479329,,black_plus_sign,,,,null,,,,,,,,,,,,,,,,,,,,
null,,learn_phase(without_color),482332,,black_plus_sign,,,,null,GW/newhope.png,GW/boulder.png,,,,,,,,,,,,,,,,,,
null,,black_cross(without_color),482779,,blue,,,,null,GW/newhope.png,GW/boulder.png,,,,,,,,,,,,,,,,,,
null,,rt_plussign_withcolor,483282,,blue,,,,null,GW/newhope.png,GW/boulder.png,,,,,,,,,,,,,,,,,,
1199,,rt_thecrossant_black,484840,,black_plus_sign,,,,49,,,1,0.9814814814814815,,,,,,,,,,,,,,,,
null,,color_black,484943,,black_plus_sign,,,,null,,,,,,,,,,,,,,,,,,,,
null,,learn_phase(without_color),487946,,black_plus_sign,,,,null,GW/peoria.png,GW/hanover.png,,,,,,,,,,,,,,,,,,
null,,black_cross(without_color),488706,,blue,,,,null,GW/peoria.png,GW/hanover.png,,,,,,,,,,,,,,,,,,
null,,rt_plussign_withcolor,489208,,blue,,,,null,GW/peoria.png,GW/hanover.png,,,,,,,,,,,,,,,,,,
631.8000000119209,,rt_thecrossant_black,490453,,black_plus_sign,,,,49,,,1,0.9818181818181818,,,,,,,,,,,,,,,,
null,,color_black,490556,,black_plus_sign,,,,null,,,,,,,,,,,,,,,,,,,,
null,,learn_phase(without_color),493559,,black_plus_sign,,,,null,GW/carmel.png,GW/leesburg.png,,,,,,,,,,,,,,,,,,
null,,black_cross(without_color),494653,,yellow,,,,null,GW/carmel.png,GW/leesburg.png,,,,,,,,,,,,,,,,,,
null,,rt_plussign_withcolor,495155,,yellow,,,,null,GW/carmel.png,GW/leesburg.png,,,,,,,,,,,,,,,,,,
1052.5,,rt_thecrossant_black,496067,,black_plus_sign,,,,50,,,1,0.9821428571428571,,,,,,,,,,,,,,,,
null,,color_black,496170,,black_plus_sign,,,,null,,,,,,,,,,,,,,,,,,,,
null,,learn_phase(without_color),499173,,black_plus_sign,,,,null,GW/newhope.png,GW/boulder.png,,,,,,,,,,,,,,,,,,
null,,black_cross(without_color),500046,,yellow,,,,null,GW/newhope.png,GW/boulder.png,,,,,,,,,,,,,,,,,,
null,,rt_plussign_withcolor,500548,,yellow,,,,null,GW/newhope.png,GW/boulder.png,,,,,,,,,,,,,,,,,,
1423,,rt_thecrossant_black,501680,,black_plus_sign,,,,50,,,1,0.9824561403508771,,,,,,,,,,,,,,,,
null,,color_black,501783,,black_plus_sign,,,,null,,,,,,,,,,,,,,,,,,,,
null,,learn_phase(without_color),504786,,black_plus_sign,,,,null,GW/cornwall.png,GW/shreveport.png,,,,,,,,,,,,,,,,,,
null,,black_cross(without_color),505757,,blue,,,,null,GW/cornwall.png,GW/shreveport.png,,,,,,,,,,,,,,,,,,
null,,rt_plussign_withcolor,506258,,blue,,,,null,GW/cornwall.png,GW/shreveport.png,,,,,,,,,,,,,,,,,,
1445.199999988079,,rt_thecrossant_black,507294,,black_plus_sign,,,,49,,,1,0.9827586206896551,,,,,,,,,,,,,,,,
null,,color_black,507397,,black_plus_sign,,,,null,,,,,,,,,,,,,,,,,,,,
null,,learn_phase(without_color),510400,,black_plus_sign,,,,null,GW/gatlinburg.png,GW/shreveport.png,,,,,,,,,,,,,,,,,,
null,,black_cross(without_color),511323,,blue,,,,null,GW/gatlinburg.png,GW/shreveport.png,,,,,,,,,,,,,,,,,,
null,,rt_plussign_withcolor,511825,,blue,,,,null,GW/gatlinburg.png,GW/shreveport.png,,,,,,,,,,,,,,,,,,
1142.7999999821186,,rt_thecrossant_black,512908,,black_plus_sign,,,,49,,,1,0.9830508474576272,,,,,,,,,,,,,,,,
null,,color_black,513011,,black_plus_sign,,,,null,,,,,,,,,,,,,,,,,,,,
null,,learn_phase(without_color),516014,,black_plus_sign,,,,null,GW/gatlinburg.png,GW/boulder.png,,,,,,,,,,,,,,,,,,
null,,black_cross(without_color),516456,,yellow,,,,null,GW/gatlinburg.png,GW/boulder.png,,,,,,,,,,,,,,,,,,
null,,rt_plussign_withcolor,516958,,yellow,,,,null,GW/gatlinburg.png,GW/boulder.png,,,,,,,,,,,,,,,,,,
1250.300000011921,,rt_thecrossant_black,518522,,black_plus_sign,,,,50,,,1,0.9833333333333333,,,,,,,,,,,,,,,,
null,,color_black,518624,,black_plus_sign,,,,null,,,,,,,,,,,,,,,,,,,,
null,,learn_phase(without_color),521627,,black_plus_sign,,,,null,GW/peoria.png,GW/carmel.png,,,,,,,,,,,,,,,,,,
null,,black_cross(without_color),522370,,yellow,,,,null,GW/peoria.png,GW/carmel.png,,,,,,,,,,,,,,,,,,
null,,rt_plussign_withcolor,522872,,yellow,,,,null,GW/peoria.png,GW/carmel.png,,,,,,,,,,,,,,,,,,
842.3000000119209,,rt_thecrossant_black,524134,,black_plus_sign,,,,50,,,1,0.9836065573770492,,,,,,,,,,,,,,,,
null,,color_black,524236,,black_plus_sign,,,,null,,,,,,,,,,,,,,,,,,,,
null,,learn_phase(without_color),527240,,black_plus_sign,,,,null,GW/boulder.png,GW/carmel.png,,,,,,,,,,,,,,,,,,
null,,black_cross(without_color),528246,,yellow,,,,null,GW/boulder.png,GW/carmel.png,,,,,,,,,,,,,,,,,,
null,,rt_plussign_withcolor,528748,,yellow,,,,null,GW/boulder.png,GW/carmel.png,,,,,,,,,,,,,,,,,,
1092.9000000059605,,rt_thecrossant_black,529745,,black_plus_sign,,,,50,,,1,0.9838709677419355,,,,,,,,,,,,,,,,
null,,color_black,529849,,black_plus_sign,,,,null,,,,,,,,,,,,,,,,,,,,
null,,learn_phase(without_color),532852,,black_plus_sign,,,,null,GW/racine.png,GW/gatlinburg.png,,,,,,,,,,,,,,,,,,
null,,black_cross(without_color),533401,,yellow,,,,null,GW/racine.png,GW/gatlinburg.png,,,,,,,,,,,,,,,,,,
null,,rt_plussign_withcolor,533903,,yellow,,,,null,GW/racine.png,GW/gatlinburg.png,,,,,,,,,,,,,,,,,,
1279.5,,rt_thecrossant_black,535360,,black_plus_sign,,,,50,,,1,0.9841269841269841,,,,,,,,,,,,,,,,
null,,color_black,535463,,black_plus_sign,,,,null,,,,,,,,,,,,,,,,,,,,
null,,learn_phase(without_color),538466,,black_plus_sign,,,,null,GW/peoria.png,GW/carmel.png,,,,,,,,,,,,,,,,,,
null,,black_cross(without_color),539123,,blue,,,,null,GW/peoria.png,GW/carmel.png,,,,,,,,,,,,,,,,,,
null,,rt_plussign_withcolor,539625,,blue,,,,null,GW/peoria.png,GW/carmel.png,,,,,,,,,,,,,,,,,,
881.8000000119209,,rt_thecrossant_black,540974,,black_plus_sign,,,,49,,,1,0.984375,,,,,,,,,,,,,,,,
null,,color_black,541076,,black_plus_sign,,,,null,,,,,,,,,,,,,,,,,,,,
null,,learn_break,601081,,learn_break,,,,null,,,,,,,,,,,,,,,,,,,,
null,,html-keyboard-response,602083,,<p></p>,,,,null,,,,,,,,,,,,,,,,,,,,
null,,learn_phase(without_color),605086,,black_plus_sign,,,,null,GW/newhope.png,GW/boulder.png,,,,,,,,,,,,,,,,,,
null,,black_cross(without_color),605636,,blue,,,,null,GW/newhope.png,GW/boulder.png,,,,,,,,,,,,,,,,,,
null,,rt_plussign_withcolor,606139,,blue,,,,null,GW/newhope.png,GW/boulder.png,,,,,,,,,,,,,,,,,,
null,,rt_thecrossant_black,607595,,black_plus_sign,,,,null,,,,0.984375,,,,,,,,,,,,,,,,
null,,color_black,607697,,black_plus_sign,,,,null,,,,,,,,,,,,,,,,,,,,
null,,learn_phase(without_color),610700,,black_plus_sign,,,,null,GW/huntsville.png,GW/westpalmbeach.png,,,,,,,,,,,,,,,,,,
null,,black_cross(without_color),611739,,blue,,,,null,GW/huntsville.png,GW/westpalmbeach.png,,,,,,,,,,,,,,,,,,
null,,rt_plussign_withcolor,612241,,blue,,,,null,GW/huntsville.png,GW/westpalmbeach.png,,,,,,,,,,,,,,,,,,
null,,rt_thecrossant_black,613208,,black_plus_sign,,,,null,,,,0.984375,,,,,,,,,,,,,,,,
null,,warning_page,616212,,warning,,,,null,,,,,,,,,,,,,,,,,,,,
null,,color_black,616314,,black_plus_sign,,,,null,,,,,,,,,,,,,,,,,,,,
null,,learn_phase(without_color),619317,,black_plus_sign,,,,null,GW/huntsville.png,GW/leesburg.png,,,,,,,,,,,,,,,,,,
null,,black_cross(without_color),620095,,blue,,,,null,GW/huntsville.png,GW/leesburg.png,,,,,,,,,,,,,,,,,,
null,,rt_plussign_withcolor,620597,,blue,,,,null,GW/huntsville.png,GW/leesburg.png,,,,,,,,,,,,,,,,,,
null,,rt_thecrossant_black,621825,,black_plus_sign,,,,null,,,,0.984375,,,,,,,,,,,,,,,,
null,,warning_page,624828,,warning,,,,null,,,,,,,,,,,,,,,,,,,,
null,,color_black,624931,,black_plus_sign,,,,null,,,,,,,,,,,,,,,,,,,,
null,,learn_phase(without_color),627934,,black_plus_sign,,,,null,GW/huntsville.png,GW/peoria.png,,,,,,,,,,,,,,,,,,
null,,black_cross(without_color),628341,,yellow,,,,null,GW/huntsville.png,GW/peoria.png,,,,,,,,,,,,,,,,,,
null,,rt_plussign_withcolor,628844,,yellow,,,,null,GW/huntsville.png,GW/peoria.png,,,,,,,,,,,,,,,,,,
2438.7000000178814,,rt_thecrossant_black,630441,,black_plus_sign,,,,50,,,1,0.9846153846153847,,,,,,,,,,,,,,,,
null,,color_black,630543,,black_plus_sign,,,,null,,,,,,,,,,,,,,,,,,,,
null,,learn_phase(without_color),633547,,black_plus_sign,,,,null,GW/gatlinburg.png,GW/boulder.png,,,,,,,,,,,,,,,,,,
null,,black_cross(without_color),634218,,blue,,,,null,GW/gatlinburg.png,GW/boulder.png,,,,,,,,,,,,,,,,,,
null,,rt_plussign_withcolor,634720,,blue,,,,null,GW/gatlinburg.png,GW/boulder.png,,,,,,,,,,,,,,,,,,
779.4000000059605,,rt_thecrossant_black,636055,,black_plus_sign,,,,49,,,1,0.9848484848484849,,,,,,,,,,,,,,,,
null,,color_black,636158,,black_plus_sign,,,,null,,,,,,,,,,,,,,,,,,,,
null,,learn_phase(without_color),639162,,black_plus_sign,,,,null,GW/racine.png,GW/gatlinburg.png,,,,,,,,,,,,,,,,,,
null,,black_cross(without_color),640130,,yellow,,,,null,GW/racine.png,GW/gatlinburg.png,,,,,,,,,,,,,,,,,,
null,,rt_plussign_withcolor,640631,,yellow,,,,null,GW/racine.png,GW/gatlinburg.png,,,,,,,,,,,,,,,,,,
1371.3999999761581,,rt_thecrossant_black,641670,,black_plus_sign,,,,50,,,1,0.9850746268656716,,,,,,,,,,,,,,,,
null,,color_black,641774,,black_plus_sign,,,,null,,,,,,,,,,,,,,,,,,,,
null,,learn_phase(without_color),644776,,black_plus_sign,,,,null,GW/leesburg.png,GW/newhope.png,,,,,,,,,,,,,,,,,,
null,,black_cross(without_color),645676,,yellow,,,,null,GW/leesburg.png,GW/newhope.png,,,,,,,,,,,,,,,,,,
null,,rt_plussign_withcolor,646179,,yellow,,,,null,GW/leesburg.png,GW/newhope.png,,,,,,,,,,,,,,,,,,
null,,rt_thecrossant_black,647284,,black_plus_sign,,,,null,,,,0.9850746268656716,,,,,,,,,,,,,,,,
null,,color_black,647387,,black_plus_sign,,,,null,,,,,,,,,,,,,,,,,,,,
null,,learn_phase(without_color),650390,,black_plus_sign,,,,null,GW/peoria.png,GW/huntsville.png,,,,,,,,,,,,,,,,,,
null,,black_cross(without_color),651101,,yellow,,,,null,GW/peoria.png,GW/huntsville.png,,,,,,,,,,,,,,,,,,
null,,rt_plussign_withcolor,651603,,yellow,,,,null,GW/peoria.png,GW/huntsville.png,,,,,,,,,,,,,,,,,,
1796.2999999821186,,rt_thecrossant_black,652898,,black_plus_sign,,,,50,,,1,0.9852941176470589,,,,,,,,,,,,,,,,
null,,color_black,653001,,black_plus_sign,,,,null,,,,,,,,,,,,,,,,,,,,
null,,learn_phase(without_color),656003,,black_plus_sign,,,,null,GW/hanover.png,GW/peoria.png,,,,,,,,,,,,,,,,,,
null,,black_cross(without_color),656787,,yellow,,,,null,GW/hanover.png,GW/peoria.png,,,,,,,,,,,,,,,,,,
null,,rt_plussign_withcolor,657290,,yellow,,,,null,GW/hanover.png,GW/peoria.png,,,,,,,,,,,,,,,,,,
1174.2999999821186,,rt_thecrossant_black,658511,,black_plus_sign,,,,50,,,1,0.9855072463768116,,,,,,,,,,,,,,,,
null,,color_black,658613,,black_plus_sign,,,,null,,,,,,,,,,,,,,,,,,,,
null,,learn_phase(without_color),661616,,black_plus_sign,,,,null,GW/peoria.png,GW/hanover.png,,,,,,,,,,,,,,,,,,
null,,black_cross(without_color),662526,,yellow,,,,null,GW/peoria.png,GW/hanover.png,,,,,,,,,,,,,,,,,,
null,,rt_plussign_withcolor,663029,,yellow,,,,null,GW/peoria.png,GW/hanover.png,,,,,,,,,,,,,,,,,,
1060.9000000059605,,rt_thecrossant_black,664124,,black_plus_sign,,,,50,,,1,0.9857142857142858,,,,,,,,,,,,,,,,
null,,color_black,664227,,black_plus_sign,,,,null,,,,,,,,,,,,,,,,,,,,
null,,learn_phase(without_color),667230,,black_plus_sign,,,,null,GW/peoria.png,GW/leesburg.png,,,,,,,,,,,,,,,,,,
null,,black_cross(without_color),668008,,yellow,,,,null,GW/peoria.png,GW/leesburg.png,,,,,,,,,,,,,,,,,,
null,,rt_plussign_withcolor,668511,,yellow,,,,null,GW/peoria.png,GW/leesburg.png,,,,,,,,,,,,,,,,,,
1190.7999999821186,,rt_thecrossant_black,669737,,black_plus_sign,,,,50,,,1,0.9859154929577465,,,,,,,,,,,,,,,,
null,,color_black,669840,,black_plus_sign,,,,null,,,,,,,,,,,,,,,,,,,,
null,,learn_phase(without_color),672843,,black_plus_sign,,,,null,GW/shreveport.png,GW/gatlinburg.png,,,,,,,,,,,,,,,,,,
null,,black_cross(without_color),673528,,blue,,,,null,GW/shreveport.png,GW/gatlinburg.png,,,,,,,,,,,,,,,,,,
null,,rt_plussign_withcolor,674030,,blue,,,,null,GW/shreveport.png,GW/gatlinburg.png,,,,,,,,,,,,,,,,,,
1026.0999999940395,,rt_thecrossant_black,675351,,black_plus_sign,,,,49,,,1,0.9861111111111112,,,,,,,,,,,,,,,,
null,,color_black,675454,,black_plus_sign,,,,null,,,,,,,,,,,,,,,,,,,,
null,,learn_phase(without_color),678458,,black_plus_sign,,,,null,GW/leesburg.png,GW/huntsville.png,,,,,,,,,,,,,,,,,,
null,,black_cross(without_color),679306,,yellow,,,,null,GW/leesburg.png,GW/huntsville.png,,,,,,,,,,,,,,,,,,
null,,rt_plussign_withcolor,679809,,yellow,,,,null,GW/leesburg.png,GW/huntsville.png,,,,,,,,,,,,,,,,,,
1144.7999999821186,,rt_thecrossant_black,680965,,black_plus_sign,,,,50,,,1,0.9863013698630136,,,,,,,,,,,,,,,,
null,,color_black,681068,,black_plus_sign,,,,null,,,,,,,,,,,,,,,,,,,,
null,,learn_phase(without_color),684071,,black_plus_sign,,,,null,GW/peoria.png,GW/hanover.png,,,,,,,,,,,,,,,,,,
null,,black_cross(without_color),685140,,blue,,,,null,GW/peoria.png,GW/hanover.png,,,,,,,,,,,,,,,,,,
null,,rt_plussign_withcolor,685641,,blue,,,,null,GW/peoria.png,GW/hanover.png,,,,,,,,,,,,,,,,,,
1322.699999988079,,rt_thecrossant_black,686578,,black_plus_sign,,,,49,,,1,0.9864864864864865,,,,,,,,,,,,,,,,
null,,color_black,686680,,black_plus_sign,,,,null,,,,,,,,,,,,,,,,,,,,
null,,learn_phase(without_color),689683,,black_plus_sign,,,,null,GW/huntsville.png,GW/westpalmbeach.png,,,,,,,,,,,,,,,,,,
null,,black_cross(without_color),690137,,yellow,,,,null,GW/huntsville.png,GW/westpalmbeach.png,,,,,,,,,,,,,,,,,,
null,,rt_plussign_withcolor,690639,,yellow,,,,null,GW/huntsville.png,GW/westpalmbeach.png,,,,,,,,,,,,,,,,,,
1518,,rt_thecrossant_black,692191,,black_plus_sign,,,,50,,,1,0.9866666666666667,,,,,,,,,,,,,,,,
null,,color_black,692293,,black_plus_sign,,,,null,,,,,,,,,,,,,,,,,,,,
null,,learn_phase(without_color),695296,,black_plus_sign,,,,null,GW/leesburg.png,GW/carmel.png,,,,,,,,,,,,,,,,,,
null,,black_cross(without_color),696143,,blue,,,,null,GW/leesburg.png,GW/carmel.png,,,,,,,,,,,,,,,,,,
null,,rt_plussign_withcolor,696645,,blue,,,,null,GW/leesburg.png,GW/carmel.png,,,,,,,,,,,,,,,,,,
1445.2000000178814,,rt_thecrossant_black,697801,,black_plus_sign,,,,49,,,1,0.9868421052631579,,,,,,,,,,,,,,,,
null,,color_black,697903,,black_plus_sign,,,,null,,,,,,,,,,,,,,,,,,,,
null,,learn_phase(without_color),700906,,black_plus_sign,,,,null,GW/shreveport.png,GW/cornwall.png,,,,,,,,,,,,,,,,,,
null,,black_cross(without_color),701833,,blue,,,,null,GW/shreveport.png,GW/cornwall.png,,,,,,,,,,,,,,,,,,
null,,rt_plussign_withcolor,702335,,blue,,,,null,GW/shreveport.png,GW/cornwall.png,,,,,,,,,,,,,,,,,,
1306.8999999761581,,rt_thecrossant_black,703413,,black_plus_sign,,,,49,,,1,0.987012987012987,,,,,,,,,,,,,,,,
null,,color_black,703516,,black_plus_sign,,,,null,,,,,,,,,,,,,,,,,,,,
null,,learn_phase(without_color),706519,,black_plus_sign,,,,null,GW/newhope.png,GW/hotsprings.png,,,,,,,,,,,,,,,,,,
null,,black_cross(without_color),707337,,blue,,,,null,GW/newhope.png,GW/hotsprings.png,,,,,,,,,,,,,,,,,,
null,,rt_plussign_withcolor,707840,,blue,,,,null,GW/newhope.png,GW/hotsprings.png,,,,,,,,,,,,,,,,,,
1112.800000011921,,rt_thecrossant_black,709026,,black_plus_sign,,,,49,,,1,0.9871794871794872,,,,,,,,,,,,,,,,
null,,color_black,709128,,black_plus_sign,,,,null,,,,,,,,,,,,,,,,,,,,
null,,learn_phase(without_color),712132,,black_plus_sign,,,,null,GW/hotsprings.png,GW/newhope.png,,,,,,,,,,,,,,,,,,
null,,black_cross(without_color),712825,,yellow,,,,null,GW/hotsprings.png,GW/newhope.png,,,,,,,,,,,,,,,,,,
null,,rt_plussign_withcolor,713328,,yellow,,,,null,GW/hotsprings.png,GW/newhope.png,,,,,,,,,,,,,,,,,,
1188.800000011921,,rt_thecrossant_black,714639,,black_plus_sign,,,,50,,,1,0.9873417721518988,,,,,,,,,,,,,,,,
null,,color_black,714742,,black_plus_sign,,,,null,,,,,,,,,,,,,,,,,,,,
null,,learn_phase(without_color),717744,,black_plus_sign,,,,null,GW/shreveport.png,GW/cornwall.png,,,,,,,,,,,,,,,,,,
null,,black_cross(without_color),718480,,yellow,,,,null,GW/shreveport.png,GW/cornwall.png,,,,,,,,,,,,,,,,,,
null,,rt_plussign_withcolor,718983,,yellow,,,,null,GW/shreveport.png,GW/cornwall.png,,,,,,,,,,,,,,,,,,
986.5999999940395,,rt_thecrossant_black,720251,,black_plus_sign,,,,50,,,1,0.9875,,,,,,,,,,,,,,,,
null,,color_black,720353,,black_plus_sign,,,,null,,,,,,,,,,,,,,,,,,,,
null,,learn_phase(without_color),723356,,black_plus_sign,,,,null,GW/carmel.png,GW/boulder.png,,,,,,,,,,,,,,,,,,
null,,black_cross(without_color),724329,,yellow,,,,null,GW/carmel.png,GW/boulder.png,,,,,,,,,,,,,,,,,,
null,,rt_plussign_withcolor,724831,,yellow,,,,null,GW/carmel.png,GW/boulder.png,,,,,,,,,,,,,,,,,,
1113.9000000059605,,rt_thecrossant_black,725861,,black_plus_sign,,,,50,,,1,0.9876543209876543,,,,,,,,,,,,,,,,
null,,color_black,725962,,black_plus_sign,,,,null,,,,,,,,,,,,,,,,,,,,
null,,learn_phase(without_color),728965,,black_plus_sign,,,,null,GW/peoria.png,GW/huntsville.png,,,,,,,,,,,,,,,,,,
null,,black_cross(without_color),729806,,blue,,,,null,GW/peoria.png,GW/huntsville.png,,,,,,,,,,,,,,,,,,
null,,rt_plussign_withcolor,730307,,blue,,,,null,GW/peoria.png,GW/huntsville.png,,,,,,,,,,,,,,,,,,
1397.300000011921,,rt_thecrossant_black,731470,,black_plus_sign,,,,49,,,1,0.9878048780487805,,,,,,,,,,,,,,,,
null,,color_black,731573,,black_plus_sign,,,,null,,,,,,,,,,,,,,,,,,,,
null,,learn_phase(without_color),734576,,black_plus_sign,,,,null,GW/boulder.png,GW/gatlinburg.png,,,,,,,,,,,,,,,,,,
null,,black_cross(without_color),735464,,blue,,,,null,GW/boulder.png,GW/gatlinburg.png,,,,,,,,,,,,,,,,,,
null,,rt_plussign_withcolor,735967,,blue,,,,null,GW/boulder.png,GW/gatlinburg.png,,,,,,,,,,,,,,,,,,
1258.199999988079,,rt_thecrossant_black,737084,,black_plus_sign,,,,49,,,1,0.9879518072289156,,,,,,,,,,,,,,,,
null,,color_black,737187,,black_plus_sign,,,,null,,,,,,,,,,,,,,,,,,,,
null,,learn_phase(without_color),740189,,black_plus_sign,,,,null,GW/hotsprings.png,GW/newhope.png,,,,,,,,,,,,,,,,,,
null,,black_cross(without_color),740838,,blue,,,,null,GW/hotsprings.png,GW/newhope.png,,,,,,,,,,,,,,,,,,
null,,rt_plussign_withcolor,741340,,blue,,,,null,GW/hotsprings.png,GW/newhope.png,,,,,,,,,,,,,,,,,,
1105.199999988079,,rt_thecrossant_black,742696,,black_plus_sign,,,,49,,,1,0.9880952380952381,,,,,,,,,,,,,,,,
null,,color_black,742799,,black_plus_sign,,,,null,,,,,,,,,,,,,,,,,,,,
null,,learn_phase(without_color),745803,,black_plus_sign,,,,null,GW/cornwall.png,GW/shreveport.png,,,,,,,,,,,,,,,,,,
null,,black_cross(without_color),746861,,yellow,,,,null,GW/cornwall.png,GW/shreveport.png,,,,,,,,,,,,,,,,,,
null,,rt_plussign_withcolor,747364,,yellow,,,,null,GW/cornwall.png,GW/shreveport.png,,,,,,,,,,,,,,,,,,
938.4000000059605,,rt_thecrossant_black,748310,,black_plus_sign,,,,50,,,1,0.9882352941176471,,,,,,,,,,,,,,,,
null,,color_black,748412,,black_plus_sign,,,,null,,,,,,,,,,,,,,,,,,,,
null,,learn_phase(without_color),751415,,black_plus_sign,,,,null,GW/newhope.png,GW/hotsprings.png,,,,,,,,,,,,,,,,,,
null,,black_cross(without_color),752347,,yellow,,,,null,GW/newhope.png,GW/hotsprings.png,,,,,,,,,,,,,,,,,,
null,,rt_plussign_withcolor,752849,,yellow,,,,null,GW/newhope.png,GW/hotsprings.png,,,,,,,,,,,,,,,,,,
1264,,rt_thecrossant_black,753923,,black_plus_sign,,,,50,,,1,0.9883720930232558,,,,,,,,,,,,,,,,
null,,color_black,754025,,black_plus_sign,,,,null,,,,,,,,,,,,,,,,,,,,
null,,learn_phase(without_color),757029,,black_plus_sign,,,,null,GW/leesburg.png,GW/newhope.png,,,,,,,,,,,,,,,,,,
null,,black_cross(without_color),758094,,blue,,,,null,GW/leesburg.png,GW/newhope.png,,,,,,,,,,,,,,,,,,
null,,rt_plussign_withcolor,758595,,blue,,,,null,GW/leesburg.png,GW/newhope.png,,,,,,,,,,,,,,,,,,
1229,,rt_thecrossant_black,759534,,black_plus_sign,,,,49,,,1,0.9885057471264368,,,,,,,,,,,,,,,,
null,,color_black,759636,,black_plus_sign,,,,null,,,,,,,,,,,,,,,,,,,,
null,,learn_phase(without_color),762639,,black_plus_sign,,,,null,GW/huntsville.png,GW/westpalmbeach.png,,,,,,,,,,,,,,,,,,
null,,black_cross(without_color),763177,,yellow,,,,null,GW/huntsville.png,GW/westpalmbeach.png,,,,,,,,,,,,,,,,,,
null,,rt_plussign_withcolor,763679,,yellow,,,,null,GW/huntsville.png,GW/westpalmbeach.png,,,,,,,,,,,,,,,,,,
1444.4000000059605,,rt_thecrossant_black,765145,,black_plus_sign,,,,50,,,1,0.9886363636363636,,,,,,,,,,,,,,,,
null,,color_black,765247,,black_plus_sign,,,,null,,,,,,,,,,,,,,,,,,,,
null,,learn_phase(without_color),768249,,black_plus_sign,,,,null,GW/shreveport.png,GW/hotsprings.png,,,,,,,,,,,,,,,,,,
null,,black_cross(without_color),769095,,blue,,,,null,GW/shreveport.png,GW/hotsprings.png,,,,,,,,,,,,,,,,,,
null,,rt_plussign_withcolor,769597,,blue,,,,null,GW/shreveport.png,GW/hotsprings.png,,,,,,,,,,,,,,,,,,
1155.2000000178814,,rt_thecrossant_black,770756,,black_plus_sign,,,,49,,,1,0.9887640449438202,,,,,,,,,,,,,,,,
null,,color_black,770857,,black_plus_sign,,,,null,,,,,,,,,,,,,,,,,,,,
null,,learn_phase(without_color),773861,,black_plus_sign,,,,null,GW/peoria.png,GW/carmel.png,,,,,,,,,,,,,,,,,,
null,,black_cross(without_color),774892,,blue,,,,null,GW/peoria.png,GW/carmel.png,,,,,,,,,,,,,,,,,,
null,,rt_plussign_withcolor,775394,,blue,,,,null,GW/peoria.png,GW/carmel.png,,,,,,,,,,,,,,,,,,
1018.6000000238419,,rt_thecrossant_black,776369,,black_plus_sign,,,,49,,,1,0.9888888888888889,,,,,,,,,,,,,,,,
null,,color_black,776471,,black_plus_sign,,,,null,,,,,,,,,,,,,,,,,,,,
null,,learn_phase(without_color),779475,,black_plus_sign,,,,null,GW/leesburg.png,GW/newhope.png,,,,,,,,,,,,,,,,,,
null,,black_cross(without_color),780389,,blue,,,,null,GW/leesburg.png,GW/newhope.png,,,,,,,,,,,,,,,,,,
135.09999999403954,,rt_plussign_withcolor,780891,,blue,,,,49,GW/leesburg.png,GW/newhope.png,,,,,,,,,,,,,,,,,,
null,,rt_thecrossant_black,781982,,black_plus_sign,,,,49,,,1,0.989010989010989,,,,,,,,,,,,,,,,
null,,color_black,782084,,black_plus_sign,,,,null,,,,,,,,,,,,,,,,,,,,
null,,learn_phase(without_color),785088,,black_plus_sign,,,,null,GW/boulder.png,GW/carmel.png,,,,,,,,,,,,,,,,,,
null,,black_cross(without_color),785732,,blue,,,,null,GW/boulder.png,GW/carmel.png,,,,,,,,,,,,,,,,,,
null,,rt_plussign_withcolor,786235,,blue,,,,null,GW/boulder.png,GW/carmel.png,,,,,,,,,,,,,,,,,,
1235.4000000059605,,rt_thecrossant_black,787596,,black_plus_sign,,,,49,,,1,0.9891304347826086,,,,,,,,,,,,,,,,
null,,color_black,787698,,black_plus_sign,,,,null,,,,,,,,,,,,,,,,,,,,
null,,learn_phase(without_color),790702,,black_plus_sign,,,,null,GW/gatlinburg.png,GW/shreveport.png,,,,,,,,,,,,,,,,,,
null,,black_cross(without_color),791541,,yellow,,,,null,GW/gatlinburg.png,GW/shreveport.png,,,,,,,,,,,,,,,,,,
null,,rt_plussign_withcolor,792044,,yellow,,,,null,GW/gatlinburg.png,GW/shreveport.png,,,,,,,,,,,,,,,,,,
921,,rt_thecrossant_black,793211,,black_plus_sign,,,,50,,,1,0.989247311827957,,,,,,,,,,,,,,,,
null,,color_black,793313,,black_plus_sign,,,,null,,,,,,,,,,,,,,,,,,,,
null,,learn_phase(without_color),796316,,black_plus_sign,,,,null,GW/boulder.png,GW/gatlinburg.png,,,,,,,,,,,,,,,,,,
null,,black_cross(without_color),797098,,blue,,,,null,GW/boulder.png,GW/gatlinburg.png,,,,,,,,,,,,,,,,,,
null,,rt_plussign_withcolor,797601,,blue,,,,null,GW/boulder.png,GW/gatlinburg.png,,,,,,,,,,,,,,,,,,
2051.199999988079,,rt_thecrossant_black,798824,,black_plus_sign,,,,49,,,1,0.9893617021276596,,,,,,,,,,,,,,,,
null,,color_black,798927,,black_plus_sign,,,,null,,,,,,,,,,,,,,,,,,,,
null,,learn_phase(without_color),801930,,black_plus_sign,,,,null,GW/boulder.png,GW/gatlinburg.png,,,,,,,,,,,,,,,,,,
null,,black_cross(without_color),802677,,blue,,,,null,GW/boulder.png,GW/gatlinburg.png,,,,,,,,,,,,,,,,,,
null,,rt_plussign_withcolor,803180,,blue,,,,null,GW/boulder.png,GW/gatlinburg.png,,,,,,,,,,,,,,,,,,
1878.5999999940395,,rt_thecrossant_black,804439,,black_plus_sign,,,,49,,,1,0.9894736842105263,,,,,,,,,,,,,,,,
null,,color_black,804542,,black_plus_sign,,,,null,,,,,,,,,,,,,,,,,,,,
null,,learn_phase(without_color),807546,,black_plus_sign,,,,null,GW/carmel.png,GW/peoria.png,,,,,,,,,,,,,,,,,,
null,,black_cross(without_color),808512,,yellow,,,,null,GW/carmel.png,GW/peoria.png,,,,,,,,,,,,,,,,,,
null,,rt_plussign_withcolor,809014,,yellow,,,,null,GW/carmel.png,GW/peoria.png,,,,,,,,,,,,,,,,,,
null,,rt_thecrossant_black,810053,,black_plus_sign,,,,null,,,,0.9894736842105263,,,,,,,,,,,,,,,,
null,,color_black,810157,,black_plus_sign,,,,null,,,,,,,,,,,,,,,,,,,,
null,,learn_phase(without_color),813159,,black_plus_sign,,,,null,GW/huntsville.png,GW/leesburg.png,,,,,,,,,,,,,,,,,,
null,,black_cross(without_color),814024,,blue,,,,null,GW/huntsville.png,GW/leesburg.png,,,,,,,,,,,,,,,,,,
null,,rt_plussign_withcolor,814527,,blue,,,,null,GW/huntsville.png,GW/leesburg.png,,,,,,,,,,,,,,,,,,
1980,,rt_thecrossant_black,815667,,black_plus_sign,,,,49,,,1,0.9895833333333334,,,,,,,,,,,,,,,,
null,,color_black,815770,,black_plus_sign,,,,null,,,,,,,,,,,,,,,,,,,,
null,,learn_phase(without_color),818773,,black_plus_sign,,,,null,GW/boulder.png,GW/carmel.png,,,,,,,,,,,,,,,,,,
null,,black_cross(without_color),819758,,yellow,,,,null,GW/boulder.png,GW/carmel.png,,,,,,,,,,,,,,,,,,
null,,rt_plussign_withcolor,820261,,yellow,,,,null,GW/boulder.png,GW/carmel.png,,,,,,,,,,,,,,,,,,
1685.5999999940395,,rt_thecrossant_black,821280,,black_plus_sign,,,,50,,,1,0.9896907216494846,,,,,,,,,,,,,,,,
null,,color_black,821383,,black_plus_sign,,,,null,,,,,,,,,,,,,,,,,,,,
null,,learn_phase(without_color),824386,,black_plus_sign,,,,null,GW/leesburg.png,GW/peoria.png,,,,,,,,,,,,,,,,,,
null,,black_cross(without_color),824977,,blue,,,,null,GW/leesburg.png,GW/peoria.png,,,,,,,,,,,,,,,,,,
null,,rt_plussign_withcolor,825480,,blue,,,,null,GW/leesburg.png,GW/peoria.png,,,,,,,,,,,,,,,,,,
2065.800000011921,,rt_thecrossant_black,826894,,black_plus_sign,,,,49,,,1,0.9897959183673469,,,,,,,,,,,,,,,,
null,,color_black,826996,,black_plus_sign,,,,null,,,,,,,,,,,,,,,,,,,,
null,,learn_phase(without_color),830000,,black_plus_sign,,,,null,GW/huntsville.png,GW/peoria.png,,,,,,,,,,,,,,,,,,
null,,black_cross(without_color),831023,,blue,,,,null,GW/huntsville.png,GW/peoria.png,,,,,,,,,,,,,,,,,,
null,,rt_plussign_withcolor,831526,,blue,,,,null,GW/huntsville.png,GW/peoria.png,,,,,,,,,,,,,,,,,,
767.0999999940395,,rt_thecrossant_black,832508,,black_plus_sign,,,,49,,,1,0.98989898989899,,,,,,,,,,,,,,,,
null,,color_black,832610,,black_plus_sign,,,,null,,,,,,,,,,,,,,,,,,,,
null,,learn_phase(without_color),835613,,black_plus_sign,,,,null,GW/shreveport.png,GW/cornwall.png,,,,,,,,,,,,,,,,,,
null,,black_cross(without_color),836153,,blue,,,,null,GW/shreveport.png,GW/cornwall.png,,,,,,,,,,,,,,,,,,
null,,rt_plussign_withcolor,836656,,blue,,,,null,GW/shreveport.png,GW/cornwall.png,,,,,,,,,,,,,,,,,,
1240.4000000059605,,rt_thecrossant_black,838121,,black_plus_sign,,,,49,,,1,0.99,,,,,,,,,,,,,,,,
null,,color_black,838224,,black_plus_sign,,,,null,,,,,,,,,,,,,,,,,,,,
null,,learn_phase(without_color),841227,,black_plus_sign,,,,null,GW/peoria.png,GW/carmel.png,,,,,,,,,,,,,,,,,,
null,,black_cross(without_color),841723,,blue,,,,null,GW/peoria.png,GW/carmel.png,,,,,,,,,,,,,,,,,,
null,,rt_plussign_withcolor,842225,,blue,,,,null,GW/peoria.png,GW/carmel.png,,,,,,,,,,,,,,,,,,
892.7999999821186,,rt_thecrossant_black,843735,,black_plus_sign,,,,49,,,1,0.9900990099009901,,,,,,,,,,,,,,,,
null,,color_black,843837,,black_plus_sign,,,,null,,,,,,,,,,,,,,,,,,,,
null,,learn_phase(without_color),846841,,black_plus_sign,,,,null,GW/leesburg.png,GW/newhope.png,,,,,,,,,,,,,,,,,,
null,,black_cross(without_color),847872,,blue,,,,null,GW/leesburg.png,GW/newhope.png,,,,,,,,,,,,,,,,,,
null,,rt_plussign_withcolor,848375,,blue,,,,null,GW/leesburg.png,GW/newhope.png,,,,,,,,,,,,,,,,,,
802.6999999880791,,rt_thecrossant_black,849349,,black_plus_sign,,,,49,,,1,0.9901960784313726,,,,,,,,,,,,,,,,
null,,color_black,849451,,black_plus_sign,,,,null,,,,,,,,,,,,,,,,,,,,
null,,learn_phase(without_color),852454,,black_plus_sign,,,,null,GW/peoria.png,GW/leesburg.png,,,,,,,,,,,,,,,,,,
null,,black_cross(without_color),853444,,yellow,,,,null,GW/peoria.png,GW/leesburg.png,,,,,,,,,,,,,,,,,,
null,,rt_plussign_withcolor,853946,,yellow,,,,null,GW/peoria.png,GW/leesburg.png,,,,,,,,,,,,,,,,,,
1278.300000011921,,rt_thecrossant_black,854962,,black_plus_sign,,,,50,,,1,0.9902912621359223,,,,,,,,,,,,,,,,
null,,color_black,855065,,black_plus_sign,,,,null,,,,,,,,,,,,,,,,,,,,
null,,learn_phase(without_color),858069,,black_plus_sign,,,,null,GW/huntsville.png,GW/peoria.png,,,,,,,,,,,,,,,,,,
null,,black_cross(without_color),858581,,yellow,,,,null,GW/huntsville.png,GW/peoria.png,,,,,,,,,,,,,,,,,,
null,,rt_plussign_withcolor,859084,,yellow,,,,null,GW/huntsville.png,GW/peoria.png,,,,,,,,,,,,,,,,,,
1226,,rt_thecrossant_black,860577,,black_plus_sign,,,,50,,,1,0.9903846153846154,,,,,,,,,,,,,,,,
null,,color_black,860680,,black_plus_sign,,,,null,,,,,,,,,,,,,,,,,,,,
null,,learn_phase(without_color),863684,,black_plus_sign,,,,null,GW/hotsprings.png,GW/shreveport.png,,,,,,,,,,,,,,,,,,
null,,black_cross(without_color),864306,,blue,,,,null,GW/hotsprings.png,GW/shreveport.png,,,,,,,,,,,,,,,,,,
null,,rt_plussign_withcolor,864809,,blue,,,,null,GW/hotsprings.png,GW/shreveport.png,,,,,,,,,,,,,,,,,,
793.8000000119209,,rt_thecrossant_black,866192,,black_plus_sign,,,,50,,,0,0.9809523809523809,,,,,,,,,,,,,,,,
null,,color_black,866293,,black_plus_sign,,,,null,,,,,,,,,,,,,,,,,,,,
null,,learn_phase(without_color),869297,,black_plus_sign,,,,null,GW/peoria.png,GW/hanover.png,,,,,,,,,,,,,,,,,,
null,,black_cross(without_color),870051,,blue,,,,null,GW/peoria.png,GW/hanover.png,,,,,,,,,,,,,,,,,,
null,,rt_plussign_withcolor,870554,,blue,,,,null,GW/peoria.png,GW/hanover.png,,,,,,,,,,,,,,,,,,
867,,rt_thecrossant_black,871806,,black_plus_sign,,,,49,,,1,0.9811320754716981,,,,,,,,,,,,,,,,
null,,color_black,871909,,black_plus_sign,,,,null,,,,,,,,,,,,,,,,,,,,
null,,learn_phase(without_color),874912,,black_plus_sign,,,,null,GW/gatlinburg.png,GW/shreveport.png,,,,,,,,,,,,,,,,,,
null,,black_cross(without_color),875753,,blue,,,,null,GW/gatlinburg.png,GW/shreveport.png,,,,,,,,,,,,,,,,,,
null,,rt_plussign_withcolor,876255,,blue,,,,null,GW/gatlinburg.png,GW/shreveport.png,,,,,,,,,,,,,,,,,,
941.2999999821186,,rt_thecrossant_black,877420,,black_plus_sign,,,,49,,,1,0.9813084112149533,,,,,,,,,,,,,,,,
null,,color_black,877523,,black_plus_sign,,,,null,,,,,,,,,,,,,,,,,,,,
null,,learn_phase(without_color),880527,,black_plus_sign,,,,null,GW/peoria.png,GW/leesburg.png,,,,,,,,,,,,,,,,,,
null,,black_cross(without_color),881322,,blue,,,,null,GW/peoria.png,GW/leesburg.png,,,,,,,,,,,,,,,,,,
null,,rt_plussign_withcolor,881825,,blue,,,,null,GW/peoria.png,GW/leesburg.png,,,,,,,,,,,,,,,,,,
1081.0999999940395,,rt_thecrossant_black,883035,,black_plus_sign,,,,49,,,1,0.9814814814814815,,,,,,,,,,,,,,,,
null,,color_black,883138,,black_plus_sign,,,,null,,,,,,,,,,,,,,,,,,,,
null,,learn_phase(without_color),886142,,black_plus_sign,,,,null,GW/gatlinburg.png,GW/racine.png,,,,,,,,,,,,,,,,,,
null,,black_cross(without_color),886859,,blue,,,,null,GW/gatlinburg.png,GW/racine.png,,,,,,,,,,,,,,,,,,
null,,rt_plussign_withcolor,887362,,blue,,,,null,GW/gatlinburg.png,GW/racine.png,,,,,,,,,,,,,,,,,,
1270.5,,rt_thecrossant_black,888651,,black_plus_sign,,,,49,,,1,0.981651376146789,,,,,,,,,,,,,,,,
null,,color_black,888753,,black_plus_sign,,,,null,,,,,,,,,,,,,,,,,,,,
null,,learn_phase(without_color),891757,,black_plus_sign,,,,null,GW/leesburg.png,GW/peoria.png,,,,,,,,,,,,,,,,,,
null,,black_cross(without_color),892176,,blue,,,,null,GW/leesburg.png,GW/peoria.png,,,,,,,,,,,,,,,,,,
null,,rt_plussign_withcolor,892680,,blue,,,,null,GW/leesburg.png,GW/peoria.png,,,,,,,,,,,,,,,,,,
1135.5,,rt_thecrossant_black,894265,,black_plus_sign,,,,49,,,1,0.9818181818181818,,,,,,,,,,,,,,,,
null,,color_black,894368,,black_plus_sign,,,,null,,,,,,,,,,,,,,,,,,,,
null,,learn_phase(without_color),897372,,black_plus_sign,,,,null,GW/shreveport.png,GW/gatlinburg.png,,,,,,,,,,,,,,,,,,
null,,black_cross(without_color),898410,,blue,,,,null,GW/shreveport.png,GW/gatlinburg.png,,,,,,,,,,,,,,,,,,
null,,rt_plussign_withcolor,898912,,blue,,,,null,GW/shreveport.png,GW/gatlinburg.png,,,,,,,,,,,,,,,,,,
632.6999999880791,,rt_thecrossant_black,899880,,black_plus_sign,,,,49,,,1,0.9819819819819819,,,,,,,,,,,,,,,,
null,,color_black,899982,,black_plus_sign,,,,null,,,,,,,,,,,,,,,,,,,,
null,,learn_phase(without_color),902986,,black_plus_sign,,,,null,GW/shreveport.png,GW/hotsprings.png,,,,,,,,,,,,,,,,,,
null,,black_cross(without_color),903770,,blue,,,,null,GW/shreveport.png,GW/hotsprings.png,,,,,,,,,,,,,,,,,,
null,,rt_plussign_withcolor,904274,,blue,,,,null,GW/shreveport.png,GW/hotsprings.png,,,,,,,,,,,,,,,,,,
2013.7999999821186,,rt_thecrossant_black,905495,,black_plus_sign,,,,49,,,1,0.9821428571428571,,,,,,,,,,,,,,,,
null,,color_black,905598,,black_plus_sign,,,,null,,,,,,,,,,,,,,,,,,,,
null,,learn_phase(without_color),908601,,black_plus_sign,,,,null,GW/newhope.png,GW/boulder.png,,,,,,,,,,,,,,,,,,
null,,black_cross(without_color),909297,,yellow,,,,null,GW/newhope.png,GW/boulder.png,,,,,,,,,,,,,,,,,,
null,,rt_plussign_withcolor,909800,,yellow,,,,null,GW/newhope.png,GW/boulder.png,,,,,,,,,,,,,,,,,,
1938.5,,rt_thecrossant_black,911109,,black_plus_sign,,,,50,,,1,0.9823008849557522,,,,,,,,,,,,,,,,
null,,color_black,911212,,black_plus_sign,,,,null,,,,,,,,,,,,,,,,,,,,
null,,learn_phase(without_color),914215,,black_plus_sign,,,,null,GW/huntsville.png,GW/leesburg.png,,,,,,,,,,,,,,,,,,
null,,black_cross(without_color),914665,,yellow,,,,null,GW/huntsville.png,GW/leesburg.png,,,,,,,,,,,,,,,,,,
null,,rt_plussign_withcolor,915168,,yellow,,,,null,GW/huntsville.png,GW/leesburg.png,,,,,,,,,,,,,,,,,,
null,,rt_thecrossant_black,916724,,black_plus_sign,,,,null,,,,0.9823008849557522,,,,,,,,,,,,,,,,
null,,color_black,916827,,black_plus_sign,,,,null,,,,,,,,,,,,,,,,,,,,
null,,learn_phase(without_color),919830,,black_plus_sign,,,,null,GW/peoria.png,GW/huntsville.png,,,,,,,,,,,,,,,,,,
null,,black_cross(without_color),920582,,yellow,,,,null,GW/peoria.png,GW/huntsville.png,,,,,,,,,,,,,,,,,,
null,,rt_plussign_withcolor,921085,,yellow,,,,null,GW/peoria.png,GW/huntsville.png,,,,,,,,,,,,,,,,,,
null,,rt_thecrossant_black,922340,,black_plus_sign,,,,null,,,,0.9823008849557522,,,,,,,,,,,,,,,,
null,,warning_page,925343,,warning,,,,null,,,,,,,,,,,,,,,,,,,,
null,,color_black,925445,,black_plus_sign,,,,null,,,,,,,,,,,,,,,,,,,,
null,,learn_phase(without_color),928448,,black_plus_sign,,,,null,GW/shreveport.png,GW/gatlinburg.png,,,,,,,,,,,,,,,,,,
null,,black_cross(without_color),929327,,yellow,,,,null,GW/shreveport.png,GW/gatlinburg.png,,,,,,,,,,,,,,,,,,
null,,rt_plussign_withcolor,929830,,yellow,,,,null,GW/shreveport.png,GW/gatlinburg.png,,,,,,,,,,,,,,,,,,
1037.0999999940395,,rt_thecrossant_black,930956,,black_plus_sign,,,,50,,,1,0.9824561403508771,,,,,,,,,,,,,,,,
null,,color_black,931060,,black_plus_sign,,,,null,,,,,,,,,,,,,,,,,,,,
null,,learn_phase(without_color),934064,,black_plus_sign,,,,null,GW/shreveport.png,GW/hotsprings.png,,,,,,,,,,,,,,,,,,
null,,black_cross(without_color),934630,,blue,,,,null,GW/shreveport.png,GW/hotsprings.png,,,,,,,,,,,,,,,,,,
null,,rt_plussign_withcolor,935133,,blue,,,,null,GW/shreveport.png,GW/hotsprings.png,,,,,,,,,,,,,,,,,,
1467.5,,rt_thecrossant_black,936573,,black_plus_sign,,,,49,,,1,0.9826086956521739,,,,,,,,,,,,,,,,
null,,color_black,936675,,black_plus_sign,,,,null,,,,,,,,,,,,,,,,,,,,
null,,learn_phase(without_color),939679,,black_plus_sign,,,,null,GW/carmel.png,GW/peoria.png,,,,,,,,,,,,,,,,,,
null,,black_cross(without_color),940694,,blue,,,,null,GW/carmel.png,GW/peoria.png,,,,,,,,,,,,,,,,,,
null,,rt_plussign_withcolor,941196,,blue,,,,null,GW/carmel.png,GW/peoria.png,,,,,,,,,,,,,,,,,,
728.4000000059605,,rt_thecrossant_black,942187,,black_plus_sign,,,,49,,,1,0.9827586206896551,,,,,,,,,,,,,,,,
null,,color_black,942291,,black_plus_sign,,,,null,,,,,,,,,,,,,,,,,,,,
null,,learn_phase(without_color),945295,,black_plus_sign,,,,null,GW/racine.png,GW/gatlinburg.png,,,,,,,,,,,,,,,,,,
null,,black_cross(without_color),945968,,blue,,,,null,GW/racine.png,GW/gatlinburg.png,,,,,,,,,,,,,,,,,,
null,,rt_plussign_withcolor,946469,,blue,,,,null,GW/racine.png,GW/gatlinburg.png,,,,,,,,,,,,,,,,,,
1228.5,,rt_thecrossant_black,947802,,black_plus_sign,,,,49,,,1,0.9829059829059829,,,,,,,,,,,,,,,,
null,,color_black,947904,,black_plus_sign,,,,null,,,,,,,,,,,,,,,,,,,,
null,,learn_phase(without_color),950908,,black_plus_sign,,,,null,GW/racine.png,GW/gatlinburg.png,,,,,,,,,,,,,,,,,,
null,,black_cross(without_color),951322,,yellow,,,,null,GW/racine.png,GW/gatlinburg.png,,,,,,,,,,,,,,,,,,
null,,rt_plussign_withcolor,951824,,yellow,,,,null,GW/racine.png,GW/gatlinburg.png,,,,,,,,,,,,,,,,,,
1348.2999999821186,,rt_thecrossant_black,953416,,black_plus_sign,,,,50,,,1,0.9830508474576272,,,,,,,,,,,,,,,,
null,,color_black,953519,,black_plus_sign,,,,null,,,,,,,,,,,,,,,,,,,,
null,,learn_phase(without_color),956522,,black_plus_sign,,,,null,GW/leesburg.png,GW/newhope.png,,,,,,,,,,,,,,,,,,
null,,black_cross(without_color),957279,,yellow,,,,null,GW/leesburg.png,GW/newhope.png,,,,,,,,,,,,,,,,,,
null,,rt_plussign_withcolor,957782,,yellow,,,,null,GW/leesburg.png,GW/newhope.png,,,,,,,,,,,,,,,,,,
652.5999999940395,,rt_thecrossant_black,959030,,black_plus_sign,,,,50,,,1,0.9831932773109243,,,,,,,,,,,,,,,,
null,,color_black,959133,,black_plus_sign,,,,null,,,,,,,,,,,,,,,,,,,,
null,,learn_phase(without_color),962136,,black_plus_sign,,,,null,GW/boulder.png,GW/newhope.png,,,,,,,,,,,,,,,,,,
null,,black_cross(without_color),962941,,blue,,,,null,GW/boulder.png,GW/newhope.png,,,,,,,,,,,,,,,,,,
null,,rt_plussign_withcolor,963443,,blue,,,,null,GW/boulder.png,GW/newhope.png,,,,,,,,,,,,,,,,,,
1329.4000000059605,,rt_thecrossant_black,964643,,black_plus_sign,,,,49,,,1,0.9833333333333333,,,,,,,,,,,,,,,,
null,,color_black,964746,,black_plus_sign,,,,null,,,,,,,,,,,,,,,,,,,,
null,,learn_phase(without_color),967749,,black_plus_sign,,,,null,GW/leesburg.png,GW/peoria.png,,,,,,,,,,,,,,,,,,
null,,black_cross(without_color),968556,,yellow,,,,null,GW/leesburg.png,GW/peoria.png,,,,,,,,,,,,,,,,,,
null,,rt_plussign_withcolor,969059,,yellow,,,,null,GW/leesburg.png,GW/peoria.png,,,,,,,,,,,,,,,,,,
1295.2000000178814,,rt_thecrossant_black,970258,,black_plus_sign,,,,50,,,1,0.9834710743801653,,,,,,,,,,,,,,,,
null,,color_black,970361,,black_plus_sign,,,,null,,,,,,,,,,,,,,,,,,,,
31071.19999998808,,learn_break,1001435,,learn_break,,,,32,,,,,,,,,,,,,,,,,,,,
16163.40000000596,,intro_1,1017600,,instruct,,0,Start,,,,,,,,,,,,,,,,,,,,,
4083,,directmemory_phase,1021685,,GW/peoria.png,,,,50,,,1,1,GW/newhope.png,GW/huntsville.png,GW/gatlinburg.png,GW/huntsville.png,GW/newhope.png,GW/gatlinburg.png,1,,,,,,,,,
null,,html-keyboard-response,1022698,,<p></p>,,,,null,,,,,,,,,,,,,,,,,,,,
2049.5999999940395,,directmemory_phase,1024749,,GW/boulder.png,,,,51,,,1,1,GW/westpalmbeach.png,GW/hotsprings.png,GW/carmel.png,GW/carmel.png,GW/hotsprings.png,GW/westpalmbeach.png,1,,,,,,,,,
null,,html-keyboard-response,1025752,,<p></p>,,,,null,,,,,,,,,,,,,,,,,,,,
1432.5999999940395,,directmemory_phase,1027186,,GW/shreveport.png,,,,50,,,0,0.6666666666666666,GW/hotsprings.png,GW/leesburg.png,GW/racine.png,GW/hotsprings.png,GW/racine.png,GW/leesburg.png,0.5,closer,,,,,,,,
null,,html-keyboard-response,1028189,,<p></p>,,,,null,,,,,,,,,,,,,,,,,,,,
2439.300000011921,,directmemory_phase,1030629,,GW/leesburg.png,,,,50,,,0,0.5,GW/cornwall.png,GW/westpalmbeach.png,GW/peoria.png,GW/peoria.png,GW/westpalmbeach.png,GW/cornwall.png,0.5,closer,,,,,,,,
null,,html-keyboard-response,1031632,,<p></p>,,,,null,,,,,,,,,,,,,,,,,,,,
2907.4000000059605,,directmemory_phase,1034541,,GW/boulder.png,,,,51,,,0,0.4,GW/hotsprings.png,GW/newhope.png,GW/westpalmbeach.png,GW/newhope.png,GW/hotsprings.png,GW/westpalmbeach.png,0.5,closer,,,,,,,,
null,,html-keyboard-response,1035542,,<p></p>,,,,null,,,,,,,,,,,,,,,,,,,,
2537.800000011921,,directmemory_phase,1038081,,GW/huntsville.png,,,,51,,,0,0.3333333333333333,GW/leesburg.png,GW/shreveport.png,GW/hanover.png,GW/leesburg.png,GW/hanover.png,GW/shreveport.png,0.5,closer,,,,,,,,
null,,html-keyboard-response,1039084,,<p></p>,,,,null,,,,,,,,,,,,,,,,,,,,
1942.5999999940395,,directmemory_phase,1041028,,GW/carmel.png,,,,51,,,1,0.42857142857142855,GW/cornwall.png,GW/newhope.png,GW/boulder.png,GW/boulder.png,GW/newhope.png,GW/cornwall.png,1,,,,,,,,,
null,,html-keyboard-response,1042031,,<p></p>,,,,null,,,,,,,,,,,,,,,,,,,,
2407.9000000059605,,directmemory_phase,1044440,,GW/leesburg.png,,,,50,,,0,0.375,GW/newhope.png,GW/shreveport.png,GW/hanover.png,GW/newhope.png,GW/hanover.png,GW/shreveport.png,0.5,closer,,,,,,,,
null,,html-keyboard-response,1045443,,<p></p>,,,,null,,,,,,,,,,,,,,,,,,,,
2185.4000000059605,,directmemory_phase,1047630,,GW/boulder.png,,,,50,,,1,0.4444444444444444,GW/hotsprings.png,GW/gatlinburg.png,GW/huntsville.png,GW/gatlinburg.png,GW/hotsprings.png,GW/huntsville.png,1,,,,,,,,,
null,,html-keyboard-response,1048633,,<p></p>,,,,null,,,,,,,,,,,,,,,,,,,,
2003.5,,directmemory_phase,1050638,,GW/shreveport.png,,,,49,,,0,0.4,GW/carmel.png,GW/boulder.png,GW/cornwall.png,GW/cornwall.png,GW/boulder.png,GW/carmel.png,0.5,closer,,,,,,,,
null,,html-keyboard-response,1051640,,<p></p>,,,,null,,,,,,,,,,,,,,,,,,,,
1948,,directmemory_phase,1053590,,GW/newhope.png,,,,51,,,1,0.45454545454545453,GW/cornwall.png,GW/gatlinburg.png,GW/leesburg.png,GW/leesburg.png,GW/gatlinburg.png,GW/cornwall.png,1,,,,,,,,,
null,,html-keyboard-response,1054593,,<p></p>,,,,null,,,,,,,,,,,,,,,,,,,,
2506.7999999821186,,directmemory_phase,1057101,,GW/gatlinburg.png,,,,50,,,0,0.4166666666666667,GW/leesburg.png,GW/carmel.png,GW/shreveport.png,GW/shreveport.png,GW/carmel.png,GW/leesburg.png,0.5,closer,,,,,,,,
null,,html-keyboard-response,1058104,,<p></p>,,,,null,,,,,,,,,,,,,,,,,,,,
1260.7000000178814,,directmemory_phase,1059366,,GW/westpalmbeach.png,,,,50,,,0,0.38461538461538464,GW/huntsville.png,GW/hotsprings.png,GW/peoria.png,GW/huntsville.png,GW/peoria.png,GW/hotsprings.png,0.5,closer,,,,,,,,
null,,html-keyboard-response,1060368,,<p></p>,,,,null,,,,,,,,,,,,,,,,,,,,
1057.5999999940395,,directmemory_phase,1061427,,GW/newhope.png,,,,49,,,1,0.42857142857142855,GW/hotsprings.png,GW/westpalmbeach.png,GW/huntsville.png,GW/hotsprings.png,GW/huntsville.png,GW/westpalmbeach.png,1,,,,,,,,,
null,,html-keyboard-response,1062430,,<p></p>,,,,null,,,,,,,,,,,,,,,,,,,,
1100.0999999940395,,directmemory_phase,1063532,,GW/peoria.png,,,,51,,,0,0.4,GW/newhope.png,GW/hanover.png,GW/gatlinburg.png,GW/hanover.png,GW/newhope.png,GW/gatlinburg.png,0.5,closer,,,,,,,,
null,,html-keyboard-response,1064535,,<p></p>,,,,null,,,,,,,,,,,,,,,,,,,,
692.2999999821186,,directmemory_phase,1065229,,GW/gatlinburg.png,,,,50,,,1,0.4375,GW/hotsprings.png,GW/boulder.png,GW/huntsville.png,GW/boulder.png,GW/hotsprings.png,GW/huntsville.png,1,,,,,,,,,
null,,html-keyboard-response,1066231,,<p></p>,,,,null,,,,,,,,,,,,,,,,,,,,
750.2999999821186,,directmemory_phase,1066983,,GW/carmel.png,,,,51,,,0,0.4117647058823529,GW/peoria.png,GW/westpalmbeach.png,GW/huntsville.png,GW/peoria.png,GW/huntsville.png,GW/westpalmbeach.png,0.5,closer,,,,,,,,
null,,html-keyboard-response,1067986,,<p></p>,,,,null,,,,,,,,,,,,,,,,,,,,
466.69999998807907,,directmemory_phase,1068454,,GW/leesburg.png,,,,49,,,1,0.4444444444444444,GW/huntsville.png,GW/racine.png,GW/hotsprings.png,GW/huntsville.png,GW/hotsprings.png,GW/racine.png,1,,,,,,,,,
null,,html-keyboard-response,1069457,,<p></p>,,,,null,,,,,,,,,,,,,,,,,,,,
426.5,,directmemory_phase,1069885,,GW/hotsprings.png,,,,50,,,1,0.47368421052631576,GW/cornwall.png,GW/shreveport.png,GW/huntsville.png,GW/shreveport.png,GW/cornwall.png,GW/huntsville.png,1,,,,,,,,,
null,,html-keyboard-response,1070887,,<p></p>,,,,null,,,,,,,,,,,,,,,,,,,,
404.5,,directmemory_phase,1071293,,GW/leesburg.png,,,,49,,,0,0.45,GW/westpalmbeach.png,GW/carmel.png,GW/racine.png,GW/carmel.png,GW/westpalmbeach.png,GW/racine.png,0.5,closer,,,,,,,,
null,,html-keyboard-response,1072295,,<p></p>,,,,null,,,,,,,,,,,,,,,,,,,,
535.6000000238419,,directmemory_phase,1072832,,GW/cornwall.png,,,,51,,,1,0.47619047619047616,GW/leesburg.png,GW/hotsprings.png,GW/shreveport.png,GW/shreveport.png,GW/hotsprings.png,GW/leesburg.png,1,,,,,,,,,
null,,html-keyboard-response,1073835,,<p></p>,,,,null,,,,,,,,,,,,,,,,,,,,
489.5,,directmemory_phase,1074326,,GW/peoria.png,,,,50,,,1,0.5,GW/newhope.png,GW/carmel.png,GW/racine.png,GW/carmel.png,GW/newhope.png,GW/racine.png,1,,,,,,,,,
null,,html-keyboard-response,1075329,,<p></p>,,,,null,,,,,,,,,,,,,,,,,,,,
596.1999999880791,,directmemory_phase,1075926,,GW/gatlinburg.png,,,,49,,,0,0.4782608695652174,GW/cornwall.png,GW/racine.png,GW/huntsville.png,GW/racine.png,GW/cornwall.png,GW/huntsville.png,0.5,closer,,,,,,,,
null,,html-keyboard-response,1076928,,<p></p>,,,,null,,,,,,,,,,,,,,,,,,,,
1005.4000000059605,,directmemory_phase,1077935,,GW/peoria.png,,,,50,,,0,0.4583333333333333,GW/leesburg.png,GW/racine.png,GW/westpalmbeach.png,GW/leesburg.png,GW/westpalmbeach.png,GW/racine.png,0.5,closer,,,,,,,,
null,,html-keyboard-response,1078937,,<p></p>,,,,null,,,,,,,,,,,,,,,,,,,,
1334.3999999761581,,directmemory_phase,1080273,,GW/newhope.png,,,,49,,,0,0.44,GW/shreveport.png,GW/boulder.png,GW/westpalmbeach.png,GW/boulder.png,GW/shreveport.png,GW/westpalmbeach.png,0.5,closer,,,,,,,,
null,,html-keyboard-response,1081274,,<p></p>,,,,null,,,,,,,,,,,,,,,,,,,,
862,,directmemory_phase,1082138,,GW/carmel.png,,,,50,,,1,0.46153846153846156,GW/hanover.png,GW/leesburg.png,GW/racine.png,GW/leesburg.png,GW/hanover.png,GW/racine.png,1,,,,,,,,,
null,,html-keyboard-response,1083139,,<p></p>,,,,null,,,,,,,,,,,,,,,,,,,,
1119.7999999821186,,directmemory_phase,1084260,,GW/hotsprings.png,,,,49,,,0,0.4444444444444444,GW/hanover.png,GW/leesburg.png,GW/newhope.png,GW/newhope.png,GW/leesburg.png,GW/hanover.png,0.5,closer,,,,,,,,
null,,html-keyboard-response,1085263,,<p></p>,,,,null,,,,,,,,,,,,,,,,,,,,
804.8000000119209,,directmemory_phase,1086069,,GW/shreveport.png,,,,51,,,0,0.42857142857142855,GW/racine.png,GW/gatlinburg.png,GW/carmel.png,GW/gatlinburg.png,GW/racine.png,GW/carmel.png,0.5,closer,,,,,,,,
null,,html-keyboard-response,1087072,,<p></p>,,,,null,,,,,,,,,,,,,,,,,,,,
465.2999999821186,,directmemory_phase,1087538,,GW/hanover.png,,,,49,,,1,0.4482758620689655,GW/peoria.png,GW/hotsprings.png,GW/huntsville.png,GW/peoria.png,GW/huntsville.png,GW/hotsprings.png,1,,,,,,,,,
null,,html-keyboard-response,1088540,,<p></p>,,,,null,,,,,,,,,,,,,,,,,,,,
445.09999999403954,,directmemory_phase,1088986,,GW/huntsville.png,,,,50,,,1,0.4666666666666667,GW/hanover.png,GW/westpalmbeach.png,GW/shreveport.png,GW/westpalmbeach.png,GW/hanover.png,GW/shreveport.png,1,,,,,,,,,
null,,html-keyboard-response,1089988,,<p></p>,,,,null,,,,,,,,,,,,,,,,,,,,
341.30000001192093,,directmemory_phase,1090330,,GW/racine.png,,,,51,,,1,0.4838709677419355,GW/peoria.png,GW/shreveport.png,GW/gatlinburg.png,GW/gatlinburg.png,GW/shreveport.png,GW/peoria.png,1,,,,,,,,,
null,,html-keyboard-response,1091333,,<p></p>,,,,null,,,,,,,,,,,,,,,,,,,,
307.09999999403954,,directmemory_phase,1091641,,GW/huntsville.png,,,,49,,,1,0.5,GW/peoria.png,GW/shreveport.png,GW/carmel.png,GW/peoria.png,GW/carmel.png,GW/shreveport.png,1,,,,,,,,,
null,,html-keyboard-response,1092643,,<p></p>,,,,null,,,,,,,,,,,,,,,,,,,,
18878.29999998212,,intro_1,1111523,,instruct,,0,,,,,,,,,,,,,,,,,,,,,,
8900.5,,intro_2,1120426,,instruct,,1,Next,,,,,,,,,,,,,,,,,,,,,
5321.4000000059605,,intro_3,1125749,,instruct,,1,Next,,,,,,,,,,,,,,,,,,,,,
5348.799999982119,,intro_4,1131099,,instruct,,1,Next,,,,,,,,,,,,,,,,,,,,,
26207.30000001192,,intro_5,1157309,,instruct,,1,Next,,,,,,,,,,,,,,,,,,,,,
17796.20000001788,,intro_6,1175107,,instruct,,1,Next,,,,,,,,,,,,,,,,,,,,,
6925,,intro_7,1182034,,instruct,,1,Next,,,,,,,,,,,,,,,,,,,,,
9148.09999999404,,intro_8,1191184,,instruct,,1,Next,,,,,,,,,,,,,,,,,,,,,
3376.0999999940395,,shortestpath_phase,1194563,,GW/racine.png,,,,49,GW/hotsprings.png,GW/huntsville.png,1,1,,,,GW/hotsprings.png,,,,,Two Edge Diff,Three Edge Five Edge,,,,,,
null,,html-keyboard-response,1195566,,<p></p>,,,,null,,,,,,,,,,,,,,,,,,,,
1526,,shortestpath_phase,1197094,,GW/westpalmbeach.png,,,,50,GW/racine.png,GW/peoria.png,1,1,,,,GW/peoria.png,,,,,Four Edge Diff,Two Edge Six Edge,,,,,,
null,,html-keyboard-response,1198097,,<p></p>,,,,null,,,,,,,,,,,,,,,,,,,,
1441.2999999821186,,shortestpath_phase,1199539,,GW/hotsprings.png,,,,49,GW/peoria.png,GW/leesburg.png,0,0.6666666666666666,,,,GW/leesburg.png,,,,,One Edge Diff,Two Edge Three Edge,,,,,,
null,,html-keyboard-response,1200543,,<p></p>,,,,null,,,,,,,,,,,,,,,,,,,,
1311.4000000059605,,shortestpath_phase,1201855,,GW/hanover.png,,,,49,GW/shreveport.png,GW/cornwall.png,1,0.75,,,,GW/shreveport.png,,,,,One Edge Diff,Five Edge Six Edge,,,,,,
null,,html-keyboard-response,1202857,,<p></p>,,,,null,,,,,,,,,,,,,,,,,,,,
854,,shortestpath_phase,1203713,,GW/racine.png,,,,50,GW/huntsville.png,GW/leesburg.png,1,0.8,,,,GW/leesburg.png,,,,,One Edge Diff,Four Edge Five Edge,,,,,,
null,,html-keyboard-response,1204715,,<p></p>,,,,null,,,,,,,,,,,,,,,,,,,,
825.5,,shortestpath_phase,1205542,,GW/newhope.png,,,,49,GW/hanover.png,GW/shreveport.png,0,0.6666666666666666,,,,GW/shreveport.png,,,,,One Edge Diff,Two Edge Three Edge,,,,,,
null,,html-keyboard-response,1206545,,<p></p>,,,,null,,,,,,,,,,,,,,,,,,,,
781.3000000119209,,shortestpath_phase,1207327,,GW/huntsville.png,,,,50,GW/racine.png,GW/hanover.png,1,0.7142857142857143,,,,GW/hanover.png,,,,,Three Edge Diff,Two Edge Five Edge,,,,,,
null,,html-keyboard-response,1208330,,<p></p>,,,,null,,,,,,,,,,,,,,,,,,,,
1227.5,,shortestpath_phase,1209559,,GW/shreveport.png,,,,49,GW/leesburg.png,GW/westpalmbeach.png,1,0.75,,,,GW/leesburg.png,,,,,Two Edge Diff,Three Edge Five Edge,,,,,,
null,,html-keyboard-response,1210562,,<p></p>,,,,null,,,,,,,,,,,,,,,,,,,,
827.3999999761581,,shortestpath_phase,1211390,,GW/cornwall.png,,,,49,GW/peoria.png,GW/boulder.png,0,0.6666666666666666,,,,GW/boulder.png,,,,,Two Edge Diff,Three Edge Five Edge,,,,,,
null,,html-keyboard-response,1212392,,<p></p>,,,,null,,,,,,,,,,,,,,,,,,,,
908.5999999940395,,shortestpath_phase,1213302,,GW/shreveport.png,,,,50,GW/hanover.png,GW/huntsville.png,1,0.7,,,,GW/huntsville.png,,,,,One Edge Diff,Four Edge Five Edge,,,,,,
null,,html-keyboard-response,1214305,,<p></p>,,,,null,,,,,,,,,,,,,,,,,,,,
1090.9000000059605,,shortestpath_phase,1215397,,GW/gatlinburg.png,,,,49,GW/westpalmbeach.png,GW/carmel.png,0,0.6363636363636364,,,,GW/carmel.png,,,,,Three Edge Diff,Two Edge Five Edge,,,,,,
null,,html-keyboard-response,1216400,,<p></p>,,,,null,,,,,,,,,,,,,,,,,,,,
873,,shortestpath_phase,1217275,,GW/shreveport.png,,,,50,GW/hanover.png,GW/boulder.png,1,0.6666666666666666,,,,GW/boulder.png,,,,,Three Edge Diff,Three Edge Six Edge,,,,,,
null,,html-keyboard-response,1218277,,<p></p>,,,,null,,,,,,,,,,,,,,,,,,,,
905.3000000119209,,shortestpath_phase,1219184,,GW/cornwall.png,,,,50,GW/hanover.png,GW/huntsville.png,1,0.6923076923076923,,,,GW/huntsville.png,,,,,One Edge Diff,Five Edge Six Edge,,,,,,
null,,html-keyboard-response,1220186,,<p></p>,,,,null,,,,,,,,,,,,,,,,,,,,
590.5,,shortestpath_phase,1220778,,GW/gatlinburg.png,,,,49,GW/huntsville.png,GW/peoria.png,0,0.6428571428571429,,,,GW/peoria.png,,,,,One Edge Diff,Three Edge Four Edge,,,,,,
null,,html-keyboard-response,1221780,,<p></p>,,,,null,,,,,,,,,,,,,,,,,,,,
413.19999998807907,,shortestpath_phase,1222195,,GW/huntsville.png,,,,49,GW/newhope.png,GW/cornwall.png,1,0.6666666666666666,,,,GW/newhope.png,,,,,Three Edge Diff,Three Edge Six Edge,,,,,,
null,,html-keyboard-response,1223197,,<p></p>,,,,null,,,,,,,,,,,,,,,,,,,,
395.7999999821186,,shortestpath_phase,1223594,,GW/hanover.png,,,,50,GW/boulder.png,GW/shreveport.png,0,0.625,,,,GW/boulder.png,,,,,Two Edge Diff,Three Edge Five Edge,,,,,,
null,,html-keyboard-response,1224596,,<p></p>,,,,null,,,,,,,,,,,,,,,,,,,,
351,,shortestpath_phase,1224948,,GW/racine.png,,,,50,GW/westpalmbeach.png,GW/huntsville.png,1,0.6470588235294118,,,,GW/huntsville.png,,,,,One Edge Diff,Five Edge Six Edge,,,,,,
null,,html-keyboard-response,1225951,,<p></p>,,,,null,,,,,,,,,,,,,,,,,,,,
418.10000002384186,,shortestpath_phase,1226371,,GW/cornwall.png,,,,49,GW/peoria.png,GW/carmel.png,0,0.6111111111111112,,,,GW/carmel.png,,,,,One Edge Diff,Four Edge Five Edge,,,,,,
null,,html-keyboard-response,1227374,,<p></p>,,,,null,,,,,,,,,,,,,,,,,,,,
402.90000000596046,,shortestpath_phase,1227778,,GW/hanover.png,,,,49,GW/racine.png,GW/gatlinburg.png,0,0.5789473684210527,,,,GW/gatlinburg.png,,,,,One Edge Diff,Four Edge Five Edge,,,,,,
null,,html-keyboard-response,1228781,,<p></p>,,,,null,,,,,,,,,,,,,,,,,,,,
484,,shortestpath_phase,1229266,,GW/boulder.png,,,,50,GW/leesburg.png,GW/hanover.png,0,0.55,,,,GW/leesburg.png,,,,,One Edge Diff,Two Edge Three Edge,,,,,,
null,,html-keyboard-response,1230269,,<p></p>,,,,null,,,,,,,,,,,,,,,,,,,,
523.6999999880791,,shortestpath_phase,1230794,,GW/cornwall.png,,,,50,GW/gatlinburg.png,GW/westpalmbeach.png,0,0.5238095238095238,,,,GW/gatlinburg.png,,,,,Four Edge Diff,Two Edge Six Edge,,,,,,
null,,html-keyboard-response,1231797,,<p></p>,,,,null,,,,,,,,,,,,,,,,,,,,
680.8000000119209,,shortestpath_phase,1232479,,GW/racine.png,,,,49,GW/boulder.png,GW/peoria.png,1,0.5454545454545454,,,,GW/boulder.png,,,,,Two Edge Diff,Two Edge Four Edge,,,,,,
null,,html-keyboard-response,1233483,,<p></p>,,,,null,,,,,,,,,,,,,,,,,,,,
488.40000000596046,,shortestpath_phase,1233973,,GW/hotsprings.png,,,,49,GW/hanover.png,GW/leesburg.png,0,0.5217391304347826,,,,GW/leesburg.png,,,,,Two Edge Diff,Two Edge Four Edge,,,,,,
null,,html-keyboard-response,1234975,,<p></p>,,,,null,,,,,,,,,,,,,,,,,,,,
563.6000000238419,,shortestpath_phase,1235541,,GW/racine.png,,,,50,GW/huntsville.png,GW/shreveport.png,1,0.5416666666666666,,,,GW/shreveport.png,,,,,Three Edge Diff,Three Edge Six Edge,,,,,,
null,,html-keyboard-response,1236542,,<p></p>,,,,null,,,,,,,,,,,,,,,,,,,,
531.6000000238419,,shortestpath_phase,1237075,,GW/gatlinburg.png,,,,50,GW/carmel.png,GW/westpalmbeach.png,0,0.52,,,,GW/carmel.png,,,,,Three Edge Diff,Three Edge Six Edge,,,,,,
null,,html-keyboard-response,1238078,,<p></p>,,,,null,,,,,,,,,,,,,,,,,,,,
642.3999999761581,,shortestpath_phase,1238721,,GW/shreveport.png,,,,49,GW/boulder.png,GW/huntsville.png,1,0.5384615384615384,,,,GW/boulder.png,,,,,Two Edge Diff,Two Edge Four Edge,,,,,,
null,,html-keyboard-response,1239724,,<p></p>,,,,null,,,,,,,,,,,,,,,,,,,,
821.3000000119209,,shortestpath_phase,1240546,,GW/cornwall.png,,,,49,GW/hotsprings.png,GW/westpalmbeach.png,1,0.5555555555555556,,,,GW/hotsprings.png,,,,,Four Edge Diff,Two Edge Six Edge,,,,,,
null,,html-keyboard-response,1241549,,<p></p>,,,,null,,,,,,,,,,,,,,,,,,,,
798.5,,shortestpath_phase,1242349,,GW/racine.png,,,,49,GW/shreveport.png,GW/hanover.png,1,0.5714285714285714,,,,GW/shreveport.png,,,,,Three Edge Diff,Two Edge Five Edge,,,,,,
null,,html-keyboard-response,1243351,,<p></p>,,,,null,,,,,,,,,,,,,,,,,,,,
1058.699999988079,,shortestpath_phase,1244411,,GW/hanover.png,,,,49,GW/huntsville.png,GW/racine.png,1,0.5862068965517241,,,,GW/huntsville.png,,,,,Three Edge Diff,Three Edge Six Edge,,,,,,
null,,html-keyboard-response,1245413,,<p></p>,,,,null,,,,,,,,,,,,,,,,,,,,
1814.199999988079,,shortestpath_phase,1247229,,GW/shreveport.png,,,,50,GW/newhope.png,GW/hanover.png,0,0.5666666666666667,,,,GW/newhope.png,,,,,Three Edge Diff,Three Edge Six Edge,,,,,,
null,,html-keyboard-response,1248232,,<p></p>,,,,null,,,,,,,,,,,,,,,,,,,,
899.5,,shortestpath_phase,1249133,,GW/boulder.png,,,,49,GW/racine.png,GW/hanover.png,1,0.5806451612903226,,,,GW/racine.png,,,,,One Edge Diff,Two Edge Three Edge,,,,,,
null,,html-keyboard-response,1250135,,<p></p>,,,,null,,,,,,,,,,,,,,,,,,,,
1483.6000000238419,,shortestpath_phase,1251620,,GW/westpalmbeach.png,,,,49,GW/cornwall.png,GW/peoria.png,0,0.5625,,,,GW/peoria.png,,,,,Four Edge Diff,Two Edge Six Edge,,,,,,
null,,html-keyboard-response,1252623,,<p></p>,,,,null,,,,,,,,,,,,,,,,,,,,
1753.5,,shortestpath_phase,1254378,,GW/racine.png,,,,49,GW/newhope.png,GW/huntsville.png,1,0.5757575757575758,,,,GW/newhope.png,,,,,Two Edge Diff,Three Edge Five Edge,,,,,,
null,,html-keyboard-response,1255380,,<p></p>,,,,null,,,,,,,,,,,,,,,,,,,,
1093.800000011921,,shortestpath_phase,1256476,,GW/cornwall.png,,,,49,GW/westpalmbeach.png,GW/carmel.png,0,0.5588235294117647,,,,GW/carmel.png,,,,,Two Edge Diff,Four Edge Six Edge,,,,,,
null,,html-keyboard-response,1257478,,<p></p>,,,,null,,,,,,,,,,,,,,,,,,,,
965.1999999880791,,shortestpath_phase,1258444,,GW/racine.png,,,,49,GW/westpalmbeach.png,GW/peoria.png,0,0.5428571428571428,,,,GW/peoria.png,,,,,Two Edge Diff,Four Edge Six Edge,,,,,,
null,,html-keyboard-response,1259447,,<p></p>,,,,null,,,,,,,,,,,,,,,,,,,,
1482.0999999940395,,shortestpath_phase,1260930,,GW/huntsville.png,,,,49,GW/carmel.png,GW/cornwall.png,1,0.5555555555555556,,,,GW/carmel.png,,,,,Three Edge Diff,Two Edge Five Edge,,,,,,
null,,html-keyboard-response,1261933,,<p></p>,,,,null,,,,,,,,,,,,,,,,,,,,
1994.8999999761581,,shortestpath_phase,1263929,,GW/racine.png,,,,50,GW/boulder.png,GW/westpalmbeach.png,0,0.5405405405405406,,,,GW/boulder.png,,,,,Four Edge Diff,Two Edge Six Edge,,,,,,
null,,html-keyboard-response,1264932,,<p></p>,,,,null,,,,,,,,,,,,,,,,,,,,
1232.5,,shortestpath_phase,1266166,,GW/hanover.png,,,,50,GW/racine.png,GW/carmel.png,1,0.5526315789473685,,,,GW/carmel.png,,,,,Three Edge Diff,Three Edge Six Edge,,,,,,
null,,html-keyboard-response,1267169,,<p></p>,,,,null,,,,,,,,,,,,,,,,,,,,
1872.0999999940395,,shortestpath_phase,1269043,,GW/gatlinburg.png,,,,50,GW/hotsprings.png,GW/westpalmbeach.png,0,0.5384615384615384,,,,GW/hotsprings.png,,,,,Three Edge Diff,Three Edge Six Edge,,,,,,
null,,html-keyboard-response,1270046,,<p></p>,,,,null,,,,,,,,,,,,,,,,,,,,
1032.5,,shortestpath_phase,1271080,,GW/hanover.png,,,,49,GW/racine.png,GW/leesburg.png,0,0.525,,,,GW/leesburg.png,,,,,Three Edge Diff,Two Edge Five Edge,,,,,,
null,,html-keyboard-response,1272082,,<p></p>,,,,null,,,,,,,,,,,,,,,,,,,,
1123.5999999940395,,shortestpath_phase,1273207,,GW/hotsprings.png,,,,49,GW/hanover.png,GW/carmel.png,0,0.5121951219512195,,,,GW/carmel.png,,,,,One Edge Diff,Three Edge Four Edge,,,,,,
null,,html-keyboard-response,1274209,,<p></p>,,,,null,,,,,,,,,,,,,,,,,,,,
1006.6999999880791,,shortestpath_phase,1275218,,GW/gatlinburg.png,,,,50,GW/hanover.png,GW/westpalmbeach.png,0,0.5,,,,GW/hanover.png,,,,,One Edge Diff,Four Edge Five Edge,,,,,,
null,,html-keyboard-response,1276221,,<p></p>,,,,null,,,,,,,,,,,,,,,,,,,,
1752.5,,shortestpath_phase,1277974,,GW/leesburg.png,,,,49,GW/westpalmbeach.png,GW/cornwall.png,1,0.5116279069767442,,,,GW/westpalmbeach.png,,,,,Two Edge Diff,Two Edge Four Edge,,,,,,
null,,html-keyboard-response,1278977,,<p></p>,,,,null,,,,,,,,,,,,,,,,,,,,
1316.5,,shortestpath_phase,1280295,,GW/cornwall.png,,,,49,GW/gatlinburg.png,GW/hanover.png,1,0.5227272727272727,,,,GW/gatlinburg.png,,,,,Four Edge Diff,Two Edge Six Edge,,,,,,
null,,html-keyboard-response,1281298,,<p></p>,,,,null,,,,,,,,,,,,,,,,,,,,
994.4000000059605,,shortestpath_phase,1282294,,GW/westpalmbeach.png,,,,49,GW/cornwall.png,GW/leesburg.png,0,0.5111111111111111,,,,GW/leesburg.png,,,,,Four Edge Diff,Two Edge Six Edge,,,,,,
null,,html-keyboard-response,1283296,,<p></p>,,,,null,,,,,,,,,,,,,,,,,,,,
260.30000001192093,,shortestpath_phase,1283558,,GW/hanover.png,,,,49,GW/boulder.png,GW/racine.png,1,0.5217391304347826,,,,GW/boulder.png,,,,,Two Edge Diff,Three Edge Five Edge,,,,,,
null,,slowdown_page,1293561,,too_quick,,,,null,,,,,,,,,,,,,,,,,,,,
null,,html-keyboard-response,1294563,,<p></p>,,,,null,,,,,,,,,,,,,,,,,,,,
3597,,shortestpath_phase,1298161,,GW/cornwall.png,,,,50,GW/peoria.png,GW/gatlinburg.png,1,0.5319148936170213,,,,GW/gatlinburg.png,,,,,Three Edge Diff,Two Edge Five Edge,,,,,,
null,,html-keyboard-response,1299165,,<p></p>,,,,null,,,,,,,,,,,,,,,,,,,,
1171.5,,shortestpath_phase,1300337,,GW/shreveport.png,,,,49,GW/westpalmbeach.png,GW/boulder.png,0,0.5208333333333334,,,,GW/boulder.png,,,,,Three Edge Diff,Three Edge Six Edge,,,,,,
null,,html-keyboard-response,1301339,,<p></p>,,,,null,,,,,,,,,,,,,,,,,,,,
1778,,shortestpath_phase,1303119,,GW/racine.png,,,,49,GW/carmel.png,GW/huntsville.png,1,0.5306122448979592,,,,GW/carmel.png,,,,,Two Edge Diff,Three Edge Five Edge,,,,,,
null,,html-keyboard-response,1304122,,<p></p>,,,,null,,,,,,,,,,,,,,,,,,,,
914.7999999821186,,shortestpath_phase,1305038,,GW/westpalmbeach.png,,,,50,GW/shreveport.png,GW/racine.png,0,0.52,,,,GW/shreveport.png,,,,,One Edge Diff,Five Edge Six Edge,,,,,,
null,,html-keyboard-response,1306041,,<p></p>,,,,null,,,,,,,,,,,,,,,,,,,,
1811.300000011921,,shortestpath_phase,1307854,,GW/cornwall.png,,,,50,GW/hanover.png,GW/leesburg.png,1,0.5294117647058824,,,,GW/leesburg.png,,,,,Two Edge Diff,Four Edge Six Edge,,,,,,
null,,html-keyboard-response,1308856,,<p></p>,,,,null,,,,,,,,,,,,,,,,,,,,
1202.699999988079,,shortestpath_phase,1310060,,GW/boulder.png,,,,50,GW/westpalmbeach.png,GW/huntsville.png,1,0.5384615384615384,,,,GW/huntsville.png,,,,,One Edge Diff,Three Edge Four Edge,,,,,,
null,,html-keyboard-response,1311063,,<p></p>,,,,null,,,,,,,,,,,,,,,,,,,,
2743.5,,shortestpath_phase,1313808,,GW/hanover.png,,,,49,GW/gatlinburg.png,GW/cornwall.png,1,0.5471698113207547,,,,GW/gatlinburg.png,,,,,Two Edge Diff,Four Edge Six Edge,,,,,,
null,,html-keyboard-response,1314811,,<p></p>,,,,null,,,,,,,,,,,,,,,,,,,,
995.1999999880791,,shortestpath_phase,1315808,,GW/racine.png,,,,50,GW/shreveport.png,GW/westpalmbeach.png,0,0.5370370370370371,,,,GW/shreveport.png,,,,,Four Edge Diff,Two Edge Six Edge,,,,,,
null,,html-keyboard-response,1316810,,<p></p>,,,,null,,,,,,,,,,,,,,,,,,,,
851.0999999940395,,shortestpath_phase,1317662,,GW/huntsville.png,,,,49,GW/hanover.png,GW/shreveport.png,1,0.5454545454545454,,,,GW/hanover.png,,,,,Two Edge Diff,Two Edge Four Edge,,,,,,
null,,html-keyboard-response,1318665,,<p></p>,,,,null,,,,,,,,,,,,,,,,,,,,
1403.8999999761581,,shortestpath_phase,1320071,,GW/gatlinburg.png,,,,49,GW/westpalmbeach.png,GW/hotsprings.png,0,0.5357142857142857,,,,GW/hotsprings.png,,,,,Three Edge Diff,Two Edge Five Edge,,,,,,
null,,html-keyboard-response,1321073,,<p></p>,,,,null,,,,,,,,,,,,,,,,,,,,
915.4000000059605,,shortestpath_phase,1321990,,GW/huntsville.png,,,,49,GW/hanover.png,GW/cornwall.png,1,0.543859649122807,,,,GW/hanover.png,,,,,Three Edge Diff,Two Edge Five Edge,,,,,,
null,,html-keyboard-response,1322992,,<p></p>,,,,null,,,,,,,,,,,,,,,,,,,,
1687.9000000059605,,shortestpath_phase,1324681,,GW/racine.png,,,,50,GW/peoria.png,GW/cornwall.png,1,0.5517241379310345,,,,GW/cornwall.png,,,,,One Edge Diff,Three Edge Four Edge,,,,,,
null,,html-keyboard-response,1325684,,<p></p>,,,,null,,,,,,,,,,,,,,,,,,,,
1111.699999988079,,shortestpath_phase,1326797,,GW/hanover.png,,,,49,GW/newhope.png,GW/huntsville.png,0,0.5423728813559322,,,,GW/huntsville.png,,,,,One Edge Diff,Two Edge Three Edge,,,,,,
null,,html-keyboard-response,1327801,,<p></p>,,,,null,,,,,,,,,,,,,,,,,,,,
2526.600000023842,,shortestpath_phase,1330329,,GW/racine.png,,,,50,GW/cornwall.png,GW/shreveport.png,1,0.55,,,,GW/shreveport.png,,,,,One Edge Diff,Two Edge Three Edge,,,,,,
null,,html-keyboard-response,1331331,,<p></p>,,,,null,,,,,,,,,,,,,,,,,,,,
794.5999999940395,,shortestpath_phase,1332127,,GW/hanover.png,,,,49,GW/carmel.png,GW/shreveport.png,1,0.5573770491803278,,,,GW/carmel.png,,,,,Three Edge Diff,Three Edge Six Edge,,,,,,
null,,html-keyboard-response,1333130,,<p></p>,,,,null,,,,,,,,,,,,,,,,,,,,
459.09999999403954,,shortestpath_phase,1333590,,GW/westpalmbeach.png,,,,50,GW/boulder.png,GW/cornwall.png,0,0.5483870967741935,,,,GW/boulder.png,,,,,Two Edge Diff,Four Edge Six Edge,,,,,,
null,,html-keyboard-response,1334593,,<p></p>,,,,null,,,,,,,,,,,,,,,,,,,,
410.09999999403954,,shortestpath_phase,1335005,,GW/shreveport.png,,,,50,GW/leesburg.png,GW/huntsville.png,0,0.5396825396825397,,,,GW/leesburg.png,,,,,One Edge Diff,Three Edge Four Edge,,,,,,
null,,html-keyboard-response,1336007,,<p></p>,,,,null,,,,,,,,,,,,,,,,,,,,
349.2000000178814,,shortestpath_phase,1336358,,GW/peoria.png,,,,49,GW/cornwall.png,GW/westpalmbeach.png,0,0.53125,,,,GW/westpalmbeach.png,,,,,Three Edge Diff,Two Edge Five Edge,,,,,,
null,,html-keyboard-response,1337360,,<p></p>,,,,null,,,,,,,,,,,,,,,,,,,,
670.1999999880791,,shortestpath_phase,1338032,,GW/shreveport.png,,,,50,GW/westpalmbeach.png,GW/newhope.png,1,0.5384615384615384,,,,GW/newhope.png,,,,,Three Edge Diff,Three Edge Six Edge,,,,,,
null,,html-keyboard-response,1339034,,<p></p>,,,,null,,,,,,,,,,,,,,,,,,,,
491.40000000596046,,shortestpath_phase,1339527,,GW/westpalmbeach.png,,,,49,GW/gatlinburg.png,GW/racine.png,1,0.5454545454545454,,,,GW/gatlinburg.png,,,,,One Edge Diff,Five Edge Six Edge,,,,,,
null,,html-keyboard-response,1340529,,<p></p>,,,,null,,,,,,,,,,,,,,,,,,,,
748.1999999880791,,shortestpath_phase,1341279,,GW/leesburg.png,,,,49,GW/cornwall.png,GW/hanover.png,0,0.5373134328358209,,,,GW/hanover.png,,,,,Two Edge Diff,Two Edge Four Edge,,,,,,
null,,html-keyboard-response,1342282,,<p></p>,,,,null,,,,,,,,,,,,,,,,,,,,
802.7000000178814,,shortestpath_phase,1343086,,GW/huntsville.png,,,,50,GW/racine.png,GW/newhope.png,1,0.5441176470588235,,,,GW/newhope.png,,,,,Three Edge Diff,Two Edge Five Edge,,,,,,
null,,html-keyboard-response,1344088,,<p></p>,,,,null,,,,,,,,,,,,,,,,,,,,
950.0999999940395,,shortestpath_phase,1345040,,GW/peoria.png,,,,50,GW/cornwall.png,GW/westpalmbeach.png,1,0.5507246376811594,,,,GW/westpalmbeach.png,,,,,Three Edge Diff,Three Edge Six Edge,,,,,,
null,,html-keyboard-response,1346041,,<p></p>,,,,null,,,,,,,,,,,,,,,,,,,,
1036.1000000238419,,shortestpath_phase,1347078,,GW/cornwall.png,,,,49,GW/hanover.png,GW/carmel.png,0,0.5428571428571428,,,,GW/carmel.png,,,,,Two Edge Diff,Four Edge Six Edge,,,,,,
null,,html-keyboard-response,1348081,,<p></p>,,,,null,,,,,,,,,,,,,,,,,,,,
954.6999999880791,,shortestpath_phase,1349038,,GW/huntsville.png,,,,49,GW/gatlinburg.png,GW/boulder.png,0,0.5352112676056338,,,,GW/boulder.png,,,,,One Edge Diff,Three Edge Four Edge,,,,,,
null,,html-keyboard-response,1350041,,<p></p>,,,,null,,,,,,,,,,,,,,,,,,,,
624.5,,shortestpath_phase,1350666,,GW/cornwall.png,,,,50,GW/westpalmbeach.png,GW/peoria.png,1,0.5416666666666666,,,,GW/peoria.png,,,,,One Edge Diff,Five Edge Six Edge,,,,,,
null,,html-keyboard-response,1351668,,<p></p>,,,,null,,,,,,,,,,,,,,,,,,,,
619.5,,shortestpath_phase,1352288,,GW/hanover.png,,,,50,GW/carmel.png,GW/hotsprings.png,0,0.5342465753424658,,,,GW/carmel.png,,,,,Two Edge Diff,Two Edge Four Edge,,,,,,
null,,html-keyboard-response,1353292,,<p></p>,,,,null,,,,,,,,,,,,,,,,,,,,
655.7999999821186,,shortestpath_phase,1353949,,GW/westpalmbeach.png,,,,50,GW/peoria.png,GW/gatlinburg.png,0,0.527027027027027,,,,GW/peoria.png,,,,,Three Edge Diff,Two Edge Five Edge,,,,,,
null,,html-keyboard-response,1354952,,<p></p>,,,,null,,,,,,,,,,,,,,,,,,,,
505.10000002384186,,shortestpath_phase,1355459,,GW/hotsprings.png,,,,49,GW/hanover.png,GW/boulder.png,0,0.52,,,,GW/boulder.png,,,,,Two Edge Diff,Two Edge Four Edge,,,,,,
null,,html-keyboard-response,1356462,,<p></p>,,,,null,,,,,,,,,,,,,,,,,,,,
495.80000001192093,,shortestpath_phase,1356959,,GW/hanover.png,,,,49,GW/cornwall.png,GW/huntsville.png,0,0.5131578947368421,,,,GW/huntsville.png,,,,,Four Edge Diff,Two Edge Six Edge,,,,,,
null,,html-keyboard-response,1357961,,<p></p>,,,,null,,,,,,,,,,,,,,,,,,,,
747.5,,shortestpath_phase,1358709,,GW/gatlinburg.png,,,,50,GW/newhope.png,GW/westpalmbeach.png,0,0.5064935064935064,,,,GW/newhope.png,,,,,Three Edge Diff,Two Edge Five Edge,,,,,,
null,,html-keyboard-response,1359713,,<p></p>,,,,null,,,,,,,,,,,,,,,,,,,,
1110.699999988079,,shortestpath_phase,1360825,,GW/hanover.png,,,,50,GW/cornwall.png,GW/carmel.png,1,0.5128205128205128,,,,GW/carmel.png,,,,,Four Edge Diff,Two Edge Six Edge,,,,,,
null,,html-keyboard-response,1361828,,<p></p>,,,,null,,,,,,,,,,,,,,,,,,,,
983.5,,shortestpath_phase,1362813,,GW/racine.png,,,,49,GW/leesburg.png,GW/westpalmbeach.png,1,0.5189873417721519,,,,GW/leesburg.png,,,,,Two Edge Diff,Four Edge Six Edge,,,,,,
null,,html-keyboard-response,1363816,,<p></p>,,,,null,,,,,,,,,,,,,,,,,,,,
942.6999999880791,,shortestpath_phase,1364760,,GW/peoria.png,,,,50,GW/gatlinburg.png,GW/cornwall.png,0,0.5125,,,,GW/gatlinburg.png,,,,,Two Edge Diff,Three Edge Five Edge,,,,,,
null,,html-keyboard-response,1365762,,<p></p>,,,,null,,,,,,,,,,,,,,,,,,,,
432.90000000596046,,shortestpath_phase,1366197,,GW/westpalmbeach.png,,,,50,GW/leesburg.png,GW/racine.png,0,0.5061728395061729,,,,GW/leesburg.png,,,,,Four Edge Diff,Two Edge Six Edge,,,,,,
null,,html-keyboard-response,1367200,,<p></p>,,,,null,,,,,,,,,,,,,,,,,,,,
661.0999999940395,,shortestpath_phase,1367862,,GW/cornwall.png,,,,50,GW/hotsprings.png,GW/hanover.png,0,0.5,,,,GW/hotsprings.png,,,,,Four Edge Diff,Two Edge Six Edge,,,,,,
null,,html-keyboard-response,1368864,,<p></p>,,,,null,,,,,,,,,,,,,,,,,,,,
73.59999999403954,,shortestpath_phase,1368939,,GW/westpalmbeach.png,,,,49,GW/boulder.png,GW/racine.png,1,0.5060240963855421,,,,GW/boulder.png,,,,,Two Edge Diff,Four Edge Six Edge,,,,,,
null,,slowdown_page,1378942,,too_quick,,,,null,,,,,,,,,,,,,,,,,,,,
null,,html-keyboard-response,1379945,,<p></p>,,,,null,,,,,,,,,,,,,,,,,,,,
4655.5,,shortestpath_phase,1384602,,GW/cornwall.png,,,,50,GW/leesburg.png,GW/peoria.png,0,0.5,,,,GW/leesburg.png,,,,,One Edge Diff,Four Edge Five Edge,,,,,,
null,,html-keyboard-response,1385604,,<p></p>,,,,null,,,,,,,,,,,,,,,,,,,,
8400.09999999404,,intro_1,1394006,,instruct,,0,,,,,,,,,,,,,,,,,,,,,,
6192.200000017881,,intro_2,1400200,,instruct,,1,Next,,,,,,,,,,,,,,,,,,,,,
