rt,responses,trial_type,time_elapsed,sequence,stimulus,graphorder,button_pressed,response,key_press,stimulus_left,stimulus_right,accuracy,cumulative_accuracy,stimulus_down_left,stimulus_down_mid,stimulus_down_right,stimulus_correct,stimulus_short,stimulus_far,weighted_accuracy,missedtrial,condition,specific_pairs,imgL_ID,imgR_ID,linedress,linedressed,linedressed_detor,detour_trial
37410.19999999995,{worker_id:5ba5d8b960f3d50001697104},id_enter,37414,interleaved,replication,GW/newhope.png; GW/gatlinburg.png; GW/cornwall.png; GW/racine.png; GW/boulder.png; GW/hotsprings.png; GW/shreveport.png; GW/peoria.png; GW/huntsville.png; GW/westpalmbeach.png; GW/leesburg.png; GW/carmel.png; GW/hanover.png,,,,,,,,,,,,,,,,,,,,,,,
58791.80000000005,,fullscreen,96213,,fullscreen,,0,,,,,,,,,,,,,,,,,,,,,,
65715.79999999981,,intro_1,161932,,instruct,,0,,,,,,,,,,,,,,,,,,,,,,
41193.30000000005,,intro_2,203128,,instruct,,1,Next,,,,,,,,,,,,,,,,,,,,,
27804.899999999907,,intro_3,230935,,instruct,,1,Next,,,,,,,,,,,,,,,,,,,,,
null,,learn_prac_1,233946,,lean_prac_1,,,,null,,,,,,,,,,,,,,,,,,,,
null,,html-keyboard-response,234952,,<p></p>,,,,null,,,,,,,,,,,,,,,,,,,,
5290.800000000047,,intro_1,240243,,instruct,,0,,,,,,,,,,,,,,,,,,,,,,
10091.300000000047,,intro_2,250337,,instruct,,1,Next,,,,,,,,,,,,,,,,,,,,,
null,,learn_prac_2,253344,,lean_prac_2,,,,null,,,,,,,,,,,,,,,,,,,,
null,,html-keyboard-response,254351,,<p></p>,,,,null,,,,,,,,,,,,,,,,,,,,
3499,,intro_1,257851,,instruct,,0,,,,,,,,,,,,,,,,,,,,,,
5086.5,,intro_2,262940,,instruct,,1,Next,,,,,,,,,,,,,,,,,,,,,
44958.30000000005,,intro_3,307900,,instruct,,1,Next,,,,,,,,,,,,,,,,,,,,,
null,,prac_atten_color_black,308840,,black_plus_sign,,,,null,,,,,,,,,,,,,,,,,,,,
null,,prac_atten_color,309313,,prac_stop_color,,,,null,,,,,,,,,,,,,,,,,,,,
510.80000000004657,,prac_atten_color_black,311320,,black_plus_sign,,,,49,,,,,,,,,,,,,,,,,,,,
null,,prac_atten_color_black,312256,,black_plus_sign,,,,null,,,,,,,,,,,,,,,,,,,,
null,,prac_atten_color,313034,,prac_stop_color,,,,null,,,,,,,,,,,,,,,,,,,,
73,,prac_atten_color_black,315042,,black_plus_sign,,,,50,,,,,,,,,,,,,,,,,,,,
null,,prac_atten_color_black,315680,,black_plus_sign,,,,null,,,,,,,,,,,,,,,,,,,,
687,,prac_atten_color,316600,,prac_stop_color,,,,50,,,,,,,,,,,,,,,,,,,,
null,,prac_atten_color_black,318613,,black_plus_sign,,,,null,,,,,,,,,,,,,,,,,,,,
null,,prac_atten_color_black,319107,,black_plus_sign,,,,null,,,,,,,,,,,,,,,,,,,,
null,,prac_atten_color,319578,,prac_stop_color,,,,null,,,,,,,,,,,,,,,,,,,,
162.19999999995343,,prac_atten_color_black,321586,,black_plus_sign,,,,49,,,,,,,,,,,,,,,,,,,,
null,,prac_atten_color_black,322527,,black_plus_sign,,,,null,,,,,,,,,,,,,,,,,,,,
758.0999999998603,,prac_atten_color,323450,,prac_stop_color,,,,50,,,,,,,,,,,,,,,,,,,,
null,,prac_atten_color_black,325458,,black_plus_sign,,,,null,,,,,,,,,,,,,,,,,,,,
null,,prac_atten_color_black,325957,,black_plus_sign,,,,null,,,,,,,,,,,,,,,,,,,,
null,,prac_atten_color,326381,,prac_stop_color,,,,null,,,,,,,,,,,,,,,,,,,,
179.4000000001397,,prac_atten_color_black,328388,,black_plus_sign,,,,50,,,,,,,,,,,,,,,,,,,,
null,,prac_atten_color_black,329382,,black_plus_sign,,,,null,,,,,,,,,,,,,,,,,,,,
488.4000000001397,,prac_atten_color,330272,,prac_stop_color,,,,49,,,,,,,,,,,,,,,,,,,,
null,,prac_atten_color_black,332287,,black_plus_sign,,,,null,,,,,,,,,,,,,,,,,,,,
null,,prac_atten_color_black,332813,,black_plus_sign,,,,null,,,,,,,,,,,,,,,,,,,,
714.5,,prac_atten_color,333585,,prac_stop_color,,,,50,,,,,,,,,,,,,,,,,,,,
null,,prac_atten_color_black,335591,,black_plus_sign,,,,null,,,,,,,,,,,,,,,,,,,,
null,,prac_atten_color_black,336240,,black_plus_sign,,,,null,,,,,,,,,,,,,,,,,,,,
null,,prac_atten_color,336793,,prac_stop_color,,,,null,,,,,,,,,,,,,,,,,,,,
153.80000000004657,,prac_atten_color_black,338802,,black_plus_sign,,,,49,,,,,,,,,,,,,,,,,,,,
null,,prac_atten_color_black,339667,,black_plus_sign,,,,null,,,,,,,,,,,,,,,,,,,,
616.1000000000931,,prac_atten_color,340612,,prac_stop_color,,,,49,,,,,,,,,,,,,,,,,,,,
null,,prac_atten_color_black,342621,,black_plus_sign,,,,null,,,,,,,,,,,,,,,,,,,,
12174.699999999953,,attentioncheck_feedback,354804,,cross_check_feedback,,0,,,,,,,,,,,,,,,,,,,,,,
58705.19999999995,,last_instruct,413517,,instruct,,,,32,,,,,,,,,,,,,,,,,,,,
null,,learn_phase(without_color),416523,,black_plus_sign,,,,null,GW/hanover.png,GW/shreveport.png,,,,,,,,,,,,,,,,,,
null,,black_cross(without_color),417246,,blue,,,,null,GW/hanover.png,GW/shreveport.png,,,,,,,,,,,,,,,,,,
null,,rt_plussign_withcolor,417747,,blue,,,,null,GW/hanover.png,GW/shreveport.png,,,,,,,,,,,,,,,,,,
1079.8999999999069,,rt_thecrossant_black,419045,,black_plus_sign,,,,49,,,1,1,,,,,,,,,,,,,,,,
null,,color_black,419147,,black_plus_sign,,,,null,,,,,,,,,,,,,,,,,,,,
null,,learn_phase(without_color),422157,,black_plus_sign,,,,null,GW/peoria.png,GW/huntsville.png,,,,,,,,,,,,,,,,,,
null,,black_cross(without_color),423139,,blue,,,,null,GW/peoria.png,GW/huntsville.png,,,,,,,,,,,,,,,,,,
null,,rt_plussign_withcolor,423643,,blue,,,,null,GW/peoria.png,GW/huntsville.png,,,,,,,,,,,,,,,,,,
1113.2000000001863,,rt_thecrossant_black,424671,,black_plus_sign,,,,49,,,1,1,,,,,,,,,,,,,,,,
null,,color_black,424781,,black_plus_sign,,,,null,,,,,,,,,,,,,,,,,,,,
null,,learn_phase(without_color),427788,,black_plus_sign,,,,null,GW/hotsprings.png,GW/shreveport.png,,,,,,,,,,,,,,,,,,
null,,black_cross(without_color),428403,,blue,,,,null,GW/hotsprings.png,GW/shreveport.png,,,,,,,,,,,,,,,,,,
null,,rt_plussign_withcolor,428909,,blue,,,,null,GW/hotsprings.png,GW/shreveport.png,,,,,,,,,,,,,,,,,,
1519.7999999998137,,rt_thecrossant_black,430308,,black_plus_sign,,,,49,,,1,1,,,,,,,,,,,,,,,,
null,,color_black,430412,,black_plus_sign,,,,null,,,,,,,,,,,,,,,,,,,,
null,,learn_phase(without_color),433421,,black_plus_sign,,,,null,GW/leesburg.png,GW/huntsville.png,,,,,,,,,,,,,,,,,,
null,,black_cross(without_color),434492,,blue,,,,null,GW/leesburg.png,GW/huntsville.png,,,,,,,,,,,,,,,,,,
null,,rt_plussign_withcolor,434996,,blue,,,,null,GW/leesburg.png,GW/huntsville.png,,,,,,,,,,,,,,,,,,
870,,rt_thecrossant_black,435940,,black_plus_sign,,,,49,,,1,1,,,,,,,,,,,,,,,,
null,,color_black,436044,,black_plus_sign,,,,null,,,,,,,,,,,,,,,,,,,,
null,,learn_phase(without_color),439052,,black_plus_sign,,,,null,GW/cornwall.png,GW/gatlinburg.png,,,,,,,,,,,,,,,,,,
null,,black_cross(without_color),439792,,yellow,,,,null,GW/cornwall.png,GW/gatlinburg.png,,,,,,,,,,,,,,,,,,
null,,rt_plussign_withcolor,440299,,yellow,,,,null,GW/cornwall.png,GW/gatlinburg.png,,,,,,,,,,,,,,,,,,
1327.1000000000931,,rt_thecrossant_black,441575,,black_plus_sign,,,,50,,,1,1,,,,,,,,,,,,,,,,
null,,color_black,441685,,black_plus_sign,,,,null,,,,,,,,,,,,,,,,,,,,
null,,learn_phase(without_color),444692,,black_plus_sign,,,,null,GW/huntsville.png,GW/shreveport.png,,,,,,,,,,,,,,,,,,
null,,black_cross(without_color),445324,,yellow,,,,null,GW/huntsville.png,GW/shreveport.png,,,,,,,,,,,,,,,,,,
null,,rt_plussign_withcolor,445828,,yellow,,,,null,GW/huntsville.png,GW/shreveport.png,,,,,,,,,,,,,,,,,,
1069.8999999999069,,rt_thecrossant_black,447212,,black_plus_sign,,,,50,,,1,1,,,,,,,,,,,,,,,,
null,,color_black,447316,,black_plus_sign,,,,null,,,,,,,,,,,,,,,,,,,,
null,,learn_phase(without_color),450324,,black_plus_sign,,,,null,GW/leesburg.png,GW/huntsville.png,,,,,,,,,,,,,,,,,,
null,,black_cross(without_color),451260,,blue,,,,null,GW/leesburg.png,GW/huntsville.png,,,,,,,,,,,,,,,,,,
456.10000000009313,,rt_plussign_withcolor,451764,,blue,,,,49,GW/leesburg.png,GW/huntsville.png,,,,,,,,,,,,,,,,,,
null,,rt_thecrossant_black,452844,,black_plus_sign,,,,null,,,1,1,,,,,,,,,,,,,,,,
null,,color_black,452948,,black_plus_sign,,,,null,,,,,,,,,,,,,,,,,,,,
null,,learn_phase(without_color),455957,,black_plus_sign,,,,null,GW/peoria.png,GW/westpalmbeach.png,,,,,,,,,,,,,,,,,,
null,,black_cross(without_color),456580,,blue,,,,null,GW/peoria.png,GW/westpalmbeach.png,,,,,,,,,,,,,,,,,,
null,,rt_plussign_withcolor,457084,,blue,,,,null,GW/peoria.png,GW/westpalmbeach.png,,,,,,,,,,,,,,,,,,
1182,,rt_thecrossant_black,458471,,black_plus_sign,,,,49,,,1,1,,,,,,,,,,,,,,,,
null,,color_black,458580,,black_plus_sign,,,,null,,,,,,,,,,,,,,,,,,,,
null,,learn_phase(without_color),461591,,black_plus_sign,,,,null,GW/carmel.png,GW/leesburg.png,,,,,,,,,,,,,,,,,,
null,,black_cross(without_color),462294,,blue,,,,null,GW/carmel.png,GW/leesburg.png,,,,,,,,,,,,,,,,,,
null,,rt_plussign_withcolor,462799,,blue,,,,null,GW/carmel.png,GW/leesburg.png,,,,,,,,,,,,,,,,,,
914,,rt_thecrossant_black,464117,,black_plus_sign,,,,49,,,1,1,,,,,,,,,,,,,,,,
null,,color_black,464221,,black_plus_sign,,,,null,,,,,,,,,,,,,,,,,,,,
null,,learn_phase(without_color),467229,,black_plus_sign,,,,null,GW/leesburg.png,GW/cornwall.png,,,,,,,,,,,,,,,,,,
null,,black_cross(without_color),467972,,yellow,,,,null,GW/leesburg.png,GW/cornwall.png,,,,,,,,,,,,,,,,,,
null,,rt_plussign_withcolor,468479,,yellow,,,,null,GW/leesburg.png,GW/cornwall.png,,,,,,,,,,,,,,,,,,
986.3000000002794,,rt_thecrossant_black,469749,,black_plus_sign,,,,50,,,1,1,,,,,,,,,,,,,,,,
null,,color_black,469853,,black_plus_sign,,,,null,,,,,,,,,,,,,,,,,,,,
null,,learn_phase(without_color),472861,,black_plus_sign,,,,null,GW/shreveport.png,GW/hotsprings.png,,,,,,,,,,,,,,,,,,
null,,black_cross(without_color),473916,,blue,,,,null,GW/shreveport.png,GW/hotsprings.png,,,,,,,,,,,,,,,,,,
null,,rt_plussign_withcolor,474421,,blue,,,,null,GW/shreveport.png,GW/hotsprings.png,,,,,,,,,,,,,,,,,,
1154.6999999997206,,rt_thecrossant_black,475372,,black_plus_sign,,,,49,,,1,1,,,,,,,,,,,,,,,,
null,,color_black,475477,,black_plus_sign,,,,null,,,,,,,,,,,,,,,,,,,,
null,,learn_phase(without_color),478485,,black_plus_sign,,,,null,GW/racine.png,GW/gatlinburg.png,,,,,,,,,,,,,,,,,,
null,,black_cross(without_color),479293,,blue,,,,null,GW/racine.png,GW/gatlinburg.png,,,,,,,,,,,,,,,,,,
null,,rt_plussign_withcolor,479798,,blue,,,,null,GW/racine.png,GW/gatlinburg.png,,,,,,,,,,,,,,,,,,
1366.3999999999069,,rt_thecrossant_black,480998,,black_plus_sign,,,,49,,,1,1,,,,,,,,,,,,,,,,
null,,color_black,481101,,black_plus_sign,,,,null,,,,,,,,,,,,,,,,,,,,
null,,learn_phase(without_color),484109,,black_plus_sign,,,,null,GW/shreveport.png,GW/huntsville.png,,,,,,,,,,,,,,,,,,
null,,black_cross(without_color),484877,,yellow,,,,null,GW/shreveport.png,GW/huntsville.png,,,,,,,,,,,,,,,,,,
null,,rt_plussign_withcolor,485381,,yellow,,,,null,GW/shreveport.png,GW/huntsville.png,,,,,,,,,,,,,,,,,,
1081.5,,rt_thecrossant_black,486629,,black_plus_sign,,,,50,,,1,1,,,,,,,,,,,,,,,,
null,,color_black,486733,,black_plus_sign,,,,null,,,,,,,,,,,,,,,,,,,,
null,,learn_phase(without_color),489742,,black_plus_sign,,,,null,GW/peoria.png,GW/shreveport.png,,,,,,,,,,,,,,,,,,
null,,black_cross(without_color),490248,,blue,,,,null,GW/peoria.png,GW/shreveport.png,,,,,,,,,,,,,,,,,,
null,,rt_plussign_withcolor,490750,,blue,,,,null,GW/peoria.png,GW/shreveport.png,,,,,,,,,,,,,,,,,,
930.3999999999069,,rt_thecrossant_black,492261,,black_plus_sign,,,,49,,,1,1,,,,,,,,,,,,,,,,
null,,color_black,492365,,black_plus_sign,,,,null,,,,,,,,,,,,,,,,,,,,
null,,learn_phase(without_color),495373,,black_plus_sign,,,,null,GW/newhope.png,GW/gatlinburg.png,,,,,,,,,,,,,,,,,,
null,,black_cross(without_color),496325,,yellow,,,,null,GW/newhope.png,GW/gatlinburg.png,,,,,,,,,,,,,,,,,,
null,,rt_plussign_withcolor,496833,,yellow,,,,null,GW/newhope.png,GW/gatlinburg.png,,,,,,,,,,,,,,,,,,
670.8000000002794,,rt_thecrossant_black,497886,,black_plus_sign,,,,50,,,1,1,,,,,,,,,,,,,,,,
null,,color_black,497990,,black_plus_sign,,,,null,,,,,,,,,,,,,,,,,,,,
null,,learn_phase(without_color),500998,,black_plus_sign,,,,null,GW/huntsville.png,GW/peoria.png,,,,,,,,,,,,,,,,,,
null,,black_cross(without_color),501682,,blue,,,,null,GW/huntsville.png,GW/peoria.png,,,,,,,,,,,,,,,,,,
null,,rt_plussign_withcolor,502191,,blue,,,,null,GW/huntsville.png,GW/peoria.png,,,,,,,,,,,,,,,,,,
1605.6999999997206,,rt_thecrossant_black,503529,,black_plus_sign,,,,49,,,1,1,,,,,,,,,,,,,,,,
null,,color_black,503639,,black_plus_sign,,,,null,,,,,,,,,,,,,,,,,,,,
null,,learn_phase(without_color),506647,,black_plus_sign,,,,null,GW/boulder.png,GW/racine.png,,,,,,,,,,,,,,,,,,
null,,black_cross(without_color),507111,,yellow,,,,null,GW/boulder.png,GW/racine.png,,,,,,,,,,,,,,,,,,
null,,rt_plussign_withcolor,507615,,yellow,,,,null,GW/boulder.png,GW/racine.png,,,,,,,,,,,,,,,,,,
908,,rt_thecrossant_black,509166,,black_plus_sign,,,,50,,,1,1,,,,,,,,,,,,,,,,
null,,color_black,509270,,black_plus_sign,,,,null,,,,,,,,,,,,,,,,,,,,
null,,learn_phase(without_color),512283,,black_plus_sign,,,,null,GW/shreveport.png,GW/hotsprings.png,,,,,,,,,,,,,,,,,,
null,,black_cross(without_color),512881,,blue,,,,null,GW/shreveport.png,GW/hotsprings.png,,,,,,,,,,,,,,,,,,
null,,rt_plussign_withcolor,513386,,blue,,,,null,GW/shreveport.png,GW/hotsprings.png,,,,,,,,,,,,,,,,,,
589,,rt_thecrossant_black,514808,,black_plus_sign,,,,49,,,1,1,,,,,,,,,,,,,,,,
null,,color_black,514923,,black_plus_sign,,,,null,,,,,,,,,,,,,,,,,,,,
null,,learn_phase(without_color),517926,,black_plus_sign,,,,null,GW/hotsprings.png,GW/shreveport.png,,,,,,,,,,,,,,,,,,
null,,black_cross(without_color),518622,,blue,,,,null,GW/hotsprings.png,GW/shreveport.png,,,,,,,,,,,,,,,,,,
null,,rt_plussign_withcolor,519128,,blue,,,,null,GW/hotsprings.png,GW/shreveport.png,,,,,,,,,,,,,,,,,,
827.2000000001863,,rt_thecrossant_black,520451,,black_plus_sign,,,,49,,,1,1,,,,,,,,,,,,,,,,
null,,color_black,520562,,black_plus_sign,,,,null,,,,,,,,,,,,,,,,,,,,
null,,learn_phase(without_color),523569,,black_plus_sign,,,,null,GW/peoria.png,GW/shreveport.png,,,,,,,,,,,,,,,,,,
null,,black_cross(without_color),524466,,blue,,,,null,GW/peoria.png,GW/shreveport.png,,,,,,,,,,,,,,,,,,
null,,rt_plussign_withcolor,524968,,blue,,,,null,GW/peoria.png,GW/shreveport.png,,,,,,,,,,,,,,,,,,
894,,rt_thecrossant_black,526088,,black_plus_sign,,,,49,,,1,1,,,,,,,,,,,,,,,,
null,,color_black,526192,,black_plus_sign,,,,null,,,,,,,,,,,,,,,,,,,,
null,,learn_phase(without_color),529200,,black_plus_sign,,,,null,GW/leesburg.png,GW/huntsville.png,,,,,,,,,,,,,,,,,,
null,,black_cross(without_color),529873,,blue,,,,null,GW/leesburg.png,GW/huntsville.png,,,,,,,,,,,,,,,,,,
null,,rt_plussign_withcolor,530378,,blue,,,,null,GW/leesburg.png,GW/huntsville.png,,,,,,,,,,,,,,,,,,
2036,,rt_thecrossant_black,531719,,black_plus_sign,,,,49,,,1,1,,,,,,,,,,,,,,,,
null,,color_black,531823,,black_plus_sign,,,,null,,,,,,,,,,,,,,,,,,,,
null,,learn_phase(without_color),534831,,black_plus_sign,,,,null,GW/cornwall.png,GW/hotsprings.png,,,,,,,,,,,,,,,,,,
null,,black_cross(without_color),535800,,blue,,,,null,GW/cornwall.png,GW/hotsprings.png,,,,,,,,,,,,,,,,,,
null,,rt_plussign_withcolor,536305,,blue,,,,null,GW/cornwall.png,GW/hotsprings.png,,,,,,,,,,,,,,,,,,
773.1000000000931,,rt_thecrossant_black,537356,,black_plus_sign,,,,49,,,1,1,,,,,,,,,,,,,,,,
null,,color_black,537466,,black_plus_sign,,,,null,,,,,,,,,,,,,,,,,,,,
null,,learn_phase(without_color),540474,,black_plus_sign,,,,null,GW/carmel.png,GW/leesburg.png,,,,,,,,,,,,,,,,,,
null,,black_cross(without_color),540908,,yellow,,,,null,GW/carmel.png,GW/leesburg.png,,,,,,,,,,,,,,,,,,
null,,rt_plussign_withcolor,541419,,yellow,,,,null,GW/carmel.png,GW/leesburg.png,,,,,,,,,,,,,,,,,,
1162.5,,rt_thecrossant_black,543010,,black_plus_sign,,,,50,,,1,1,,,,,,,,,,,,,,,,
null,,color_black,543120,,black_plus_sign,,,,null,,,,,,,,,,,,,,,,,,,,
null,,learn_phase(without_color),546128,,black_plus_sign,,,,null,GW/westpalmbeach.png,GW/peoria.png,,,,,,,,,,,,,,,,,,
null,,black_cross(without_color),547044,,yellow,,,,null,GW/westpalmbeach.png,GW/peoria.png,,,,,,,,,,,,,,,,,,
null,,rt_plussign_withcolor,547555,,yellow,,,,null,GW/westpalmbeach.png,GW/peoria.png,,,,,,,,,,,,,,,,,,
827.2999999998137,,rt_thecrossant_black,548658,,black_plus_sign,,,,50,,,1,1,,,,,,,,,,,,,,,,
null,,color_black,548769,,black_plus_sign,,,,null,,,,,,,,,,,,,,,,,,,,
null,,learn_phase(without_color),551776,,black_plus_sign,,,,null,GW/hotsprings.png,GW/huntsville.png,,,,,,,,,,,,,,,,,,
null,,black_cross(without_color),552728,,yellow,,,,null,GW/hotsprings.png,GW/huntsville.png,,,,,,,,,,,,,,,,,,
null,,rt_plussign_withcolor,553233,,yellow,,,,null,GW/hotsprings.png,GW/huntsville.png,,,,,,,,,,,,,,,,,,
1130.2999999998137,,rt_thecrossant_black,554300,,black_plus_sign,,,,50,,,1,1,,,,,,,,,,,,,,,,
null,,color_black,554412,,black_plus_sign,,,,null,,,,,,,,,,,,,,,,,,,,
null,,learn_phase(without_color),557418,,black_plus_sign,,,,null,GW/hanover.png,GW/shreveport.png,,,,,,,,,,,,,,,,,,
null,,black_cross(without_color),558314,,blue,,,,null,GW/hanover.png,GW/shreveport.png,,,,,,,,,,,,,,,,,,
null,,rt_plussign_withcolor,558816,,blue,,,,null,GW/hanover.png,GW/shreveport.png,,,,,,,,,,,,,,,,,,
1171,,rt_thecrossant_black,559938,,black_plus_sign,,,,49,,,1,1,,,,,,,,,,,,,,,,
null,,color_black,560048,,black_plus_sign,,,,null,,,,,,,,,,,,,,,,,,,,
null,,learn_phase(without_color),563061,,black_plus_sign,,,,null,GW/huntsville.png,GW/leesburg.png,,,,,,,,,,,,,,,,,,
null,,black_cross(without_color),563665,,yellow,,,,null,GW/huntsville.png,GW/leesburg.png,,,,,,,,,,,,,,,,,,
null,,rt_plussign_withcolor,564170,,yellow,,,,null,GW/huntsville.png,GW/leesburg.png,,,,,,,,,,,,,,,,,,
1178.6000000000931,,rt_thecrossant_black,565586,,black_plus_sign,,,,50,,,1,1,,,,,,,,,,,,,,,,
null,,color_black,565697,,black_plus_sign,,,,null,,,,,,,,,,,,,,,,,,,,
null,,learn_phase(without_color),568705,,black_plus_sign,,,,null,GW/racine.png,GW/boulder.png,,,,,,,,,,,,,,,,,,
null,,black_cross(without_color),569603,,yellow,,,,null,GW/racine.png,GW/boulder.png,,,,,,,,,,,,,,,,,,
null,,rt_plussign_withcolor,570109,,yellow,,,,null,GW/racine.png,GW/boulder.png,,,,,,,,,,,,,,,,,,
840.3999999999069,,rt_thecrossant_black,571235,,black_plus_sign,,,,50,,,1,1,,,,,,,,,,,,,,,,
null,,color_black,571345,,black_plus_sign,,,,null,,,,,,,,,,,,,,,,,,,,
null,,learn_phase(without_color),574352,,black_plus_sign,,,,null,GW/carmel.png,GW/racine.png,,,,,,,,,,,,,,,,,,
null,,black_cross(without_color),575147,,yellow,,,,null,GW/carmel.png,GW/racine.png,,,,,,,,,,,,,,,,,,
null,,rt_plussign_withcolor,575652,,yellow,,,,null,GW/carmel.png,GW/racine.png,,,,,,,,,,,,,,,,,,
1327,,rt_thecrossant_black,576877,,black_plus_sign,,,,50,,,1,1,,,,,,,,,,,,,,,,
null,,color_black,576988,,black_plus_sign,,,,null,,,,,,,,,,,,,,,,,,,,
null,,learn_phase(without_color),579995,,black_plus_sign,,,,null,GW/carmel.png,GW/leesburg.png,,,,,,,,,,,,,,,,,,
null,,black_cross(without_color),580436,,yellow,,,,null,GW/carmel.png,GW/leesburg.png,,,,,,,,,,,,,,,,,,
null,,rt_plussign_withcolor,580949,,yellow,,,,null,GW/carmel.png,GW/leesburg.png,,,,,,,,,,,,,,,,,,
1181,,rt_thecrossant_black,582520,,black_plus_sign,,,,50,,,1,1,,,,,,,,,,,,,,,,
null,,color_black,582624,,black_plus_sign,,,,null,,,,,,,,,,,,,,,,,,,,
null,,learn_phase(without_color),585637,,black_plus_sign,,,,null,GW/racine.png,GW/gatlinburg.png,,,,,,,,,,,,,,,,,,
null,,black_cross(without_color),586241,,yellow,,,,null,GW/racine.png,GW/gatlinburg.png,,,,,,,,,,,,,,,,,,
null,,rt_plussign_withcolor,586745,,yellow,,,,null,GW/racine.png,GW/gatlinburg.png,,,,,,,,,,,,,,,,,,
1568.2000000001863,,rt_thecrossant_black,588157,,black_plus_sign,,,,50,,,1,1,,,,,,,,,,,,,,,,
null,,color_black,588267,,black_plus_sign,,,,null,,,,,,,,,,,,,,,,,,,,
null,,learn_phase(without_color),591274,,black_plus_sign,,,,null,GW/gatlinburg.png,GW/racine.png,,,,,,,,,,,,,,,,,,
null,,black_cross(without_color),592133,,yellow,,,,null,GW/gatlinburg.png,GW/racine.png,,,,,,,,,,,,,,,,,,
null,,rt_plussign_withcolor,592643,,yellow,,,,null,GW/gatlinburg.png,GW/racine.png,,,,,,,,,,,,,,,,,,
1036.1000000000931,,rt_thecrossant_black,593805,,black_plus_sign,,,,50,,,1,1,,,,,,,,,,,,,,,,
null,,color_black,593915,,black_plus_sign,,,,null,,,,,,,,,,,,,,,,,,,,
null,,learn_phase(without_color),596923,,black_plus_sign,,,,null,GW/carmel.png,GW/racine.png,,,,,,,,,,,,,,,,,,
null,,black_cross(without_color),597457,,blue,,,,null,GW/carmel.png,GW/racine.png,,,,,,,,,,,,,,,,,,
null,,rt_plussign_withcolor,597962,,blue,,,,null,GW/carmel.png,GW/racine.png,,,,,,,,,,,,,,,,,,
1324.2999999998137,,rt_thecrossant_black,599445,,black_plus_sign,,,,49,,,1,1,,,,,,,,,,,,,,,,
null,,color_black,599558,,black_plus_sign,,,,null,,,,,,,,,,,,,,,,,,,,
null,,learn_phase(without_color),602574,,black_plus_sign,,,,null,GW/gatlinburg.png,GW/racine.png,,,,,,,,,,,,,,,,,,
null,,black_cross(without_color),603622,,blue,,,,null,GW/gatlinburg.png,GW/racine.png,,,,,,,,,,,,,,,,,,
253.10000000009313,,rt_plussign_withcolor,604133,,blue,,,,49,GW/gatlinburg.png,GW/racine.png,,,,,,,,,,,,,,,,,,
null,,rt_thecrossant_black,605108,,black_plus_sign,,,,null,,,1,1,,,,,,,,,,,,,,,,
null,,color_black,605218,,black_plus_sign,,,,null,,,,,,,,,,,,,,,,,,,,
null,,learn_phase(without_color),608225,,black_plus_sign,,,,null,GW/hotsprings.png,GW/cornwall.png,,,,,,,,,,,,,,,,,,
null,,black_cross(without_color),608835,,blue,,,,null,GW/hotsprings.png,GW/cornwall.png,,,,,,,,,,,,,,,,,,
null,,rt_plussign_withcolor,609340,,blue,,,,null,GW/hotsprings.png,GW/cornwall.png,,,,,,,,,,,,,,,,,,
1341.5,,rt_thecrossant_black,610750,,black_plus_sign,,,,49,,,1,1,,,,,,,,,,,,,,,,
null,,color_black,610862,,black_plus_sign,,,,null,,,,,,,,,,,,,,,,,,,,
null,,learn_phase(without_color),613878,,black_plus_sign,,,,null,GW/cornwall.png,GW/gatlinburg.png,,,,,,,,,,,,,,,,,,
null,,black_cross(without_color),614582,,blue,,,,null,GW/cornwall.png,GW/gatlinburg.png,,,,,,,,,,,,,,,,,,
null,,rt_plussign_withcolor,615091,,blue,,,,null,GW/cornwall.png,GW/gatlinburg.png,,,,,,,,,,,,,,,,,,
1161.7999999998137,,rt_thecrossant_black,616410,,black_plus_sign,,,,49,,,1,1,,,,,,,,,,,,,,,,
null,,color_black,616515,,black_plus_sign,,,,null,,,,,,,,,,,,,,,,,,,,
null,,learn_phase(without_color),619522,,black_plus_sign,,,,null,GW/carmel.png,GW/racine.png,,,,,,,,,,,,,,,,,,
null,,black_cross(without_color),620050,,yellow,,,,null,GW/carmel.png,GW/racine.png,,,,,,,,,,,,,,,,,,
null,,rt_plussign_withcolor,620555,,yellow,,,,null,GW/carmel.png,GW/racine.png,,,,,,,,,,,,,,,,,,
1023.1000000000931,,rt_thecrossant_black,622042,,black_plus_sign,,,,50,,,1,1,,,,,,,,,,,,,,,,
null,,color_black,622146,,black_plus_sign,,,,null,,,,,,,,,,,,,,,,,,,,
null,,learn_phase(without_color),625159,,black_plus_sign,,,,null,GW/peoria.png,GW/westpalmbeach.png,,,,,,,,,,,,,,,,,,
null,,black_cross(without_color),625867,,yellow,,,,null,GW/peoria.png,GW/westpalmbeach.png,,,,,,,,,,,,,,,,,,
null,,rt_plussign_withcolor,626372,,yellow,,,,null,GW/peoria.png,GW/westpalmbeach.png,,,,,,,,,,,,,,,,,,
831.3999999999069,,rt_thecrossant_black,627678,,black_plus_sign,,,,50,,,1,1,,,,,,,,,,,,,,,,
null,,color_black,627789,,black_plus_sign,,,,null,,,,,,,,,,,,,,,,,,,,
null,,learn_phase(without_color),630796,,black_plus_sign,,,,null,GW/peoria.png,GW/shreveport.png,,,,,,,,,,,,,,,,,,
null,,black_cross(without_color),631852,,blue,,,,null,GW/peoria.png,GW/shreveport.png,,,,,,,,,,,,,,,,,,
null,,rt_plussign_withcolor,632357,,blue,,,,null,GW/peoria.png,GW/shreveport.png,,,,,,,,,,,,,,,,,,
863.1000000000931,,rt_thecrossant_black,633327,,black_plus_sign,,,,49,,,1,1,,,,,,,,,,,,,,,,
null,,color_black,633434,,black_plus_sign,,,,null,,,,,,,,,,,,,,,,,,,,
null,,learn_phase(without_color),636444,,black_plus_sign,,,,null,GW/peoria.png,GW/shreveport.png,,,,,,,,,,,,,,,,,,
null,,black_cross(without_color),637147,,yellow,,,,null,GW/peoria.png,GW/shreveport.png,,,,,,,,,,,,,,,,,,
null,,rt_plussign_withcolor,637652,,yellow,,,,null,GW/peoria.png,GW/shreveport.png,,,,,,,,,,,,,,,,,,
1294.3999999999069,,rt_thecrossant_black,638963,,black_plus_sign,,,,50,,,1,1,,,,,,,,,,,,,,,,
null,,color_black,639071,,black_plus_sign,,,,null,,,,,,,,,,,,,,,,,,,,
null,,learn_phase(without_color),642075,,black_plus_sign,,,,null,GW/peoria.png,GW/shreveport.png,,,,,,,,,,,,,,,,,,
null,,black_cross(without_color),642666,,blue,,,,null,GW/peoria.png,GW/shreveport.png,,,,,,,,,,,,,,,,,,
null,,rt_plussign_withcolor,643172,,blue,,,,null,GW/peoria.png,GW/shreveport.png,,,,,,,,,,,,,,,,,,
1098.7999999998137,,rt_thecrossant_black,644595,,black_plus_sign,,,,49,,,1,1,,,,,,,,,,,,,,,,
null,,color_black,644699,,black_plus_sign,,,,null,,,,,,,,,,,,,,,,,,,,
null,,learn_phase(without_color),647708,,black_plus_sign,,,,null,GW/hanover.png,GW/shreveport.png,,,,,,,,,,,,,,,,,,
null,,black_cross(without_color),648287,,yellow,,,,null,GW/hanover.png,GW/shreveport.png,,,,,,,,,,,,,,,,,,
null,,rt_plussign_withcolor,648798,,yellow,,,,null,GW/hanover.png,GW/shreveport.png,,,,,,,,,,,,,,,,,,
901.3999999999069,,rt_thecrossant_black,650237,,black_plus_sign,,,,50,,,1,1,,,,,,,,,,,,,,,,
null,,color_black,650347,,black_plus_sign,,,,null,,,,,,,,,,,,,,,,,,,,
null,,learn_phase(without_color),653355,,black_plus_sign,,,,null,GW/leesburg.png,GW/carmel.png,,,,,,,,,,,,,,,,,,
null,,black_cross(without_color),654074,,blue,,,,null,GW/leesburg.png,GW/carmel.png,,,,,,,,,,,,,,,,,,
null,,rt_plussign_withcolor,654580,,blue,,,,null,GW/leesburg.png,GW/carmel.png,,,,,,,,,,,,,,,,,,
1085.3000000002794,,rt_thecrossant_black,655874,,black_plus_sign,,,,49,,,1,1,,,,,,,,,,,,,,,,
null,,color_black,655979,,black_plus_sign,,,,null,,,,,,,,,,,,,,,,,,,,
null,,learn_phase(without_color),658991,,black_plus_sign,,,,null,GW/hanover.png,GW/shreveport.png,,,,,,,,,,,,,,,,,,
null,,black_cross(without_color),659827,,blue,,,,null,GW/hanover.png,GW/shreveport.png,,,,,,,,,,,,,,,,,,
null,,rt_plussign_withcolor,660336,,blue,,,,null,GW/hanover.png,GW/shreveport.png,,,,,,,,,,,,,,,,,,
1162.5999999996275,,rt_thecrossant_black,661517,,black_plus_sign,,,,49,,,1,1,,,,,,,,,,,,,,,,
null,,color_black,661630,,black_plus_sign,,,,null,,,,,,,,,,,,,,,,,,,,
null,,learn_phase(without_color),664640,,black_plus_sign,,,,null,GW/carmel.png,GW/leesburg.png,,,,,,,,,,,,,,,,,,
null,,black_cross(without_color),665540,,yellow,,,,null,GW/carmel.png,GW/leesburg.png,,,,,,,,,,,,,,,,,,
null,,rt_plussign_withcolor,666045,,yellow,,,,null,GW/carmel.png,GW/leesburg.png,,,,,,,,,,,,,,,,,,
1355.3000000002794,,rt_thecrossant_black,667165,,black_plus_sign,,,,50,,,1,1,,,,,,,,,,,,,,,,
null,,color_black,667275,,black_plus_sign,,,,null,,,,,,,,,,,,,,,,,,,,
null,,learn_phase(without_color),670282,,black_plus_sign,,,,null,GW/gatlinburg.png,GW/newhope.png,,,,,,,,,,,,,,,,,,
null,,black_cross(without_color),671356,,blue,,,,null,GW/gatlinburg.png,GW/newhope.png,,,,,,,,,,,,,,,,,,
null,,rt_plussign_withcolor,671861,,blue,,,,null,GW/gatlinburg.png,GW/newhope.png,,,,,,,,,,,,,,,,,,
1194.5999999996275,,rt_thecrossant_black,672808,,black_plus_sign,,,,49,,,1,1,,,,,,,,,,,,,,,,
null,,color_black,672918,,black_plus_sign,,,,null,,,,,,,,,,,,,,,,,,,,
null,,learn_phase(without_color),675925,,black_plus_sign,,,,null,GW/gatlinburg.png,GW/cornwall.png,,,,,,,,,,,,,,,,,,
null,,black_cross(without_color),676552,,yellow,,,,null,GW/gatlinburg.png,GW/cornwall.png,,,,,,,,,,,,,,,,,,
null,,rt_plussign_withcolor,677063,,yellow,,,,null,GW/gatlinburg.png,GW/cornwall.png,,,,,,,,,,,,,,,,,,
1576.5,,rt_thecrossant_black,678451,,black_plus_sign,,,,50,,,1,1,,,,,,,,,,,,,,,,
null,,color_black,678560,,black_plus_sign,,,,null,,,,,,,,,,,,,,,,,,,,
null,,learn_phase(without_color),681565,,black_plus_sign,,,,null,GW/leesburg.png,GW/cornwall.png,,,,,,,,,,,,,,,,,,
null,,black_cross(without_color),682305,,blue,,,,null,GW/leesburg.png,GW/cornwall.png,,,,,,,,,,,,,,,,,,
null,,rt_plussign_withcolor,682816,,blue,,,,null,GW/leesburg.png,GW/cornwall.png,,,,,,,,,,,,,,,,,,
775.6000000000931,,rt_thecrossant_black,684092,,black_plus_sign,,,,49,,,1,1,,,,,,,,,,,,,,,,
null,,color_black,684197,,black_plus_sign,,,,null,,,,,,,,,,,,,,,,,,,,
null,,learn_phase(without_color),687205,,black_plus_sign,,,,null,GW/peoria.png,GW/westpalmbeach.png,,,,,,,,,,,,,,,,,,
null,,black_cross(without_color),688046,,blue,,,,null,GW/peoria.png,GW/westpalmbeach.png,,,,,,,,,,,,,,,,,,
null,,rt_plussign_withcolor,688552,,blue,,,,null,GW/peoria.png,GW/westpalmbeach.png,,,,,,,,,,,,,,,,,,
1108.9000000003725,,rt_thecrossant_black,689724,,black_plus_sign,,,,49,,,1,1,,,,,,,,,,,,,,,,
null,,color_black,689828,,black_plus_sign,,,,null,,,,,,,,,,,,,,,,,,,,
null,,learn_phase(without_color),692836,,black_plus_sign,,,,null,GW/hotsprings.png,GW/huntsville.png,,,,,,,,,,,,,,,,,,
null,,black_cross(without_color),693921,,yellow,,,,null,GW/hotsprings.png,GW/huntsville.png,,,,,,,,,,,,,,,,,,
null,,rt_plussign_withcolor,694429,,yellow,,,,null,GW/hotsprings.png,GW/huntsville.png,,,,,,,,,,,,,,,,,,
1086.5,,rt_thecrossant_black,695360,,black_plus_sign,,,,50,,,1,1,,,,,,,,,,,,,,,,
null,,color_black,695471,,black_plus_sign,,,,null,,,,,,,,,,,,,,,,,,,,
null,,learn_phase(without_color),698479,,black_plus_sign,,,,null,GW/newhope.png,GW/gatlinburg.png,,,,,,,,,,,,,,,,,,
null,,black_cross(without_color),699192,,yellow,,,,null,GW/newhope.png,GW/gatlinburg.png,,,,,,,,,,,,,,,,,,
null,,rt_plussign_withcolor,699703,,yellow,,,,null,GW/newhope.png,GW/gatlinburg.png,,,,,,,,,,,,,,,,,,
1354.8999999999069,,rt_thecrossant_black,701009,,black_plus_sign,,,,50,,,1,1,,,,,,,,,,,,,,,,
null,,color_black,701119,,black_plus_sign,,,,null,,,,,,,,,,,,,,,,,,,,
null,,learn_phase(without_color),704127,,black_plus_sign,,,,null,GW/cornwall.png,GW/leesburg.png,,,,,,,,,,,,,,,,,,
null,,black_cross(without_color),705044,,blue,,,,null,GW/cornwall.png,GW/leesburg.png,,,,,,,,,,,,,,,,,,
470.5,,rt_plussign_withcolor,705549,,blue,,,,49,GW/cornwall.png,GW/leesburg.png,,,,,,,,,,,,,,,,,,
null,,rt_thecrossant_black,706646,,black_plus_sign,,,,null,,,1,1,,,,,,,,,,,,,,,,
null,,color_black,706756,,black_plus_sign,,,,null,,,,,,,,,,,,,,,,,,,,
null,,learn_phase(without_color),709769,,black_plus_sign,,,,null,GW/racine.png,GW/boulder.png,,,,,,,,,,,,,,,,,,
null,,black_cross(without_color),710553,,blue,,,,null,GW/racine.png,GW/boulder.png,,,,,,,,,,,,,,,,,,
null,,rt_plussign_withcolor,711064,,blue,,,,null,GW/racine.png,GW/boulder.png,,,,,,,,,,,,,,,,,,
1542.2999999998137,,rt_thecrossant_black,712295,,black_plus_sign,,,,49,,,1,1,,,,,,,,,,,,,,,,
null,,color_black,712405,,black_plus_sign,,,,null,,,,,,,,,,,,,,,,,,,,
null,,learn_phase(without_color),715417,,black_plus_sign,,,,null,GW/racine.png,GW/carmel.png,,,,,,,,,,,,,,,,,,
null,,black_cross(without_color),716166,,yellow,,,,null,GW/racine.png,GW/carmel.png,,,,,,,,,,,,,,,,,,
null,,rt_plussign_withcolor,716668,,yellow,,,,null,GW/racine.png,GW/carmel.png,,,,,,,,,,,,,,,,,,
1210.2999999998137,,rt_thecrossant_black,717941,,black_plus_sign,,,,50,,,1,1,,,,,,,,,,,,,,,,
null,,color_black,718044,,black_plus_sign,,,,null,,,,,,,,,,,,,,,,,,,,
null,,learn_phase(without_color),721054,,black_plus_sign,,,,null,GW/cornwall.png,GW/hotsprings.png,,,,,,,,,,,,,,,,,,
null,,black_cross(without_color),721750,,yellow,,,,null,GW/cornwall.png,GW/hotsprings.png,,,,,,,,,,,,,,,,,,
null,,rt_plussign_withcolor,722257,,yellow,,,,null,GW/cornwall.png,GW/hotsprings.png,,,,,,,,,,,,,,,,,,
977.1000000000931,,rt_thecrossant_black,723574,,black_plus_sign,,,,50,,,1,1,,,,,,,,,,,,,,,,
null,,color_black,723678,,black_plus_sign,,,,null,,,,,,,,,,,,,,,,,,,,
null,,learn_phase(without_color),726686,,black_plus_sign,,,,null,GW/racine.png,GW/gatlinburg.png,,,,,,,,,,,,,,,,,,
null,,black_cross(without_color),727573,,blue,,,,null,GW/racine.png,GW/gatlinburg.png,,,,,,,,,,,,,,,,,,
null,,rt_plussign_withcolor,728082,,blue,,,,null,GW/racine.png,GW/gatlinburg.png,,,,,,,,,,,,,,,,,,
876,,rt_thecrossant_black,729205,,black_plus_sign,,,,49,,,1,1,,,,,,,,,,,,,,,,
null,,color_black,729309,,black_plus_sign,,,,null,,,,,,,,,,,,,,,,,,,,
null,,learn_phase(without_color),732317,,black_plus_sign,,,,null,GW/huntsville.png,GW/shreveport.png,,,,,,,,,,,,,,,,,,
null,,black_cross(without_color),733262,,blue,,,,null,GW/huntsville.png,GW/shreveport.png,,,,,,,,,,,,,,,,,,
249.89999999990687,,rt_plussign_withcolor,733769,,blue,,,,49,GW/huntsville.png,GW/shreveport.png,,,,,,,,,,,,,,,,,,
null,,rt_thecrossant_black,734842,,black_plus_sign,,,,null,,,1,1,,,,,,,,,,,,,,,,
null,,color_black,734949,,black_plus_sign,,,,null,,,,,,,,,,,,,,,,,,,,
null,,learn_phase(without_color),737958,,black_plus_sign,,,,null,GW/racine.png,GW/boulder.png,,,,,,,,,,,,,,,,,,
null,,black_cross(without_color),738589,,blue,,,,null,GW/racine.png,GW/boulder.png,,,,,,,,,,,,,,,,,,
null,,rt_plussign_withcolor,739095,,blue,,,,null,GW/racine.png,GW/boulder.png,,,,,,,,,,,,,,,,,,
1238.1000000000931,,rt_thecrossant_black,740479,,black_plus_sign,,,,49,,,1,1,,,,,,,,,,,,,,,,
null,,color_black,740583,,black_plus_sign,,,,null,,,,,,,,,,,,,,,,,,,,
null,,learn_phase(without_color),743590,,black_plus_sign,,,,null,GW/racine.png,GW/carmel.png,,,,,,,,,,,,,,,,,,
null,,black_cross(without_color),744046,,blue,,,,null,GW/racine.png,GW/carmel.png,,,,,,,,,,,,,,,,,,
null,,rt_plussign_withcolor,744554,,blue,,,,null,GW/racine.png,GW/carmel.png,,,,,,,,,,,,,,,,,,
935.3000000002794,,rt_thecrossant_black,746110,,black_plus_sign,,,,49,,,1,1,,,,,,,,,,,,,,,,
null,,color_black,746214,,black_plus_sign,,,,null,,,,,,,,,,,,,,,,,,,,
null,,learn_phase(without_color),749221,,black_plus_sign,,,,null,GW/shreveport.png,GW/hanover.png,,,,,,,,,,,,,,,,,,
null,,black_cross(without_color),749906,,blue,,,,null,GW/shreveport.png,GW/hanover.png,,,,,,,,,,,,,,,,,,
null,,rt_plussign_withcolor,750417,,blue,,,,null,GW/shreveport.png,GW/hanover.png,,,,,,,,,,,,,,,,,,
819.3999999999069,,rt_thecrossant_black,751752,,black_plus_sign,,,,49,,,1,1,,,,,,,,,,,,,,,,
null,,color_black,751862,,black_plus_sign,,,,null,,,,,,,,,,,,,,,,,,,,
null,,learn_phase(without_color),754870,,black_plus_sign,,,,null,GW/gatlinburg.png,GW/cornwall.png,,,,,,,,,,,,,,,,,,
null,,black_cross(without_color),755833,,yellow,,,,null,GW/gatlinburg.png,GW/cornwall.png,,,,,,,,,,,,,,,,,,
null,,rt_plussign_withcolor,756338,,yellow,,,,null,GW/gatlinburg.png,GW/cornwall.png,,,,,,,,,,,,,,,,,,
964.5,,rt_thecrossant_black,757394,,black_plus_sign,,,,50,,,1,1,,,,,,,,,,,,,,,,
null,,color_black,757505,,black_plus_sign,,,,null,,,,,,,,,,,,,,,,,,,,
null,,learn_phase(without_color),760512,,black_plus_sign,,,,null,GW/shreveport.png,GW/hanover.png,,,,,,,,,,,,,,,,,,
null,,black_cross(without_color),761406,,yellow,,,,null,GW/shreveport.png,GW/hanover.png,,,,,,,,,,,,,,,,,,
null,,rt_plussign_withcolor,761914,,yellow,,,,null,GW/shreveport.png,GW/hanover.png,,,,,,,,,,,,,,,,,,
1241.3000000002794,,rt_thecrossant_black,763029,,black_plus_sign,,,,50,,,1,1,,,,,,,,,,,,,,,,
null,,color_black,763136,,black_plus_sign,,,,null,,,,,,,,,,,,,,,,,,,,
null,,learn_phase(without_color),766143,,black_plus_sign,,,,null,GW/leesburg.png,GW/cornwall.png,,,,,,,,,,,,,,,,,,
null,,black_cross(without_color),766985,,yellow,,,,null,GW/leesburg.png,GW/cornwall.png,,,,,,,,,,,,,,,,,,
null,,rt_plussign_withcolor,767490,,yellow,,,,null,GW/leesburg.png,GW/cornwall.png,,,,,,,,,,,,,,,,,,
1235.5,,rt_thecrossant_black,768674,,black_plus_sign,,,,50,,,1,1,,,,,,,,,,,,,,,,
null,,color_black,768784,,black_plus_sign,,,,null,,,,,,,,,,,,,,,,,,,,
null,,learn_phase(without_color),771792,,black_plus_sign,,,,null,GW/cornwall.png,GW/hotsprings.png,,,,,,,,,,,,,,,,,,
null,,black_cross(without_color),772744,,yellow,,,,null,GW/cornwall.png,GW/hotsprings.png,,,,,,,,,,,,,,,,,,
null,,rt_plussign_withcolor,773249,,yellow,,,,null,GW/cornwall.png,GW/hotsprings.png,,,,,,,,,,,,,,,,,,
1102.2999999998137,,rt_thecrossant_black,774313,,black_plus_sign,,,,50,,,1,1,,,,,,,,,,,,,,,,
null,,color_black,774427,,black_plus_sign,,,,null,,,,,,,,,,,,,,,,,,,,
null,,learn_break,834435,,learn_break,,,,null,,,,,,,,,,,,,,,,,,,,
null,,html-keyboard-response,835445,,<p></p>,,,,null,,,,,,,,,,,,,,,,,,,,
null,,learn_phase(without_color),838449,,black_plus_sign,,,,null,GW/leesburg.png,GW/cornwall.png,,,,,,,,,,,,,,,,,,
null,,black_cross(without_color),839300,,yellow,,,,null,GW/leesburg.png,GW/cornwall.png,,,,,,,,,,,,,,,,,,
null,,rt_plussign_withcolor,839805,,yellow,,,,null,GW/leesburg.png,GW/cornwall.png,,,,,,,,,,,,,,,,,,
1346.5,,rt_thecrossant_black,840972,,black_plus_sign,,,,50,,,1,1,,,,,,,,,,,,,,,,
null,,color_black,841082,,black_plus_sign,,,,null,,,,,,,,,,,,,,,,,,,,
null,,learn_phase(without_color),844089,,black_plus_sign,,,,null,GW/newhope.png,GW/gatlinburg.png,,,,,,,,,,,,,,,,,,
null,,black_cross(without_color),844635,,blue,,,,null,GW/newhope.png,GW/gatlinburg.png,,,,,,,,,,,,,,,,,,
null,,rt_plussign_withcolor,845140,,blue,,,,null,GW/newhope.png,GW/gatlinburg.png,,,,,,,,,,,,,,,,,,
1005.7000000001863,,rt_thecrossant_black,846609,,black_plus_sign,,,,49,,,1,1,,,,,,,,,,,,,,,,
null,,color_black,846713,,black_plus_sign,,,,null,,,,,,,,,,,,,,,,,,,,
null,,learn_phase(without_color),849720,,black_plus_sign,,,,null,GW/shreveport.png,GW/hotsprings.png,,,,,,,,,,,,,,,,,,
null,,black_cross(without_color),850364,,blue,,,,null,GW/shreveport.png,GW/hotsprings.png,,,,,,,,,,,,,,,,,,
null,,rt_plussign_withcolor,850870,,blue,,,,null,GW/shreveport.png,GW/hotsprings.png,,,,,,,,,,,,,,,,,,
841.2999999998137,,rt_thecrossant_black,852249,,black_plus_sign,,,,49,,,1,1,,,,,,,,,,,,,,,,
null,,color_black,852354,,black_plus_sign,,,,null,,,,,,,,,,,,,,,,,,,,
null,,learn_phase(without_color),855363,,black_plus_sign,,,,null,GW/peoria.png,GW/huntsville.png,,,,,,,,,,,,,,,,,,
null,,black_cross(without_color),855884,,yellow,,,,null,GW/peoria.png,GW/huntsville.png,,,,,,,,,,,,,,,,,,
null,,rt_plussign_withcolor,856388,,yellow,,,,null,GW/peoria.png,GW/huntsville.png,,,,,,,,,,,,,,,,,,
836.8999999999069,,rt_thecrossant_black,857885,,black_plus_sign,,,,50,,,1,1,,,,,,,,,,,,,,,,
null,,color_black,857994,,black_plus_sign,,,,null,,,,,,,,,,,,,,,,,,,,
null,,learn_phase(without_color),861005,,black_plus_sign,,,,null,GW/cornwall.png,GW/hotsprings.png,,,,,,,,,,,,,,,,,,
null,,black_cross(without_color),861893,,blue,,,,null,GW/cornwall.png,GW/hotsprings.png,,,,,,,,,,,,,,,,,,
null,,rt_plussign_withcolor,862404,,blue,,,,null,GW/cornwall.png,GW/hotsprings.png,,,,,,,,,,,,,,,,,,
681.7000000001863,,rt_thecrossant_black,863536,,black_plus_sign,,,,49,,,1,1,,,,,,,,,,,,,,,,
null,,color_black,863641,,black_plus_sign,,,,null,,,,,,,,,,,,,,,,,,,,
null,,learn_phase(without_color),866654,,black_plus_sign,,,,null,GW/gatlinburg.png,GW/racine.png,,,,,,,,,,,,,,,,,,
null,,black_cross(without_color),867548,,yellow,,,,null,GW/gatlinburg.png,GW/racine.png,,,,,,,,,,,,,,,,,,
null,,rt_plussign_withcolor,868053,,yellow,,,,null,GW/gatlinburg.png,GW/racine.png,,,,,,,,,,,,,,,,,,
1190.1000000000931,,rt_thecrossant_black,869173,,black_plus_sign,,,,50,,,1,1,,,,,,,,,,,,,,,,
null,,color_black,869284,,black_plus_sign,,,,null,,,,,,,,,,,,,,,,,,,,
null,,learn_phase(without_color),872291,,black_plus_sign,,,,null,GW/huntsville.png,GW/leesburg.png,,,,,,,,,,,,,,,,,,
null,,black_cross(without_color),873330,,blue,,,,null,GW/huntsville.png,GW/leesburg.png,,,,,,,,,,,,,,,,,,
null,,rt_plussign_withcolor,873835,,blue,,,,null,GW/huntsville.png,GW/leesburg.png,,,,,,,,,,,,,,,,,,
1061.1000000000931,,rt_thecrossant_black,874810,,black_plus_sign,,,,49,,,1,1,,,,,,,,,,,,,,,,
null,,color_black,874914,,black_plus_sign,,,,null,,,,,,,,,,,,,,,,,,,,
null,,learn_phase(without_color),877922,,black_plus_sign,,,,null,GW/shreveport.png,GW/peoria.png,,,,,,,,,,,,,,,,,,
null,,black_cross(without_color),878421,,yellow,,,,null,GW/shreveport.png,GW/peoria.png,,,,,,,,,,,,,,,,,,
null,,rt_plussign_withcolor,878932,,yellow,,,,null,GW/shreveport.png,GW/peoria.png,,,,,,,,,,,,,,,,,,
1275.8999999999069,,rt_thecrossant_black,880453,,black_plus_sign,,,,50,,,1,1,,,,,,,,,,,,,,,,
null,,color_black,880562,,black_plus_sign,,,,null,,,,,,,,,,,,,,,,,,,,
null,,learn_phase(without_color),883574,,black_plus_sign,,,,null,GW/newhope.png,GW/gatlinburg.png,,,,,,,,,,,,,,,,,,
null,,black_cross(without_color),884667,,yellow,,,,null,GW/newhope.png,GW/gatlinburg.png,,,,,,,,,,,,,,,,,,
null,,rt_plussign_withcolor,885174,,yellow,,,,null,GW/newhope.png,GW/gatlinburg.png,,,,,,,,,,,,,,,,,,
806.3000000002794,,rt_thecrossant_black,886101,,black_plus_sign,,,,50,,,1,1,,,,,,,,,,,,,,,,
null,,color_black,886211,,black_plus_sign,,,,null,,,,,,,,,,,,,,,,,,,,
null,,learn_phase(without_color),889218,,black_plus_sign,,,,null,GW/huntsville.png,GW/shreveport.png,,,,,,,,,,,,,,,,,,
null,,black_cross(without_color),890165,,yellow,,,,null,GW/huntsville.png,GW/shreveport.png,,,,,,,,,,,,,,,,,,
null,,rt_plussign_withcolor,890670,,yellow,,,,null,GW/huntsville.png,GW/shreveport.png,,,,,,,,,,,,,,,,,,
1247.2000000001863,,rt_thecrossant_black,891738,,black_plus_sign,,,,50,,,1,1,,,,,,,,,,,,,,,,
null,,color_black,891842,,black_plus_sign,,,,null,,,,,,,,,,,,,,,,,,,,
null,,learn_phase(without_color),894855,,black_plus_sign,,,,null,GW/boulder.png,GW/racine.png,,,,,,,,,,,,,,,,,,
null,,black_cross(without_color),895651,,yellow,,,,null,GW/boulder.png,GW/racine.png,,,,,,,,,,,,,,,,,,
null,,rt_plussign_withcolor,896156,,yellow,,,,null,GW/boulder.png,GW/racine.png,,,,,,,,,,,,,,,,,,
1164.3999999999069,,rt_thecrossant_black,897383,,black_plus_sign,,,,50,,,1,1,,,,,,,,,,,,,,,,
null,,color_black,897491,,black_plus_sign,,,,null,,,,,,,,,,,,,,,,,,,,
null,,learn_phase(without_color),900498,,black_plus_sign,,,,null,GW/hotsprings.png,GW/cornwall.png,,,,,,,,,,,,,,,,,,
null,,black_cross(without_color),900974,,yellow,,,,null,GW/hotsprings.png,GW/cornwall.png,,,,,,,,,,,,,,,,,,
null,,rt_plussign_withcolor,901479,,yellow,,,,null,GW/hotsprings.png,GW/cornwall.png,,,,,,,,,,,,,,,,,,
975.1000000000931,,rt_thecrossant_black,903023,,black_plus_sign,,,,50,,,1,1,,,,,,,,,,,,,,,,
null,,color_black,903133,,black_plus_sign,,,,null,,,,,,,,,,,,,,,,,,,,
null,,learn_phase(without_color),906141,,black_plus_sign,,,,null,GW/gatlinburg.png,GW/cornwall.png,,,,,,,,,,,,,,,,,,
null,,black_cross(without_color),906837,,yellow,,,,null,GW/gatlinburg.png,GW/cornwall.png,,,,,,,,,,,,,,,,,,
null,,rt_plussign_withcolor,907342,,yellow,,,,null,GW/gatlinburg.png,GW/cornwall.png,,,,,,,,,,,,,,,,,,
675.1000000000931,,rt_thecrossant_black,908660,,black_plus_sign,,,,50,,,1,1,,,,,,,,,,,,,,,,
null,,color_black,908776,,black_plus_sign,,,,null,,,,,,,,,,,,,,,,,,,,
null,,learn_phase(without_color),911788,,black_plus_sign,,,,null,GW/westpalmbeach.png,GW/peoria.png,,,,,,,,,,,,,,,,,,
null,,black_cross(without_color),912555,,blue,,,,null,GW/westpalmbeach.png,GW/peoria.png,,,,,,,,,,,,,,,,,,
null,,rt_plussign_withcolor,913060,,blue,,,,null,GW/westpalmbeach.png,GW/peoria.png,,,,,,,,,,,,,,,,,,
849.1999999997206,,rt_thecrossant_black,914311,,black_plus_sign,,,,49,,,1,1,,,,,,,,,,,,,,,,
null,,color_black,914423,,black_plus_sign,,,,null,,,,,,,,,,,,,,,,,,,,
null,,learn_phase(without_color),917426,,black_plus_sign,,,,null,GW/cornwall.png,GW/gatlinburg.png,,,,,,,,,,,,,,,,,,
null,,black_cross(without_color),918107,,blue,,,,null,GW/cornwall.png,GW/gatlinburg.png,,,,,,,,,,,,,,,,,,
null,,rt_plussign_withcolor,918610,,blue,,,,null,GW/cornwall.png,GW/gatlinburg.png,,,,,,,,,,,,,,,,,,
971.8999999999069,,rt_thecrossant_black,919939,,black_plus_sign,,,,49,,,1,1,,,,,,,,,,,,,,,,
null,,color_black,920044,,black_plus_sign,,,,null,,,,,,,,,,,,,,,,,,,,
null,,learn_phase(without_color),923051,,black_plus_sign,,,,null,GW/leesburg.png,GW/carmel.png,,,,,,,,,,,,,,,,,,
null,,black_cross(without_color),924119,,blue,,,,null,GW/leesburg.png,GW/carmel.png,,,,,,,,,,,,,,,,,,
null,,rt_plussign_withcolor,924630,,blue,,,,null,GW/leesburg.png,GW/carmel.png,,,,,,,,,,,,,,,,,,
815.7000000001863,,rt_thecrossant_black,925582,,black_plus_sign,,,,49,,,1,1,,,,,,,,,,,,,,,,
null,,color_black,925692,,black_plus_sign,,,,null,,,,,,,,,,,,,,,,,,,,
null,,learn_phase(without_color),928699,,black_plus_sign,,,,null,GW/huntsville.png,GW/hotsprings.png,,,,,,,,,,,,,,,,,,
null,,black_cross(without_color),929131,,blue,,,,null,GW/huntsville.png,GW/hotsprings.png,,,,,,,,,,,,,,,,,,
null,,rt_plussign_withcolor,929640,,blue,,,,null,GW/huntsville.png,GW/hotsprings.png,,,,,,,,,,,,,,,,,,
1305.7999999998137,,rt_thecrossant_black,931231,,black_plus_sign,,,,49,,,1,1,,,,,,,,,,,,,,,,
null,,color_black,931341,,black_plus_sign,,,,null,,,,,,,,,,,,,,,,,,,,
null,,learn_phase(without_color),934352,,black_plus_sign,,,,null,GW/newhope.png,GW/gatlinburg.png,,,,,,,,,,,,,,,,,,
null,,black_cross(without_color),935317,,yellow,,,,null,GW/newhope.png,GW/gatlinburg.png,,,,,,,,,,,,,,,,,,
null,,rt_plussign_withcolor,935822,,yellow,,,,null,GW/newhope.png,GW/gatlinburg.png,,,,,,,,,,,,,,,,,,
692.1999999997206,,rt_thecrossant_black,936879,,black_plus_sign,,,,50,,,1,1,,,,,,,,,,,,,,,,
null,,color_black,936992,,black_plus_sign,,,,null,,,,,,,,,,,,,,,,,,,,
null,,learn_phase(without_color),940008,,black_plus_sign,,,,null,GW/hotsprings.png,GW/shreveport.png,,,,,,,,,,,,,,,,,,
null,,black_cross(without_color),940896,,yellow,,,,null,GW/hotsprings.png,GW/shreveport.png,,,,,,,,,,,,,,,,,,
null,,rt_plussign_withcolor,941407,,yellow,,,,null,GW/hotsprings.png,GW/shreveport.png,,,,,,,,,,,,,,,,,,
1237.2000000001863,,rt_thecrossant_black,942539,,black_plus_sign,,,,50,,,1,1,,,,,,,,,,,,,,,,
null,,color_black,942643,,black_plus_sign,,,,null,,,,,,,,,,,,,,,,,,,,
null,,learn_phase(without_color),945652,,black_plus_sign,,,,null,GW/hotsprings.png,GW/huntsville.png,,,,,,,,,,,,,,,,,,
null,,black_cross(without_color),946277,,blue,,,,null,GW/hotsprings.png,GW/huntsville.png,,,,,,,,,,,,,,,,,,
null,,rt_plussign_withcolor,946782,,blue,,,,null,GW/hotsprings.png,GW/huntsville.png,,,,,,,,,,,,,,,,,,
1020.7999999998137,,rt_thecrossant_black,948176,,black_plus_sign,,,,49,,,1,1,,,,,,,,,,,,,,,,
null,,color_black,948286,,black_plus_sign,,,,null,,,,,,,,,,,,,,,,,,,,
null,,learn_phase(without_color),951293,,black_plus_sign,,,,null,GW/leesburg.png,GW/cornwall.png,,,,,,,,,,,,,,,,,,
null,,black_cross(without_color),951734,,yellow,,,,null,GW/leesburg.png,GW/cornwall.png,,,,,,,,,,,,,,,,,,
null,,rt_plussign_withcolor,952239,,yellow,,,,null,GW/leesburg.png,GW/cornwall.png,,,,,,,,,,,,,,,,,,
777.3999999999069,,rt_thecrossant_black,953824,,black_plus_sign,,,,50,,,1,1,,,,,,,,,,,,,,,,
null,,color_black,953934,,black_plus_sign,,,,null,,,,,,,,,,,,,,,,,,,,
null,,learn_phase(without_color),956942,,black_plus_sign,,,,null,GW/huntsville.png,GW/leesburg.png,,,,,,,,,,,,,,,,,,
null,,black_cross(without_color),957748,,blue,,,,null,GW/huntsville.png,GW/leesburg.png,,,,,,,,,,,,,,,,,,
null,,rt_plussign_withcolor,958252,,blue,,,,null,GW/huntsville.png,GW/leesburg.png,,,,,,,,,,,,,,,,,,
610.3999999999069,,rt_thecrossant_black,959460,,black_plus_sign,,,,49,,,1,1,,,,,,,,,,,,,,,,
null,,color_black,959565,,black_plus_sign,,,,null,,,,,,,,,,,,,,,,,,,,
null,,learn_phase(without_color),962573,,black_plus_sign,,,,null,GW/peoria.png,GW/westpalmbeach.png,,,,,,,,,,,,,,,,,,
null,,black_cross(without_color),963670,,blue,,,,null,GW/peoria.png,GW/westpalmbeach.png,,,,,,,,,,,,,,,,,,
null,,rt_plussign_withcolor,964175,,blue,,,,null,GW/peoria.png,GW/westpalmbeach.png,,,,,,,,,,,,,,,,,,
999.3000000002794,,rt_thecrossant_black,965092,,black_plus_sign,,,,49,,,1,1,,,,,,,,,,,,,,,,
null,,color_black,965196,,black_plus_sign,,,,null,,,,,,,,,,,,,,,,,,,,
null,,learn_phase(without_color),968209,,black_plus_sign,,,,null,GW/peoria.png,GW/huntsville.png,,,,,,,,,,,,,,,,,,
null,,black_cross(without_color),968717,,yellow,,,,null,GW/peoria.png,GW/huntsville.png,,,,,,,,,,,,,,,,,,
null,,rt_plussign_withcolor,969225,,yellow,,,,null,GW/peoria.png,GW/huntsville.png,,,,,,,,,,,,,,,,,,
1265.5999999996275,,rt_thecrossant_black,970735,,black_plus_sign,,,,50,,,1,1,,,,,,,,,,,,,,,,
null,,color_black,970844,,black_plus_sign,,,,null,,,,,,,,,,,,,,,,,,,,
null,,learn_phase(without_color),973857,,black_plus_sign,,,,null,GW/racine.png,GW/boulder.png,,,,,,,,,,,,,,,,,,
null,,black_cross(without_color),974421,,blue,,,,null,GW/racine.png,GW/boulder.png,,,,,,,,,,,,,,,,,,
null,,rt_plussign_withcolor,974928,,blue,,,,null,GW/racine.png,GW/boulder.png,,,,,,,,,,,,,,,,,,
629.5,,rt_thecrossant_black,976383,,black_plus_sign,,,,49,,,1,1,,,,,,,,,,,,,,,,
null,,color_black,976493,,black_plus_sign,,,,null,,,,,,,,,,,,,,,,,,,,
null,,learn_phase(without_color),979505,,black_plus_sign,,,,null,GW/cornwall.png,GW/hotsprings.png,,,,,,,,,,,,,,,,,,
null,,black_cross(without_color),980342,,blue,,,,null,GW/cornwall.png,GW/hotsprings.png,,,,,,,,,,,,,,,,,,
null,,rt_plussign_withcolor,980847,,blue,,,,null,GW/cornwall.png,GW/hotsprings.png,,,,,,,,,,,,,,,,,,
801.2999999998137,,rt_thecrossant_black,982023,,black_plus_sign,,,,49,,,1,1,,,,,,,,,,,,,,,,
null,,color_black,982136,,black_plus_sign,,,,null,,,,,,,,,,,,,,,,,,,,
null,,learn_phase(without_color),985143,,black_plus_sign,,,,null,GW/huntsville.png,GW/hotsprings.png,,,,,,,,,,,,,,,,,,
null,,black_cross(without_color),985793,,blue,,,,null,GW/huntsville.png,GW/hotsprings.png,,,,,,,,,,,,,,,,,,
null,,rt_plussign_withcolor,986304,,blue,,,,null,GW/huntsville.png,GW/hotsprings.png,,,,,,,,,,,,,,,,,,
1190.7000000001863,,rt_thecrossant_black,987674,,black_plus_sign,,,,49,,,1,1,,,,,,,,,,,,,,,,
null,,color_black,987784,,black_plus_sign,,,,null,,,,,,,,,,,,,,,,,,,,
null,,learn_phase(without_color),990791,,black_plus_sign,,,,null,GW/carmel.png,GW/leesburg.png,,,,,,,,,,,,,,,,,,
null,,black_cross(without_color),991215,,yellow,,,,null,GW/carmel.png,GW/leesburg.png,,,,,,,,,,,,,,,,,,
null,,rt_plussign_withcolor,991726,,yellow,,,,null,GW/carmel.png,GW/leesburg.png,,,,,,,,,,,,,,,,,,
874.5,,rt_thecrossant_black,993317,,black_plus_sign,,,,50,,,1,1,,,,,,,,,,,,,,,,
null,,color_black,993421,,black_plus_sign,,,,null,,,,,,,,,,,,,,,,,,,,
null,,learn_phase(without_color),996434,,black_plus_sign,,,,null,GW/hanover.png,GW/shreveport.png,,,,,,,,,,,,,,,,,,
null,,black_cross(without_color),997090,,yellow,,,,null,GW/hanover.png,GW/shreveport.png,,,,,,,,,,,,,,,,,,
495.5,,rt_plussign_withcolor,997599,,yellow,,,,49,GW/hanover.png,GW/shreveport.png,,,,,,,,,,,,,,,,,,
null,,rt_thecrossant_black,998959,,black_plus_sign,,,,50,,,0,0.989247311827957,,,,,,,,,,,,,,,,
null,,color_black,999070,,black_plus_sign,,,,null,,,,,,,,,,,,,,,,,,,,
null,,learn_phase(without_color),1002077,,black_plus_sign,,,,null,GW/peoria.png,GW/huntsville.png,,,,,,,,,,,,,,,,,,
null,,black_cross(without_color),1002959,,yellow,,,,null,GW/peoria.png,GW/huntsville.png,,,,,,,,,,,,,,,,,,
null,,rt_plussign_withcolor,1003464,,yellow,,,,null,GW/peoria.png,GW/huntsville.png,,,,,,,,,,,,,,,,,,
834.8999999999069,,rt_thecrossant_black,1004602,,black_plus_sign,,,,50,,,1,0.9893617021276596,,,,,,,,,,,,,,,,
null,,color_black,1004710,,black_plus_sign,,,,null,,,,,,,,,,,,,,,,,,,,
null,,learn_phase(without_color),1007719,,black_plus_sign,,,,null,GW/gatlinburg.png,GW/newhope.png,,,,,,,,,,,,,,,,,,
null,,black_cross(without_color),1008137,,blue,,,,null,GW/gatlinburg.png,GW/newhope.png,,,,,,,,,,,,,,,,,,
null,,rt_plussign_withcolor,1008648,,blue,,,,null,GW/gatlinburg.png,GW/newhope.png,,,,,,,,,,,,,,,,,,
1060.5,,rt_thecrossant_black,1010250,,black_plus_sign,,,,49,,,1,0.9894736842105263,,,,,,,,,,,,,,,,
null,,color_black,1010361,,black_plus_sign,,,,null,,,,,,,,,,,,,,,,,,,,
null,,learn_phase(without_color),1013368,,black_plus_sign,,,,null,GW/carmel.png,GW/racine.png,,,,,,,,,,,,,,,,,,
null,,black_cross(without_color),1013966,,yellow,,,,null,GW/carmel.png,GW/racine.png,,,,,,,,,,,,,,,,,,
null,,rt_plussign_withcolor,1014471,,yellow,,,,null,GW/carmel.png,GW/racine.png,,,,,,,,,,,,,,,,,,
759.9000000003725,,rt_thecrossant_black,1015887,,black_plus_sign,,,,50,,,1,0.9895833333333334,,,,,,,,,,,,,,,,
null,,color_black,1015997,,black_plus_sign,,,,null,,,,,,,,,,,,,,,,,,,,
null,,learn_phase(without_color),1019010,,black_plus_sign,,,,null,GW/huntsville.png,GW/hotsprings.png,,,,,,,,,,,,,,,,,,
null,,black_cross(without_color),1019626,,yellow,,,,null,GW/huntsville.png,GW/hotsprings.png,,,,,,,,,,,,,,,,,,
null,,rt_plussign_withcolor,1020136,,yellow,,,,null,GW/huntsville.png,GW/hotsprings.png,,,,,,,,,,,,,,,,,,
866.5,,rt_thecrossant_black,1021536,,black_plus_sign,,,,50,,,1,0.9896907216494846,,,,,,,,,,,,,,,,
null,,color_black,1021646,,black_plus_sign,,,,null,,,,,,,,,,,,,,,,,,,,
null,,learn_phase(without_color),1024658,,black_plus_sign,,,,null,GW/hotsprings.png,GW/shreveport.png,,,,,,,,,,,,,,,,,,
null,,black_cross(without_color),1025442,,yellow,,,,null,GW/hotsprings.png,GW/shreveport.png,,,,,,,,,,,,,,,,,,
null,,rt_plussign_withcolor,1025953,,yellow,,,,null,GW/hotsprings.png,GW/shreveport.png,,,,,,,,,,,,,,,,,,
824.6000000000931,,rt_thecrossant_black,1027190,,black_plus_sign,,,,50,,,1,0.9897959183673469,,,,,,,,,,,,,,,,
null,,color_black,1027294,,black_plus_sign,,,,null,,,,,,,,,,,,,,,,,,,,
null,,learn_phase(without_color),1030307,,black_plus_sign,,,,null,GW/gatlinburg.png,GW/newhope.png,,,,,,,,,,,,,,,,,,
null,,black_cross(without_color),1031137,,yellow,,,,null,GW/gatlinburg.png,GW/newhope.png,,,,,,,,,,,,,,,,,,
null,,rt_plussign_withcolor,1031647,,yellow,,,,null,GW/gatlinburg.png,GW/newhope.png,,,,,,,,,,,,,,,,,,
938.1000000000931,,rt_thecrossant_black,1032838,,black_plus_sign,,,,50,,,1,0.98989898989899,,,,,,,,,,,,,,,,
null,,color_black,1032943,,black_plus_sign,,,,null,,,,,,,,,,,,,,,,,,,,
null,,learn_phase(without_color),1035954,,black_plus_sign,,,,null,GW/cornwall.png,GW/leesburg.png,,,,,,,,,,,,,,,,,,
null,,black_cross(without_color),1036402,,yellow,,,,null,GW/cornwall.png,GW/leesburg.png,,,,,,,,,,,,,,,,,,
null,,rt_plussign_withcolor,1036913,,yellow,,,,null,GW/cornwall.png,GW/leesburg.png,,,,,,,,,,,,,,,,,,
955.3999999999069,,rt_thecrossant_black,1038486,,black_plus_sign,,,,50,,,1,0.99,,,,,,,,,,,,,,,,
null,,color_black,1038591,,black_plus_sign,,,,null,,,,,,,,,,,,,,,,,,,,
null,,learn_phase(without_color),1041604,,black_plus_sign,,,,null,GW/racine.png,GW/boulder.png,,,,,,,,,,,,,,,,,,
null,,black_cross(without_color),1042208,,yellow,,,,null,GW/racine.png,GW/boulder.png,,,,,,,,,,,,,,,,,,
null,,rt_plussign_withcolor,1042713,,yellow,,,,null,GW/racine.png,GW/boulder.png,,,,,,,,,,,,,,,,,,
671.5,,rt_thecrossant_black,1044129,,black_plus_sign,,,,50,,,1,0.9900990099009901,,,,,,,,,,,,,,,,
null,,color_black,1044240,,black_plus_sign,,,,null,,,,,,,,,,,,,,,,,,,,
null,,learn_phase(without_color),1047247,,black_plus_sign,,,,null,GW/huntsville.png,GW/hotsprings.png,,,,,,,,,,,,,,,,,,
null,,black_cross(without_color),1047966,,yellow,,,,null,GW/huntsville.png,GW/hotsprings.png,,,,,,,,,,,,,,,,,,
null,,rt_plussign_withcolor,1048472,,yellow,,,,null,GW/huntsville.png,GW/hotsprings.png,,,,,,,,,,,,,,,,,,
757.5,,rt_thecrossant_black,1049772,,black_plus_sign,,,,50,,,1,0.9901960784313726,,,,,,,,,,,,,,,,
null,,color_black,1049882,,black_plus_sign,,,,null,,,,,,,,,,,,,,,,,,,,
null,,learn_phase(without_color),1052887,,black_plus_sign,,,,null,GW/carmel.png,GW/racine.png,,,,,,,,,,,,,,,,,,
null,,black_cross(without_color),1053946,,blue,,,,null,GW/carmel.png,GW/racine.png,,,,,,,,,,,,,,,,,,
null,,rt_plussign_withcolor,1054456,,blue,,,,null,GW/carmel.png,GW/racine.png,,,,,,,,,,,,,,,,,,
948,,rt_thecrossant_black,1055414,,black_plus_sign,,,,49,,,1,0.9902912621359223,,,,,,,,,,,,,,,,
null,,color_black,1055524,,black_plus_sign,,,,null,,,,,,,,,,,,,,,,,,,,
null,,learn_phase(without_color),1058526,,black_plus_sign,,,,null,GW/shreveport.png,GW/peoria.png,,,,,,,,,,,,,,,,,,
null,,black_cross(without_color),1059124,,blue,,,,null,GW/shreveport.png,GW/peoria.png,,,,,,,,,,,,,,,,,,
null,,rt_plussign_withcolor,1059635,,blue,,,,null,GW/shreveport.png,GW/peoria.png,,,,,,,,,,,,,,,,,,
1200.1999999997206,,rt_thecrossant_black,1061057,,black_plus_sign,,,,49,,,1,0.9903846153846154,,,,,,,,,,,,,,,,
null,,color_black,1061168,,black_plus_sign,,,,null,,,,,,,,,,,,,,,,,,,,
null,,learn_phase(without_color),1064179,,black_plus_sign,,,,null,GW/shreveport.png,GW/peoria.png,,,,,,,,,,,,,,,,,,
null,,black_cross(without_color),1065283,,blue,,,,null,GW/shreveport.png,GW/peoria.png,,,,,,,,,,,,,,,,,,
394.40000000037253,,rt_plussign_withcolor,1065788,,blue,,,,49,GW/shreveport.png,GW/peoria.png,,,,,,,,,,,,,,,,,,
null,,rt_thecrossant_black,1066706,,black_plus_sign,,,,null,,,1,0.9904761904761905,,,,,,,,,,,,,,,,
null,,color_black,1066815,,black_plus_sign,,,,null,,,,,,,,,,,,,,,,,,,,
null,,learn_phase(without_color),1069828,,black_plus_sign,,,,null,GW/huntsville.png,GW/shreveport.png,,,,,,,,,,,,,,,,,,
null,,black_cross(without_color),1070816,,yellow,,,,null,GW/huntsville.png,GW/shreveport.png,,,,,,,,,,,,,,,,,,
335.10000000009313,,rt_plussign_withcolor,1071321,,yellow,,,,49,GW/huntsville.png,GW/shreveport.png,,,,,,,,,,,,,,,,,,
null,,rt_thecrossant_black,1072354,,black_plus_sign,,,,50,,,0,0.9811320754716981,,,,,,,,,,,,,,,,
null,,color_black,1072464,,black_plus_sign,,,,null,,,,,,,,,,,,,,,,,,,,
null,,learn_phase(without_color),1075471,,black_plus_sign,,,,null,GW/huntsville.png,GW/hotsprings.png,,,,,,,,,,,,,,,,,,
null,,black_cross(without_color),1075953,,blue,,,,null,GW/huntsville.png,GW/hotsprings.png,,,,,,,,,,,,,,,,,,
null,,rt_plussign_withcolor,1076458,,blue,,,,null,GW/huntsville.png,GW/hotsprings.png,,,,,,,,,,,,,,,,,,
1272.2000000001863,,rt_thecrossant_black,1077991,,black_plus_sign,,,,49,,,1,0.9813084112149533,,,,,,,,,,,,,,,,
null,,color_black,1078095,,black_plus_sign,,,,null,,,,,,,,,,,,,,,,,,,,
null,,learn_phase(without_color),1081108,,black_plus_sign,,,,null,GW/racine.png,GW/gatlinburg.png,,,,,,,,,,,,,,,,,,
null,,black_cross(without_color),1082049,,yellow,,,,null,GW/racine.png,GW/gatlinburg.png,,,,,,,,,,,,,,,,,,
null,,rt_plussign_withcolor,1082554,,yellow,,,,null,GW/racine.png,GW/gatlinburg.png,,,,,,,,,,,,,,,,,,
809.2000000001863,,rt_thecrossant_black,1083626,,black_plus_sign,,,,50,,,1,0.9814814814814815,,,,,,,,,,,,,,,,
null,,color_black,1083738,,black_plus_sign,,,,null,,,,,,,,,,,,,,,,,,,,
null,,learn_phase(without_color),1086745,,black_plus_sign,,,,null,GW/huntsville.png,GW/peoria.png,,,,,,,,,,,,,,,,,,
null,,black_cross(without_color),1087372,,yellow,,,,null,GW/huntsville.png,GW/peoria.png,,,,,,,,,,,,,,,,,,
null,,rt_plussign_withcolor,1087883,,yellow,,,,null,GW/huntsville.png,GW/peoria.png,,,,,,,,,,,,,,,,,,
1283.7999999998137,,rt_thecrossant_black,1089282,,black_plus_sign,,,,50,,,1,0.981651376146789,,,,,,,,,,,,,,,,
null,,color_black,1089392,,black_plus_sign,,,,null,,,,,,,,,,,,,,,,,,,,
null,,learn_phase(without_color),1092400,,black_plus_sign,,,,null,GW/racine.png,GW/gatlinburg.png,,,,,,,,,,,,,,,,,,
null,,black_cross(without_color),1093060,,yellow,,,,null,GW/racine.png,GW/gatlinburg.png,,,,,,,,,,,,,,,,,,
null,,rt_plussign_withcolor,1093562,,yellow,,,,null,GW/racine.png,GW/gatlinburg.png,,,,,,,,,,,,,,,,,,
896.3000000002794,,rt_thecrossant_black,1094913,,black_plus_sign,,,,50,,,1,0.9818181818181818,,,,,,,,,,,,,,,,
null,,color_black,1095019,,black_plus_sign,,,,null,,,,,,,,,,,,,,,,,,,,
null,,learn_phase(without_color),1098024,,black_plus_sign,,,,null,GW/hanover.png,GW/shreveport.png,,,,,,,,,,,,,,,,,,
null,,black_cross(without_color),1098937,,yellow,,,,null,GW/hanover.png,GW/shreveport.png,,,,,,,,,,,,,,,,,,
null,,rt_plussign_withcolor,1099440,,yellow,,,,null,GW/hanover.png,GW/shreveport.png,,,,,,,,,,,,,,,,,,
914.5999999996275,,rt_thecrossant_black,1100544,,black_plus_sign,,,,50,,,1,0.9819819819819819,,,,,,,,,,,,,,,,
null,,color_black,1100648,,black_plus_sign,,,,null,,,,,,,,,,,,,,,,,,,,
null,,learn_phase(without_color),1103661,,black_plus_sign,,,,null,GW/shreveport.png,GW/huntsville.png,,,,,,,,,,,,,,,,,,
null,,black_cross(without_color),1104147,,yellow,,,,null,GW/shreveport.png,GW/huntsville.png,,,,,,,,,,,,,,,,,,
null,,rt_plussign_withcolor,1104658,,yellow,,,,null,GW/shreveport.png,GW/huntsville.png,,,,,,,,,,,,,,,,,,
1078.6000000000931,,rt_thecrossant_black,1106187,,black_plus_sign,,,,50,,,1,0.9821428571428571,,,,,,,,,,,,,,,,
null,,color_black,1106296,,black_plus_sign,,,,null,,,,,,,,,,,,,,,,,,,,
null,,learn_phase(without_color),1109309,,black_plus_sign,,,,null,GW/peoria.png,GW/huntsville.png,,,,,,,,,,,,,,,,,,
null,,black_cross(without_color),1110018,,yellow,,,,null,GW/peoria.png,GW/huntsville.png,,,,,,,,,,,,,,,,,,
null,,rt_plussign_withcolor,1110523,,yellow,,,,null,GW/peoria.png,GW/huntsville.png,,,,,,,,,,,,,,,,,,
781.5999999996275,,rt_thecrossant_black,1111835,,black_plus_sign,,,,50,,,1,0.9823008849557522,,,,,,,,,,,,,,,,
null,,color_black,1111945,,black_plus_sign,,,,null,,,,,,,,,,,,,,,,,,,,
null,,learn_phase(without_color),1114955,,black_plus_sign,,,,null,GW/shreveport.png,GW/huntsville.png,,,,,,,,,,,,,,,,,,
null,,black_cross(without_color),1115922,,blue,,,,null,GW/shreveport.png,GW/huntsville.png,,,,,,,,,,,,,,,,,,
null,,rt_plussign_withcolor,1116426,,blue,,,,null,GW/shreveport.png,GW/huntsville.png,,,,,,,,,,,,,,,,,,
964.5,,rt_thecrossant_black,1117472,,black_plus_sign,,,,49,,,1,0.9824561403508771,,,,,,,,,,,,,,,,
null,,color_black,1117576,,black_plus_sign,,,,null,,,,,,,,,,,,,,,,,,,,
null,,learn_phase(without_color),1120589,,black_plus_sign,,,,null,GW/peoria.png,GW/huntsville.png,,,,,,,,,,,,,,,,,,
null,,black_cross(without_color),1121065,,blue,,,,null,GW/peoria.png,GW/huntsville.png,,,,,,,,,,,,,,,,,,
null,,rt_plussign_withcolor,1121570,,blue,,,,null,GW/peoria.png,GW/huntsville.png,,,,,,,,,,,,,,,,,,
1214.8999999999069,,rt_thecrossant_black,1123114,,black_plus_sign,,,,49,,,1,0.9826086956521739,,,,,,,,,,,,,,,,
null,,color_black,1123225,,black_plus_sign,,,,null,,,,,,,,,,,,,,,,,,,,
null,,learn_phase(without_color),1126235,,black_plus_sign,,,,null,GW/racine.png,GW/boulder.png,,,,,,,,,,,,,,,,,,
null,,black_cross(without_color),1126812,,yellow,,,,null,GW/racine.png,GW/boulder.png,,,,,,,,,,,,,,,,,,
null,,rt_plussign_withcolor,1127317,,yellow,,,,null,GW/racine.png,GW/boulder.png,,,,,,,,,,,,,,,,,,
768.6000000000931,,rt_thecrossant_black,1128757,,black_plus_sign,,,,50,,,1,0.9827586206896551,,,,,,,,,,,,,,,,
null,,color_black,1128870,,black_plus_sign,,,,null,,,,,,,,,,,,,,,,,,,,
null,,learn_phase(without_color),1131886,,black_plus_sign,,,,null,GW/westpalmbeach.png,GW/peoria.png,,,,,,,,,,,,,,,,,,
null,,black_cross(without_color),1132565,,yellow,,,,null,GW/westpalmbeach.png,GW/peoria.png,,,,,,,,,,,,,,,,,,
null,,rt_plussign_withcolor,1133070,,yellow,,,,null,GW/westpalmbeach.png,GW/peoria.png,,,,,,,,,,,,,,,,,,
745.5,,rt_thecrossant_black,1134405,,black_plus_sign,,,,50,,,1,0.9829059829059829,,,,,,,,,,,,,,,,
null,,color_black,1134516,,black_plus_sign,,,,null,,,,,,,,,,,,,,,,,,,,
null,,learn_phase(without_color),1137523,,black_plus_sign,,,,null,GW/peoria.png,GW/westpalmbeach.png,,,,,,,,,,,,,,,,,,
null,,black_cross(without_color),1138394,,blue,,,,null,GW/peoria.png,GW/westpalmbeach.png,,,,,,,,,,,,,,,,,,
null,,rt_plussign_withcolor,1138898,,blue,,,,null,GW/peoria.png,GW/westpalmbeach.png,,,,,,,,,,,,,,,,,,
903.2000000001863,,rt_thecrossant_black,1140042,,black_plus_sign,,,,49,,,1,0.9830508474576272,,,,,,,,,,,,,,,,
null,,color_black,1140148,,black_plus_sign,,,,null,,,,,,,,,,,,,,,,,,,,
null,,learn_phase(without_color),1143154,,black_plus_sign,,,,null,GW/gatlinburg.png,GW/cornwall.png,,,,,,,,,,,,,,,,,,
null,,black_cross(without_color),1143833,,blue,,,,null,GW/gatlinburg.png,GW/cornwall.png,,,,,,,,,,,,,,,,,,
null,,rt_plussign_withcolor,1144338,,blue,,,,null,GW/gatlinburg.png,GW/cornwall.png,,,,,,,,,,,,,,,,,,
1165.7999999998137,,rt_thecrossant_black,1145673,,black_plus_sign,,,,49,,,1,0.9831932773109243,,,,,,,,,,,,,,,,
null,,color_black,1145778,,black_plus_sign,,,,null,,,,,,,,,,,,,,,,,,,,
null,,learn_phase(without_color),1148785,,black_plus_sign,,,,null,GW/cornwall.png,GW/gatlinburg.png,,,,,,,,,,,,,,,,,,
null,,black_cross(without_color),1149795,,yellow,,,,null,GW/cornwall.png,GW/gatlinburg.png,,,,,,,,,,,,,,,,,,
null,,rt_plussign_withcolor,1150300,,yellow,,,,null,GW/cornwall.png,GW/gatlinburg.png,,,,,,,,,,,,,,,,,,
916.7000000001863,,rt_thecrossant_black,1151310,,black_plus_sign,,,,50,,,1,0.9833333333333333,,,,,,,,,,,,,,,,
null,,color_black,1151423,,black_plus_sign,,,,null,,,,,,,,,,,,,,,,,,,,
null,,learn_phase(without_color),1154438,,black_plus_sign,,,,null,GW/leesburg.png,GW/cornwall.png,,,,,,,,,,,,,,,,,,
null,,black_cross(without_color),1155495,,blue,,,,null,GW/leesburg.png,GW/cornwall.png,,,,,,,,,,,,,,,,,,
null,,rt_plussign_withcolor,1156004,,blue,,,,null,GW/leesburg.png,GW/cornwall.png,,,,,,,,,,,,,,,,,,
1286.3000000002794,,rt_thecrossant_black,1156966,,black_plus_sign,,,,49,,,1,0.9834710743801653,,,,,,,,,,,,,,,,
null,,color_black,1157074,,black_plus_sign,,,,null,,,,,,,,,,,,,,,,,,,,
null,,learn_phase(without_color),1160082,,black_plus_sign,,,,null,GW/carmel.png,GW/leesburg.png,,,,,,,,,,,,,,,,,,
null,,black_cross(without_color),1160946,,blue,,,,null,GW/carmel.png,GW/leesburg.png,,,,,,,,,,,,,,,,,,
null,,rt_plussign_withcolor,1161452,,blue,,,,null,GW/carmel.png,GW/leesburg.png,,,,,,,,,,,,,,,,,,
1241.7000000001863,,rt_thecrossant_black,1162607,,black_plus_sign,,,,49,,,1,0.9836065573770492,,,,,,,,,,,,,,,,
null,,color_black,1162714,,black_plus_sign,,,,null,,,,,,,,,,,,,,,,,,,,
null,,learn_phase(without_color),1165723,,black_plus_sign,,,,null,GW/carmel.png,GW/racine.png,,,,,,,,,,,,,,,,,,
null,,black_cross(without_color),1166746,,yellow,,,,null,GW/carmel.png,GW/racine.png,,,,,,,,,,,,,,,,,,
276.3000000002794,,rt_plussign_withcolor,1167251,,yellow,,,,49,GW/carmel.png,GW/racine.png,,,,,,,,,,,,,,,,,,
null,,rt_thecrossant_black,1168244,,black_plus_sign,,,,50,,,0,0.975609756097561,,,,,,,,,,,,,,,,
null,,color_black,1168359,,black_plus_sign,,,,null,,,,,,,,,,,,,,,,,,,,
null,,learn_phase(without_color),1171373,,black_plus_sign,,,,null,GW/huntsville.png,GW/leesburg.png,,,,,,,,,,,,,,,,,,
null,,black_cross(without_color),1171828,,yellow,,,,null,GW/huntsville.png,GW/leesburg.png,,,,,,,,,,,,,,,,,,
null,,rt_plussign_withcolor,1172331,,yellow,,,,null,GW/huntsville.png,GW/leesburg.png,,,,,,,,,,,,,,,,,,
1258.1000000000931,,rt_thecrossant_black,1173892,,black_plus_sign,,,,50,,,1,0.9758064516129032,,,,,,,,,,,,,,,,
null,,color_black,1174003,,black_plus_sign,,,,null,,,,,,,,,,,,,,,,,,,,
null,,learn_phase(without_color),1177015,,black_plus_sign,,,,null,GW/huntsville.png,GW/leesburg.png,,,,,,,,,,,,,,,,,,
null,,black_cross(without_color),1177551,,blue,,,,null,GW/huntsville.png,GW/leesburg.png,,,,,,,,,,,,,,,,,,
null,,rt_plussign_withcolor,1178060,,blue,,,,null,GW/huntsville.png,GW/leesburg.png,,,,,,,,,,,,,,,,,,
768.1000000000931,,rt_thecrossant_black,1179552,,black_plus_sign,,,,49,,,1,0.976,,,,,,,,,,,,,,,,
null,,color_black,1179662,,black_plus_sign,,,,null,,,,,,,,,,,,,,,,,,,,
null,,learn_phase(without_color),1182668,,black_plus_sign,,,,null,GW/hotsprings.png,GW/cornwall.png,,,,,,,,,,,,,,,,,,
null,,black_cross(without_color),1183087,,yellow,,,,null,GW/hotsprings.png,GW/cornwall.png,,,,,,,,,,,,,,,,,,
null,,rt_plussign_withcolor,1183598,,yellow,,,,null,GW/hotsprings.png,GW/cornwall.png,,,,,,,,,,,,,,,,,,
712.5,,rt_thecrossant_black,1185195,,black_plus_sign,,,,50,,,1,0.9761904761904762,,,,,,,,,,,,,,,,
null,,color_black,1185299,,black_plus_sign,,,,null,,,,,,,,,,,,,,,,,,,,
null,,learn_phase(without_color),1188312,,black_plus_sign,,,,null,GW/hotsprings.png,GW/shreveport.png,,,,,,,,,,,,,,,,,,
null,,black_cross(without_color),1189318,,blue,,,,null,GW/hotsprings.png,GW/shreveport.png,,,,,,,,,,,,,,,,,,
null,,rt_plussign_withcolor,1189827,,blue,,,,null,GW/hotsprings.png,GW/shreveport.png,,,,,,,,,,,,,,,,,,
675.5999999996275,,rt_thecrossant_black,1190843,,black_plus_sign,,,,49,,,1,0.9763779527559056,,,,,,,,,,,,,,,,
null,,color_black,1190948,,black_plus_sign,,,,null,,,,,,,,,,,,,,,,,,,,
null,,learn_phase(without_color),1193955,,black_plus_sign,,,,null,GW/shreveport.png,GW/huntsville.png,,,,,,,,,,,,,,,,,,
null,,black_cross(without_color),1194791,,blue,,,,null,GW/shreveport.png,GW/huntsville.png,,,,,,,,,,,,,,,,,,
null,,rt_plussign_withcolor,1195295,,blue,,,,null,GW/shreveport.png,GW/huntsville.png,,,,,,,,,,,,,,,,,,
1179.2999999998137,,rt_thecrossant_black,1196478,,black_plus_sign,,,,49,,,1,0.9765625,,,,,,,,,,,,,,,,
null,,color_black,1196590,,black_plus_sign,,,,null,,,,,,,,,,,,,,,,,,,,
null,,learn_break,1256613,,learn_break,,,,null,,,,,,,,,,,,,,,,,,,,
28660.100000000093,,intro_1,1285278,,instruct,,0,Start,,,,,,,,,,,,,,,,,,,,,
3098.399999999907,,directmemory_phase,1288378,,GW/huntsville.png,,,,49,,,1,1,GW/shreveport.png,GW/boulder.png,GW/carmel.png,GW/shreveport.png,GW/carmel.png,GW/boulder.png,1,,,,,,,,,
null,,html-keyboard-response,1289383,,<p></p>,,,,null,,,,,,,,,,,,,,,,,,,,
2040.8999999999069,,directmemory_phase,1291425,,GW/cornwall.png,,,,51,,,1,1,GW/boulder.png,GW/racine.png,GW/hotsprings.png,GW/hotsprings.png,GW/racine.png,GW/boulder.png,1,,,,,,,,,
null,,html-keyboard-response,1292433,,<p></p>,,,,null,,,,,,,,,,,,,,,,,,,,
1815.5,,directmemory_phase,1294250,,GW/peoria.png,,,,50,,,1,1,GW/hotsprings.png,GW/shreveport.png,GW/racine.png,GW/shreveport.png,GW/hotsprings.png,GW/racine.png,1,,,,,,,,,
null,,html-keyboard-response,1295259,,<p></p>,,,,null,,,,,,,,,,,,,,,,,,,,
3347.4000000003725,,directmemory_phase,1298608,,GW/leesburg.png,,,,51,,,1,1,GW/hanover.png,GW/shreveport.png,GW/huntsville.png,GW/huntsville.png,GW/shreveport.png,GW/hanover.png,1,,,,,,,,,
null,,html-keyboard-response,1299614,,<p></p>,,,,null,,,,,,,,,,,,,,,,,,,,
1892.5,,directmemory_phase,1301509,,GW/shreveport.png,,,,49,,,1,1,GW/hotsprings.png,GW/carmel.png,GW/leesburg.png,GW/hotsprings.png,GW/leesburg.png,GW/carmel.png,1,,,,,,,,,
null,,html-keyboard-response,1302523,,<p></p>,,,,null,,,,,,,,,,,,,,,,,,,,
2222.8000000002794,,directmemory_phase,1304747,,GW/peoria.png,,,,51,,,1,1,GW/racine.png,GW/hotsprings.png,GW/huntsville.png,GW/huntsville.png,GW/hotsprings.png,GW/racine.png,1,,,,,,,,,
null,,html-keyboard-response,1305756,,<p></p>,,,,null,,,,,,,,,,,,,,,,,,,,
3582.899999999907,,directmemory_phase,1309341,,GW/racine.png,,,,49,,,1,1,GW/carmel.png,GW/huntsville.png,GW/newhope.png,GW/carmel.png,GW/newhope.png,GW/huntsville.png,1,,,,,,,,,
null,,html-keyboard-response,1310348,,<p></p>,,,,null,,,,,,,,,,,,,,,,,,,,
1924,,directmemory_phase,1312274,,GW/huntsville.png,,,,49,,,1,1,GW/leesburg.png,GW/boulder.png,GW/carmel.png,GW/leesburg.png,GW/carmel.png,GW/boulder.png,1,,,,,,,,,
null,,html-keyboard-response,1313282,,<p></p>,,,,null,,,,,,,,,,,,,,,,,,,,
2314.399999999907,,directmemory_phase,1315598,,GW/shreveport.png,,,,49,,,1,1,GW/peoria.png,GW/racine.png,GW/leesburg.png,GW/peoria.png,GW/leesburg.png,GW/racine.png,1,,,,,,,,,
null,,html-keyboard-response,1316612,,<p></p>,,,,null,,,,,,,,,,,,,,,,,,,,
3210.8000000002794,,directmemory_phase,1319824,,GW/hotsprings.png,,,,51,,,1,1,GW/carmel.png,GW/leesburg.png,GW/huntsville.png,GW/huntsville.png,GW/leesburg.png,GW/carmel.png,1,,,,,,,,,
null,,html-keyboard-response,1320832,,<p></p>,,,,null,,,,,,,,,,,,,,,,,,,,
1958.6000000000931,,directmemory_phase,1322792,,GW/westpalmbeach.png,,,,51,,,1,1,GW/leesburg.png,GW/shreveport.png,GW/peoria.png,GW/peoria.png,GW/shreveport.png,GW/leesburg.png,1,,,,,,,,,
null,,html-keyboard-response,1323804,,<p></p>,,,,null,,,,,,,,,,,,,,,,,,,,
2148.9000000003725,,directmemory_phase,1325955,,GW/hotsprings.png,,,,49,,,1,1,GW/shreveport.png,GW/newhope.png,GW/gatlinburg.png,GW/shreveport.png,GW/gatlinburg.png,GW/newhope.png,1,,,,,,,,,
null,,html-keyboard-response,1326963,,<p></p>,,,,null,,,,,,,,,,,,,,,,,,,,
3248.7999999998137,,directmemory_phase,1330213,,GW/leesburg.png,,,,50,,,1,1,GW/hotsprings.png,GW/cornwall.png,GW/newhope.png,GW/cornwall.png,GW/hotsprings.png,GW/newhope.png,1,,,,,,,,,
null,,html-keyboard-response,1331218,,<p></p>,,,,null,,,,,,,,,,,,,,,,,,,,
1794.5,,directmemory_phase,1333014,,GW/newhope.png,,,,50,,,1,1,GW/cornwall.png,GW/gatlinburg.png,GW/carmel.png,GW/gatlinburg.png,GW/cornwall.png,GW/carmel.png,1,,,,,,,,,
null,,html-keyboard-response,1334017,,<p></p>,,,,null,,,,,,,,,,,,,,,,,,,,
1929.8000000002794,,directmemory_phase,1335948,,GW/cornwall.png,,,,49,,,1,1,GW/leesburg.png,GW/westpalmbeach.png,GW/shreveport.png,GW/leesburg.png,GW/shreveport.png,GW/westpalmbeach.png,1,,,,,,,,,
null,,html-keyboard-response,1336953,,<p></p>,,,,null,,,,,,,,,,,,,,,,,,,,
2190.899999999907,,directmemory_phase,1339145,,GW/racine.png,,,,49,,,1,1,GW/gatlinburg.png,GW/shreveport.png,GW/cornwall.png,GW/gatlinburg.png,GW/cornwall.png,GW/shreveport.png,1,,,,,,,,,
null,,html-keyboard-response,1340157,,<p></p>,,,,null,,,,,,,,,,,,,,,,,,,,
3087.1999999997206,,directmemory_phase,1343246,,GW/huntsville.png,,,,50,,,1,1,GW/cornwall.png,GW/peoria.png,GW/boulder.png,GW/peoria.png,GW/cornwall.png,GW/boulder.png,1,,,,,,,,,
null,,html-keyboard-response,1344256,,<p></p>,,,,null,,,,,,,,,,,,,,,,,,,,
2146.7000000001863,,directmemory_phase,1346404,,GW/racine.png,,,,49,,,1,1,GW/boulder.png,GW/shreveport.png,GW/newhope.png,GW/boulder.png,GW/newhope.png,GW/shreveport.png,1,,,,,,,,,
null,,html-keyboard-response,1347414,,<p></p>,,,,null,,,,,,,,,,,,,,,,,,,,
1954.7000000001863,,directmemory_phase,1349370,,GW/shreveport.png,,,,50,,,1,1,GW/westpalmbeach.png,GW/huntsville.png,GW/newhope.png,GW/huntsville.png,GW/westpalmbeach.png,GW/newhope.png,1,,,,,,,,,
null,,html-keyboard-response,1350380,,<p></p>,,,,null,,,,,,,,,,,,,,,,,,,,
1586.1999999997206,,directmemory_phase,1351968,,GW/gatlinburg.png,,,,51,,,1,1,GW/hanover.png,GW/carmel.png,GW/racine.png,GW/racine.png,GW/carmel.png,GW/hanover.png,1,,,,,,,,,
null,,html-keyboard-response,1352981,,<p></p>,,,,null,,,,,,,,,,,,,,,,,,,,
1725.6000000000931,,directmemory_phase,1354708,,GW/huntsville.png,,,,50,,,1,1,GW/carmel.png,GW/hotsprings.png,GW/newhope.png,GW/hotsprings.png,GW/carmel.png,GW/newhope.png,1,,,,,,,,,
null,,html-keyboard-response,1355717,,<p></p>,,,,null,,,,,,,,,,,,,,,,,,,,
2514.5,,directmemory_phase,1358233,,GW/cornwall.png,,,,51,,,1,1,GW/hanover.png,GW/racine.png,GW/gatlinburg.png,GW/gatlinburg.png,GW/racine.png,GW/hanover.png,1,,,,,,,,,
null,,html-keyboard-response,1359245,,<p></p>,,,,null,,,,,,,,,,,,,,,,,,,,
1389.6000000000931,,directmemory_phase,1360636,,GW/hanover.png,,,,50,,,1,1,GW/hotsprings.png,GW/shreveport.png,GW/leesburg.png,GW/shreveport.png,GW/hotsprings.png,GW/leesburg.png,1,,,,,,,,,
null,,html-keyboard-response,1361642,,<p></p>,,,,null,,,,,,,,,,,,,,,,,,,,
1856,,directmemory_phase,1363500,,GW/boulder.png,,,,51,,,1,1,GW/huntsville.png,GW/gatlinburg.png,GW/racine.png,GW/racine.png,GW/gatlinburg.png,GW/huntsville.png,1,,,,,,,,,
null,,html-keyboard-response,1364508,,<p></p>,,,,null,,,,,,,,,,,,,,,,,,,,
1563.5,,directmemory_phase,1366073,,GW/leesburg.png,,,,49,,,1,1,GW/carmel.png,GW/hanover.png,GW/shreveport.png,GW/carmel.png,GW/shreveport.png,GW/hanover.png,1,,,,,,,,,
null,,html-keyboard-response,1367081,,<p></p>,,,,null,,,,,,,,,,,,,,,,,,,,
1534.8999999999069,,directmemory_phase,1368618,,GW/shreveport.png,,,,49,,,1,1,GW/hanover.png,GW/carmel.png,GW/westpalmbeach.png,GW/hanover.png,GW/westpalmbeach.png,GW/carmel.png,1,,,,,,,,,
null,,html-keyboard-response,1369627,,<p></p>,,,,null,,,,,,,,,,,,,,,,,,,,
2394.5,,directmemory_phase,1372023,,GW/carmel.png,,,,49,,,1,1,GW/racine.png,GW/hotsprings.png,GW/boulder.png,GW/racine.png,GW/boulder.png,GW/hotsprings.png,1,,,,,,,,,
null,,html-keyboard-response,1373026,,<p></p>,,,,null,,,,,,,,,,,,,,,,,,,,
2310.7000000001863,,directmemory_phase,1375339,,GW/gatlinburg.png,,,,51,,,1,1,GW/hanover.png,GW/carmel.png,GW/cornwall.png,GW/cornwall.png,GW/carmel.png,GW/hanover.png,1,,,,,,,,,
null,,html-keyboard-response,1376347,,<p></p>,,,,null,,,,,,,,,,,,,,,,,,,,
1846.6999999997206,,directmemory_phase,1378195,,GW/carmel.png,,,,49,,,1,1,GW/leesburg.png,GW/hotsprings.png,GW/cornwall.png,GW/leesburg.png,GW/cornwall.png,GW/hotsprings.png,1,,,,,,,,,
null,,html-keyboard-response,1379203,,<p></p>,,,,null,,,,,,,,,,,,,,,,,,,,
2748.899999999907,,directmemory_phase,1381954,,GW/gatlinburg.png,,,,51,,,1,1,GW/peoria.png,GW/hotsprings.png,GW/newhope.png,GW/newhope.png,GW/hotsprings.png,GW/peoria.png,1,,,,,,,,,
null,,html-keyboard-response,1382965,,<p></p>,,,,null,,,,,,,,,,,,,,,,,,,,
1744,,directmemory_phase,1384711,,GW/hotsprings.png,,,,50,,,1,1,GW/hanover.png,GW/cornwall.png,GW/westpalmbeach.png,GW/cornwall.png,GW/hanover.png,GW/westpalmbeach.png,1,,,,,,,,,
null,,html-keyboard-response,1385717,,<p></p>,,,,null,,,,,,,,,,,,,,,,,,,,
2192.399999999907,,directmemory_phase,1387911,,GW/peoria.png,,,,50,,,0,0.96875,GW/racine.png,GW/hotsprings.png,GW/westpalmbeach.png,GW/westpalmbeach.png,GW/hotsprings.png,GW/racine.png,0.5,closer,,,,,,,,
null,,html-keyboard-response,1388919,,<p></p>,,,,null,,,,,,,,,,,,,,,,,,,,
58266,,intro_1,1447188,,instruct,,0,,,,,,,,,,,,,,,,,,,,,,
16574.399999999907,,intro_2,1463766,,instruct,,1,Next,,,,,,,,,,,,,,,,,,,,,
7996.399999999907,,intro_3,1471764,,instruct,,1,Next,,,,,,,,,,,,,,,,,,,,,
14644.700000000186,,intro_4,1486412,,instruct,,1,Next,,,,,,,,,,,,,,,,,,,,,
17803.900000000373,,intro_5,1504219,,instruct,,1,Next,,,,,,,,,,,,,,,,,,,,,
25097.700000000186,,intro_6,1529320,,instruct,,1,Next,,,,,,,,,,,,,,,,,,,,,
23382.700000000186,,intro_7,1552707,,instruct,,1,Next,,,,,,,,,,,,,,,,,,,,,
42981.69999999972,,intro_8,1595692,,instruct,,1,Next,,,,,,,,,,,,,,,,,,,,,
null,,shortestpath_phase,1603201,,GW/newhope.png,,,,null,GW/huntsville.png,GW/hanover.png,0,0,,,,GW/huntsville.png,,,,,One Edge Diff,Four Edge Five Edge,,,,,,
null,,warning_page,1606210,,warning,,,,null,,,,,,,,,,,,,,,,,,,,
null,,html-keyboard-response,1607213,,<p></p>,,,,null,,,,,,,,,,,,,,,,,,,,
2696,,shortestpath_phase,1609910,,GW/hotsprings.png,,,,50,GW/boulder.png,GW/hanover.png,1,0.5,,,,GW/hanover.png,,,,,Two Edge Diff,Two Edge Four Edge,,,,,,
null,,html-keyboard-response,1610922,,<p></p>,,,,null,,,,,,,,,,,,,,,,,,,,
2438.600000000093,,shortestpath_phase,1613362,,GW/boulder.png,,,,49,GW/huntsville.png,GW/hanover.png,1,0.6666666666666666,,,,GW/huntsville.png,,,,,Two Edge Diff,Four Edge Six Edge,,,,,,
null,,html-keyboard-response,1614370,,<p></p>,,,,null,,,,,,,,,,,,,,,,,,,,
2204.7000000001863,,shortestpath_phase,1616577,,GW/hanover.png,,,,49,GW/boulder.png,GW/peoria.png,0,0.5,,,,GW/peoria.png,,,,,Four Edge Diff,Two Edge Six Edge,,,,,,
null,,html-keyboard-response,1617585,,<p></p>,,,,null,,,,,,,,,,,,,,,,,,,,
1608.8999999999069,,shortestpath_phase,1619196,,GW/westpalmbeach.png,,,,50,GW/boulder.png,GW/shreveport.png,1,0.6,,,,GW/shreveport.png,,,,,Four Edge Diff,Two Edge Six Edge,,,,,,
null,,html-keyboard-response,1620204,,<p></p>,,,,null,,,,,,,,,,,,,,,,,,,,
1828,,shortestpath_phase,1622034,,GW/carmel.png,,,,50,GW/newhope.png,GW/huntsville.png,1,0.6666666666666666,,,,GW/huntsville.png,,,,,One Edge Diff,Two Edge Three Edge,,,,,,
null,,html-keyboard-response,1623043,,<p></p>,,,,null,,,,,,,,,,,,,,,,,,,,
1467.2999999998137,,shortestpath_phase,1624512,,GW/hanover.png,,,,50,GW/newhope.png,GW/peoria.png,1,0.7142857142857143,,,,GW/peoria.png,,,,,Three Edge Diff,Two Edge Five Edge,,,,,,
null,,html-keyboard-response,1625522,,<p></p>,,,,null,,,,,,,,,,,,,,,,,,,,
2015.1000000000931,,shortestpath_phase,1627539,,GW/racine.png,,,,49,GW/westpalmbeach.png,GW/newhope.png,0,0.625,,,,GW/newhope.png,,,,,Three Edge Diff,Three Edge Six Edge,,,,,,
null,,html-keyboard-response,1628547,,<p></p>,,,,null,,,,,,,,,,,,,,,,,,,,
1668.5,,shortestpath_phase,1630217,,GW/peoria.png,,,,50,GW/hanover.png,GW/boulder.png,0,0.5555555555555556,,,,GW/hanover.png,,,,,Three Edge Diff,Two Edge Five Edge,,,,,,
null,,html-keyboard-response,1631229,,<p></p>,,,,null,,,,,,,,,,,,,,,,,,,,
1613.1999999997206,,shortestpath_phase,1632844,,GW/boulder.png,,,,50,GW/westpalmbeach.png,GW/gatlinburg.png,1,0.6,,,,GW/gatlinburg.png,,,,,Four Edge Diff,Two Edge Six Edge,,,,,,
null,,html-keyboard-response,1633851,,<p></p>,,,,null,,,,,,,,,,,,,,,,,,,,
1703.8999999999069,,shortestpath_phase,1635557,,GW/westpalmbeach.png,,,,50,GW/hotsprings.png,GW/cornwall.png,0,0.5454545454545454,,,,GW/hotsprings.png,,,,,One Edge Diff,Three Edge Four Edge,,,,,,
null,,html-keyboard-response,1636563,,<p></p>,,,,null,,,,,,,,,,,,,,,,,,,,
1567.6000000000931,,shortestpath_phase,1638132,,GW/gatlinburg.png,,,,49,GW/carmel.png,GW/huntsville.png,1,0.5833333333333334,,,,GW/carmel.png,,,,,One Edge Diff,Two Edge Three Edge,,,,,,
null,,html-keyboard-response,1639141,,<p></p>,,,,null,,,,,,,,,,,,,,,,,,,,
1515.6000000000931,,shortestpath_phase,1640657,,GW/peoria.png,,,,50,GW/newhope.png,GW/leesburg.png,1,0.6153846153846154,,,,GW/leesburg.png,,,,,Three Edge Diff,Three Edge Six Edge,,,,,,
null,,html-keyboard-response,1641666,,<p></p>,,,,null,,,,,,,,,,,,,,,,,,,,
1326.1999999997206,,shortestpath_phase,1642994,,GW/cornwall.png,,,,50,GW/westpalmbeach.png,GW/shreveport.png,1,0.6428571428571429,,,,GW/shreveport.png,,,,,Two Edge Diff,Two Edge Four Edge,,,,,,
null,,html-keyboard-response,1644006,,<p></p>,,,,null,,,,,,,,,,,,,,,,,,,,
1747.1000000000931,,shortestpath_phase,1645754,,GW/boulder.png,,,,49,GW/newhope.png,GW/hotsprings.png,1,0.6666666666666666,,,,GW/newhope.png,,,,,One Edge Diff,Three Edge Four Edge,,,,,,
null,,html-keyboard-response,1646763,,<p></p>,,,,null,,,,,,,,,,,,,,,,,,,,
1613.5,,shortestpath_phase,1648378,,GW/hotsprings.png,,,,49,GW/gatlinburg.png,GW/westpalmbeach.png,1,0.6875,,,,GW/gatlinburg.png,,,,,One Edge Diff,Two Edge Three Edge,,,,,,
null,,html-keyboard-response,1649383,,<p></p>,,,,null,,,,,,,,,,,,,,,,,,,,
1168,,shortestpath_phase,1650553,,GW/cornwall.png,,,,50,GW/newhope.png,GW/westpalmbeach.png,0,0.6470588235294118,,,,GW/newhope.png,,,,,Two Edge Diff,Two Edge Four Edge,,,,,,
null,,html-keyboard-response,1651563,,<p></p>,,,,null,,,,,,,,,,,,,,,,,,,,
1677,,shortestpath_phase,1653242,,GW/westpalmbeach.png,,,,49,GW/gatlinburg.png,GW/boulder.png,1,0.6666666666666666,,,,GW/gatlinburg.png,,,,,One Edge Diff,Five Edge Six Edge,,,,,,
null,,html-keyboard-response,1654250,,<p></p>,,,,null,,,,,,,,,,,,,,,,,,,,
1639.7999999998137,,shortestpath_phase,1655891,,GW/cornwall.png,,,,49,GW/huntsville.png,GW/westpalmbeach.png,1,0.6842105263157895,,,,GW/huntsville.png,,,,,Two Edge Diff,Two Edge Four Edge,,,,,,
null,,html-keyboard-response,1656899,,<p></p>,,,,null,,,,,,,,,,,,,,,,,,,,
1339.2999999998137,,shortestpath_phase,1658241,,GW/westpalmbeach.png,,,,50,GW/racine.png,GW/shreveport.png,1,0.7,,,,GW/shreveport.png,,,,,Three Edge Diff,Three Edge Six Edge,,,,,,
null,,html-keyboard-response,1659250,,<p></p>,,,,null,,,,,,,,,,,,,,,,,,,,
1621.3000000002794,,shortestpath_phase,1660873,,GW/gatlinburg.png,,,,50,GW/boulder.png,GW/westpalmbeach.png,0,0.6666666666666666,,,,GW/boulder.png,,,,,Three Edge Diff,Three Edge Six Edge,,,,,,
null,,html-keyboard-response,1661882,,<p></p>,,,,null,,,,,,,,,,,,,,,,,,,,
1116.7000000001863,,shortestpath_phase,1663000,,GW/westpalmbeach.png,,,,49,GW/boulder.png,GW/huntsville.png,0,0.6363636363636364,,,,GW/huntsville.png,,,,,Four Edge Diff,Two Edge Six Edge,,,,,,
null,,html-keyboard-response,1664010,,<p></p>,,,,null,,,,,,,,,,,,,,,,,,,,
1612.1999999997206,,shortestpath_phase,1665624,,GW/newhope.png,,,,50,GW/westpalmbeach.png,GW/racine.png,1,0.6521739130434783,,,,GW/racine.png,,,,,Four Edge Diff,Two Edge Six Edge,,,,,,
null,,html-keyboard-response,1666634,,<p></p>,,,,null,,,,,,,,,,,,,,,,,,,,
1641.6000000000931,,shortestpath_phase,1668278,,GW/carmel.png,,,,50,GW/gatlinburg.png,GW/peoria.png,0,0.625,,,,GW/gatlinburg.png,,,,,One Edge Diff,Two Edge Three Edge,,,,,,
null,,html-keyboard-response,1669287,,<p></p>,,,,null,,,,,,,,,,,,,,,,,,,,
1383.1999999997206,,shortestpath_phase,1670672,,GW/westpalmbeach.png,,,,50,GW/newhope.png,GW/shreveport.png,1,0.64,,,,GW/shreveport.png,,,,,Four Edge Diff,Two Edge Six Edge,,,,,,
null,,html-keyboard-response,1671679,,<p></p>,,,,null,,,,,,,,,,,,,,,,,,,,
1682.5,,shortestpath_phase,1673363,,GW/hanover.png,,,,50,GW/huntsville.png,GW/racine.png,0,0.6153846153846154,,,,GW/huntsville.png,,,,,Three Edge Diff,Three Edge Six Edge,,,,,,
null,,html-keyboard-response,1674371,,<p></p>,,,,null,,,,,,,,,,,,,,,,,,,,
1428.3999999999069,,shortestpath_phase,1675801,,GW/shreveport.png,,,,50,GW/newhope.png,GW/cornwall.png,1,0.6296296296296297,,,,GW/cornwall.png,,,,,Two Edge Diff,Two Edge Four Edge,,,,,,
null,,html-keyboard-response,1676804,,<p></p>,,,,null,,,,,,,,,,,,,,,,,,,,
1310,,shortestpath_phase,1678116,,GW/westpalmbeach.png,,,,49,GW/huntsville.png,GW/gatlinburg.png,1,0.6428571428571429,,,,GW/huntsville.png,,,,,Three Edge Diff,Three Edge Six Edge,,,,,,
null,,html-keyboard-response,1679124,,<p></p>,,,,null,,,,,,,,,,,,,,,,,,,,
1291.2000000001863,,shortestpath_phase,1680417,,GW/boulder.png,,,,50,GW/peoria.png,GW/gatlinburg.png,1,0.6551724137931034,,,,GW/gatlinburg.png,,,,,Three Edge Diff,Two Edge Five Edge,,,,,,
null,,html-keyboard-response,1681428,,<p></p>,,,,null,,,,,,,,,,,,,,,,,,,,
1660.8000000002794,,shortestpath_phase,1683091,,GW/newhope.png,,,,49,GW/shreveport.png,GW/westpalmbeach.png,1,0.6666666666666666,,,,GW/shreveport.png,,,,,Two Edge Diff,Four Edge Six Edge,,,,,,
null,,html-keyboard-response,1684104,,<p></p>,,,,null,,,,,,,,,,,,,,,,,,,,
1401.5999999996275,,shortestpath_phase,1685507,,GW/racine.png,,,,49,GW/cornwall.png,GW/westpalmbeach.png,1,0.6774193548387096,,,,GW/cornwall.png,,,,,Three Edge Diff,Two Edge Five Edge,,,,,,
null,,html-keyboard-response,1686517,,<p></p>,,,,null,,,,,,,,,,,,,,,,,,,,
1360.8999999999069,,shortestpath_phase,1687880,,GW/hanover.png,,,,49,GW/peoria.png,GW/newhope.png,1,0.6875,,,,GW/peoria.png,,,,,Three Edge Diff,Three Edge Six Edge,,,,,,
null,,html-keyboard-response,1688884,,<p></p>,,,,null,,,,,,,,,,,,,,,,,,,,
1155.1000000000931,,shortestpath_phase,1690041,,GW/newhope.png,,,,50,GW/cornwall.png,GW/westpalmbeach.png,0,0.6666666666666666,,,,GW/cornwall.png,,,,,Four Edge Diff,Two Edge Six Edge,,,,,,
null,,html-keyboard-response,1691045,,<p></p>,,,,null,,,,,,,,,,,,,,,,,,,,
1193.8999999999069,,shortestpath_phase,1692241,,GW/hanover.png,,,,50,GW/newhope.png,GW/huntsville.png,1,0.6764705882352942,,,,GW/huntsville.png,,,,,Three Edge Diff,Two Edge Five Edge,,,,,,
null,,html-keyboard-response,1693244,,<p></p>,,,,null,,,,,,,,,,,,,,,,,,,,
1439.1000000000931,,shortestpath_phase,1694685,,GW/peoria.png,,,,50,GW/racine.png,GW/cornwall.png,1,0.6857142857142857,,,,GW/cornwall.png,,,,,One Edge Diff,Three Edge Four Edge,,,,,,
null,,html-keyboard-response,1695691,,<p></p>,,,,null,,,,,,,,,,,,,,,,,,,,
1424,,shortestpath_phase,1697116,,GW/hanover.png,,,,49,GW/boulder.png,GW/huntsville.png,0,0.6666666666666666,,,,GW/huntsville.png,,,,,Four Edge Diff,Two Edge Six Edge,,,,,,
null,,html-keyboard-response,1698123,,<p></p>,,,,null,,,,,,,,,,,,,,,,,,,,
1455,,shortestpath_phase,1699579,,GW/peoria.png,,,,49,GW/boulder.png,GW/carmel.png,0,0.6486486486486487,,,,GW/carmel.png,,,,,Two Edge Diff,Three Edge Five Edge,,,,,,
null,,html-keyboard-response,1700592,,<p></p>,,,,null,,,,,,,,,,,,,,,,,,,,
1351.7000000001863,,shortestpath_phase,1701945,,GW/westpalmbeach.png,,,,50,GW/huntsville.png,GW/newhope.png,0,0.631578947368421,,,,GW/huntsville.png,,,,,Four Edge Diff,Two Edge Six Edge,,,,,,
null,,html-keyboard-response,1702956,,<p></p>,,,,null,,,,,,,,,,,,,,,,,,,,
1220.1000000000931,,shortestpath_phase,1704178,,GW/peoria.png,,,,49,GW/gatlinburg.png,GW/newhope.png,1,0.6410256410256411,,,,GW/gatlinburg.png,,,,,One Edge Diff,Four Edge Five Edge,,,,,,
null,,html-keyboard-response,1705188,,<p></p>,,,,null,,,,,,,,,,,,,,,,,,,,
1206,,shortestpath_phase,1706396,,GW/westpalmbeach.png,,,,50,GW/hanover.png,GW/carmel.png,0,0.625,,,,GW/hanover.png,,,,,One Edge Diff,Three Edge Four Edge,,,,,,
null,,html-keyboard-response,1707404,,<p></p>,,,,null,,,,,,,,,,,,,,,,,,,,
1121.2000000001863,,shortestpath_phase,1708527,,GW/racine.png,,,,49,GW/cornwall.png,GW/westpalmbeach.png,1,0.6341463414634146,,,,GW/cornwall.png,,,,,Three Edge Diff,Three Edge Six Edge,,,,,,
null,,html-keyboard-response,1709534,,<p></p>,,,,null,,,,,,,,,,,,,,,,,,,,
952.8000000002794,,shortestpath_phase,1710489,,GW/newhope.png,,,,49,GW/westpalmbeach.png,GW/hanover.png,0,0.6190476190476191,,,,GW/hanover.png,,,,,One Edge Diff,Five Edge Six Edge,,,,,,
null,,html-keyboard-response,1711492,,<p></p>,,,,null,,,,,,,,,,,,,,,,,,,,
1073.7999999998137,,shortestpath_phase,1712567,,GW/shreveport.png,,,,50,GW/gatlinburg.png,GW/newhope.png,0,0.6046511627906976,,,,GW/gatlinburg.png,,,,,One Edge Diff,Three Edge Four Edge,,,,,,
null,,html-keyboard-response,1713572,,<p></p>,,,,null,,,,,,,,,,,,,,,,,,,,
1100.5,,shortestpath_phase,1714674,,GW/racine.png,,,,50,GW/newhope.png,GW/shreveport.png,0,0.5909090909090909,,,,GW/newhope.png,,,,,Two Edge Diff,Two Edge Four Edge,,,,,,
null,,html-keyboard-response,1715688,,<p></p>,,,,null,,,,,,,,,,,,,,,,,,,,
1495.2000000001863,,shortestpath_phase,1717185,,GW/gatlinburg.png,,,,50,GW/westpalmbeach.png,GW/shreveport.png,1,0.6,,,,GW/shreveport.png,,,,,Two Edge Diff,Three Edge Five Edge,,,,,,
null,,html-keyboard-response,1718189,,<p></p>,,,,null,,,,,,,,,,,,,,,,,,,,
1551.0999999996275,,shortestpath_phase,1719742,,GW/hanover.png,,,,50,GW/boulder.png,GW/hotsprings.png,1,0.6086956521739131,,,,GW/hotsprings.png,,,,,Four Edge Diff,Two Edge Six Edge,,,,,,
null,,html-keyboard-response,1720748,,<p></p>,,,,null,,,,,,,,,,,,,,,,,,,,
1238.5999999996275,,shortestpath_phase,1721989,,GW/gatlinburg.png,,,,49,GW/huntsville.png,GW/westpalmbeach.png,1,0.6170212765957447,,,,GW/huntsville.png,,,,,Two Edge Diff,Three Edge Five Edge,,,,,,
null,,html-keyboard-response,1722996,,<p></p>,,,,null,,,,,,,,,,,,,,,,,,,,
1474,,shortestpath_phase,1724472,,GW/peoria.png,,,,50,GW/newhope.png,GW/hotsprings.png,1,0.625,,,,GW/hotsprings.png,,,,,Three Edge Diff,Two Edge Five Edge,,,,,,
null,,html-keyboard-response,1725481,,<p></p>,,,,null,,,,,,,,,,,,,,,,,,,,
1461,,shortestpath_phase,1726944,,GW/newhope.png,,,,49,GW/carmel.png,GW/cornwall.png,0,0.6122448979591837,,,,GW/cornwall.png,,,,,One Edge Diff,Two Edge Three Edge,,,,,,
null,,html-keyboard-response,1727949,,<p></p>,,,,null,,,,,,,,,,,,,,,,,,,,
1061.1000000000931,,shortestpath_phase,1729011,,GW/hanover.png,,,,50,GW/hotsprings.png,GW/carmel.png,0,0.6,,,,GW/hotsprings.png,,,,,Two Edge Diff,Two Edge Four Edge,,,,,,
null,,html-keyboard-response,1730021,,<p></p>,,,,null,,,,,,,,,,,,,,,,,,,,
1319.0999999996275,,shortestpath_phase,1731342,,GW/racine.png,,,,50,GW/westpalmbeach.png,GW/leesburg.png,1,0.6078431372549019,,,,GW/leesburg.png,,,,,Three Edge Diff,Two Edge Five Edge,,,,,,
null,,html-keyboard-response,1732351,,<p></p>,,,,null,,,,,,,,,,,,,,,,,,,,
1258.7000000001863,,shortestpath_phase,1733612,,GW/gatlinburg.png,,,,50,GW/westpalmbeach.png,GW/carmel.png,1,0.6153846153846154,,,,GW/carmel.png,,,,,Three Edge Diff,Two Edge Five Edge,,,,,,
null,,html-keyboard-response,1734624,,<p></p>,,,,null,,,,,,,,,,,,,,,,,,,,
1006.1000000000931,,shortestpath_phase,1735632,,GW/hanover.png,,,,49,GW/racine.png,GW/boulder.png,1,0.6226415094339622,,,,GW/racine.png,,,,,One Edge Diff,Five Edge Six Edge,,,,,,
null,,html-keyboard-response,1736638,,<p></p>,,,,null,,,,,,,,,,,,,,,,,,,,
1370.7999999998137,,shortestpath_phase,1738011,,GW/westpalmbeach.png,,,,49,GW/newhope.png,GW/carmel.png,0,0.6111111111111112,,,,GW/carmel.png,,,,,Two Edge Diff,Four Edge Six Edge,,,,,,
null,,html-keyboard-response,1739015,,<p></p>,,,,null,,,,,,,,,,,,,,,,,,,,
1640.5,,shortestpath_phase,1740657,,GW/newhope.png,,,,50,GW/westpalmbeach.png,GW/peoria.png,1,0.6181818181818182,,,,GW/peoria.png,,,,,One Edge Diff,Five Edge Six Edge,,,,,,
null,,html-keyboard-response,1741661,,<p></p>,,,,null,,,,,,,,,,,,,,,,,,,,
1382,,shortestpath_phase,1743044,,GW/boulder.png,,,,49,GW/carmel.png,GW/hanover.png,1,0.625,,,,GW/carmel.png,,,,,Four Edge Diff,Two Edge Six Edge,,,,,,
null,,html-keyboard-response,1744058,,<p></p>,,,,null,,,,,,,,,,,,,,,,,,,,
1379.6999999997206,,shortestpath_phase,1745440,,GW/newhope.png,,,,49,GW/shreveport.png,GW/hanover.png,1,0.631578947368421,,,,GW/shreveport.png,,,,,One Edge Diff,Four Edge Five Edge,,,,,,
null,,html-keyboard-response,1746449,,<p></p>,,,,null,,,,,,,,,,,,,,,,,,,,
1187.2999999998137,,shortestpath_phase,1747638,,GW/racine.png,,,,50,GW/huntsville.png,GW/westpalmbeach.png,0,0.6206896551724138,,,,GW/huntsville.png,,,,,Two Edge Diff,Three Edge Five Edge,,,,,,
null,,html-keyboard-response,1748647,,<p></p>,,,,null,,,,,,,,,,,,,,,,,,,,
1087.5,,shortestpath_phase,1749736,,GW/shreveport.png,,,,49,GW/leesburg.png,GW/boulder.png,1,0.6271186440677966,,,,GW/leesburg.png,,,,,Three Edge Diff,Three Edge Six Edge,,,,,,
null,,html-keyboard-response,1750741,,<p></p>,,,,null,,,,,,,,,,,,,,,,,,,,
1303.1999999997206,,shortestpath_phase,1752047,,GW/racine.png,,,,50,GW/hotsprings.png,GW/hanover.png,0,0.6166666666666667,,,,GW/hotsprings.png,,,,,Two Edge Diff,Three Edge Five Edge,,,,,,
null,,html-keyboard-response,1753056,,<p></p>,,,,null,,,,,,,,,,,,,,,,,,,,
1209.6000000000931,,shortestpath_phase,1754267,,GW/newhope.png,,,,49,GW/huntsville.png,GW/peoria.png,1,0.6229508196721312,,,,GW/huntsville.png,,,,,One Edge Diff,Four Edge Five Edge,,,,,,
null,,html-keyboard-response,1755277,,<p></p>,,,,null,,,,,,,,,,,,,,,,,,,,
1100.7999999998137,,shortestpath_phase,1756379,,GW/cornwall.png,,,,50,GW/westpalmbeach.png,GW/hanover.png,1,0.6290322580645161,,,,GW/hanover.png,,,,,One Edge Diff,Three Edge Four Edge,,,,,,
null,,html-keyboard-response,1757383,,<p></p>,,,,null,,,,,,,,,,,,,,,,,,,,
1032.2000000001863,,shortestpath_phase,1758416,,GW/newhope.png,,,,49,GW/peoria.png,GW/shreveport.png,0,0.6190476190476191,,,,GW/shreveport.png,,,,,One Edge Diff,Four Edge Five Edge,,,,,,
null,,html-keyboard-response,1759424,,<p></p>,,,,null,,,,,,,,,,,,,,,,,,,,
1121.7999999998137,,shortestpath_phase,1760547,,GW/boulder.png,,,,50,GW/gatlinburg.png,GW/hanover.png,0,0.609375,,,,GW/gatlinburg.png,,,,,Four Edge Diff,Two Edge Six Edge,,,,,,
null,,html-keyboard-response,1761559,,<p></p>,,,,null,,,,,,,,,,,,,,,,,,,,
1371.3999999999069,,shortestpath_phase,1762932,,GW/westpalmbeach.png,,,,50,GW/racine.png,GW/cornwall.png,1,0.6153846153846154,,,,GW/cornwall.png,,,,,One Edge Diff,Four Edge Five Edge,,,,,,
null,,html-keyboard-response,1763941,,<p></p>,,,,null,,,,,,,,,,,,,,,,,,,,
1248.3999999999069,,shortestpath_phase,1765191,,GW/boulder.png,,,,50,GW/westpalmbeach.png,GW/shreveport.png,1,0.6212121212121212,,,,GW/shreveport.png,,,,,One Edge Diff,Five Edge Six Edge,,,,,,
null,,html-keyboard-response,1766199,,<p></p>,,,,null,,,,,,,,,,,,,,,,,,,,
1150.3999999999069,,shortestpath_phase,1767351,,GW/hotsprings.png,,,,49,GW/hanover.png,GW/westpalmbeach.png,1,0.6268656716417911,,,,GW/hanover.png,,,,,One Edge Diff,Two Edge Three Edge,,,,,,
null,,html-keyboard-response,1768358,,<p></p>,,,,null,,,,,,,,,,,,,,,,,,,,
1352.6000000000931,,shortestpath_phase,1769713,,GW/westpalmbeach.png,,,,49,GW/boulder.png,GW/cornwall.png,0,0.6176470588235294,,,,GW/cornwall.png,,,,,Two Edge Diff,Four Edge Six Edge,,,,,,
null,,html-keyboard-response,1770718,,<p></p>,,,,null,,,,,,,,,,,,,,,,,,,,
1166.3000000002794,,shortestpath_phase,1771886,,GW/gatlinburg.png,,,,50,GW/westpalmbeach.png,GW/hotsprings.png,1,0.6231884057971014,,,,GW/hotsprings.png,,,,,Three Edge Diff,Three Edge Six Edge,,,,,,
null,,html-keyboard-response,1772898,,<p></p>,,,,null,,,,,,,,,,,,,,,,,,,,
1321.1000000000931,,shortestpath_phase,1774221,,GW/westpalmbeach.png,,,,50,GW/gatlinburg.png,GW/huntsville.png,1,0.6285714285714286,,,,GW/huntsville.png,,,,,Three Edge Diff,Two Edge Five Edge,,,,,,
null,,html-keyboard-response,1775231,,<p></p>,,,,null,,,,,,,,,,,,,,,,,,,,
1224.5,,shortestpath_phase,1776458,,GW/racine.png,,,,50,GW/hanover.png,GW/leesburg.png,1,0.6338028169014085,,,,GW/leesburg.png,,,,,Three Edge Diff,Two Edge Five Edge,,,,,,
null,,html-keyboard-response,1777462,,<p></p>,,,,null,,,,,,,,,,,,,,,,,,,,
1338.2000000001863,,shortestpath_phase,1778802,,GW/newhope.png,,,,49,GW/huntsville.png,GW/westpalmbeach.png,1,0.6388888888888888,,,,GW/huntsville.png,,,,,Two Edge Diff,Four Edge Six Edge,,,,,,
null,,html-keyboard-response,1779806,,<p></p>,,,,null,,,,,,,,,,,,,,,,,,,,
1264.7999999998137,,shortestpath_phase,1781073,,GW/hanover.png,,,,50,GW/gatlinburg.png,GW/boulder.png,0,0.6301369863013698,,,,GW/gatlinburg.png,,,,,Two Edge Diff,Four Edge Six Edge,,,,,,
null,,html-keyboard-response,1782081,,<p></p>,,,,null,,,,,,,,,,,,,,,,,,,,
1287.4000000003725,,shortestpath_phase,1783371,,GW/boulder.png,,,,50,GW/carmel.png,GW/peoria.png,0,0.6216216216216216,,,,GW/carmel.png,,,,,Three Edge Diff,Two Edge Five Edge,,,,,,
null,,html-keyboard-response,1784375,,<p></p>,,,,null,,,,,,,,,,,,,,,,,,,,
951.6000000000931,,shortestpath_phase,1785329,,GW/peoria.png,,,,49,GW/boulder.png,GW/hanover.png,0,0.6133333333333333,,,,GW/hanover.png,,,,,Three Edge Diff,Three Edge Six Edge,,,,,,
null,,html-keyboard-response,1786337,,<p></p>,,,,null,,,,,,,,,,,,,,,,,,,,
1060.1000000000931,,shortestpath_phase,1787398,,GW/boulder.png,,,,50,GW/cornwall.png,GW/shreveport.png,0,0.6052631578947368,,,,GW/cornwall.png,,,,,Two Edge Diff,Three Edge Five Edge,,,,,,
null,,html-keyboard-response,1788410,,<p></p>,,,,null,,,,,,,,,,,,,,,,,,,,
1383.8999999999069,,shortestpath_phase,1789796,,GW/hanover.png,,,,50,GW/westpalmbeach.png,GW/racine.png,0,0.5974025974025974,,,,GW/westpalmbeach.png,,,,,Two Edge Diff,Three Edge Five Edge,,,,,,
null,,html-keyboard-response,1790807,,<p></p>,,,,null,,,,,,,,,,,,,,,,,,,,
1218,,shortestpath_phase,1792026,,GW/shreveport.png,,,,50,GW/racine.png,GW/cornwall.png,1,0.6025641025641025,,,,GW/cornwall.png,,,,,Two Edge Diff,Two Edge Four Edge,,,,,,
null,,html-keyboard-response,1793031,,<p></p>,,,,null,,,,,,,,,,,,,,,,,,,,
1154.6999999997206,,shortestpath_phase,1794187,,GW/hanover.png,,,,49,GW/carmel.png,GW/boulder.png,1,0.6075949367088608,,,,GW/carmel.png,,,,,Two Edge Diff,Four Edge Six Edge,,,,,,
null,,html-keyboard-response,1795191,,<p></p>,,,,null,,,,,,,,,,,,,,,,,,,,
1372,,shortestpath_phase,1796565,,GW/westpalmbeach.png,,,,49,GW/racine.png,GW/newhope.png,1,0.6125,,,,GW/racine.png,,,,,One Edge Diff,Five Edge Six Edge,,,,,,
null,,html-keyboard-response,1797576,,<p></p>,,,,null,,,,,,,,,,,,,,,,,,,,
822.9000000003725,,shortestpath_phase,1798400,,GW/boulder.png,,,,50,GW/peoria.png,GW/cornwall.png,1,0.6172839506172839,,,,GW/cornwall.png,,,,,Two Edge Diff,Three Edge Five Edge,,,,,,
null,,html-keyboard-response,1799410,,<p></p>,,,,null,,,,,,,,,,,,,,,,,,,,
1374.5,,shortestpath_phase,1800786,,GW/hanover.png,,,,50,GW/newhope.png,GW/hotsprings.png,1,0.6219512195121951,,,,GW/hotsprings.png,,,,,Three Edge Diff,Two Edge Five Edge,,,,,,
null,,html-keyboard-response,1801790,,<p></p>,,,,null,,,,,,,,,,,,,,,,,,,,
1014.8999999999069,,shortestpath_phase,1802807,,GW/newhope.png,,,,50,GW/hanover.png,GW/racine.png,1,0.6265060240963856,,,,GW/racine.png,,,,,Three Edge Diff,Three Edge Six Edge,,,,,,
null,,html-keyboard-response,1803811,,<p></p>,,,,null,,,,,,,,,,,,,,,,,,,,
1266.6999999997206,,shortestpath_phase,1805079,,GW/boulder.png,,,,50,GW/westpalmbeach.png,GW/hotsprings.png,1,0.6309523809523809,,,,GW/hotsprings.png,,,,,Two Edge Diff,Four Edge Six Edge,,,,,,
null,,html-keyboard-response,1806086,,<p></p>,,,,null,,,,,,,,,,,,,,,,,,,,
10226.5,,intro_1,1816314,,instruct,,0,,,,,,,,,,,,,,,,,,,,,,
9442.099999999627,,intro_2,1825760,,instruct,,1,Next,,,,,,,,,,,,,,,,,,,,,
23356.30000000028,,intro_3,1849119,,instruct,,1,Next,,,,,,,,,,,,,,,,,,,,,
11510.600000000093,,intro_4,1860632,,instruct,,1,Next,,,,,,,,,,,,,,,,,,,,,
22152.30000000028,,intro_5,1882788,,instruct,,1,Next,,,,,,,,,,,,,,,,,,,,,
21306.900000000373,,intro_6,1904098,,instruct,,1,Next,,,,,,,,,,,,,,,,,,,,,
,,Goal Directed Planning,4466250,,GDP-0,,,,,,,,,,,,,,,,,,,boulder.png,hanover.png,,undefinedimgRdrag07:[x1:1074.3334121704102 x2:869.0000381469727 y1:210 y2:208]drag07drag08:[x1:869.0000381469727 x2:768.0000381469727 y1:208 y2:199]drag08drag09:[x1:768.0000381469727 x2:664.0000381469727 y1:199 y2:203]drag09drag06:[x1:664.0000381469727 x2:524.0000381469727 y1:203 y2:214]drag06drag03:[x1:524.0000381469727 x2:416.00000762939453 y1:214 y2:208]drag03drag02:[x1:416.00000762939453 x2:298.00000762939453 y1:208 y2:214]drag02drag04:[x1:298.00000762939453 x2:179.00000762939453 y1:214 y2:216]drag04imgL:[x1:179.00000762939453 x2:74.33333587646484 y1:216 y2:210],undefineddrag07imgR:[x1:952.248046875 x2:1074.251953125 y1:199.4765625 y2:210]imgLdrag04:[x1:74.255859375 x2:221.994140625 y1:210 y2:201.99609375]drag12drag04:[x1:365.994140625 x2:221.994140625 y1:186 y2:201.99609375]drag12drag11:[x1:365.994140625 x2:517.248046875 y1:186 y2:164.484375]drag07drag09:[x1:952.248046875 x2:795.990234375 y1:199.4765625 y2:181.9921875]drag11drag09:[x1:517.248046875 x2:795.990234375 y1:164.484375 y2:181.9921875],true
