rt,responses,trial_type,time_elapsed,sequence,stimulus,graphorder,button_pressed,response,key_press,stimulus_left,stimulus_right,accuracy,cumulative_accuracy,stimulus_down_left,stimulus_down_mid,stimulus_down_right,stimulus_correct,stimulus_short,stimulus_far,weighted_accuracy,missedtrial,condition,specific_pairs,imgL_ID,imgR_ID,linedress,linedressed,detour_trial,linedressed_detor
29858.70000000298,{worker_id:5c03975936230300012948ba},id_enter,29861,interleaved,replication,GW/westpalmbeach.png; GW/peoria.png; GW/shreveport.png; GW/hotsprings.png; GW/gatlinburg.png; GW/carmel.png; GW/hanover.png; GW/newhope.png; GW/huntsville.png; GW/boulder.png; GW/leesburg.png; GW/racine.png; GW/cornwall.png,,,,,,,,,,,,,,,,,,,,,,,
27139.60000000894,,fullscreen,57004,,fullscreen,,0,,,,,,,,,,,,,,,,,,,,,,
29614.70000000298,,intro_1,86620,,instruct,,0,,,,,,,,,,,,,,,,,,,,,,
29278.90000000596,,intro_2,115900,,instruct,,1,Next,,,,,,,,,,,,,,,,,,,,,
30551.29999999702,,intro_3,146452,,instruct,,1,Next,,,,,,,,,,,,,,,,,,,,,
null,,learn_prac_1,149454,,lean_prac_1,,,,null,,,,,,,,,,,,,,,,,,,,
null,,html-keyboard-response,150457,,<p></p>,,,,null,,,,,,,,,,,,,,,,,,,,
8394.09999999404,,intro_1,158852,,instruct,,0,,,,,,,,,,,,,,,,,,,,,,
8047.20000000298,,intro_2,166900,,instruct,,1,Next,,,,,,,,,,,,,,,,,,,,,
null,,learn_prac_2,169902,,lean_prac_2,,,,null,,,,,,,,,,,,,,,,,,,,
null,,html-keyboard-response,170904,,<p></p>,,,,null,,,,,,,,,,,,,,,,,,,,
5898.600000008941,,intro_1,176804,,instruct,,0,,,,,,,,,,,,,,,,,,,,,,
8511.39999999106,,intro_2,185316,,instruct,,1,Next,,,,,,,,,,,,,,,,,,,,,
45343.10000000894,,intro_3,230660,,instruct,,1,Next,,,,,,,,,,,,,,,,,,,,,
null,,prac_atten_color_black,230973,,black_plus_sign,,,,null,,,,,,,,,,,,,,,,,,,,
null,,prac_atten_color,232066,,prac_stop_color,,,,null,,,,,,,,,,,,,,,,,,,,
null,,prac_atten_color_black,234154,,black_plus_sign,,,,null,,,,,,,,,,,,,,,,,,,,
27705.20000000298,,attentioncheck_help,261861,,instruct,,,,32,,,,,,,,,,,,,,,,,,,,
null,,prac_atten_color_black,262173,,black_plus_sign,,,,null,,,,,,,,,,,,,,,,,,,,
null,,prac_atten_color,262639,,prac_stop_color,,,,null,,,,,,,,,,,,,,,,,,,,
309.59999999403954,,prac_atten_color_black,264640,,black_plus_sign,,,,50,,,,,,,,,,,,,,,,,,,,
null,,prac_atten_color_black,265578,,black_plus_sign,,,,null,,,,,,,,,,,,,,,,,,,,
null,,prac_atten_color,266184,,prac_stop_color,,,,null,,,,,,,,,,,,,,,,,,,,
347,,prac_atten_color_black,268186,,black_plus_sign,,,,50,,,,,,,,,,,,,,,,,,,,
null,,prac_atten_color_black,268985,,black_plus_sign,,,,null,,,,,,,,,,,,,,,,,,,,
490.5,,prac_atten_color,269588,,prac_stop_color,,,,49,,,,,,,,,,,,,,,,,,,,
null,,prac_atten_color_black,271589,,black_plus_sign,,,,null,,,,,,,,,,,,,,,,,,,,
null,,prac_atten_color_black,272390,,black_plus_sign,,,,null,,,,,,,,,,,,,,,,,,,,
620.8000000119209,,prac_atten_color,273114,,prac_stop_color,,,,50,,,,,,,,,,,,,,,,,,,,
null,,prac_atten_color_black,275115,,black_plus_sign,,,,null,,,,,,,,,,,,,,,,,,,,
null,,prac_atten_color_black,275796,,black_plus_sign,,,,null,,,,,,,,,,,,,,,,,,,,
null,,prac_atten_color,276270,,prac_stop_color,,,,null,,,,,,,,,,,,,,,,,,,,
373.70000000298023,,prac_atten_color_black,278272,,black_plus_sign,,,,50,,,,,,,,,,,,,,,,,,,,
null,,prac_atten_color_black,279203,,black_plus_sign,,,,null,,,,,,,,,,,,,,,,,,,,
null,,prac_atten_color,279634,,prac_stop_color,,,,null,,,,,,,,,,,,,,,,,,,,
81.09999999403954,,prac_atten_color_black,281637,,black_plus_sign,,,,49,,,,,,,,,,,,,,,,,,,,
null,,prac_atten_color_black,282612,,black_plus_sign,,,,null,,,,,,,,,,,,,,,,,,,,
575.2000000029802,,prac_atten_color,283457,,prac_stop_color,,,,50,,,,,,,,,,,,,,,,,,,,
null,,prac_atten_color_black,285460,,black_plus_sign,,,,null,,,,,,,,,,,,,,,,,,,,
null,,prac_atten_color_black,286019,,black_plus_sign,,,,null,,,,,,,,,,,,,,,,,,,,
607.5,,prac_atten_color,286964,,prac_stop_color,,,,49,,,,,,,,,,,,,,,,,,,,
null,,prac_atten_color_black,288966,,black_plus_sign,,,,null,,,,,,,,,,,,,,,,,,,,
null,,prac_atten_color_black,289425,,black_plus_sign,,,,null,,,,,,,,,,,,,,,,,,,,
658.3999999910593,,prac_atten_color,290355,,prac_stop_color,,,,49,,,,,,,,,,,,,,,,,,,,
null,,prac_atten_color_black,292358,,black_plus_sign,,,,null,,,,,,,,,,,,,,,,,,,,
16356.20000000298,,attentioncheck_feedback,308716,,cross_check_feedback,,0,,,,,,,,,,,,,,,,,,,,,,
53160.5,,last_instruct,361877,,instruct,,,,32,,,,,,,,,,,,,,,,,,,,
null,,learn_phase(without_color),364880,,black_plus_sign,,,,null,GW/shreveport.png,GW/leesburg.png,,,,,,,,,,,,,,,,,,
null,,black_cross(without_color),365480,,yellow,,,,null,GW/shreveport.png,GW/leesburg.png,,,,,,,,,,,,,,,,,,
null,,rt_plussign_withcolor,365981,,yellow,,,,null,GW/shreveport.png,GW/leesburg.png,,,,,,,,,,,,,,,,,,
1215.5,,rt_thecrossant_black,367386,,black_plus_sign,,,,50,,,1,1,,,,,,,,,,,,,,,,
null,,color_black,367488,,black_plus_sign,,,,null,,,,,,,,,,,,,,,,,,,,
null,,learn_phase(without_color),370496,,black_plus_sign,,,,null,GW/cornwall.png,GW/hanover.png,,,,,,,,,,,,,,,,,,
null,,black_cross(without_color),370937,,blue,,,,null,GW/cornwall.png,GW/hanover.png,,,,,,,,,,,,,,,,,,
null,,rt_plussign_withcolor,371438,,blue,,,,null,GW/cornwall.png,GW/hanover.png,,,,,,,,,,,,,,,,,,
1516.3999999910593,,rt_thecrossant_black,373001,,black_plus_sign,,,,49,,,1,1,,,,,,,,,,,,,,,,
null,,color_black,373104,,black_plus_sign,,,,null,,,,,,,,,,,,,,,,,,,,
null,,learn_phase(without_color),376107,,black_plus_sign,,,,null,GW/hotsprings.png,GW/racine.png,,,,,,,,,,,,,,,,,,
null,,black_cross(without_color),376666,,yellow,,,,null,GW/hotsprings.png,GW/racine.png,,,,,,,,,,,,,,,,,,
null,,rt_plussign_withcolor,377167,,yellow,,,,null,GW/hotsprings.png,GW/racine.png,,,,,,,,,,,,,,,,,,
991.5999999940395,,rt_thecrossant_black,378612,,black_plus_sign,,,,50,,,1,1,,,,,,,,,,,,,,,,
null,,color_black,378716,,black_plus_sign,,,,null,,,,,,,,,,,,,,,,,,,,
null,,learn_phase(without_color),381719,,black_plus_sign,,,,null,GW/newhope.png,GW/huntsville.png,,,,,,,,,,,,,,,,,,
null,,black_cross(without_color),382280,,yellow,,,,null,GW/newhope.png,GW/huntsville.png,,,,,,,,,,,,,,,,,,
null,,rt_plussign_withcolor,382781,,yellow,,,,null,GW/newhope.png,GW/huntsville.png,,,,,,,,,,,,,,,,,,
966.6999999880791,,rt_thecrossant_black,384225,,black_plus_sign,,,,50,,,1,1,,,,,,,,,,,,,,,,
null,,color_black,384327,,black_plus_sign,,,,null,,,,,,,,,,,,,,,,,,,,
null,,learn_phase(without_color),387330,,black_plus_sign,,,,null,GW/huntsville.png,GW/hanover.png,,,,,,,,,,,,,,,,,,
null,,black_cross(without_color),388271,,yellow,,,,null,GW/huntsville.png,GW/hanover.png,,,,,,,,,,,,,,,,,,
null,,rt_plussign_withcolor,388773,,yellow,,,,null,GW/huntsville.png,GW/hanover.png,,,,,,,,,,,,,,,,,,
801.2000000029802,,rt_thecrossant_black,389837,,black_plus_sign,,,,50,,,1,1,,,,,,,,,,,,,,,,
null,,color_black,389939,,black_plus_sign,,,,null,,,,,,,,,,,,,,,,,,,,
null,,learn_phase(without_color),392943,,black_plus_sign,,,,null,GW/racine.png,GW/hotsprings.png,,,,,,,,,,,,,,,,,,
null,,black_cross(without_color),393752,,yellow,,,,null,GW/racine.png,GW/hotsprings.png,,,,,,,,,,,,,,,,,,
null,,rt_plussign_withcolor,394253,,yellow,,,,null,GW/racine.png,GW/hotsprings.png,,,,,,,,,,,,,,,,,,
1076.5999999940395,,rt_thecrossant_black,395448,,black_plus_sign,,,,50,,,1,1,,,,,,,,,,,,,,,,
null,,color_black,395551,,black_plus_sign,,,,null,,,,,,,,,,,,,,,,,,,,
null,,learn_phase(without_color),398555,,black_plus_sign,,,,null,GW/leesburg.png,GW/racine.png,,,,,,,,,,,,,,,,,,
null,,black_cross(without_color),399364,,yellow,,,,null,GW/leesburg.png,GW/racine.png,,,,,,,,,,,,,,,,,,
null,,rt_plussign_withcolor,399866,,yellow,,,,null,GW/leesburg.png,GW/racine.png,,,,,,,,,,,,,,,,,,
980.4000000059605,,rt_thecrossant_black,401062,,black_plus_sign,,,,50,,,1,1,,,,,,,,,,,,,,,,
null,,color_black,401164,,black_plus_sign,,,,null,,,,,,,,,,,,,,,,,,,,
null,,learn_phase(without_color),404167,,black_plus_sign,,,,null,GW/racine.png,GW/hotsprings.png,,,,,,,,,,,,,,,,,,
null,,black_cross(without_color),405253,,yellow,,,,null,GW/racine.png,GW/hotsprings.png,,,,,,,,,,,,,,,,,,
null,,rt_plussign_withcolor,405755,,yellow,,,,null,GW/racine.png,GW/hotsprings.png,,,,,,,,,,,,,,,,,,
962.9000000059605,,rt_thecrossant_black,406673,,black_plus_sign,,,,50,,,1,1,,,,,,,,,,,,,,,,
null,,color_black,406776,,black_plus_sign,,,,null,,,,,,,,,,,,,,,,,,,,
null,,learn_phase(without_color),409779,,black_plus_sign,,,,null,GW/huntsville.png,GW/leesburg.png,,,,,,,,,,,,,,,,,,
null,,black_cross(without_color),410331,,blue,,,,null,GW/huntsville.png,GW/leesburg.png,,,,,,,,,,,,,,,,,,
null,,rt_plussign_withcolor,410832,,blue,,,,null,GW/huntsville.png,GW/leesburg.png,,,,,,,,,,,,,,,,,,
1539.2999999970198,,rt_thecrossant_black,412285,,black_plus_sign,,,,49,,,1,1,,,,,,,,,,,,,,,,
null,,color_black,412387,,black_plus_sign,,,,null,,,,,,,,,,,,,,,,,,,,
null,,learn_phase(without_color),415390,,black_plus_sign,,,,null,GW/westpalmbeach.png,GW/peoria.png,,,,,,,,,,,,,,,,,,
null,,black_cross(without_color),416007,,yellow,,,,null,GW/westpalmbeach.png,GW/peoria.png,,,,,,,,,,,,,,,,,,
null,,rt_plussign_withcolor,416508,,yellow,,,,null,GW/westpalmbeach.png,GW/peoria.png,,,,,,,,,,,,,,,,,,
897.1000000089407,,rt_thecrossant_black,417896,,black_plus_sign,,,,50,,,1,1,,,,,,,,,,,,,,,,
null,,color_black,417999,,black_plus_sign,,,,null,,,,,,,,,,,,,,,,,,,,
null,,learn_phase(without_color),421002,,black_plus_sign,,,,null,GW/shreveport.png,GW/carmel.png,,,,,,,,,,,,,,,,,,
null,,black_cross(without_color),421797,,blue,,,,null,GW/shreveport.png,GW/carmel.png,,,,,,,,,,,,,,,,,,
null,,rt_plussign_withcolor,422299,,blue,,,,null,GW/shreveport.png,GW/carmel.png,,,,,,,,,,,,,,,,,,
914.0999999940395,,rt_thecrossant_black,423508,,black_plus_sign,,,,49,,,1,1,,,,,,,,,,,,,,,,
null,,color_black,423610,,black_plus_sign,,,,null,,,,,,,,,,,,,,,,,,,,
null,,learn_phase(without_color),426614,,black_plus_sign,,,,null,GW/huntsville.png,GW/newhope.png,,,,,,,,,,,,,,,,,,
null,,black_cross(without_color),427069,,yellow,,,,null,GW/huntsville.png,GW/newhope.png,,,,,,,,,,,,,,,,,,
null,,rt_plussign_withcolor,427571,,yellow,,,,null,GW/huntsville.png,GW/newhope.png,,,,,,,,,,,,,,,,,,
925.2000000029802,,rt_thecrossant_black,429120,,black_plus_sign,,,,50,,,1,1,,,,,,,,,,,,,,,,
null,,color_black,429223,,black_plus_sign,,,,null,,,,,,,,,,,,,,,,,,,,
null,,learn_phase(without_color),432226,,black_plus_sign,,,,null,GW/carmel.png,GW/shreveport.png,,,,,,,,,,,,,,,,,,
null,,black_cross(without_color),433004,,yellow,,,,null,GW/carmel.png,GW/shreveport.png,,,,,,,,,,,,,,,,,,
null,,rt_plussign_withcolor,433506,,yellow,,,,null,GW/carmel.png,GW/shreveport.png,,,,,,,,,,,,,,,,,,
601.5,,rt_thecrossant_black,434734,,black_plus_sign,,,,50,,,1,1,,,,,,,,,,,,,,,,
null,,color_black,434836,,black_plus_sign,,,,null,,,,,,,,,,,,,,,,,,,,
null,,learn_phase(without_color),437839,,black_plus_sign,,,,null,GW/carmel.png,GW/shreveport.png,,,,,,,,,,,,,,,,,,
null,,black_cross(without_color),438931,,blue,,,,null,GW/carmel.png,GW/shreveport.png,,,,,,,,,,,,,,,,,,
null,,rt_plussign_withcolor,439433,,blue,,,,null,GW/carmel.png,GW/shreveport.png,,,,,,,,,,,,,,,,,,
1060.6000000089407,,rt_thecrossant_black,440346,,black_plus_sign,,,,49,,,1,1,,,,,,,,,,,,,,,,
null,,color_black,440447,,black_plus_sign,,,,null,,,,,,,,,,,,,,,,,,,,
null,,learn_phase(without_color),443450,,black_plus_sign,,,,null,GW/leesburg.png,GW/huntsville.png,,,,,,,,,,,,,,,,,,
null,,black_cross(without_color),444160,,blue,,,,null,GW/leesburg.png,GW/huntsville.png,,,,,,,,,,,,,,,,,,
499.3999999910593,,rt_plussign_withcolor,444661,,blue,,,,49,GW/leesburg.png,GW/huntsville.png,,,,,,,,,,,,,,,,,,
null,,rt_thecrossant_black,445955,,black_plus_sign,,,,null,,,1,1,,,,,,,,,,,,,,,,
null,,color_black,446058,,black_plus_sign,,,,null,,,,,,,,,,,,,,,,,,,,
null,,learn_phase(without_color),449061,,black_plus_sign,,,,null,GW/hotsprings.png,GW/peoria.png,,,,,,,,,,,,,,,,,,
null,,black_cross(without_color),450017,,blue,,,,null,GW/hotsprings.png,GW/peoria.png,,,,,,,,,,,,,,,,,,
null,,rt_plussign_withcolor,450519,,blue,,,,null,GW/hotsprings.png,GW/peoria.png,,,,,,,,,,,,,,,,,,
948.2999999970198,,rt_thecrossant_black,451566,,black_plus_sign,,,,49,,,1,1,,,,,,,,,,,,,,,,
null,,color_black,451668,,black_plus_sign,,,,null,,,,,,,,,,,,,,,,,,,,
null,,learn_phase(without_color),454671,,black_plus_sign,,,,null,GW/newhope.png,GW/hanover.png,,,,,,,,,,,,,,,,,,
null,,black_cross(without_color),455273,,yellow,,,,null,GW/newhope.png,GW/hanover.png,,,,,,,,,,,,,,,,,,
null,,rt_plussign_withcolor,455775,,yellow,,,,null,GW/newhope.png,GW/hanover.png,,,,,,,,,,,,,,,,,,
1252,,rt_thecrossant_black,457178,,black_plus_sign,,,,50,,,1,1,,,,,,,,,,,,,,,,
null,,color_black,457280,,black_plus_sign,,,,null,,,,,,,,,,,,,,,,,,,,
null,,learn_phase(without_color),460283,,black_plus_sign,,,,null,GW/shreveport.png,GW/leesburg.png,,,,,,,,,,,,,,,,,,
null,,black_cross(without_color),461139,,yellow,,,,null,GW/shreveport.png,GW/leesburg.png,,,,,,,,,,,,,,,,,,
null,,rt_plussign_withcolor,461640,,yellow,,,,null,GW/shreveport.png,GW/leesburg.png,,,,,,,,,,,,,,,,,,
757.9000000059605,,rt_thecrossant_black,462788,,black_plus_sign,,,,50,,,1,1,,,,,,,,,,,,,,,,
null,,color_black,462891,,black_plus_sign,,,,null,,,,,,,,,,,,,,,,,,,,
null,,learn_phase(without_color),465894,,black_plus_sign,,,,null,GW/hanover.png,GW/cornwall.png,,,,,,,,,,,,,,,,,,
null,,black_cross(without_color),466740,,yellow,,,,null,GW/hanover.png,GW/cornwall.png,,,,,,,,,,,,,,,,,,
null,,rt_plussign_withcolor,467241,,yellow,,,,null,GW/hanover.png,GW/cornwall.png,,,,,,,,,,,,,,,,,,
1381.2000000029802,,rt_thecrossant_black,468400,,black_plus_sign,,,,50,,,1,1,,,,,,,,,,,,,,,,
null,,color_black,468504,,black_plus_sign,,,,null,,,,,,,,,,,,,,,,,,,,
null,,learn_phase(without_color),471507,,black_plus_sign,,,,null,GW/hotsprings.png,GW/peoria.png,,,,,,,,,,,,,,,,,,
null,,black_cross(without_color),472424,,blue,,,,null,GW/hotsprings.png,GW/peoria.png,,,,,,,,,,,,,,,,,,
null,,rt_plussign_withcolor,472926,,blue,,,,null,GW/hotsprings.png,GW/peoria.png,,,,,,,,,,,,,,,,,,
1077.0999999940395,,rt_thecrossant_black,474015,,black_plus_sign,,,,49,,,1,1,,,,,,,,,,,,,,,,
null,,color_black,474117,,black_plus_sign,,,,null,,,,,,,,,,,,,,,,,,,,
null,,learn_phase(without_color),477120,,black_plus_sign,,,,null,GW/hanover.png,GW/newhope.png,,,,,,,,,,,,,,,,,,
null,,black_cross(without_color),478182,,yellow,,,,null,GW/hanover.png,GW/newhope.png,,,,,,,,,,,,,,,,,,
null,,rt_plussign_withcolor,478684,,yellow,,,,null,GW/hanover.png,GW/newhope.png,,,,,,,,,,,,,,,,,,
1085.7000000029802,,rt_thecrossant_black,479626,,black_plus_sign,,,,50,,,1,1,,,,,,,,,,,,,,,,
null,,color_black,479729,,black_plus_sign,,,,null,,,,,,,,,,,,,,,,,,,,
null,,learn_phase(without_color),482731,,black_plus_sign,,,,null,GW/hanover.png,GW/newhope.png,,,,,,,,,,,,,,,,,,
null,,black_cross(without_color),483442,,yellow,,,,null,GW/hanover.png,GW/newhope.png,,,,,,,,,,,,,,,,,,
498,,rt_plussign_withcolor,483943,,yellow,,,,50,GW/hanover.png,GW/newhope.png,,,,,,,,,,,,,,,,,,
null,,rt_thecrossant_black,485237,,black_plus_sign,,,,null,,,1,1,,,,,,,,,,,,,,,,
null,,color_black,485339,,black_plus_sign,,,,null,,,,,,,,,,,,,,,,,,,,
null,,learn_phase(without_color),488342,,black_plus_sign,,,,null,GW/shreveport.png,GW/peoria.png,,,,,,,,,,,,,,,,,,
null,,black_cross(without_color),488950,,yellow,,,,null,GW/shreveport.png,GW/peoria.png,,,,,,,,,,,,,,,,,,
null,,rt_plussign_withcolor,489451,,yellow,,,,null,GW/shreveport.png,GW/peoria.png,,,,,,,,,,,,,,,,,,
848.7999999970198,,rt_thecrossant_black,490847,,black_plus_sign,,,,50,,,1,1,,,,,,,,,,,,,,,,
null,,color_black,490950,,black_plus_sign,,,,null,,,,,,,,,,,,,,,,,,,,
null,,learn_phase(without_color),493953,,black_plus_sign,,,,null,GW/peoria.png,GW/hotsprings.png,,,,,,,,,,,,,,,,,,
null,,black_cross(without_color),494546,,blue,,,,null,GW/peoria.png,GW/hotsprings.png,,,,,,,,,,,,,,,,,,
null,,rt_plussign_withcolor,495048,,blue,,,,null,GW/peoria.png,GW/hotsprings.png,,,,,,,,,,,,,,,,,,
1069.199999988079,,rt_thecrossant_black,496458,,black_plus_sign,,,,49,,,1,1,,,,,,,,,,,,,,,,
null,,color_black,496560,,black_plus_sign,,,,null,,,,,,,,,,,,,,,,,,,,
null,,learn_phase(without_color),499563,,black_plus_sign,,,,null,GW/carmel.png,GW/hanover.png,,,,,,,,,,,,,,,,,,
null,,black_cross(without_color),500054,,blue,,,,null,GW/carmel.png,GW/hanover.png,,,,,,,,,,,,,,,,,,
null,,rt_plussign_withcolor,500556,,blue,,,,null,GW/carmel.png,GW/hanover.png,,,,,,,,,,,,,,,,,,
763.5999999940395,,rt_thecrossant_black,502070,,black_plus_sign,,,,49,,,1,1,,,,,,,,,,,,,,,,
null,,color_black,502173,,black_plus_sign,,,,null,,,,,,,,,,,,,,,,,,,,
null,,learn_phase(without_color),505176,,black_plus_sign,,,,null,GW/racine.png,GW/leesburg.png,,,,,,,,,,,,,,,,,,
null,,black_cross(without_color),505930,,yellow,,,,null,GW/racine.png,GW/leesburg.png,,,,,,,,,,,,,,,,,,
null,,rt_plussign_withcolor,506431,,yellow,,,,null,GW/racine.png,GW/leesburg.png,,,,,,,,,,,,,,,,,,
1040.699999988079,,rt_thecrossant_black,507681,,black_plus_sign,,,,50,,,1,1,,,,,,,,,,,,,,,,
null,,color_black,507783,,black_plus_sign,,,,null,,,,,,,,,,,,,,,,,,,,
null,,learn_phase(without_color),510786,,black_plus_sign,,,,null,GW/gatlinburg.png,GW/hotsprings.png,,,,,,,,,,,,,,,,,,
null,,black_cross(without_color),511326,,blue,,,,null,GW/gatlinburg.png,GW/hotsprings.png,,,,,,,,,,,,,,,,,,
null,,rt_plussign_withcolor,511838,,blue,,,,null,GW/gatlinburg.png,GW/hotsprings.png,,,,,,,,,,,,,,,,,,
1049.5,,rt_thecrossant_black,513303,,black_plus_sign,,,,49,,,1,1,,,,,,,,,,,,,,,,
null,,color_black,513405,,black_plus_sign,,,,null,,,,,,,,,,,,,,,,,,,,
null,,learn_phase(without_color),516408,,black_plus_sign,,,,null,GW/shreveport.png,GW/peoria.png,,,,,,,,,,,,,,,,,,
null,,black_cross(without_color),516907,,blue,,,,null,GW/shreveport.png,GW/peoria.png,,,,,,,,,,,,,,,,,,
null,,rt_plussign_withcolor,517408,,blue,,,,null,GW/shreveport.png,GW/peoria.png,,,,,,,,,,,,,,,,,,
866.0999999940395,,rt_thecrossant_black,518913,,black_plus_sign,,,,49,,,1,1,,,,,,,,,,,,,,,,
null,,color_black,519016,,black_plus_sign,,,,null,,,,,,,,,,,,,,,,,,,,
null,,learn_phase(without_color),522019,,black_plus_sign,,,,null,GW/peoria.png,GW/shreveport.png,,,,,,,,,,,,,,,,,,
null,,black_cross(without_color),522712,,yellow,,,,null,GW/peoria.png,GW/shreveport.png,,,,,,,,,,,,,,,,,,
null,,rt_plussign_withcolor,523213,,yellow,,,,null,GW/peoria.png,GW/shreveport.png,,,,,,,,,,,,,,,,,,
875.1999999880791,,rt_thecrossant_black,524525,,black_plus_sign,,,,50,,,1,1,,,,,,,,,,,,,,,,
null,,color_black,524628,,black_plus_sign,,,,null,,,,,,,,,,,,,,,,,,,,
null,,learn_phase(without_color),527630,,black_plus_sign,,,,null,GW/carmel.png,GW/huntsville.png,,,,,,,,,,,,,,,,,,
null,,black_cross(without_color),528114,,blue,,,,null,GW/carmel.png,GW/huntsville.png,,,,,,,,,,,,,,,,,,
null,,rt_plussign_withcolor,528615,,blue,,,,null,GW/carmel.png,GW/huntsville.png,,,,,,,,,,,,,,,,,,
897.9000000059605,,rt_thecrossant_black,530136,,black_plus_sign,,,,49,,,1,1,,,,,,,,,,,,,,,,
null,,color_black,530238,,black_plus_sign,,,,null,,,,,,,,,,,,,,,,,,,,
null,,learn_phase(without_color),533241,,black_plus_sign,,,,null,GW/peoria.png,GW/hotsprings.png,,,,,,,,,,,,,,,,,,
null,,black_cross(without_color),533774,,blue,,,,null,GW/peoria.png,GW/hotsprings.png,,,,,,,,,,,,,,,,,,
null,,rt_plussign_withcolor,534275,,blue,,,,null,GW/peoria.png,GW/hotsprings.png,,,,,,,,,,,,,,,,,,
725.1999999880791,,rt_thecrossant_black,535749,,black_plus_sign,,,,49,,,1,1,,,,,,,,,,,,,,,,
null,,color_black,535851,,black_plus_sign,,,,null,,,,,,,,,,,,,,,,,,,,
null,,learn_phase(without_color),538854,,black_plus_sign,,,,null,GW/huntsville.png,GW/hanover.png,,,,,,,,,,,,,,,,,,
null,,black_cross(without_color),539841,,blue,,,,null,GW/huntsville.png,GW/hanover.png,,,,,,,,,,,,,,,,,,
null,,rt_plussign_withcolor,540342,,blue,,,,null,GW/huntsville.png,GW/hanover.png,,,,,,,,,,,,,,,,,,
993.7999999970198,,rt_thecrossant_black,541360,,black_plus_sign,,,,49,,,1,1,,,,,,,,,,,,,,,,
null,,color_black,541463,,black_plus_sign,,,,null,,,,,,,,,,,,,,,,,,,,
null,,learn_phase(without_color),544466,,black_plus_sign,,,,null,GW/newhope.png,GW/boulder.png,,,,,,,,,,,,,,,,,,
null,,black_cross(without_color),545284,,yellow,,,,null,GW/newhope.png,GW/boulder.png,,,,,,,,,,,,,,,,,,
null,,rt_plussign_withcolor,545786,,yellow,,,,null,GW/newhope.png,GW/boulder.png,,,,,,,,,,,,,,,,,,
1541.5999999940395,,rt_thecrossant_black,546973,,black_plus_sign,,,,50,,,1,1,,,,,,,,,,,,,,,,
null,,color_black,547076,,black_plus_sign,,,,null,,,,,,,,,,,,,,,,,,,,
null,,learn_phase(without_color),550078,,black_plus_sign,,,,null,GW/hanover.png,GW/carmel.png,,,,,,,,,,,,,,,,,,
null,,black_cross(without_color),550492,,yellow,,,,null,GW/hanover.png,GW/carmel.png,,,,,,,,,,,,,,,,,,
null,,rt_plussign_withcolor,550995,,yellow,,,,null,GW/hanover.png,GW/carmel.png,,,,,,,,,,,,,,,,,,
979.5,,rt_thecrossant_black,552585,,black_plus_sign,,,,50,,,1,1,,,,,,,,,,,,,,,,
null,,color_black,552687,,black_plus_sign,,,,null,,,,,,,,,,,,,,,,,,,,
null,,learn_phase(without_color),555690,,black_plus_sign,,,,null,GW/leesburg.png,GW/huntsville.png,,,,,,,,,,,,,,,,,,
null,,black_cross(without_color),556727,,blue,,,,null,GW/leesburg.png,GW/huntsville.png,,,,,,,,,,,,,,,,,,
null,,rt_plussign_withcolor,557229,,blue,,,,null,GW/leesburg.png,GW/huntsville.png,,,,,,,,,,,,,,,,,,
662.2999999970198,,rt_thecrossant_black,558195,,black_plus_sign,,,,49,,,1,1,,,,,,,,,,,,,,,,
null,,color_black,558297,,black_plus_sign,,,,null,,,,,,,,,,,,,,,,,,,,
null,,learn_phase(without_color),561300,,black_plus_sign,,,,null,GW/hotsprings.png,GW/peoria.png,,,,,,,,,,,,,,,,,,
null,,black_cross(without_color),561890,,yellow,,,,null,GW/hotsprings.png,GW/peoria.png,,,,,,,,,,,,,,,,,,
null,,rt_plussign_withcolor,562393,,yellow,,,,null,GW/hotsprings.png,GW/peoria.png,,,,,,,,,,,,,,,,,,
1497.2999999970198,,rt_thecrossant_black,563808,,black_plus_sign,,,,50,,,1,1,,,,,,,,,,,,,,,,
null,,color_black,563910,,black_plus_sign,,,,null,,,,,,,,,,,,,,,,,,,,
null,,learn_phase(without_color),566914,,black_plus_sign,,,,null,GW/racine.png,GW/hotsprings.png,,,,,,,,,,,,,,,,,,
null,,black_cross(without_color),567383,,yellow,,,,null,GW/racine.png,GW/hotsprings.png,,,,,,,,,,,,,,,,,,
null,,rt_plussign_withcolor,567885,,yellow,,,,null,GW/racine.png,GW/hotsprings.png,,,,,,,,,,,,,,,,,,
950.5999999940395,,rt_thecrossant_black,569419,,black_plus_sign,,,,50,,,1,1,,,,,,,,,,,,,,,,
null,,color_black,569521,,black_plus_sign,,,,null,,,,,,,,,,,,,,,,,,,,
null,,learn_phase(without_color),572523,,black_plus_sign,,,,null,GW/westpalmbeach.png,GW/peoria.png,,,,,,,,,,,,,,,,,,
null,,black_cross(without_color),573354,,blue,,,,null,GW/westpalmbeach.png,GW/peoria.png,,,,,,,,,,,,,,,,,,
null,,rt_plussign_withcolor,573856,,blue,,,,null,GW/westpalmbeach.png,GW/peoria.png,,,,,,,,,,,,,,,,,,
859,,rt_thecrossant_black,575030,,black_plus_sign,,,,49,,,1,1,,,,,,,,,,,,,,,,
null,,color_black,575134,,black_plus_sign,,,,null,,,,,,,,,,,,,,,,,,,,
null,,learn_phase(without_color),578136,,black_plus_sign,,,,null,GW/hanover.png,GW/carmel.png,,,,,,,,,,,,,,,,,,
null,,black_cross(without_color),578966,,blue,,,,null,GW/hanover.png,GW/carmel.png,,,,,,,,,,,,,,,,,,
null,,rt_plussign_withcolor,579483,,blue,,,,null,GW/hanover.png,GW/carmel.png,,,,,,,,,,,,,,,,,,
968.1999999880791,,rt_thecrossant_black,580658,,black_plus_sign,,,,49,,,1,1,,,,,,,,,,,,,,,,
null,,color_black,580760,,black_plus_sign,,,,null,,,,,,,,,,,,,,,,,,,,
null,,learn_phase(without_color),583763,,black_plus_sign,,,,null,GW/huntsville.png,GW/newhope.png,,,,,,,,,,,,,,,,,,
null,,black_cross(without_color),584749,,yellow,,,,null,GW/huntsville.png,GW/newhope.png,,,,,,,,,,,,,,,,,,
null,,rt_plussign_withcolor,585252,,yellow,,,,null,GW/huntsville.png,GW/newhope.png,,,,,,,,,,,,,,,,,,
1247.6000000089407,,rt_thecrossant_black,586270,,black_plus_sign,,,,50,,,1,1,,,,,,,,,,,,,,,,
null,,color_black,586373,,black_plus_sign,,,,null,,,,,,,,,,,,,,,,,,,,
null,,learn_phase(without_color),589376,,black_plus_sign,,,,null,GW/hotsprings.png,GW/peoria.png,,,,,,,,,,,,,,,,,,
null,,black_cross(without_color),590155,,yellow,,,,null,GW/hotsprings.png,GW/peoria.png,,,,,,,,,,,,,,,,,,
null,,rt_plussign_withcolor,590656,,yellow,,,,null,GW/hotsprings.png,GW/peoria.png,,,,,,,,,,,,,,,,,,
1151.199999988079,,rt_thecrossant_black,591882,,black_plus_sign,,,,50,,,1,1,,,,,,,,,,,,,,,,
null,,color_black,591984,,black_plus_sign,,,,null,,,,,,,,,,,,,,,,,,,,
null,,learn_phase(without_color),594987,,black_plus_sign,,,,null,GW/shreveport.png,GW/peoria.png,,,,,,,,,,,,,,,,,,
null,,black_cross(without_color),595889,,yellow,,,,null,GW/shreveport.png,GW/peoria.png,,,,,,,,,,,,,,,,,,
466.09999999403954,,rt_plussign_withcolor,596391,,yellow,,,,50,GW/shreveport.png,GW/peoria.png,,,,,,,,,,,,,,,,,,
null,,rt_thecrossant_black,597493,,black_plus_sign,,,,null,,,1,1,,,,,,,,,,,,,,,,
null,,color_black,597596,,black_plus_sign,,,,null,,,,,,,,,,,,,,,,,,,,
null,,learn_phase(without_color),600598,,black_plus_sign,,,,null,GW/carmel.png,GW/huntsville.png,,,,,,,,,,,,,,,,,,
null,,black_cross(without_color),601299,,blue,,,,null,GW/carmel.png,GW/huntsville.png,,,,,,,,,,,,,,,,,,
null,,rt_plussign_withcolor,601802,,blue,,,,null,GW/carmel.png,GW/huntsville.png,,,,,,,,,,,,,,,,,,
1297.5,,rt_thecrossant_black,603106,,black_plus_sign,,,,49,,,1,1,,,,,,,,,,,,,,,,
null,,color_black,603208,,black_plus_sign,,,,null,,,,,,,,,,,,,,,,,,,,
null,,learn_phase(without_color),606212,,black_plus_sign,,,,null,GW/hotsprings.png,GW/peoria.png,,,,,,,,,,,,,,,,,,
null,,black_cross(without_color),607184,,yellow,,,,null,GW/hotsprings.png,GW/peoria.png,,,,,,,,,,,,,,,,,,
null,,rt_plussign_withcolor,607686,,yellow,,,,null,GW/hotsprings.png,GW/peoria.png,,,,,,,,,,,,,,,,,,
858.6000000089407,,rt_thecrossant_black,608717,,black_plus_sign,,,,50,,,1,1,,,,,,,,,,,,,,,,
null,,color_black,608820,,black_plus_sign,,,,null,,,,,,,,,,,,,,,,,,,,
null,,learn_phase(without_color),611823,,black_plus_sign,,,,null,GW/hotsprings.png,GW/racine.png,,,,,,,,,,,,,,,,,,
null,,black_cross(without_color),612347,,blue,,,,null,GW/hotsprings.png,GW/racine.png,,,,,,,,,,,,,,,,,,
null,,rt_plussign_withcolor,612849,,blue,,,,null,GW/hotsprings.png,GW/racine.png,,,,,,,,,,,,,,,,,,
1425.2999999970198,,rt_thecrossant_black,614330,,black_plus_sign,,,,49,,,1,1,,,,,,,,,,,,,,,,
null,,color_black,614432,,black_plus_sign,,,,null,,,,,,,,,,,,,,,,,,,,
null,,learn_phase(without_color),617434,,black_plus_sign,,,,null,GW/hanover.png,GW/newhope.png,,,,,,,,,,,,,,,,,,
null,,black_cross(without_color),618443,,yellow,,,,null,GW/hanover.png,GW/newhope.png,,,,,,,,,,,,,,,,,,
null,,rt_plussign_withcolor,618944,,yellow,,,,null,GW/hanover.png,GW/newhope.png,,,,,,,,,,,,,,,,,,
961,,rt_thecrossant_black,619939,,black_plus_sign,,,,50,,,1,1,,,,,,,,,,,,,,,,
null,,color_black,620042,,black_plus_sign,,,,null,,,,,,,,,,,,,,,,,,,,
null,,learn_phase(without_color),623045,,black_plus_sign,,,,null,GW/carmel.png,GW/hanover.png,,,,,,,,,,,,,,,,,,
null,,black_cross(without_color),623490,,yellow,,,,null,GW/carmel.png,GW/hanover.png,,,,,,,,,,,,,,,,,,
null,,rt_plussign_withcolor,623992,,yellow,,,,null,GW/carmel.png,GW/hanover.png,,,,,,,,,,,,,,,,,,
1278.0999999940395,,rt_thecrossant_black,625552,,black_plus_sign,,,,50,,,1,1,,,,,,,,,,,,,,,,
null,,color_black,625654,,black_plus_sign,,,,null,,,,,,,,,,,,,,,,,,,,
null,,learn_phase(without_color),628657,,black_plus_sign,,,,null,GW/leesburg.png,GW/racine.png,,,,,,,,,,,,,,,,,,
null,,black_cross(without_color),629352,,blue,,,,null,GW/leesburg.png,GW/racine.png,,,,,,,,,,,,,,,,,,
null,,rt_plussign_withcolor,629854,,blue,,,,null,GW/leesburg.png,GW/racine.png,,,,,,,,,,,,,,,,,,
708,,rt_thecrossant_black,631164,,black_plus_sign,,,,49,,,1,1,,,,,,,,,,,,,,,,
null,,color_black,631266,,black_plus_sign,,,,null,,,,,,,,,,,,,,,,,,,,
null,,learn_phase(without_color),634270,,black_plus_sign,,,,null,GW/newhope.png,GW/hanover.png,,,,,,,,,,,,,,,,,,
null,,black_cross(without_color),634753,,blue,,,,null,GW/newhope.png,GW/hanover.png,,,,,,,,,,,,,,,,,,
null,,rt_plussign_withcolor,635254,,blue,,,,null,GW/newhope.png,GW/hanover.png,,,,,,,,,,,,,,,,,,
982.2999999970198,,rt_thecrossant_black,636776,,black_plus_sign,,,,49,,,1,1,,,,,,,,,,,,,,,,
null,,color_black,636878,,black_plus_sign,,,,null,,,,,,,,,,,,,,,,,,,,
null,,learn_phase(without_color),639881,,black_plus_sign,,,,null,GW/gatlinburg.png,GW/hotsprings.png,,,,,,,,,,,,,,,,,,
null,,black_cross(without_color),640361,,yellow,,,,null,GW/gatlinburg.png,GW/hotsprings.png,,,,,,,,,,,,,,,,,,
null,,rt_plussign_withcolor,640863,,yellow,,,,null,GW/gatlinburg.png,GW/hotsprings.png,,,,,,,,,,,,,,,,,,
664.1999999880791,,rt_thecrossant_black,642387,,black_plus_sign,,,,50,,,1,1,,,,,,,,,,,,,,,,
null,,color_black,642489,,black_plus_sign,,,,null,,,,,,,,,,,,,,,,,,,,
null,,learn_phase(without_color),645492,,black_plus_sign,,,,null,GW/leesburg.png,GW/racine.png,,,,,,,,,,,,,,,,,,
null,,black_cross(without_color),646532,,yellow,,,,null,GW/leesburg.png,GW/racine.png,,,,,,,,,,,,,,,,,,
null,,rt_plussign_withcolor,647035,,yellow,,,,null,GW/leesburg.png,GW/racine.png,,,,,,,,,,,,,,,,,,
714.5999999940395,,rt_thecrossant_black,647998,,black_plus_sign,,,,50,,,1,1,,,,,,,,,,,,,,,,
null,,color_black,648111,,black_plus_sign,,,,null,,,,,,,,,,,,,,,,,,,,
null,,learn_phase(without_color),651114,,black_plus_sign,,,,null,GW/huntsville.png,GW/newhope.png,,,,,,,,,,,,,,,,,,
null,,black_cross(without_color),652112,,blue,,,,null,GW/huntsville.png,GW/newhope.png,,,,,,,,,,,,,,,,,,
null,,rt_plussign_withcolor,652614,,blue,,,,null,GW/huntsville.png,GW/newhope.png,,,,,,,,,,,,,,,,,,
1264,,rt_thecrossant_black,653621,,black_plus_sign,,,,49,,,1,1,,,,,,,,,,,,,,,,
null,,color_black,653724,,black_plus_sign,,,,null,,,,,,,,,,,,,,,,,,,,
null,,learn_phase(without_color),656726,,black_plus_sign,,,,null,GW/shreveport.png,GW/leesburg.png,,,,,,,,,,,,,,,,,,
null,,black_cross(without_color),657619,,blue,,,,null,GW/shreveport.png,GW/leesburg.png,,,,,,,,,,,,,,,,,,
null,,rt_plussign_withcolor,658121,,blue,,,,null,GW/shreveport.png,GW/leesburg.png,,,,,,,,,,,,,,,,,,
1136.9000000059605,,rt_thecrossant_black,659232,,black_plus_sign,,,,49,,,1,1,,,,,,,,,,,,,,,,
null,,color_black,659335,,black_plus_sign,,,,null,,,,,,,,,,,,,,,,,,,,
null,,learn_phase(without_color),662338,,black_plus_sign,,,,null,GW/hanover.png,GW/cornwall.png,,,,,,,,,,,,,,,,,,
null,,black_cross(without_color),662795,,yellow,,,,null,GW/hanover.png,GW/cornwall.png,,,,,,,,,,,,,,,,,,
null,,rt_plussign_withcolor,663297,,yellow,,,,null,GW/hanover.png,GW/cornwall.png,,,,,,,,,,,,,,,,,,
1345.8999999910593,,rt_thecrossant_black,664844,,black_plus_sign,,,,50,,,1,1,,,,,,,,,,,,,,,,
null,,color_black,664947,,black_plus_sign,,,,null,,,,,,,,,,,,,,,,,,,,
null,,learn_phase(without_color),667950,,black_plus_sign,,,,null,GW/carmel.png,GW/shreveport.png,,,,,,,,,,,,,,,,,,
null,,black_cross(without_color),668601,,blue,,,,null,GW/carmel.png,GW/shreveport.png,,,,,,,,,,,,,,,,,,
null,,rt_plussign_withcolor,669103,,blue,,,,null,GW/carmel.png,GW/shreveport.png,,,,,,,,,,,,,,,,,,
735.8999999910593,,rt_thecrossant_black,670456,,black_plus_sign,,,,49,,,1,1,,,,,,,,,,,,,,,,
null,,color_black,670559,,black_plus_sign,,,,null,,,,,,,,,,,,,,,,,,,,
null,,learn_phase(without_color),673561,,black_plus_sign,,,,null,GW/westpalmbeach.png,GW/peoria.png,,,,,,,,,,,,,,,,,,
null,,black_cross(without_color),674580,,blue,,,,null,GW/westpalmbeach.png,GW/peoria.png,,,,,,,,,,,,,,,,,,
null,,rt_plussign_withcolor,675081,,blue,,,,null,GW/westpalmbeach.png,GW/peoria.png,,,,,,,,,,,,,,,,,,
806.5999999940395,,rt_thecrossant_black,676067,,black_plus_sign,,,,49,,,1,1,,,,,,,,,,,,,,,,
null,,color_black,676169,,black_plus_sign,,,,null,,,,,,,,,,,,,,,,,,,,
null,,learn_phase(without_color),679173,,black_plus_sign,,,,null,GW/newhope.png,GW/boulder.png,,,,,,,,,,,,,,,,,,
null,,black_cross(without_color),680142,,yellow,,,,null,GW/newhope.png,GW/boulder.png,,,,,,,,,,,,,,,,,,
null,,rt_plussign_withcolor,680644,,yellow,,,,null,GW/newhope.png,GW/boulder.png,,,,,,,,,,,,,,,,,,
1356.7999999970198,,rt_thecrossant_black,681682,,black_plus_sign,,,,50,,,1,1,,,,,,,,,,,,,,,,
null,,color_black,681784,,black_plus_sign,,,,null,,,,,,,,,,,,,,,,,,,,
null,,learn_phase(without_color),684787,,black_plus_sign,,,,null,GW/peoria.png,GW/westpalmbeach.png,,,,,,,,,,,,,,,,,,
null,,black_cross(without_color),685294,,blue,,,,null,GW/peoria.png,GW/westpalmbeach.png,,,,,,,,,,,,,,,,,,
null,,rt_plussign_withcolor,685796,,blue,,,,null,GW/peoria.png,GW/westpalmbeach.png,,,,,,,,,,,,,,,,,,
1384.699999988079,,rt_thecrossant_black,687296,,black_plus_sign,,,,49,,,1,1,,,,,,,,,,,,,,,,
null,,color_black,687398,,black_plus_sign,,,,null,,,,,,,,,,,,,,,,,,,,
null,,learn_phase(without_color),690401,,black_plus_sign,,,,null,GW/hanover.png,GW/newhope.png,,,,,,,,,,,,,,,,,,
null,,black_cross(without_color),690880,,blue,,,,null,GW/hanover.png,GW/newhope.png,,,,,,,,,,,,,,,,,,
null,,rt_plussign_withcolor,691383,,blue,,,,null,GW/hanover.png,GW/newhope.png,,,,,,,,,,,,,,,,,,
742.9000000059605,,rt_thecrossant_black,692908,,black_plus_sign,,,,49,,,1,1,,,,,,,,,,,,,,,,
null,,color_black,693010,,black_plus_sign,,,,null,,,,,,,,,,,,,,,,,,,,
null,,learn_phase(without_color),696014,,black_plus_sign,,,,null,GW/shreveport.png,GW/leesburg.png,,,,,,,,,,,,,,,,,,
null,,black_cross(without_color),696591,,blue,,,,null,GW/shreveport.png,GW/leesburg.png,,,,,,,,,,,,,,,,,,
null,,rt_plussign_withcolor,697093,,blue,,,,null,GW/shreveport.png,GW/leesburg.png,,,,,,,,,,,,,,,,,,
591.6999999880791,,rt_thecrossant_black,698521,,black_plus_sign,,,,49,,,1,1,,,,,,,,,,,,,,,,
null,,color_black,698623,,black_plus_sign,,,,null,,,,,,,,,,,,,,,,,,,,
null,,learn_phase(without_color),701626,,black_plus_sign,,,,null,GW/racine.png,GW/leesburg.png,,,,,,,,,,,,,,,,,,
null,,black_cross(without_color),702124,,yellow,,,,null,GW/racine.png,GW/leesburg.png,,,,,,,,,,,,,,,,,,
null,,rt_plussign_withcolor,702625,,yellow,,,,null,GW/racine.png,GW/leesburg.png,,,,,,,,,,,,,,,,,,
1221,,rt_thecrossant_black,704134,,black_plus_sign,,,,50,,,1,1,,,,,,,,,,,,,,,,
null,,color_black,704236,,black_plus_sign,,,,null,,,,,,,,,,,,,,,,,,,,
null,,learn_phase(without_color),707240,,black_plus_sign,,,,null,GW/shreveport.png,GW/leesburg.png,,,,,,,,,,,,,,,,,,
null,,black_cross(without_color),708161,,yellow,,,,null,GW/shreveport.png,GW/leesburg.png,,,,,,,,,,,,,,,,,,
null,,rt_plussign_withcolor,708663,,yellow,,,,null,GW/shreveport.png,GW/leesburg.png,,,,,,,,,,,,,,,,,,
830.4000000059605,,rt_thecrossant_black,709746,,black_plus_sign,,,,50,,,1,1,,,,,,,,,,,,,,,,
null,,color_black,709848,,black_plus_sign,,,,null,,,,,,,,,,,,,,,,,,,,
null,,learn_phase(without_color),712851,,black_plus_sign,,,,null,GW/huntsville.png,GW/leesburg.png,,,,,,,,,,,,,,,,,,
null,,black_cross(without_color),713560,,blue,,,,null,GW/huntsville.png,GW/leesburg.png,,,,,,,,,,,,,,,,,,
null,,rt_plussign_withcolor,714062,,blue,,,,null,GW/huntsville.png,GW/leesburg.png,,,,,,,,,,,,,,,,,,
1199,,rt_thecrossant_black,715357,,black_plus_sign,,,,49,,,1,1,,,,,,,,,,,,,,,,
null,,color_black,715459,,black_plus_sign,,,,null,,,,,,,,,,,,,,,,,,,,
null,,learn_phase(without_color),718462,,black_plus_sign,,,,null,GW/hanover.png,GW/cornwall.png,,,,,,,,,,,,,,,,,,
null,,black_cross(without_color),719285,,blue,,,,null,GW/hanover.png,GW/cornwall.png,,,,,,,,,,,,,,,,,,
null,,rt_plussign_withcolor,719786,,blue,,,,null,GW/hanover.png,GW/cornwall.png,,,,,,,,,,,,,,,,,,
895.7999999970198,,rt_thecrossant_black,720968,,black_plus_sign,,,,49,,,1,1,,,,,,,,,,,,,,,,
null,,color_black,721071,,black_plus_sign,,,,null,,,,,,,,,,,,,,,,,,,,
42466.79999999702,,learn_break,763540,,learn_break,,,,32,,,,,,,,,,,,,,,,,,,,
null,,html-keyboard-response,764541,,<p></p>,,,,null,,,,,,,,,,,,,,,,,,,,
null,,learn_phase(without_color),767544,,black_plus_sign,,,,null,GW/carmel.png,GW/shreveport.png,,,,,,,,,,,,,,,,,,
null,,black_cross(without_color),768239,,yellow,,,,null,GW/carmel.png,GW/shreveport.png,,,,,,,,,,,,,,,,,,
null,,rt_plussign_withcolor,768741,,yellow,,,,null,GW/carmel.png,GW/shreveport.png,,,,,,,,,,,,,,,,,,
1477.300000011921,,rt_thecrossant_black,770051,,black_plus_sign,,,,50,,,1,1,,,,,,,,,,,,,,,,
null,,color_black,770154,,black_plus_sign,,,,null,,,,,,,,,,,,,,,,,,,,
null,,learn_phase(without_color),773156,,black_plus_sign,,,,null,GW/huntsville.png,GW/leesburg.png,,,,,,,,,,,,,,,,,,
null,,black_cross(without_color),773928,,yellow,,,,null,GW/huntsville.png,GW/leesburg.png,,,,,,,,,,,,,,,,,,
null,,rt_plussign_withcolor,774430,,yellow,,,,null,GW/huntsville.png,GW/leesburg.png,,,,,,,,,,,,,,,,,,
878.3000000119209,,rt_thecrossant_black,775664,,black_plus_sign,,,,50,,,1,1,,,,,,,,,,,,,,,,
null,,color_black,775766,,black_plus_sign,,,,null,,,,,,,,,,,,,,,,,,,,
null,,learn_phase(without_color),778769,,black_plus_sign,,,,null,GW/leesburg.png,GW/shreveport.png,,,,,,,,,,,,,,,,,,
null,,black_cross(without_color),779469,,blue,,,,null,GW/leesburg.png,GW/shreveport.png,,,,,,,,,,,,,,,,,,
null,,rt_plussign_withcolor,779971,,blue,,,,null,GW/leesburg.png,GW/shreveport.png,,,,,,,,,,,,,,,,,,
1092.800000011921,,rt_thecrossant_black,781279,,black_plus_sign,,,,49,,,1,1,,,,,,,,,,,,,,,,
null,,color_black,781382,,black_plus_sign,,,,null,,,,,,,,,,,,,,,,,,,,
null,,learn_phase(without_color),784385,,black_plus_sign,,,,null,GW/shreveport.png,GW/carmel.png,,,,,,,,,,,,,,,,,,
null,,black_cross(without_color),785219,,blue,,,,null,GW/shreveport.png,GW/carmel.png,,,,,,,,,,,,,,,,,,
464.79999999701977,,rt_plussign_withcolor,785722,,blue,,,,49,GW/shreveport.png,GW/carmel.png,,,,,,,,,,,,,,,,,,
null,,rt_thecrossant_black,786893,,black_plus_sign,,,,null,,,1,1,,,,,,,,,,,,,,,,
null,,color_black,786995,,black_plus_sign,,,,null,,,,,,,,,,,,,,,,,,,,
null,,learn_phase(without_color),789998,,black_plus_sign,,,,null,GW/cornwall.png,GW/hanover.png,,,,,,,,,,,,,,,,,,
null,,black_cross(without_color),790728,,yellow,,,,null,GW/cornwall.png,GW/hanover.png,,,,,,,,,,,,,,,,,,
null,,rt_plussign_withcolor,791230,,yellow,,,,null,GW/cornwall.png,GW/hanover.png,,,,,,,,,,,,,,,,,,
1256.5,,rt_thecrossant_black,792504,,black_plus_sign,,,,50,,,1,1,,,,,,,,,,,,,,,,
null,,color_black,792607,,black_plus_sign,,,,null,,,,,,,,,,,,,,,,,,,,
null,,learn_phase(without_color),795610,,black_plus_sign,,,,null,GW/peoria.png,GW/shreveport.png,,,,,,,,,,,,,,,,,,
null,,black_cross(without_color),796299,,yellow,,,,null,GW/peoria.png,GW/shreveport.png,,,,,,,,,,,,,,,,,,
null,,rt_plussign_withcolor,796801,,yellow,,,,null,GW/peoria.png,GW/shreveport.png,,,,,,,,,,,,,,,,,,
1007,,rt_thecrossant_black,798118,,black_plus_sign,,,,50,,,1,1,,,,,,,,,,,,,,,,
null,,color_black,798220,,black_plus_sign,,,,null,,,,,,,,,,,,,,,,,,,,
null,,learn_phase(without_color),801223,,black_plus_sign,,,,null,GW/westpalmbeach.png,GW/peoria.png,,,,,,,,,,,,,,,,,,
null,,black_cross(without_color),801973,,blue,,,,null,GW/westpalmbeach.png,GW/peoria.png,,,,,,,,,,,,,,,,,,
null,,rt_plussign_withcolor,802475,,blue,,,,null,GW/westpalmbeach.png,GW/peoria.png,,,,,,,,,,,,,,,,,,
875,,rt_thecrossant_black,803730,,black_plus_sign,,,,49,,,1,1,,,,,,,,,,,,,,,,
null,,color_black,803833,,black_plus_sign,,,,null,,,,,,,,,,,,,,,,,,,,
null,,learn_phase(without_color),806837,,black_plus_sign,,,,null,GW/racine.png,GW/hotsprings.png,,,,,,,,,,,,,,,,,,
null,,black_cross(without_color),807927,,yellow,,,,null,GW/racine.png,GW/hotsprings.png,,,,,,,,,,,,,,,,,,
null,,rt_plussign_withcolor,808428,,yellow,,,,null,GW/racine.png,GW/hotsprings.png,,,,,,,,,,,,,,,,,,
1014.2999999970198,,rt_thecrossant_black,809343,,black_plus_sign,,,,50,,,1,1,,,,,,,,,,,,,,,,
null,,color_black,809445,,black_plus_sign,,,,null,,,,,,,,,,,,,,,,,,,,
null,,learn_phase(without_color),812450,,black_plus_sign,,,,null,GW/boulder.png,GW/newhope.png,,,,,,,,,,,,,,,,,,
null,,black_cross(without_color),813148,,yellow,,,,null,GW/boulder.png,GW/newhope.png,,,,,,,,,,,,,,,,,,
null,,rt_plussign_withcolor,813650,,yellow,,,,null,GW/boulder.png,GW/newhope.png,,,,,,,,,,,,,,,,,,
1509.1000000089407,,rt_thecrossant_black,814957,,black_plus_sign,,,,50,,,1,1,,,,,,,,,,,,,,,,
null,,color_black,815060,,black_plus_sign,,,,null,,,,,,,,,,,,,,,,,,,,
null,,learn_phase(without_color),818064,,black_plus_sign,,,,null,GW/newhope.png,GW/huntsville.png,,,,,,,,,,,,,,,,,,
null,,black_cross(without_color),818538,,blue,,,,null,GW/newhope.png,GW/huntsville.png,,,,,,,,,,,,,,,,,,
null,,rt_plussign_withcolor,819040,,blue,,,,null,GW/newhope.png,GW/huntsville.png,,,,,,,,,,,,,,,,,,
1182.2999999970198,,rt_thecrossant_black,820571,,black_plus_sign,,,,49,,,1,1,,,,,,,,,,,,,,,,
null,,color_black,820674,,black_plus_sign,,,,null,,,,,,,,,,,,,,,,,,,,
null,,learn_phase(without_color),823677,,black_plus_sign,,,,null,GW/racine.png,GW/leesburg.png,,,,,,,,,,,,,,,,,,
null,,black_cross(without_color),824354,,blue,,,,null,GW/racine.png,GW/leesburg.png,,,,,,,,,,,,,,,,,,
null,,rt_plussign_withcolor,824856,,blue,,,,null,GW/racine.png,GW/leesburg.png,,,,,,,,,,,,,,,,,,
839.2999999970198,,rt_thecrossant_black,826184,,black_plus_sign,,,,49,,,1,1,,,,,,,,,,,,,,,,
null,,color_black,826286,,black_plus_sign,,,,null,,,,,,,,,,,,,,,,,,,,
null,,learn_phase(without_color),829289,,black_plus_sign,,,,null,GW/shreveport.png,GW/carmel.png,,,,,,,,,,,,,,,,,,
null,,black_cross(without_color),830155,,blue,,,,null,GW/shreveport.png,GW/carmel.png,,,,,,,,,,,,,,,,,,
457.29999999701977,,rt_plussign_withcolor,830657,,blue,,,,49,GW/shreveport.png,GW/carmel.png,,,,,,,,,,,,,,,,,,
null,,rt_thecrossant_black,831796,,black_plus_sign,,,,null,,,1,1,,,,,,,,,,,,,,,,
null,,color_black,831899,,black_plus_sign,,,,null,,,,,,,,,,,,,,,,,,,,
null,,learn_phase(without_color),834902,,black_plus_sign,,,,null,GW/carmel.png,GW/huntsville.png,,,,,,,,,,,,,,,,,,
null,,black_cross(without_color),835400,,yellow,,,,null,GW/carmel.png,GW/huntsville.png,,,,,,,,,,,,,,,,,,
null,,rt_plussign_withcolor,835903,,yellow,,,,null,GW/carmel.png,GW/huntsville.png,,,,,,,,,,,,,,,,,,
1287.2000000029802,,rt_thecrossant_black,837409,,black_plus_sign,,,,50,,,1,1,,,,,,,,,,,,,,,,
null,,color_black,837512,,black_plus_sign,,,,null,,,,,,,,,,,,,,,,,,,,
null,,learn_phase(without_color),840514,,black_plus_sign,,,,null,GW/newhope.png,GW/huntsville.png,,,,,,,,,,,,,,,,,,
null,,black_cross(without_color),841377,,yellow,,,,null,GW/newhope.png,GW/huntsville.png,,,,,,,,,,,,,,,,,,
null,,rt_plussign_withcolor,841879,,yellow,,,,null,GW/newhope.png,GW/huntsville.png,,,,,,,,,,,,,,,,,,
607.9000000059605,,rt_thecrossant_black,843021,,black_plus_sign,,,,50,,,1,1,,,,,,,,,,,,,,,,
null,,color_black,843124,,black_plus_sign,,,,null,,,,,,,,,,,,,,,,,,,,
null,,learn_phase(without_color),846127,,black_plus_sign,,,,null,GW/carmel.png,GW/shreveport.png,,,,,,,,,,,,,,,,,,
null,,black_cross(without_color),846685,,blue,,,,null,GW/carmel.png,GW/shreveport.png,,,,,,,,,,,,,,,,,,
null,,rt_plussign_withcolor,847186,,blue,,,,null,GW/carmel.png,GW/shreveport.png,,,,,,,,,,,,,,,,,,
1313.7000000029802,,rt_thecrossant_black,848634,,black_plus_sign,,,,49,,,1,1,,,,,,,,,,,,,,,,
null,,color_black,848736,,black_plus_sign,,,,null,,,,,,,,,,,,,,,,,,,,
null,,learn_phase(without_color),851739,,black_plus_sign,,,,null,GW/peoria.png,GW/shreveport.png,,,,,,,,,,,,,,,,,,
null,,black_cross(without_color),852549,,blue,,,,null,GW/peoria.png,GW/shreveport.png,,,,,,,,,,,,,,,,,,
null,,rt_plussign_withcolor,853051,,blue,,,,null,GW/peoria.png,GW/shreveport.png,,,,,,,,,,,,,,,,,,
855.8000000119209,,rt_thecrossant_black,854247,,black_plus_sign,,,,49,,,1,1,,,,,,,,,,,,,,,,
null,,color_black,854350,,black_plus_sign,,,,null,,,,,,,,,,,,,,,,,,,,
null,,learn_phase(without_color),857354,,black_plus_sign,,,,null,GW/peoria.png,GW/shreveport.png,,,,,,,,,,,,,,,,,,
null,,black_cross(without_color),857902,,yellow,,,,null,GW/peoria.png,GW/shreveport.png,,,,,,,,,,,,,,,,,,
null,,rt_plussign_withcolor,858404,,yellow,,,,null,GW/peoria.png,GW/shreveport.png,,,,,,,,,,,,,,,,,,
1529.7000000029802,,rt_thecrossant_black,859861,,black_plus_sign,,,,50,,,1,1,,,,,,,,,,,,,,,,
null,,color_black,859963,,black_plus_sign,,,,null,,,,,,,,,,,,,,,,,,,,
null,,learn_phase(without_color),862966,,black_plus_sign,,,,null,GW/hanover.png,GW/cornwall.png,,,,,,,,,,,,,,,,,,
null,,black_cross(without_color),864047,,blue,,,,null,GW/hanover.png,GW/cornwall.png,,,,,,,,,,,,,,,,,,
null,,rt_plussign_withcolor,864549,,blue,,,,null,GW/hanover.png,GW/cornwall.png,,,,,,,,,,,,,,,,,,
884.5999999940395,,rt_thecrossant_black,865474,,black_plus_sign,,,,49,,,1,1,,,,,,,,,,,,,,,,
null,,color_black,865576,,black_plus_sign,,,,null,,,,,,,,,,,,,,,,,,,,
null,,learn_phase(without_color),868579,,black_plus_sign,,,,null,GW/huntsville.png,GW/hanover.png,,,,,,,,,,,,,,,,,,
null,,black_cross(without_color),869040,,yellow,,,,null,GW/huntsville.png,GW/hanover.png,,,,,,,,,,,,,,,,,,
null,,rt_plussign_withcolor,869541,,yellow,,,,null,GW/huntsville.png,GW/hanover.png,,,,,,,,,,,,,,,,,,
1766.800000011921,,rt_thecrossant_black,871084,,black_plus_sign,,,,50,,,1,1,,,,,,,,,,,,,,,,
null,,color_black,871186,,black_plus_sign,,,,null,,,,,,,,,,,,,,,,,,,,
null,,learn_phase(without_color),874189,,black_plus_sign,,,,null,GW/huntsville.png,GW/newhope.png,,,,,,,,,,,,,,,,,,
null,,black_cross(without_color),874748,,blue,,,,null,GW/huntsville.png,GW/newhope.png,,,,,,,,,,,,,,,,,,
null,,rt_plussign_withcolor,875250,,blue,,,,null,GW/huntsville.png,GW/newhope.png,,,,,,,,,,,,,,,,,,
672.0999999940395,,rt_thecrossant_black,876697,,black_plus_sign,,,,49,,,1,1,,,,,,,,,,,,,,,,
null,,color_black,876798,,black_plus_sign,,,,null,,,,,,,,,,,,,,,,,,,,
null,,learn_phase(without_color),879802,,black_plus_sign,,,,null,GW/westpalmbeach.png,GW/peoria.png,,,,,,,,,,,,,,,,,,
null,,black_cross(without_color),880865,,yellow,,,,null,GW/westpalmbeach.png,GW/peoria.png,,,,,,,,,,,,,,,,,,
null,,rt_plussign_withcolor,881367,,yellow,,,,null,GW/westpalmbeach.png,GW/peoria.png,,,,,,,,,,,,,,,,,,
812.5999999940395,,rt_thecrossant_black,882310,,black_plus_sign,,,,50,,,1,1,,,,,,,,,,,,,,,,
null,,color_black,882413,,black_plus_sign,,,,null,,,,,,,,,,,,,,,,,,,,
null,,learn_phase(without_color),885417,,black_plus_sign,,,,null,GW/hanover.png,GW/newhope.png,,,,,,,,,,,,,,,,,,
null,,black_cross(without_color),886407,,blue,,,,null,GW/hanover.png,GW/newhope.png,,,,,,,,,,,,,,,,,,
null,,rt_plussign_withcolor,886909,,blue,,,,null,GW/hanover.png,GW/newhope.png,,,,,,,,,,,,,,,,,,
1422,,rt_thecrossant_black,887924,,black_plus_sign,,,,49,,,1,1,,,,,,,,,,,,,,,,
null,,color_black,888026,,black_plus_sign,,,,null,,,,,,,,,,,,,,,,,,,,
null,,learn_phase(without_color),891030,,black_plus_sign,,,,null,GW/peoria.png,GW/shreveport.png,,,,,,,,,,,,,,,,,,
null,,black_cross(without_color),891649,,yellow,,,,null,GW/peoria.png,GW/shreveport.png,,,,,,,,,,,,,,,,,,
null,,rt_plussign_withcolor,892151,,yellow,,,,null,GW/peoria.png,GW/shreveport.png,,,,,,,,,,,,,,,,,,
1212,,rt_thecrossant_black,893536,,black_plus_sign,,,,50,,,1,1,,,,,,,,,,,,,,,,
null,,color_black,893638,,black_plus_sign,,,,null,,,,,,,,,,,,,,,,,,,,
null,,learn_phase(without_color),896642,,black_plus_sign,,,,null,GW/boulder.png,GW/newhope.png,,,,,,,,,,,,,,,,,,
null,,black_cross(without_color),897415,,blue,,,,null,GW/boulder.png,GW/newhope.png,,,,,,,,,,,,,,,,,,
null,,rt_plussign_withcolor,897917,,blue,,,,null,GW/boulder.png,GW/newhope.png,,,,,,,,,,,,,,,,,,
883.7000000029802,,rt_thecrossant_black,899148,,black_plus_sign,,,,49,,,1,1,,,,,,,,,,,,,,,,
null,,color_black,899250,,black_plus_sign,,,,null,,,,,,,,,,,,,,,,,,,,
null,,learn_phase(without_color),902253,,black_plus_sign,,,,null,GW/leesburg.png,GW/shreveport.png,,,,,,,,,,,,,,,,,,
null,,black_cross(without_color),902824,,blue,,,,null,GW/leesburg.png,GW/shreveport.png,,,,,,,,,,,,,,,,,,
null,,rt_plussign_withcolor,903325,,blue,,,,null,GW/leesburg.png,GW/shreveport.png,,,,,,,,,,,,,,,,,,
940.4000000059605,,rt_thecrossant_black,904761,,black_plus_sign,,,,49,,,1,1,,,,,,,,,,,,,,,,
null,,color_black,904864,,black_plus_sign,,,,null,,,,,,,,,,,,,,,,,,,,
null,,learn_phase(without_color),907868,,black_plus_sign,,,,null,GW/shreveport.png,GW/leesburg.png,,,,,,,,,,,,,,,,,,
null,,black_cross(without_color),908585,,blue,,,,null,GW/shreveport.png,GW/leesburg.png,,,,,,,,,,,,,,,,,,
443.09999999403954,,rt_plussign_withcolor,909087,,blue,,,,49,GW/shreveport.png,GW/leesburg.png,,,,,,,,,,,,,,,,,,
null,,rt_thecrossant_black,910375,,black_plus_sign,,,,null,,,1,1,,,,,,,,,,,,,,,,
null,,color_black,910478,,black_plus_sign,,,,null,,,,,,,,,,,,,,,,,,,,
null,,learn_phase(without_color),913481,,black_plus_sign,,,,null,GW/boulder.png,GW/newhope.png,,,,,,,,,,,,,,,,,,
null,,black_cross(without_color),914195,,blue,,,,null,GW/boulder.png,GW/newhope.png,,,,,,,,,,,,,,,,,,
null,,rt_plussign_withcolor,914696,,blue,,,,null,GW/boulder.png,GW/newhope.png,,,,,,,,,,,,,,,,,,
889.4000000059605,,rt_thecrossant_black,915989,,black_plus_sign,,,,49,,,1,1,,,,,,,,,,,,,,,,
null,,color_black,916092,,black_plus_sign,,,,null,,,,,,,,,,,,,,,,,,,,
null,,learn_phase(without_color),919096,,black_plus_sign,,,,null,GW/newhope.png,GW/hanover.png,,,,,,,,,,,,,,,,,,
null,,black_cross(without_color),919824,,yellow,,,,null,GW/newhope.png,GW/hanover.png,,,,,,,,,,,,,,,,,,
null,,rt_plussign_withcolor,920326,,yellow,,,,null,GW/newhope.png,GW/hanover.png,,,,,,,,,,,,,,,,,,
871.2999999970198,,rt_thecrossant_black,921604,,black_plus_sign,,,,50,,,1,1,,,,,,,,,,,,,,,,
null,,color_black,921707,,black_plus_sign,,,,null,,,,,,,,,,,,,,,,,,,,
null,,learn_phase(without_color),924710,,black_plus_sign,,,,null,GW/gatlinburg.png,GW/hotsprings.png,,,,,,,,,,,,,,,,,,
null,,black_cross(without_color),925627,,yellow,,,,null,GW/gatlinburg.png,GW/hotsprings.png,,,,,,,,,,,,,,,,,,
null,,rt_plussign_withcolor,926129,,yellow,,,,null,GW/gatlinburg.png,GW/hotsprings.png,,,,,,,,,,,,,,,,,,
939.3999999910593,,rt_thecrossant_black,927218,,black_plus_sign,,,,50,,,1,1,,,,,,,,,,,,,,,,
null,,color_black,927320,,black_plus_sign,,,,null,,,,,,,,,,,,,,,,,,,,
null,,learn_phase(without_color),930324,,black_plus_sign,,,,null,GW/hotsprings.png,GW/gatlinburg.png,,,,,,,,,,,,,,,,,,
null,,black_cross(without_color),931311,,blue,,,,null,GW/hotsprings.png,GW/gatlinburg.png,,,,,,,,,,,,,,,,,,
null,,rt_plussign_withcolor,931812,,blue,,,,null,GW/hotsprings.png,GW/gatlinburg.png,,,,,,,,,,,,,,,,,,
1124.7000000029802,,rt_thecrossant_black,932831,,black_plus_sign,,,,49,,,1,1,,,,,,,,,,,,,,,,
null,,color_black,932934,,black_plus_sign,,,,null,,,,,,,,,,,,,,,,,,,,
null,,learn_phase(without_color),935937,,black_plus_sign,,,,null,GW/huntsville.png,GW/carmel.png,,,,,,,,,,,,,,,,,,
null,,black_cross(without_color),936858,,blue,,,,null,GW/huntsville.png,GW/carmel.png,,,,,,,,,,,,,,,,,,
null,,rt_plussign_withcolor,937360,,blue,,,,null,GW/huntsville.png,GW/carmel.png,,,,,,,,,,,,,,,,,,
1328.0999999940395,,rt_thecrossant_black,938444,,black_plus_sign,,,,49,,,1,1,,,,,,,,,,,,,,,,
null,,color_black,938547,,black_plus_sign,,,,null,,,,,,,,,,,,,,,,,,,,
null,,learn_phase(without_color),941551,,black_plus_sign,,,,null,GW/cornwall.png,GW/hanover.png,,,,,,,,,,,,,,,,,,
null,,black_cross(without_color),942608,,yellow,,,,null,GW/cornwall.png,GW/hanover.png,,,,,,,,,,,,,,,,,,
null,,rt_plussign_withcolor,943110,,yellow,,,,null,GW/cornwall.png,GW/hanover.png,,,,,,,,,,,,,,,,,,
1095,,rt_thecrossant_black,944057,,black_plus_sign,,,,50,,,1,1,,,,,,,,,,,,,,,,
null,,color_black,944159,,black_plus_sign,,,,null,,,,,,,,,,,,,,,,,,,,
null,,learn_phase(without_color),947164,,black_plus_sign,,,,null,GW/gatlinburg.png,GW/hotsprings.png,,,,,,,,,,,,,,,,,,
null,,black_cross(without_color),947841,,yellow,,,,null,GW/gatlinburg.png,GW/hotsprings.png,,,,,,,,,,,,,,,,,,
null,,rt_plussign_withcolor,948343,,yellow,,,,null,GW/gatlinburg.png,GW/hotsprings.png,,,,,,,,,,,,,,,,,,
1422.5,,rt_thecrossant_black,949671,,black_plus_sign,,,,50,,,1,1,,,,,,,,,,,,,,,,
null,,color_black,949774,,black_plus_sign,,,,null,,,,,,,,,,,,,,,,,,,,
null,,learn_phase(without_color),952776,,black_plus_sign,,,,null,GW/hanover.png,GW/carmel.png,,,,,,,,,,,,,,,,,,
null,,black_cross(without_color),953378,,blue,,,,null,GW/hanover.png,GW/carmel.png,,,,,,,,,,,,,,,,,,
null,,rt_plussign_withcolor,953880,,blue,,,,null,GW/hanover.png,GW/carmel.png,,,,,,,,,,,,,,,,,,
1010.0999999940395,,rt_thecrossant_black,955285,,black_plus_sign,,,,49,,,1,1,,,,,,,,,,,,,,,,
null,,color_black,955387,,black_plus_sign,,,,null,,,,,,,,,,,,,,,,,,,,
null,,learn_phase(without_color),958390,,black_plus_sign,,,,null,GW/racine.png,GW/hotsprings.png,,,,,,,,,,,,,,,,,,
null,,black_cross(without_color),959456,,blue,,,,null,GW/racine.png,GW/hotsprings.png,,,,,,,,,,,,,,,,,,
499.6000000089407,,rt_plussign_withcolor,959958,,blue,,,,49,GW/racine.png,GW/hotsprings.png,,,,,,,,,,,,,,,,,,
null,,rt_thecrossant_black,960897,,black_plus_sign,,,,null,,,1,1,,,,,,,,,,,,,,,,
null,,color_black,961000,,black_plus_sign,,,,null,,,,,,,,,,,,,,,,,,,,
null,,learn_phase(without_color),964004,,black_plus_sign,,,,null,GW/carmel.png,GW/huntsville.png,,,,,,,,,,,,,,,,,,
null,,black_cross(without_color),964863,,blue,,,,null,GW/carmel.png,GW/huntsville.png,,,,,,,,,,,,,,,,,,
468.70000000298023,,rt_plussign_withcolor,965365,,blue,,,,49,GW/carmel.png,GW/huntsville.png,,,,,,,,,,,,,,,,,,
null,,rt_thecrossant_black,966511,,black_plus_sign,,,,null,,,1,1,,,,,,,,,,,,,,,,
null,,color_black,966614,,black_plus_sign,,,,null,,,,,,,,,,,,,,,,,,,,
null,,learn_phase(without_color),969618,,black_plus_sign,,,,null,GW/hanover.png,GW/huntsville.png,,,,,,,,,,,,,,,,,,
null,,black_cross(without_color),970568,,blue,,,,null,GW/hanover.png,GW/huntsville.png,,,,,,,,,,,,,,,,,,
null,,rt_plussign_withcolor,971070,,blue,,,,null,GW/hanover.png,GW/huntsville.png,,,,,,,,,,,,,,,,,,
1072.300000011921,,rt_thecrossant_black,972124,,black_plus_sign,,,,49,,,1,1,,,,,,,,,,,,,,,,
null,,color_black,972228,,black_plus_sign,,,,null,,,,,,,,,,,,,,,,,,,,
null,,learn_phase(without_color),975230,,black_plus_sign,,,,null,GW/newhope.png,GW/boulder.png,,,,,,,,,,,,,,,,,,
null,,black_cross(without_color),976144,,blue,,,,null,GW/newhope.png,GW/boulder.png,,,,,,,,,,,,,,,,,,
null,,rt_plussign_withcolor,976646,,blue,,,,null,GW/newhope.png,GW/boulder.png,,,,,,,,,,,,,,,,,,
1205.7000000029802,,rt_thecrossant_black,977738,,black_plus_sign,,,,49,,,1,1,,,,,,,,,,,,,,,,
null,,color_black,977840,,black_plus_sign,,,,null,,,,,,,,,,,,,,,,,,,,
null,,learn_phase(without_color),980844,,black_plus_sign,,,,null,GW/hotsprings.png,GW/gatlinburg.png,,,,,,,,,,,,,,,,,,
null,,black_cross(without_color),981715,,blue,,,,null,GW/hotsprings.png,GW/gatlinburg.png,,,,,,,,,,,,,,,,,,
496.09999999403954,,rt_plussign_withcolor,982217,,blue,,,,49,GW/hotsprings.png,GW/gatlinburg.png,,,,,,,,,,,,,,,,,,
null,,rt_thecrossant_black,983349,,black_plus_sign,,,,null,,,1,1,,,,,,,,,,,,,,,,
null,,color_black,983451,,black_plus_sign,,,,null,,,,,,,,,,,,,,,,,,,,
null,,learn_phase(without_color),986455,,black_plus_sign,,,,null,GW/huntsville.png,GW/leesburg.png,,,,,,,,,,,,,,,,,,
null,,black_cross(without_color),986981,,blue,,,,null,GW/huntsville.png,GW/leesburg.png,,,,,,,,,,,,,,,,,,
null,,rt_plussign_withcolor,987482,,blue,,,,null,GW/huntsville.png,GW/leesburg.png,,,,,,,,,,,,,,,,,,
1138,,rt_thecrossant_black,988961,,black_plus_sign,,,,49,,,1,1,,,,,,,,,,,,,,,,
null,,color_black,989069,,black_plus_sign,,,,null,,,,,,,,,,,,,,,,,,,,
null,,learn_phase(without_color),992072,,black_plus_sign,,,,null,GW/leesburg.png,GW/racine.png,,,,,,,,,,,,,,,,,,
null,,black_cross(without_color),992859,,yellow,,,,null,GW/leesburg.png,GW/racine.png,,,,,,,,,,,,,,,,,,
null,,rt_plussign_withcolor,993361,,yellow,,,,null,GW/leesburg.png,GW/racine.png,,,,,,,,,,,,,,,,,,
913.4000000059605,,rt_thecrossant_black,994580,,black_plus_sign,,,,50,,,1,1,,,,,,,,,,,,,,,,
null,,color_black,994684,,black_plus_sign,,,,null,,,,,,,,,,,,,,,,,,,,
null,,learn_phase(without_color),997687,,black_plus_sign,,,,null,GW/racine.png,GW/leesburg.png,,,,,,,,,,,,,,,,,,
null,,black_cross(without_color),998699,,blue,,,,null,GW/racine.png,GW/leesburg.png,,,,,,,,,,,,,,,,,,
null,,rt_plussign_withcolor,999202,,blue,,,,null,GW/racine.png,GW/leesburg.png,,,,,,,,,,,,,,,,,,
885.9000000059605,,rt_thecrossant_black,1000195,,black_plus_sign,,,,49,,,1,1,,,,,,,,,,,,,,,,
null,,color_black,1000298,,black_plus_sign,,,,null,,,,,,,,,,,,,,,,,,,,
null,,learn_phase(without_color),1003301,,black_plus_sign,,,,null,GW/huntsville.png,GW/carmel.png,,,,,,,,,,,,,,,,,,
null,,black_cross(without_color),1003913,,blue,,,,null,GW/huntsville.png,GW/carmel.png,,,,,,,,,,,,,,,,,,
null,,rt_plussign_withcolor,1004416,,blue,,,,null,GW/huntsville.png,GW/carmel.png,,,,,,,,,,,,,,,,,,
1305.1000000089407,,rt_thecrossant_black,1005809,,black_plus_sign,,,,49,,,1,1,,,,,,,,,,,,,,,,
null,,color_black,1005927,,black_plus_sign,,,,null,,,,,,,,,,,,,,,,,,,,
null,,learn_phase(without_color),1008930,,black_plus_sign,,,,null,GW/gatlinburg.png,GW/hotsprings.png,,,,,,,,,,,,,,,,,,
null,,black_cross(without_color),1009356,,yellow,,,,null,GW/gatlinburg.png,GW/hotsprings.png,,,,,,,,,,,,,,,,,,
null,,rt_plussign_withcolor,1009858,,yellow,,,,null,GW/gatlinburg.png,GW/hotsprings.png,,,,,,,,,,,,,,,,,,
791.6000000089407,,rt_thecrossant_black,1011437,,black_plus_sign,,,,50,,,1,1,,,,,,,,,,,,,,,,
null,,color_black,1011539,,black_plus_sign,,,,null,,,,,,,,,,,,,,,,,,,,
null,,learn_phase(without_color),1014544,,black_plus_sign,,,,null,GW/carmel.png,GW/huntsville.png,,,,,,,,,,,,,,,,,,
null,,black_cross(without_color),1015077,,yellow,,,,null,GW/carmel.png,GW/huntsville.png,,,,,,,,,,,,,,,,,,
null,,rt_plussign_withcolor,1015578,,yellow,,,,null,GW/carmel.png,GW/huntsville.png,,,,,,,,,,,,,,,,,,
611.0999999940395,,rt_thecrossant_black,1017050,,black_plus_sign,,,,50,,,1,1,,,,,,,,,,,,,,,,
null,,color_black,1017153,,black_plus_sign,,,,null,,,,,,,,,,,,,,,,,,,,
null,,learn_phase(without_color),1020156,,black_plus_sign,,,,null,GW/hanover.png,GW/cornwall.png,,,,,,,,,,,,,,,,,,
null,,black_cross(without_color),1020628,,yellow,,,,null,GW/hanover.png,GW/cornwall.png,,,,,,,,,,,,,,,,,,
null,,rt_plussign_withcolor,1021131,,yellow,,,,null,GW/hanover.png,GW/cornwall.png,,,,,,,,,,,,,,,,,,
879.4000000059605,,rt_thecrossant_black,1022663,,black_plus_sign,,,,50,,,1,1,,,,,,,,,,,,,,,,
null,,color_black,1022766,,black_plus_sign,,,,null,,,,,,,,,,,,,,,,,,,,
null,,learn_phase(without_color),1025770,,black_plus_sign,,,,null,GW/huntsville.png,GW/leesburg.png,,,,,,,,,,,,,,,,,,
null,,black_cross(without_color),1026815,,yellow,,,,null,GW/huntsville.png,GW/leesburg.png,,,,,,,,,,,,,,,,,,
null,,rt_plussign_withcolor,1027317,,yellow,,,,null,GW/huntsville.png,GW/leesburg.png,,,,,,,,,,,,,,,,,,
759.4000000059605,,rt_thecrossant_black,1028279,,black_plus_sign,,,,50,,,1,1,,,,,,,,,,,,,,,,
null,,color_black,1028381,,black_plus_sign,,,,null,,,,,,,,,,,,,,,,,,,,
null,,learn_phase(without_color),1031385,,black_plus_sign,,,,null,GW/racine.png,GW/hotsprings.png,,,,,,,,,,,,,,,,,,
null,,black_cross(without_color),1031834,,blue,,,,null,GW/racine.png,GW/hotsprings.png,,,,,,,,,,,,,,,,,,
null,,rt_plussign_withcolor,1032336,,blue,,,,null,GW/racine.png,GW/hotsprings.png,,,,,,,,,,,,,,,,,,
1337.5,,rt_thecrossant_black,1033893,,black_plus_sign,,,,49,,,1,1,,,,,,,,,,,,,,,,
null,,color_black,1033997,,black_plus_sign,,,,null,,,,,,,,,,,,,,,,,,,,
null,,learn_phase(without_color),1037000,,black_plus_sign,,,,null,GW/hanover.png,GW/huntsville.png,,,,,,,,,,,,,,,,,,
null,,black_cross(without_color),1037794,,blue,,,,null,GW/hanover.png,GW/huntsville.png,,,,,,,,,,,,,,,,,,
null,,rt_plussign_withcolor,1038295,,blue,,,,null,GW/hanover.png,GW/huntsville.png,,,,,,,,,,,,,,,,,,
877.8999999910593,,rt_thecrossant_black,1039508,,black_plus_sign,,,,49,,,1,1,,,,,,,,,,,,,,,,
null,,color_black,1039611,,black_plus_sign,,,,null,,,,,,,,,,,,,,,,,,,,
null,,learn_phase(without_color),1042614,,black_plus_sign,,,,null,GW/huntsville.png,GW/hanover.png,,,,,,,,,,,,,,,,,,
null,,black_cross(without_color),1043361,,blue,,,,null,GW/huntsville.png,GW/hanover.png,,,,,,,,,,,,,,,,,,
466.70000000298023,,rt_plussign_withcolor,1043863,,blue,,,,49,GW/huntsville.png,GW/hanover.png,,,,,,,,,,,,,,,,,,
null,,rt_thecrossant_black,1045120,,black_plus_sign,,,,null,,,1,1,,,,,,,,,,,,,,,,
null,,color_black,1045223,,black_plus_sign,,,,null,,,,,,,,,,,,,,,,,,,,
null,,learn_phase(without_color),1048226,,black_plus_sign,,,,null,GW/huntsville.png,GW/hanover.png,,,,,,,,,,,,,,,,,,
null,,black_cross(without_color),1049128,,yellow,,,,null,GW/huntsville.png,GW/hanover.png,,,,,,,,,,,,,,,,,,
null,,rt_plussign_withcolor,1049635,,yellow,,,,null,GW/huntsville.png,GW/hanover.png,,,,,,,,,,,,,,,,,,
1084.0999999940395,,rt_thecrossant_black,1050738,,black_plus_sign,,,,50,,,1,1,,,,,,,,,,,,,,,,
null,,color_black,1050841,,black_plus_sign,,,,null,,,,,,,,,,,,,,,,,,,,
null,,learn_phase(without_color),1053845,,black_plus_sign,,,,null,GW/hanover.png,GW/carmel.png,,,,,,,,,,,,,,,,,,
null,,black_cross(without_color),1054805,,blue,,,,null,GW/hanover.png,GW/carmel.png,,,,,,,,,,,,,,,,,,
null,,rt_plussign_withcolor,1055307,,blue,,,,null,GW/hanover.png,GW/carmel.png,,,,,,,,,,,,,,,,,,
1232.5,,rt_thecrossant_black,1056353,,black_plus_sign,,,,49,,,1,1,,,,,,,,,,,,,,,,
null,,color_black,1056455,,black_plus_sign,,,,null,,,,,,,,,,,,,,,,,,,,
null,,learn_phase(without_color),1059459,,black_plus_sign,,,,null,GW/newhope.png,GW/boulder.png,,,,,,,,,,,,,,,,,,
null,,black_cross(without_color),1059937,,blue,,,,null,GW/newhope.png,GW/boulder.png,,,,,,,,,,,,,,,,,,
null,,rt_plussign_withcolor,1060439,,blue,,,,null,GW/newhope.png,GW/boulder.png,,,,,,,,,,,,,,,,,,
1243.7000000029802,,rt_thecrossant_black,1061967,,black_plus_sign,,,,49,,,1,1,,,,,,,,,,,,,,,,
null,,color_black,1062070,,black_plus_sign,,,,null,,,,,,,,,,,,,,,,,,,,
null,,learn_phase(without_color),1065074,,black_plus_sign,,,,null,GW/huntsville.png,GW/newhope.png,,,,,,,,,,,,,,,,,,
null,,black_cross(without_color),1065792,,blue,,,,null,GW/huntsville.png,GW/newhope.png,,,,,,,,,,,,,,,,,,
null,,rt_plussign_withcolor,1066294,,blue,,,,null,GW/huntsville.png,GW/newhope.png,,,,,,,,,,,,,,,,,,
652,,rt_thecrossant_black,1067581,,black_plus_sign,,,,49,,,1,1,,,,,,,,,,,,,,,,
null,,color_black,1067683,,black_plus_sign,,,,null,,,,,,,,,,,,,,,,,,,,
null,,learn_phase(without_color),1070687,,black_plus_sign,,,,null,GW/carmel.png,GW/hanover.png,,,,,,,,,,,,,,,,,,
null,,black_cross(without_color),1071465,,blue,,,,null,GW/carmel.png,GW/hanover.png,,,,,,,,,,,,,,,,,,
null,,rt_plussign_withcolor,1071967,,blue,,,,null,GW/carmel.png,GW/hanover.png,,,,,,,,,,,,,,,,,,
1012.2999999970198,,rt_thecrossant_black,1073194,,black_plus_sign,,,,49,,,1,1,,,,,,,,,,,,,,,,
null,,color_black,1073297,,black_plus_sign,,,,null,,,,,,,,,,,,,,,,,,,,
null,,learn_phase(without_color),1076301,,black_plus_sign,,,,null,GW/carmel.png,GW/hanover.png,,,,,,,,,,,,,,,,,,
null,,black_cross(without_color),1077052,,yellow,,,,null,GW/carmel.png,GW/hanover.png,,,,,,,,,,,,,,,,,,
null,,rt_plussign_withcolor,1077554,,yellow,,,,null,GW/carmel.png,GW/hanover.png,,,,,,,,,,,,,,,,,,
923.5999999940395,,rt_thecrossant_black,1078809,,black_plus_sign,,,,50,,,1,1,,,,,,,,,,,,,,,,
null,,color_black,1078924,,black_plus_sign,,,,null,,,,,,,,,,,,,,,,,,,,
null,,learn_phase(without_color),1081927,,black_plus_sign,,,,null,GW/hotsprings.png,GW/gatlinburg.png,,,,,,,,,,,,,,,,,,
null,,black_cross(without_color),1082456,,blue,,,,null,GW/hotsprings.png,GW/gatlinburg.png,,,,,,,,,,,,,,,,,,
null,,rt_plussign_withcolor,1082957,,blue,,,,null,GW/hotsprings.png,GW/gatlinburg.png,,,,,,,,,,,,,,,,,,
981.2999999970198,,rt_thecrossant_black,1084434,,black_plus_sign,,,,49,,,1,1,,,,,,,,,,,,,,,,
null,,color_black,1084537,,black_plus_sign,,,,null,,,,,,,,,,,,,,,,,,,,
null,,learn_phase(without_color),1087540,,black_plus_sign,,,,null,GW/carmel.png,GW/huntsville.png,,,,,,,,,,,,,,,,,,
null,,black_cross(without_color),1088277,,yellow,,,,null,GW/carmel.png,GW/huntsville.png,,,,,,,,,,,,,,,,,,
null,,rt_plussign_withcolor,1088779,,yellow,,,,null,GW/carmel.png,GW/huntsville.png,,,,,,,,,,,,,,,,,,
1051.0999999940395,,rt_thecrossant_black,1090048,,black_plus_sign,,,,50,,,1,1,,,,,,,,,,,,,,,,
null,,color_black,1090151,,black_plus_sign,,,,null,,,,,,,,,,,,,,,,,,,,
null,,learn_phase(without_color),1093155,,black_plus_sign,,,,null,GW/peoria.png,GW/westpalmbeach.png,,,,,,,,,,,,,,,,,,
null,,black_cross(without_color),1093914,,blue,,,,null,GW/peoria.png,GW/westpalmbeach.png,,,,,,,,,,,,,,,,,,
null,,rt_plussign_withcolor,1094416,,blue,,,,null,GW/peoria.png,GW/westpalmbeach.png,,,,,,,,,,,,,,,,,,
1044.5,,rt_thecrossant_black,1095662,,black_plus_sign,,,,49,,,1,1,,,,,,,,,,,,,,,,
null,,color_black,1095765,,black_plus_sign,,,,null,,,,,,,,,,,,,,,,,,,,
null,,learn_phase(without_color),1098769,,black_plus_sign,,,,null,GW/boulder.png,GW/newhope.png,,,,,,,,,,,,,,,,,,
null,,black_cross(without_color),1099514,,yellow,,,,null,GW/boulder.png,GW/newhope.png,,,,,,,,,,,,,,,,,,
null,,rt_plussign_withcolor,1100016,,yellow,,,,null,GW/boulder.png,GW/newhope.png,,,,,,,,,,,,,,,,,,
1051.7000000029802,,rt_thecrossant_black,1101276,,black_plus_sign,,,,50,,,1,1,,,,,,,,,,,,,,,,
null,,color_black,1101379,,black_plus_sign,,,,null,,,,,,,,,,,,,,,,,,,,
null,,learn_phase(without_color),1104382,,black_plus_sign,,,,null,GW/hanover.png,GW/huntsville.png,,,,,,,,,,,,,,,,,,
null,,black_cross(without_color),1105078,,blue,,,,null,GW/hanover.png,GW/huntsville.png,,,,,,,,,,,,,,,,,,
null,,rt_plussign_withcolor,1105580,,blue,,,,null,GW/hanover.png,GW/huntsville.png,,,,,,,,,,,,,,,,,,
1026,,rt_thecrossant_black,1106889,,black_plus_sign,,,,49,,,1,1,,,,,,,,,,,,,,,,
null,,color_black,1106992,,black_plus_sign,,,,null,,,,,,,,,,,,,,,,,,,,
null,,learn_phase(without_color),1109995,,black_plus_sign,,,,null,GW/hotsprings.png,GW/peoria.png,,,,,,,,,,,,,,,,,,
null,,black_cross(without_color),1110579,,yellow,,,,null,GW/hotsprings.png,GW/peoria.png,,,,,,,,,,,,,,,,,,
null,,rt_plussign_withcolor,1111081,,yellow,,,,null,GW/hotsprings.png,GW/peoria.png,,,,,,,,,,,,,,,,,,
1091,,rt_thecrossant_black,1112501,,black_plus_sign,,,,50,,,1,1,,,,,,,,,,,,,,,,
null,,color_black,1112604,,black_plus_sign,,,,null,,,,,,,,,,,,,,,,,,,,
null,,learn_phase(without_color),1115608,,black_plus_sign,,,,null,GW/westpalmbeach.png,GW/peoria.png,,,,,,,,,,,,,,,,,,
null,,black_cross(without_color),1116222,,blue,,,,null,GW/westpalmbeach.png,GW/peoria.png,,,,,,,,,,,,,,,,,,
null,,rt_plussign_withcolor,1116725,,blue,,,,null,GW/westpalmbeach.png,GW/peoria.png,,,,,,,,,,,,,,,,,,
887.7000000029802,,rt_thecrossant_black,1118117,,black_plus_sign,,,,49,,,1,1,,,,,,,,,,,,,,,,
null,,color_black,1118220,,black_plus_sign,,,,null,,,,,,,,,,,,,,,,,,,,
null,,learn_phase(without_color),1121225,,black_plus_sign,,,,null,GW/huntsville.png,GW/leesburg.png,,,,,,,,,,,,,,,,,,
null,,black_cross(without_color),1121922,,blue,,,,null,GW/huntsville.png,GW/leesburg.png,,,,,,,,,,,,,,,,,,
null,,rt_plussign_withcolor,1122424,,blue,,,,null,GW/huntsville.png,GW/leesburg.png,,,,,,,,,,,,,,,,,,
1026.7000000029802,,rt_thecrossant_black,1123740,,black_plus_sign,,,,49,,,1,1,,,,,,,,,,,,,,,,
null,,color_black,1123843,,black_plus_sign,,,,null,,,,,,,,,,,,,,,,,,,,
46863,,learn_break,1170709,,learn_break,,,,32,,,,,,,,,,,,,,,,,,,,
40133,,intro_1,1210844,,instruct,,0,Start,,,,,,,,,,,,,,,,,,,,,
3847.5,,directmemory_phase,1214693,,GW/huntsville.png,,,,50,,,1,1,GW/boulder.png,GW/leesburg.png,GW/hotsprings.png,GW/leesburg.png,GW/boulder.png,GW/hotsprings.png,1,,,,,,,,,
null,,html-keyboard-response,1215697,,<p></p>,,,,null,,,,,,,,,,,,,,,,,,,,
3521.0999999940395,,directmemory_phase,1219221,,GW/carmel.png,,,,50,,,0,0.5,GW/gatlinburg.png,GW/newhope.png,GW/shreveport.png,GW/shreveport.png,GW/newhope.png,GW/gatlinburg.png,0.5,closer,,,,,,,,
null,,html-keyboard-response,1220224,,<p></p>,,,,null,,,,,,,,,,,,,,,,,,,,
3154.7000000029802,,directmemory_phase,1223381,,GW/leesburg.png,,,,50,,,0,0.3333333333333333,GW/gatlinburg.png,GW/peoria.png,GW/racine.png,GW/racine.png,GW/peoria.png,GW/gatlinburg.png,0.5,closer,,,,,,,,
null,,html-keyboard-response,1224384,,<p></p>,,,,null,,,,,,,,,,,,,,,,,,,,
2274.7999999970198,,directmemory_phase,1226661,,GW/carmel.png,,,,50,,,1,0.5,GW/peoria.png,GW/huntsville.png,GW/westpalmbeach.png,GW/huntsville.png,GW/peoria.png,GW/westpalmbeach.png,1,,,,,,,,,
null,,html-keyboard-response,1227664,,<p></p>,,,,null,,,,,,,,,,,,,,,,,,,,
3906.7000000029802,,directmemory_phase,1231573,,GW/peoria.png,,,,51,,,0,0.4,GW/hotsprings.png,GW/huntsville.png,GW/leesburg.png,GW/hotsprings.png,GW/leesburg.png,GW/huntsville.png,0.5,closer,,,,,,,,
null,,html-keyboard-response,1232576,,<p></p>,,,,null,,,,,,,,,,,,,,,,,,,,
3219,,directmemory_phase,1235797,,GW/shreveport.png,,,,50,,,1,0.5,GW/hotsprings.png,GW/carmel.png,GW/boulder.png,GW/carmel.png,GW/hotsprings.png,GW/boulder.png,1,,,,,,,,,
null,,html-keyboard-response,1236800,,<p></p>,,,,null,,,,,,,,,,,,,,,,,,,,
4050,,directmemory_phase,1240853,,GW/hanover.png,,,,49,,,0,0.42857142857142855,GW/racine.png,GW/leesburg.png,GW/cornwall.png,GW/cornwall.png,GW/leesburg.png,GW/racine.png,0.5,closer,,,,,,,,
null,,html-keyboard-response,1241856,,<p></p>,,,,null,,,,,,,,,,,,,,,,,,,,
3522.7000000029802,,directmemory_phase,1245381,,GW/racine.png,,,,51,,,1,0.5,GW/westpalmbeach.png,GW/huntsville.png,GW/hotsprings.png,GW/hotsprings.png,GW/huntsville.png,GW/westpalmbeach.png,1,,,,,,,,,
null,,html-keyboard-response,1246385,,<p></p>,,,,null,,,,,,,,,,,,,,,,,,,,
3169.5999999940395,,directmemory_phase,1249557,,GW/carmel.png,,,,50,,,1,0.5555555555555556,GW/leesburg.png,GW/hanover.png,GW/westpalmbeach.png,GW/hanover.png,GW/leesburg.png,GW/westpalmbeach.png,1,,,,,,,,,
null,,html-keyboard-response,1250560,,<p></p>,,,,null,,,,,,,,,,,,,,,,,,,,
2370.2999999970198,,directmemory_phase,1252933,,GW/westpalmbeach.png,,,,51,,,1,0.6,GW/carmel.png,GW/shreveport.png,GW/peoria.png,GW/peoria.png,GW/shreveport.png,GW/carmel.png,1,,,,,,,,,
null,,html-keyboard-response,1253936,,<p></p>,,,,null,,,,,,,,,,,,,,,,,,,,
2322.5,,directmemory_phase,1256261,,GW/newhope.png,,,,51,,,1,0.6363636363636364,GW/racine.png,GW/cornwall.png,GW/huntsville.png,GW/huntsville.png,GW/cornwall.png,GW/racine.png,1,,,,,,,,,
null,,html-keyboard-response,1257264,,<p></p>,,,,null,,,,,,,,,,,,,,,,,,,,
3794.7000000029802,,directmemory_phase,1261061,,GW/racine.png,,,,51,,,1,0.6666666666666666,GW/newhope.png,GW/shreveport.png,GW/leesburg.png,GW/leesburg.png,GW/shreveport.png,GW/newhope.png,1,,,,,,,,,
null,,html-keyboard-response,1262064,,<p></p>,,,,null,,,,,,,,,,,,,,,,,,,,
5282.5,,directmemory_phase,1267349,,GW/newhope.png,,,,49,,,1,0.6923076923076923,GW/hanover.png,GW/racine.png,GW/carmel.png,GW/hanover.png,GW/carmel.png,GW/racine.png,1,,,,,,,,,
null,,html-keyboard-response,1268352,,<p></p>,,,,null,,,,,,,,,,,,,,,,,,,,
2994.699999988079,,directmemory_phase,1271349,,GW/huntsville.png,,,,49,,,1,0.7142857142857143,GW/carmel.png,GW/gatlinburg.png,GW/racine.png,GW/carmel.png,GW/racine.png,GW/gatlinburg.png,1,,,,,,,,,
null,,html-keyboard-response,1272352,,<p></p>,,,,null,,,,,,,,,,,,,,,,,,,,
2242.2000000029802,,directmemory_phase,1274597,,GW/boulder.png,,,,51,,,1,0.7333333333333333,GW/carmel.png,GW/hanover.png,GW/newhope.png,GW/newhope.png,GW/hanover.png,GW/carmel.png,1,,,,,,,,,
null,,html-keyboard-response,1275600,,<p></p>,,,,null,,,,,,,,,,,,,,,,,,,,
2913.699999988079,,directmemory_phase,1278517,,GW/shreveport.png,,,,49,,,1,0.75,GW/peoria.png,GW/gatlinburg.png,GW/hanover.png,GW/peoria.png,GW/hanover.png,GW/gatlinburg.png,1,,,,,,,,,
null,,html-keyboard-response,1279520,,<p></p>,,,,null,,,,,,,,,,,,,,,,,,,,
4116.29999999702,,directmemory_phase,1283638,,GW/hanover.png,,,,49,,,0,0.7058823529411765,GW/boulder.png,GW/newhope.png,GW/hotsprings.png,GW/newhope.png,GW/boulder.png,GW/hotsprings.png,0.5,closer,,,,,,,,
null,,html-keyboard-response,1284642,,<p></p>,,,,null,,,,,,,,,,,,,,,,,,,,
4112.29999999702,,directmemory_phase,1288757,,GW/leesburg.png,,,,51,,,0,0.6666666666666666,GW/huntsville.png,GW/boulder.png,GW/hanover.png,GW/huntsville.png,GW/hanover.png,GW/boulder.png,0.5,closer,,,,,,,,
null,,html-keyboard-response,1289760,,<p></p>,,,,null,,,,,,,,,,,,,,,,,,,,
1906.4000000059605,,directmemory_phase,1291668,,GW/peoria.png,,,,49,,,1,0.6842105263157895,GW/shreveport.png,GW/huntsville.png,GW/carmel.png,GW/shreveport.png,GW/carmel.png,GW/huntsville.png,1,,,,,,,,,
null,,html-keyboard-response,1292670,,<p></p>,,,,null,,,,,,,,,,,,,,,,,,,,
3332.2999999970198,,directmemory_phase,1296005,,GW/hanover.png,,,,51,,,1,0.7,GW/racine.png,GW/shreveport.png,GW/huntsville.png,GW/huntsville.png,GW/shreveport.png,GW/racine.png,1,,,,,,,,,
null,,html-keyboard-response,1297010,,<p></p>,,,,null,,,,,,,,,,,,,,,,,,,,
4305,,directmemory_phase,1301317,,GW/hotsprings.png,,,,51,,,1,0.7142857142857143,GW/huntsville.png,GW/shreveport.png,GW/peoria.png,GW/peoria.png,GW/shreveport.png,GW/huntsville.png,1,,,,,,,,,
null,,html-keyboard-response,1302320,,<p></p>,,,,null,,,,,,,,,,,,,,,,,,,,
4162.70000000298,,directmemory_phase,1306485,,GW/huntsville.png,,,,49,,,1,0.7272727272727273,GW/newhope.png,GW/hotsprings.png,GW/boulder.png,GW/newhope.png,GW/boulder.png,GW/hotsprings.png,1,,,,,,,,,
null,,html-keyboard-response,1307488,,<p></p>,,,,null,,,,,,,,,,,,,,,,,,,,
1650.2000000029802,,directmemory_phase,1309141,,GW/peoria.png,,,,50,,,1,0.7391304347826086,GW/gatlinburg.png,GW/westpalmbeach.png,GW/hanover.png,GW/westpalmbeach.png,GW/gatlinburg.png,GW/hanover.png,1,,,,,,,,,
null,,html-keyboard-response,1310144,,<p></p>,,,,null,,,,,,,,,,,,,,,,,,,,
3074.5,,directmemory_phase,1313221,,GW/shreveport.png,,,,49,,,1,0.75,GW/leesburg.png,GW/boulder.png,GW/hotsprings.png,GW/leesburg.png,GW/hotsprings.png,GW/boulder.png,1,,,,,,,,,
null,,html-keyboard-response,1314223,,<p></p>,,,,null,,,,,,,,,,,,,,,,,,,,
5684.29999999702,,directmemory_phase,1319909,,GW/cornwall.png,,,,49,,,1,0.76,GW/hanover.png,GW/shreveport.png,GW/carmel.png,GW/hanover.png,GW/carmel.png,GW/shreveport.png,1,,,,,,,,,
null,,html-keyboard-response,1320914,,<p></p>,,,,null,,,,,,,,,,,,,,,,,,,,
2240.5,,directmemory_phase,1323157,,GW/hotsprings.png,,,,51,,,1,0.7692307692307693,GW/hanover.png,GW/shreveport.png,GW/gatlinburg.png,GW/gatlinburg.png,GW/shreveport.png,GW/hanover.png,1,,,,,,,,,
null,,html-keyboard-response,1324160,,<p></p>,,,,null,,,,,,,,,,,,,,,,,,,,
3234.5,,directmemory_phase,1327397,,GW/leesburg.png,,,,50,,,1,0.7777777777777778,GW/hotsprings.png,GW/shreveport.png,GW/boulder.png,GW/shreveport.png,GW/hotsprings.png,GW/boulder.png,1,,,,,,,,,
null,,html-keyboard-response,1328400,,<p></p>,,,,null,,,,,,,,,,,,,,,,,,,,
2658.3999999910593,,directmemory_phase,1331060,,GW/hotsprings.png,,,,51,,,1,0.7857142857142857,GW/huntsville.png,GW/leesburg.png,GW/racine.png,GW/racine.png,GW/leesburg.png,GW/huntsville.png,1,,,,,,,,,
null,,html-keyboard-response,1332063,,<p></p>,,,,null,,,,,,,,,,,,,,,,,,,,
2051.2999999970198,,directmemory_phase,1334117,,GW/newhope.png,,,,49,,,1,0.7931034482758621,GW/boulder.png,GW/peoria.png,GW/cornwall.png,GW/boulder.png,GW/cornwall.png,GW/peoria.png,1,,,,,,,,,
null,,html-keyboard-response,1335124,,<p></p>,,,,null,,,,,,,,,,,,,,,,,,,,
3278.7999999970198,,directmemory_phase,1338405,,GW/huntsville.png,,,,49,,,1,0.8,GW/hanover.png,GW/peoria.png,GW/boulder.png,GW/hanover.png,GW/boulder.png,GW/peoria.png,1,,,,,,,,,
null,,html-keyboard-response,1339408,,<p></p>,,,,null,,,,,,,,,,,,,,,,,,,,
1747,,directmemory_phase,1341157,,GW/gatlinburg.png,,,,49,,,1,0.8064516129032258,GW/hotsprings.png,GW/carmel.png,GW/racine.png,GW/hotsprings.png,GW/racine.png,GW/carmel.png,1,,,,,,,,,
null,,html-keyboard-response,1342161,,<p></p>,,,,null,,,,,,,,,,,,,,,,,,,,
2466.3999999910593,,directmemory_phase,1344629,,GW/hanover.png,,,,49,,,1,0.8125,GW/carmel.png,GW/racine.png,GW/shreveport.png,GW/carmel.png,GW/shreveport.png,GW/racine.png,1,,,,,,,,,
null,,html-keyboard-response,1345632,,<p></p>,,,,null,,,,,,,,,,,,,,,,,,,,
38314,,intro_1,1383948,,instruct,,0,,,,,,,,,,,,,,,,,,,,,,
11086.90000000596,,intro_2,1395036,,instruct,,1,Next,,,,,,,,,,,,,,,,,,,,,
6470.70000000298,,intro_3,1401508,,instruct,,1,Next,,,,,,,,,,,,,,,,,,,,,
13726.90000000596,,intro_4,1415236,,instruct,,1,Next,,,,,,,,,,,,,,,,,,,,,
35198.90000000596,,intro_5,1450436,,instruct,,1,Next,,,,,,,,,,,,,,,,,,,,,
2190.9000000059605,,intro_6,1452628,,instruct,,1,Next,,,,,,,,,,,,,,,,,,,,,
24598.59999999404,,intro_7,1477227,,instruct,,1,Next,,,,,,,,,,,,,,,,,,,,,
35806.90000000596,,intro_8,1513036,,instruct,,1,Next,,,,,,,,,,,,,,,,,,,,,
2071.2999999970198,,shortestpath_phase,1515109,,GW/westpalmbeach.png,,,,50,GW/boulder.png,GW/shreveport.png,1,1,,,,GW/shreveport.png,,,,,Four Edge Diff,Two Edge Six Edge,,,,,,
null,,html-keyboard-response,1516114,,<p></p>,,,,null,,,,,,,,,,,,,,,,,,,,
2336.2999999970198,,shortestpath_phase,1518452,,GW/peoria.png,,,,50,GW/gatlinburg.png,GW/boulder.png,0,0.5,,,,GW/gatlinburg.png,,,,,Three Edge Diff,Two Edge Five Edge,,,,,,
null,,html-keyboard-response,1519456,,<p></p>,,,,null,,,,,,,,,,,,,,,,,,,,
2002.1000000089407,,shortestpath_phase,1521460,,GW/newhope.png,,,,49,GW/carmel.png,GW/westpalmbeach.png,1,0.6666666666666666,,,,GW/carmel.png,,,,,Three Edge Diff,Two Edge Five Edge,,,,,,
null,,html-keyboard-response,1522464,,<p></p>,,,,null,,,,,,,,,,,,,,,,,,,,
2242.7999999970198,,shortestpath_phase,1524709,,GW/boulder.png,,,,50,GW/peoria.png,GW/hanover.png,1,0.75,,,,GW/hanover.png,,,,,Three Edge Diff,Three Edge Six Edge,,,,,,
null,,html-keyboard-response,1525713,,<p></p>,,,,null,,,,,,,,,,,,,,,,,,,,
2817.4000000059605,,shortestpath_phase,1528532,,GW/peoria.png,,,,50,GW/carmel.png,GW/boulder.png,0,0.6,,,,GW/carmel.png,,,,,Three Edge Diff,Three Edge Six Edge,,,,,,
null,,html-keyboard-response,1529536,,<p></p>,,,,null,,,,,,,,,,,,,,,,,,,,
2434.5999999940395,,shortestpath_phase,1531973,,GW/boulder.png,,,,49,GW/racine.png,GW/gatlinburg.png,1,0.6666666666666666,,,,GW/racine.png,,,,,Two Edge Diff,Four Edge Six Edge,,,,,,
null,,html-keyboard-response,1532977,,<p></p>,,,,null,,,,,,,,,,,,,,,,,,,,
2321.7999999970198,,shortestpath_phase,1535301,,GW/gatlinburg.png,,,,49,GW/boulder.png,GW/peoria.png,0,0.5714285714285714,,,,GW/peoria.png,,,,,Four Edge Diff,Two Edge Six Edge,,,,,,
null,,html-keyboard-response,1536304,,<p></p>,,,,null,,,,,,,,,,,,,,,,,,,,
3201.9000000059605,,shortestpath_phase,1539509,,GW/cornwall.png,,,,50,GW/carmel.png,GW/hotsprings.png,0,0.5,,,,GW/carmel.png,,,,,Three Edge Diff,Three Edge Six Edge,,,,,,
null,,html-keyboard-response,1540512,,<p></p>,,,,null,,,,,,,,,,,,,,,,,,,,
3218.7000000029802,,shortestpath_phase,1543733,,GW/westpalmbeach.png,,,,50,GW/hanover.png,GW/boulder.png,0,0.4444444444444444,,,,GW/hanover.png,,,,,Two Edge Diff,Four Edge Six Edge,,,,,,
null,,html-keyboard-response,1544737,,<p></p>,,,,null,,,,,,,,,,,,,,,,,,,,
3554.2000000029802,,shortestpath_phase,1548293,,GW/gatlinburg.png,,,,50,GW/racine.png,GW/newhope.png,0,0.4,,,,GW/racine.png,,,,,Three Edge Diff,Three Edge Six Edge,,,,,,
null,,html-keyboard-response,1549296,,<p></p>,,,,null,,,,,,,,,,,,,,,,,,,,
3777.800000011921,,shortestpath_phase,1553077,,GW/westpalmbeach.png,,,,50,GW/newhope.png,GW/boulder.png,0,0.36363636363636365,,,,GW/newhope.png,,,,,One Edge Diff,Five Edge Six Edge,,,,,,
null,,html-keyboard-response,1554080,,<p></p>,,,,null,,,,,,,,,,,,,,,,,,,,
2194.2000000029802,,shortestpath_phase,1556277,,GW/hanover.png,,,,50,GW/westpalmbeach.png,GW/shreveport.png,1,0.4166666666666667,,,,GW/shreveport.png,,,,,Two Edge Diff,Two Edge Four Edge,,,,,,
null,,html-keyboard-response,1557280,,<p></p>,,,,null,,,,,,,,,,,,,,,,,,,,
2883.4000000059605,,shortestpath_phase,1560166,,GW/westpalmbeach.png,,,,50,GW/hotsprings.png,GW/cornwall.png,0,0.38461538461538464,,,,GW/hotsprings.png,,,,,Three Edge Diff,Two Edge Five Edge,,,,,,
null,,html-keyboard-response,1561169,,<p></p>,,,,null,,,,,,,,,,,,,,,,,,,,
3169.199999988079,,shortestpath_phase,1564341,,GW/boulder.png,,,,49,GW/racine.png,GW/westpalmbeach.png,1,0.42857142857142855,,,,GW/racine.png,,,,,Two Edge Diff,Four Edge Six Edge,,,,,,
null,,html-keyboard-response,1565344,,<p></p>,,,,null,,,,,,,,,,,,,,,,,,,,
3442.6000000089407,,shortestpath_phase,1568789,,GW/newhope.png,,,,49,GW/peoria.png,GW/westpalmbeach.png,1,0.4666666666666667,,,,GW/peoria.png,,,,,One Edge Diff,Four Edge Five Edge,,,,,,
null,,html-keyboard-response,1569791,,<p></p>,,,,null,,,,,,,,,,,,,,,,,,,,
3171.6000000089407,,shortestpath_phase,1572965,,GW/hotsprings.png,,,,49,GW/carmel.png,GW/boulder.png,1,0.5,,,,GW/carmel.png,,,,,Two Edge Diff,Three Edge Five Edge,,,,,,
null,,html-keyboard-response,1573968,,<p></p>,,,,null,,,,,,,,,,,,,,,,,,,,
3585.9000000059605,,shortestpath_phase,1577557,,GW/newhope.png,,,,49,GW/gatlinburg.png,GW/leesburg.png,0,0.47058823529411764,,,,GW/leesburg.png,,,,,Three Edge Diff,Two Edge Five Edge,,,,,,
null,,html-keyboard-response,1578560,,<p></p>,,,,null,,,,,,,,,,,,,,,,,,,,
2242.2000000029802,,shortestpath_phase,1580805,,GW/hanover.png,,,,50,GW/westpalmbeach.png,GW/racine.png,1,0.5,,,,GW/racine.png,,,,,One Edge Diff,Three Edge Four Edge,,,,,,
null,,html-keyboard-response,1581808,,<p></p>,,,,null,,,,,,,,,,,,,,,,,,,,
3602.7999999970198,,shortestpath_phase,1585413,,GW/newhope.png,,,,50,GW/gatlinburg.png,GW/cornwall.png,1,0.5263157894736842,,,,GW/cornwall.png,,,,,Three Edge Diff,Two Edge Five Edge,,,,,,
null,,html-keyboard-response,1586416,,<p></p>,,,,null,,,,,,,,,,,,,,,,,,,,
3089.800000011921,,shortestpath_phase,1589509,,GW/shreveport.png,,,,49,GW/westpalmbeach.png,GW/newhope.png,1,0.55,,,,GW/westpalmbeach.png,,,,,One Edge Diff,Two Edge Three Edge,,,,,,
null,,html-keyboard-response,1590512,,<p></p>,,,,null,,,,,,,,,,,,,,,,,,,,
3283.5999999940395,,shortestpath_phase,1593798,,GW/gatlinburg.png,,,,50,GW/cornwall.png,GW/carmel.png,1,0.5714285714285714,,,,GW/carmel.png,,,,,Two Edge Diff,Four Edge Six Edge,,,,,,
null,,html-keyboard-response,1594802,,<p></p>,,,,null,,,,,,,,,,,,,,,,,,,,
3729.2000000029802,,shortestpath_phase,1598533,,GW/hanover.png,,,,50,GW/westpalmbeach.png,GW/leesburg.png,1,0.5909090909090909,,,,GW/leesburg.png,,,,,Two Edge Diff,Two Edge Four Edge,,,,,,
null,,html-keyboard-response,1599537,,<p></p>,,,,null,,,,,,,,,,,,,,,,,,,,
3234.2000000029802,,shortestpath_phase,1602773,,GW/westpalmbeach.png,,,,50,GW/huntsville.png,GW/gatlinburg.png,1,0.6086956521739131,,,,GW/gatlinburg.png,,,,,One Edge Diff,Three Edge Four Edge,,,,,,
null,,html-keyboard-response,1603776,,<p></p>,,,,null,,,,,,,,,,,,,,,,,,,,
1762,,shortestpath_phase,1605541,,GW/hotsprings.png,,,,50,GW/cornwall.png,GW/carmel.png,1,0.625,,,,GW/carmel.png,,,,,Two Edge Diff,Three Edge Five Edge,,,,,,
null,,html-keyboard-response,1606551,,<p></p>,,,,null,,,,,,,,,,,,,,,,,,,,
3179.7000000029802,,shortestpath_phase,1609733,,GW/gatlinburg.png,,,,49,GW/cornwall.png,GW/hanover.png,0,0.6,,,,GW/hanover.png,,,,,One Edge Diff,Five Edge Six Edge,,,,,,
null,,html-keyboard-response,1610736,,<p></p>,,,,null,,,,,,,,,,,,,,,,,,,,
3794.2000000029802,,shortestpath_phase,1614533,,GW/cornwall.png,,,,49,GW/carmel.png,GW/boulder.png,1,0.6153846153846154,,,,GW/carmel.png,,,,,One Edge Diff,Two Edge Three Edge,,,,,,
null,,html-keyboard-response,1615536,,<p></p>,,,,null,,,,,,,,,,,,,,,,,,,,
2210,,shortestpath_phase,1617749,,GW/gatlinburg.png,,,,49,GW/racine.png,GW/cornwall.png,1,0.6296296296296297,,,,GW/racine.png,,,,,Four Edge Diff,Two Edge Six Edge,,,,,,
null,,html-keyboard-response,1618752,,<p></p>,,,,null,,,,,,,,,,,,,,,,,,,,
2978.7000000029802,,shortestpath_phase,1621733,,GW/cornwall.png,,,,50,GW/gatlinburg.png,GW/carmel.png,1,0.6428571428571429,,,,GW/carmel.png,,,,,Four Edge Diff,Two Edge Six Edge,,,,,,
null,,html-keyboard-response,1622736,,<p></p>,,,,null,,,,,,,,,,,,,,,,,,,,
3042.2000000029802,,shortestpath_phase,1625781,,GW/gatlinburg.png,,,,50,GW/huntsville.png,GW/newhope.png,0,0.6206896551724138,,,,GW/huntsville.png,,,,,One Edge Diff,Four Edge Five Edge,,,,,,
null,,html-keyboard-response,1626784,,<p></p>,,,,null,,,,,,,,,,,,,,,,,,,,
4017.6000000089407,,shortestpath_phase,1630805,,GW/boulder.png,,,,50,GW/hanover.png,GW/peoria.png,0,0.6,,,,GW/hanover.png,,,,,Three Edge Diff,Two Edge Five Edge,,,,,,
null,,html-keyboard-response,1631808,,<p></p>,,,,null,,,,,,,,,,,,,,,,,,,,
3714.7000000029802,,shortestpath_phase,1635525,,GW/gatlinburg.png,,,,50,GW/peoria.png,GW/hanover.png,0,0.5806451612903226,,,,GW/peoria.png,,,,,Three Edge Diff,Two Edge Five Edge,,,,,,
null,,html-keyboard-response,1636530,,<p></p>,,,,null,,,,,,,,,,,,,,,,,,,,
2671.9000000059605,,shortestpath_phase,1639203,,GW/newhope.png,,,,49,GW/leesburg.png,GW/westpalmbeach.png,1,0.59375,,,,GW/leesburg.png,,,,,Three Edge Diff,Three Edge Six Edge,,,,,,
null,,html-keyboard-response,1640206,,<p></p>,,,,null,,,,,,,,,,,,,,,,,,,,
2884.5,,shortestpath_phase,1643093,,GW/westpalmbeach.png,,,,49,GW/gatlinburg.png,GW/newhope.png,1,0.6060606060606061,,,,GW/gatlinburg.png,,,,,Two Edge Diff,Three Edge Five Edge,,,,,,
null,,html-keyboard-response,1644096,,<p></p>,,,,null,,,,,,,,,,,,,,,,,,,,
1907.5,,shortestpath_phase,1646005,,GW/newhope.png,,,,49,GW/carmel.png,GW/westpalmbeach.png,1,0.6176470588235294,,,,GW/carmel.png,,,,,Three Edge Diff,Three Edge Six Edge,,,,,,
null,,html-keyboard-response,1647008,,<p></p>,,,,null,,,,,,,,,,,,,,,,,,,,
2801.7999999970198,,shortestpath_phase,1649813,,GW/hanover.png,,,,50,GW/shreveport.png,GW/hotsprings.png,0,0.6,,,,GW/shreveport.png,,,,,Two Edge Diff,Two Edge Four Edge,,,,,,
null,,html-keyboard-response,1650816,,<p></p>,,,,null,,,,,,,,,,,,,,,,,,,,
2721.7999999970198,,shortestpath_phase,1653540,,GW/westpalmbeach.png,,,,49,GW/boulder.png,GW/huntsville.png,0,0.5833333333333334,,,,GW/huntsville.png,,,,,Two Edge Diff,Four Edge Six Edge,,,,,,
null,,html-keyboard-response,1654542,,<p></p>,,,,null,,,,,,,,,,,,,,,,,,,,
2325.300000011921,,shortestpath_phase,1656869,,GW/peoria.png,,,,50,GW/boulder.png,GW/racine.png,1,0.5945945945945946,,,,GW/racine.png,,,,,Three Edge Diff,Three Edge Six Edge,,,,,,
null,,html-keyboard-response,1657872,,<p></p>,,,,null,,,,,,,,,,,,,,,,,,,,
2961.800000011921,,shortestpath_phase,1660837,,GW/boulder.png,,,,49,GW/hanover.png,GW/westpalmbeach.png,1,0.6052631578947368,,,,GW/hanover.png,,,,,Four Edge Diff,Two Edge Six Edge,,,,,,
null,,html-keyboard-response,1661840,,<p></p>,,,,null,,,,,,,,,,,,,,,,,,,,
2914.0999999940395,,shortestpath_phase,1664757,,GW/westpalmbeach.png,,,,49,GW/shreveport.png,GW/cornwall.png,1,0.6153846153846154,,,,GW/shreveport.png,,,,,Three Edge Diff,Three Edge Six Edge,,,,,,
null,,html-keyboard-response,1665760,,<p></p>,,,,null,,,,,,,,,,,,,,,,,,,,
1521.4000000059605,,shortestpath_phase,1667284,,GW/racine.png,,,,50,GW/westpalmbeach.png,GW/gatlinburg.png,1,0.625,,,,GW/gatlinburg.png,,,,,One Edge Diff,Two Edge Three Edge,,,,,,
null,,html-keyboard-response,1668286,,<p></p>,,,,null,,,,,,,,,,,,,,,,,,,,
2740.7999999970198,,shortestpath_phase,1671029,,GW/cornwall.png,,,,49,GW/westpalmbeach.png,GW/shreveport.png,0,0.6097560975609756,,,,GW/shreveport.png,,,,,Two Edge Diff,Three Edge Five Edge,,,,,,
null,,html-keyboard-response,1672034,,<p></p>,,,,null,,,,,,,,,,,,,,,,,,,,
3248.5999999940395,,shortestpath_phase,1675285,,GW/boulder.png,,,,49,GW/hanover.png,GW/gatlinburg.png,1,0.6190476190476191,,,,GW/hanover.png,,,,,Four Edge Diff,Two Edge Six Edge,,,,,,
null,,html-keyboard-response,1676288,,<p></p>,,,,null,,,,,,,,,,,,,,,,,,,,
3922.8999999910593,,shortestpath_phase,1680213,,GW/cornwall.png,,,,50,GW/gatlinburg.png,GW/huntsville.png,1,0.627906976744186,,,,GW/huntsville.png,,,,,Four Edge Diff,Two Edge Six Edge,,,,,,
null,,html-keyboard-response,1681217,,<p></p>,,,,null,,,,,,,,,,,,,,,,,,,,
3330.300000011921,,shortestpath_phase,1684549,,GW/newhope.png,,,,50,GW/gatlinburg.png,GW/carmel.png,1,0.6363636363636364,,,,GW/carmel.png,,,,,Three Edge Diff,Two Edge Five Edge,,,,,,
null,,html-keyboard-response,1685559,,<p></p>,,,,null,,,,,,,,,,,,,,,,,,,,
2586.7000000029802,,shortestpath_phase,1688148,,GW/hotsprings.png,,,,49,GW/shreveport.png,GW/cornwall.png,1,0.6444444444444445,,,,GW/shreveport.png,,,,,Three Edge Diff,Three Edge Six Edge,,,,,,
null,,html-keyboard-response,1689152,,<p></p>,,,,null,,,,,,,,,,,,,,,,,,,,
2626.5,,shortestpath_phase,1691781,,GW/cornwall.png,,,,50,GW/carmel.png,GW/westpalmbeach.png,0,0.6304347826086957,,,,GW/carmel.png,,,,,Three Edge Diff,Two Edge Five Edge,,,,,,
null,,html-keyboard-response,1692785,,<p></p>,,,,null,,,,,,,,,,,,,,,,,,,,
2353.5,,shortestpath_phase,1695141,,GW/newhope.png,,,,49,GW/hotsprings.png,GW/shreveport.png,0,0.6170212765957447,,,,GW/shreveport.png,,,,,One Edge Diff,Three Edge Four Edge,,,,,,
null,,html-keyboard-response,1696144,,<p></p>,,,,null,,,,,,,,,,,,,,,,,,,,
2689.5999999940395,,shortestpath_phase,1698836,,GW/hotsprings.png,,,,49,GW/boulder.png,GW/leesburg.png,0,0.6041666666666666,,,,GW/leesburg.png,,,,,Three Edge Diff,Three Edge Six Edge,,,,,,
null,,html-keyboard-response,1699838,,<p></p>,,,,null,,,,,,,,,,,,,,,,,,,,
2533.5,,shortestpath_phase,1702373,,GW/huntsville.png,,,,50,GW/shreveport.png,GW/hotsprings.png,0,0.5918367346938775,,,,GW/shreveport.png,,,,,One Edge Diff,Two Edge Three Edge,,,,,,
null,,html-keyboard-response,1703378,,<p></p>,,,,null,,,,,,,,,,,,,,,,,,,,
3296.1000000089407,,shortestpath_phase,1706677,,GW/westpalmbeach.png,,,,49,GW/carmel.png,GW/newhope.png,1,0.6,,,,GW/carmel.png,,,,,Two Edge Diff,Three Edge Five Edge,,,,,,
null,,html-keyboard-response,1707681,,<p></p>,,,,null,,,,,,,,,,,,,,,,,,,,
2705.3999999910593,,shortestpath_phase,1710389,,GW/cornwall.png,,,,49,GW/peoria.png,GW/boulder.png,0,0.5882352941176471,,,,GW/boulder.png,,,,,One Edge Diff,Three Edge Four Edge,,,,,,
null,,html-keyboard-response,1711392,,<p></p>,,,,null,,,,,,,,,,,,,,,,,,,,
2898.7999999970198,,shortestpath_phase,1714293,,GW/gatlinburg.png,,,,50,GW/carmel.png,GW/hanover.png,0,0.5769230769230769,,,,GW/carmel.png,,,,,One Edge Diff,Four Edge Five Edge,,,,,,
null,,html-keyboard-response,1715297,,<p></p>,,,,null,,,,,,,,,,,,,,,,,,,,
2641.6000000089407,,shortestpath_phase,1717941,,GW/cornwall.png,,,,50,GW/hotsprings.png,GW/gatlinburg.png,0,0.5660377358490566,,,,GW/hotsprings.png,,,,,One Edge Diff,Five Edge Six Edge,,,,,,
null,,html-keyboard-response,1718944,,<p></p>,,,,null,,,,,,,,,,,,,,,,,,,,
2786,,shortestpath_phase,1721733,,GW/boulder.png,,,,49,GW/hotsprings.png,GW/carmel.png,0,0.5555555555555556,,,,GW/carmel.png,,,,,Two Edge Diff,Three Edge Five Edge,,,,,,
null,,html-keyboard-response,1722736,,<p></p>,,,,null,,,,,,,,,,,,,,,,,,,,
3202.2000000029802,,shortestpath_phase,1725941,,GW/cornwall.png,,,,50,GW/huntsville.png,GW/westpalmbeach.png,0,0.5454545454545454,,,,GW/huntsville.png,,,,,Three Edge Diff,Three Edge Six Edge,,,,,,
null,,html-keyboard-response,1726946,,<p></p>,,,,null,,,,,,,,,,,,,,,,,,,,
2897.2000000029802,,shortestpath_phase,1729845,,GW/boulder.png,,,,49,GW/peoria.png,GW/carmel.png,0,0.5357142857142857,,,,GW/carmel.png,,,,,Two Edge Diff,Three Edge Five Edge,,,,,,
null,,html-keyboard-response,1730850,,<p></p>,,,,null,,,,,,,,,,,,,,,,,,,,
2367.7999999970198,,shortestpath_phase,1733221,,GW/hanover.png,,,,50,GW/hotsprings.png,GW/gatlinburg.png,0,0.5263157894736842,,,,GW/hotsprings.png,,,,,One Edge Diff,Four Edge Five Edge,,,,,,
null,,html-keyboard-response,1734224,,<p></p>,,,,null,,,,,,,,,,,,,,,,,,,,
2994.2000000029802,,shortestpath_phase,1737221,,GW/huntsville.png,,,,49,GW/gatlinburg.png,GW/peoria.png,0,0.5172413793103449,,,,GW/peoria.png,,,,,One Edge Diff,Three Edge Four Edge,,,,,,
null,,html-keyboard-response,1738225,,<p></p>,,,,null,,,,,,,,,,,,,,,,,,,,
3120.7999999970198,,shortestpath_phase,1741349,,GW/cornwall.png,,,,50,GW/gatlinburg.png,GW/newhope.png,1,0.5254237288135594,,,,GW/newhope.png,,,,,Four Edge Diff,Two Edge Six Edge,,,,,,
null,,html-keyboard-response,1742352,,<p></p>,,,,null,,,,,,,,,,,,,,,,,,,,
2577.7000000029802,,shortestpath_phase,1744933,,GW/peoria.png,,,,49,GW/boulder.png,GW/racine.png,0,0.5166666666666667,,,,GW/racine.png,,,,,Three Edge Diff,Two Edge Five Edge,,,,,,
null,,html-keyboard-response,1745938,,<p></p>,,,,null,,,,,,,,,,,,,,,,,,,,
2672.8999999910593,,shortestpath_phase,1748613,,GW/hotsprings.png,,,,49,GW/hanover.png,GW/leesburg.png,0,0.5081967213114754,,,,GW/leesburg.png,,,,,Two Edge Diff,Two Edge Four Edge,,,,,,
null,,html-keyboard-response,1749617,,<p></p>,,,,null,,,,,,,,,,,,,,,,,,,,
2993,,shortestpath_phase,1752613,,GW/racine.png,,,,50,GW/gatlinburg.png,GW/boulder.png,0,0.5,,,,GW/gatlinburg.png,,,,,Two Edge Diff,Two Edge Four Edge,,,,,,
null,,html-keyboard-response,1753616,,<p></p>,,,,null,,,,,,,,,,,,,,,,,,,,
2385.800000011921,,shortestpath_phase,1756005,,GW/newhope.png,,,,49,GW/leesburg.png,GW/westpalmbeach.png,1,0.5079365079365079,,,,GW/leesburg.png,,,,,Three Edge Diff,Two Edge Five Edge,,,,,,
null,,html-keyboard-response,1757008,,<p></p>,,,,null,,,,,,,,,,,,,,,,,,,,
2273.1000000089407,,shortestpath_phase,1759283,,GW/gatlinburg.png,,,,50,GW/carmel.png,GW/boulder.png,0,0.5,,,,GW/carmel.png,,,,,Two Edge Diff,Four Edge Six Edge,,,,,,
null,,html-keyboard-response,1760285,,<p></p>,,,,null,,,,,,,,,,,,,,,,,,,,
2372.6000000089407,,shortestpath_phase,1762661,,GW/cornwall.png,,,,49,GW/huntsville.png,GW/westpalmbeach.png,1,0.5076923076923077,,,,GW/huntsville.png,,,,,Three Edge Diff,Two Edge Five Edge,,,,,,
null,,html-keyboard-response,1763673,,<p></p>,,,,null,,,,,,,,,,,,,,,,,,,,
2089.2000000029802,,shortestpath_phase,1765765,,GW/westpalmbeach.png,,,,50,GW/gatlinburg.png,GW/cornwall.png,0,0.5,,,,GW/gatlinburg.png,,,,,Two Edge Diff,Three Edge Five Edge,,,,,,
null,,html-keyboard-response,1766768,,<p></p>,,,,null,,,,,,,,,,,,,,,,,,,,
2530.2000000029802,,shortestpath_phase,1769301,,GW/boulder.png,,,,49,GW/westpalmbeach.png,GW/hotsprings.png,0,0.4925373134328358,,,,GW/hotsprings.png,,,,,One Edge Diff,Five Edge Six Edge,,,,,,
null,,html-keyboard-response,1770304,,<p></p>,,,,null,,,,,,,,,,,,,,,,,,,,
2961.9000000059605,,shortestpath_phase,1773269,,GW/westpalmbeach.png,,,,50,GW/cornwall.png,GW/boulder.png,0,0.4852941176470588,,,,GW/cornwall.png,,,,,One Edge Diff,Five Edge Six Edge,,,,,,
null,,html-keyboard-response,1774272,,<p></p>,,,,null,,,,,,,,,,,,,,,,,,,,
2673.5,,shortestpath_phase,1776949,,GW/gatlinburg.png,,,,50,GW/racine.png,GW/huntsville.png,0,0.4782608695652174,,,,GW/racine.png,,,,,Two Edge Diff,Two Edge Four Edge,,,,,,
null,,html-keyboard-response,1777952,,<p></p>,,,,null,,,,,,,,,,,,,,,,,,,,
2498.4000000059605,,shortestpath_phase,1780453,,GW/cornwall.png,,,,49,GW/westpalmbeach.png,GW/peoria.png,0,0.4714285714285714,,,,GW/peoria.png,,,,,One Edge Diff,Four Edge Five Edge,,,,,,
null,,html-keyboard-response,1781457,,<p></p>,,,,null,,,,,,,,,,,,,,,,,,,,
2449.4000000059605,,shortestpath_phase,1783909,,GW/shreveport.png,,,,50,GW/westpalmbeach.png,GW/boulder.png,0,0.4647887323943662,,,,GW/westpalmbeach.png,,,,,Two Edge Diff,Two Edge Four Edge,,,,,,
null,,html-keyboard-response,1784913,,<p></p>,,,,null,,,,,,,,,,,,,,,,,,,,
1888.7000000029802,,shortestpath_phase,1786805,,GW/racine.png,,,,49,GW/hanover.png,GW/boulder.png,1,0.4722222222222222,,,,GW/hanover.png,,,,,One Edge Diff,Three Edge Four Edge,,,,,,
null,,html-keyboard-response,1787809,,<p></p>,,,,null,,,,,,,,,,,,,,,,,,,,
2609.5,,shortestpath_phase,1790421,,GW/gatlinburg.png,,,,50,GW/newhope.png,GW/cornwall.png,0,0.4657534246575342,,,,GW/newhope.png,,,,,One Edge Diff,Five Edge Six Edge,,,,,,
null,,html-keyboard-response,1791424,,<p></p>,,,,null,,,,,,,,,,,,,,,,,,,,
2291.2000000029802,,shortestpath_phase,1793717,,GW/boulder.png,,,,49,GW/peoria.png,GW/racine.png,0,0.4594594594594595,,,,GW/racine.png,,,,,One Edge Diff,Four Edge Five Edge,,,,,,
null,,html-keyboard-response,1794721,,<p></p>,,,,null,,,,,,,,,,,,,,,,,,,,
2417.7000000029802,,shortestpath_phase,1797141,,GW/hotsprings.png,,,,49,GW/shreveport.png,GW/boulder.png,1,0.4666666666666667,,,,GW/shreveport.png,,,,,Three Edge Diff,Three Edge Six Edge,,,,,,
null,,html-keyboard-response,1798144,,<p></p>,,,,null,,,,,,,,,,,,,,,,,,,,
2130.7999999970198,,shortestpath_phase,1800277,,GW/boulder.png,,,,50,GW/huntsville.png,GW/gatlinburg.png,0,0.4605263157894737,,,,GW/huntsville.png,,,,,Four Edge Diff,Two Edge Six Edge,,,,,,
null,,html-keyboard-response,1801280,,<p></p>,,,,null,,,,,,,,,,,,,,,,,,,,
1714.9000000059605,,shortestpath_phase,1802997,,GW/gatlinburg.png,,,,50,GW/boulder.png,GW/racine.png,1,0.4675324675324675,,,,GW/racine.png,,,,,Four Edge Diff,Two Edge Six Edge,,,,,,
null,,html-keyboard-response,1804000,,<p></p>,,,,null,,,,,,,,,,,,,,,,,,,,
3170.4000000059605,,shortestpath_phase,1807173,,GW/boulder.png,,,,50,GW/westpalmbeach.png,GW/shreveport.png,1,0.47435897435897434,,,,GW/shreveport.png,,,,,Two Edge Diff,Four Edge Six Edge,,,,,,
null,,html-keyboard-response,1808177,,<p></p>,,,,null,,,,,,,,,,,,,,,,,,,,
2161.1000000089407,,shortestpath_phase,1810340,,GW/gatlinburg.png,,,,50,GW/huntsville.png,GW/boulder.png,0,0.46835443037974683,,,,GW/huntsville.png,,,,,Two Edge Diff,Four Edge Six Edge,,,,,,
null,,html-keyboard-response,1811345,,<p></p>,,,,null,,,,,,,,,,,,,,,,,,,,
2849.2999999970198,,shortestpath_phase,1814197,,GW/shreveport.png,,,,50,GW/boulder.png,GW/racine.png,1,0.475,,,,GW/racine.png,,,,,Two Edge Diff,Two Edge Four Edge,,,,,,
null,,html-keyboard-response,1815200,,<p></p>,,,,null,,,,,,,,,,,,,,,,,,,,
3699.5999999940395,,shortestpath_phase,1818901,,GW/boulder.png,,,,50,GW/huntsville.png,GW/westpalmbeach.png,0,0.4691358024691358,,,,GW/huntsville.png,,,,,Four Edge Diff,Two Edge Six Edge,,,,,,
null,,html-keyboard-response,1819905,,<p></p>,,,,null,,,,,,,,,,,,,,,,,,,,
2593.4000000059605,,shortestpath_phase,1822501,,GW/westpalmbeach.png,,,,49,GW/boulder.png,GW/hotsprings.png,0,0.4634146341463415,,,,GW/hotsprings.png,,,,,Four Edge Diff,Two Edge Six Edge,,,,,,
null,,html-keyboard-response,1823504,,<p></p>,,,,null,,,,,,,,,,,,,,,,,,,,
2225.5999999940395,,shortestpath_phase,1825733,,GW/huntsville.png,,,,50,GW/hotsprings.png,GW/racine.png,1,0.46987951807228917,,,,GW/racine.png,,,,,One Edge Diff,Two Edge Three Edge,,,,,,
null,,html-keyboard-response,1826736,,<p></p>,,,,null,,,,,,,,,,,,,,,,,,,,
3090.5,,shortestpath_phase,1829829,,GW/hotsprings.png,,,,49,GW/westpalmbeach.png,GW/huntsville.png,1,0.47619047619047616,,,,GW/westpalmbeach.png,,,,,One Edge Diff,Two Edge Three Edge,,,,,,
null,,html-keyboard-response,1830833,,<p></p>,,,,null,,,,,,,,,,,,,,,,,,,,
8680.90000000596,,intro_1,1839515,,instruct,,0,,,,,,,,,,,,,,,,,,,,,,
11246.39999999106,,intro_2,1850763,,instruct,,1,Next,,,,,,,,,,,,,,,,,,,,,
17358.59999999404,,intro_3,1868123,,instruct,,1,Next,,,,,,,,,,,,,,,,,,,,,
32862.79999999702,,intro_4,1900987,,instruct,,1,Next,,,,,,,,,,,,,,,,,,,,,
19630.70000000298,,intro_5,1920619,,instruct,,1,Next,,,,,,,,,,,,,,,,,,,,,
17566.79999999702,,intro_6,1938187,,instruct,,1,Next,,,,,,,,,,,,,,,,,,,,,
,,Goal Directed Planning,2216643,,GDP-0,,,,,,,,,,,,,,,,,,,carmel.png,racine.png,,undefinedimgLdrag07:[x1:74 x2:385.515625 y1:210 y2:202.609375]drag04drag07:[x1:919 x2:385.515625 y1:233 y2:202.609375]imgRdrag04:[x1:1074 x2:919 y1:210 y2:233],false,
,,Goal Directed Planning,2259291,,GDP-1,,,,,,,,,,,,,,,,,,,westpalmbeach.png,gatlinburg.png,,undefinedimgLdrag02:[x1:74 x2:347 y1:210 y2:213]drag02drag04:[x1:347 x2:867.5 y1:213 y2:209.609375]imgRdrag04:[x1:1074 x2:863 y1:210 y2:210],false,
,,Goal Directed Planning,2285723,,GDP-2,,,,,,,,,,,,,,,,,,,racine.png,cornwall.png,,undefinedimgLdrag04:[x1:74 x2:290.5 y1:210 y2:198.609375]drag04drag02:[x1:290.5 x2:752.5 y1:198.609375 y2:209.609375]drag02imgR:[x1:752.5 x2:1074 y1:209.609375 y2:210],false,
,,Goal Directed Planning,2362147,,GDP-3,,,,,,,,,,,,,,,,,,,gatlinburg.png,cornwall.png,,undefineddrag04imgL:[x1:299.5 x2:74 y1:210.609375 y2:210]drag04drag11:[x1:299.5 x2:721 y1:210.609375 y2:226]drag11imgR:[x1:721 x2:1074 y1:226 y2:210],true,undefineddrag04drag09:[x1:387.5 x2:793.5 y1:220.609375 y2:207.609375]drag04imgL:[x1:390 x2:74 y1:221 y2:210]drag09imgR:[x1:793.5 x2:1074 y1:207.609375 y2:210]
,,Goal Directed Planning,2403443,,GDP-4,,,,,,,,,,,,,,,,,,,newhope.png,racine.png,,undefineddrag09imgL:[x1:354 x2:74 y1:230 y2:210]drag09drag04:[x1:354 x2:671 y1:230 y2:235]drag04imgR:[x1:671 x2:1074 y1:235 y2:210],false,
,,Goal Directed Planning,2452331,,GDP-5,,,,,,,,,,,,,,,,,,,peoria.png,hanover.png,,undefineddrag01imgL:[x1:264 x2:74 y1:202 y2:210]drag10imgR:[x1:616 x2:1074 y1:194 y2:210]drag01drag10:[x1:264 x2:617 y1:201 y2:193],false,
