rt,responses,trial_type,time_elapsed,sequence,stimulus,graphorder,button_pressed,response,key_press,stimulus_left,stimulus_right,accuracy,cumulative_accuracy,stimulus_down_left,stimulus_down_mid,stimulus_down_right,stimulus_correct,stimulus_short,stimulus_far,weighted_accuracy,missedtrial,condition,specific_pairs,imgL_ID,imgR_ID,linedress,linedressed,detour_trial,linedressed_detor
5793.70000000298,{worker_id:5dccb82a76eab294aa4837ff},id_enter,5795,blocked,replication,GW/gatlinburg.png; GW/hanover.png; GW/boulder.png; GW/newhope.png; GW/huntsville.png; GW/hotsprings.png; GW/leesburg.png; GW/shreveport.png; GW/peoria.png; GW/westpalmbeach.png; GW/cornwall.png; GW/racine.png; GW/carmel.png,,,,,,,,,,,,,,,,,,,,,,,
19416.79999999702,,fullscreen,25217,,fullscreen,,0,,,,,,,,,,,,,,,,,,,,,,
10350.60000000894,,intro_1,35569,,instruct,,0,,,,,,,,,,,,,,,,,,,,,,
34133.79999999702,,intro_2,69705,,instruct,,1,Next,,,,,,,,,,,,,,,,,,,,,
13878.5,,intro_3,83585,,instruct,,1,Next,,,,,,,,,,,,,,,,,,,,,
null,,learn_prac_1,86589,,lean_prac_1,,,,null,,,,,,,,,,,,,,,,,,,,
null,,html-keyboard-response,87599,,<p></p>,,,,null,,,,,,,,,,,,,,,,,,,,
6002.100000008941,,intro_1,93602,,instruct,,0,,,,,,,,,,,,,,,,,,,,,,
6044.70000000298,,intro_2,99648,,instruct,,1,Next,,,,,,,,,,,,,,,,,,,,,
null,,learn_prac_2,102649,,lean_prac_2,,,,null,,,,,,,,,,,,,,,,,,,,
null,,html-keyboard-response,103652,,<p></p>,,,,null,,,,,,,,,,,,,,,,,,,,
4155.100000008941,,intro_1,107809,,instruct,,0,,,,,,,,,,,,,,,,,,,,,,
4958.29999999702,,intro_2,112769,,instruct,,1,Next,,,,,,,,,,,,,,,,,,,,,
22373.89999999106,,intro_3,135145,,instruct,,1,Next,,,,,,,,,,,,,,,,,,,,,
null,,prac_atten_color_black,135844,,black_plus_sign,,,,null,,,,,,,,,,,,,,,,,,,,
509,,prac_atten_color,136550,,prac_stop_color,,,,49,,,,,,,,,,,,,,,,,,,,
null,,prac_atten_color_black,138553,,black_plus_sign,,,,null,,,,,,,,,,,,,,,,,,,,
null,,prac_atten_color_black,139253,,black_plus_sign,,,,null,,,,,,,,,,,,,,,,,,,,
487.59999999403954,,prac_atten_color,139759,,prac_stop_color,,,,50,,,,,,,,,,,,,,,,,,,,
null,,prac_atten_color_black,141762,,black_plus_sign,,,,null,,,,,,,,,,,,,,,,,,,,
null,,prac_atten_color_black,142671,,black_plus_sign,,,,null,,,,,,,,,,,,,,,,,,,,
427.29999999701977,,prac_atten_color,143624,,prac_stop_color,,,,50,,,,,,,,,,,,,,,,,,,,
null,,prac_atten_color_black,145626,,black_plus_sign,,,,null,,,,,,,,,,,,,,,,,,,,
null,,prac_atten_color_black,146079,,black_plus_sign,,,,null,,,,,,,,,,,,,,,,,,,,
487.09999999403954,,prac_atten_color,146955,,prac_stop_color,,,,49,,,,,,,,,,,,,,,,,,,,
null,,prac_atten_color_black,148958,,black_plus_sign,,,,null,,,,,,,,,,,,,,,,,,,,
null,,prac_atten_color_black,149489,,black_plus_sign,,,,null,,,,,,,,,,,,,,,,,,,,
368.6000000089407,,prac_atten_color,150146,,prac_stop_color,,,,50,,,,,,,,,,,,,,,,,,,,
null,,prac_atten_color_black,152148,,black_plus_sign,,,,null,,,,,,,,,,,,,,,,,,,,
null,,prac_atten_color_black,152898,,black_plus_sign,,,,null,,,,,,,,,,,,,,,,,,,,
728.3000000119209,,prac_atten_color,153757,,prac_stop_color,,,,50,,,,,,,,,,,,,,,,,,,,
null,,prac_atten_color_black,155759,,black_plus_sign,,,,null,,,,,,,,,,,,,,,,,,,,
null,,prac_atten_color_black,156305,,black_plus_sign,,,,null,,,,,,,,,,,,,,,,,,,,
630.7999999970198,,prac_atten_color,157384,,prac_stop_color,,,,49,,,,,,,,,,,,,,,,,,,,
null,,prac_atten_color_black,159386,,black_plus_sign,,,,null,,,,,,,,,,,,,,,,,,,,
null,,prac_atten_color_black,159713,,black_plus_sign,,,,null,,,,,,,,,,,,,,,,,,,,
388.70000000298023,,prac_atten_color,160243,,prac_stop_color,,,,50,,,,,,,,,,,,,,,,,,,,
null,,prac_atten_color_black,162253,,black_plus_sign,,,,null,,,,,,,,,,,,,,,,,,,,
null,,prac_atten_color_black,163128,,black_plus_sign,,,,null,,,,,,,,,,,,,,,,,,,,
423.8999999910593,,prac_atten_color,164167,,prac_stop_color,,,,49,,,,,,,,,,,,,,,,,,,,
null,,prac_atten_color_black,166170,,black_plus_sign,,,,null,,,,,,,,,,,,,,,,,,,,
null,,prac_atten_color_black,166546,,black_plus_sign,,,,null,,,,,,,,,,,,,,,,,,,,
562.1000000089407,,prac_atten_color,167241,,prac_stop_color,,,,49,,,,,,,,,,,,,,,,,,,,
null,,prac_atten_color_black,169243,,black_plus_sign,,,,null,,,,,,,,,,,,,,,,,,,,
7171,,attentioncheck_feedback,176418,,cross_check_feedback,,0,,,,,,,,,,,,,,,,,,,,,,
21845.29999999702,,last_instruct,198264,,instruct,,,,32,,,,,,,,,,,,,,,,,,,,
null,,learn_phase(without_color),201267,,black_plus_sign,,,,null,GW/leesburg.png,GW/hotsprings.png,,,,,,,,,,,,,,,,,,
null,,black_cross(without_color),202100,,blue,,,,null,GW/leesburg.png,GW/hotsprings.png,,,,,,,,,,,,,,,,,,
null,,rt_plussign_withcolor,202603,,blue,,,,null,GW/leesburg.png,GW/hotsprings.png,,,,,,,,,,,,,,,,,,
917.2999999970198,,rt_thecrossant_black,203790,,black_plus_sign,,,,50,,,0,0,,,,,,,,,,,,,,,,
null,,color_black,203894,,black_plus_sign,,,,null,,,,,,,,,,,,,,,,,,,,
null,,learn_phase(without_color),206898,,black_plus_sign,,,,null,GW/racine.png,GW/newhope.png,,,,,,,,,,,,,,,,,,
null,,black_cross(without_color),207451,,blue,,,,null,GW/racine.png,GW/newhope.png,,,,,,,,,,,,,,,,,,
null,,rt_plussign_withcolor,207953,,blue,,,,null,GW/racine.png,GW/newhope.png,,,,,,,,,,,,,,,,,,
1011.2999999970198,,rt_thecrossant_black,209412,,black_plus_sign,,,,49,,,1,0.5,,,,,,,,,,,,,,,,
null,,color_black,209515,,black_plus_sign,,,,null,,,,,,,,,,,,,,,,,,,,
null,,learn_phase(without_color),212519,,black_plus_sign,,,,null,GW/hotsprings.png,GW/leesburg.png,,,,,,,,,,,,,,,,,,
null,,black_cross(without_color),213506,,blue,,,,null,GW/hotsprings.png,GW/leesburg.png,,,,,,,,,,,,,,,,,,
null,,rt_plussign_withcolor,214018,,blue,,,,null,GW/hotsprings.png,GW/leesburg.png,,,,,,,,,,,,,,,,,,
891.8000000119209,,rt_thecrossant_black,215037,,black_plus_sign,,,,49,,,1,0.6666666666666666,,,,,,,,,,,,,,,,
null,,color_black,215140,,black_plus_sign,,,,null,,,,,,,,,,,,,,,,,,,,
null,,learn_phase(without_color),218143,,black_plus_sign,,,,null,GW/boulder.png,GW/cornwall.png,,,,,,,,,,,,,,,,,,
null,,black_cross(without_color),218791,,blue,,,,null,GW/boulder.png,GW/cornwall.png,,,,,,,,,,,,,,,,,,
null,,rt_plussign_withcolor,219293,,blue,,,,null,GW/boulder.png,GW/cornwall.png,,,,,,,,,,,,,,,,,,
1278.5999999940395,,rt_thecrossant_black,220650,,black_plus_sign,,,,49,,,1,0.75,,,,,,,,,,,,,,,,
null,,color_black,220753,,black_plus_sign,,,,null,,,,,,,,,,,,,,,,,,,,
null,,learn_phase(without_color),223754,,black_plus_sign,,,,null,GW/newhope.png,GW/racine.png,,,,,,,,,,,,,,,,,,
null,,black_cross(without_color),224178,,yellow,,,,null,GW/newhope.png,GW/racine.png,,,,,,,,,,,,,,,,,,
null,,rt_plussign_withcolor,224692,,yellow,,,,null,GW/newhope.png,GW/racine.png,,,,,,,,,,,,,,,,,,
1074.7999999970198,,rt_thecrossant_black,226275,,black_plus_sign,,,,50,,,1,0.8,,,,,,,,,,,,,,,,
null,,color_black,226377,,black_plus_sign,,,,null,,,,,,,,,,,,,,,,,,,,
null,,learn_phase(without_color),229381,,black_plus_sign,,,,null,GW/leesburg.png,GW/hotsprings.png,,,,,,,,,,,,,,,,,,
null,,black_cross(without_color),229852,,yellow,,,,null,GW/leesburg.png,GW/hotsprings.png,,,,,,,,,,,,,,,,,,
null,,rt_plussign_withcolor,230354,,yellow,,,,null,GW/leesburg.png,GW/hotsprings.png,,,,,,,,,,,,,,,,,,
828.8999999910593,,rt_thecrossant_black,231888,,black_plus_sign,,,,50,,,1,0.8333333333333334,,,,,,,,,,,,,,,,
null,,color_black,231991,,black_plus_sign,,,,null,,,,,,,,,,,,,,,,,,,,
null,,learn_phase(without_color),234994,,black_plus_sign,,,,null,GW/boulder.png,GW/cornwall.png,,,,,,,,,,,,,,,,,,
null,,black_cross(without_color),235716,,blue,,,,null,GW/boulder.png,GW/cornwall.png,,,,,,,,,,,,,,,,,,
null,,rt_plussign_withcolor,236220,,blue,,,,null,GW/boulder.png,GW/cornwall.png,,,,,,,,,,,,,,,,,,
686.7000000029802,,rt_thecrossant_black,237505,,black_plus_sign,,,,49,,,1,0.8571428571428571,,,,,,,,,,,,,,,,
null,,color_black,237607,,black_plus_sign,,,,null,,,,,,,,,,,,,,,,,,,,
null,,learn_phase(without_color),240611,,black_plus_sign,,,,null,GW/peoria.png,GW/shreveport.png,,,,,,,,,,,,,,,,,,
null,,black_cross(without_color),241210,,blue,,,,null,GW/peoria.png,GW/shreveport.png,,,,,,,,,,,,,,,,,,
null,,rt_plussign_withcolor,241712,,blue,,,,null,GW/peoria.png,GW/shreveport.png,,,,,,,,,,,,,,,,,,
964.7999999970198,,rt_thecrossant_black,243119,,black_plus_sign,,,,49,,,1,0.875,,,,,,,,,,,,,,,,
null,,color_black,243221,,black_plus_sign,,,,null,,,,,,,,,,,,,,,,,,,,
null,,learn_phase(without_color),246225,,black_plus_sign,,,,null,GW/racine.png,GW/newhope.png,,,,,,,,,,,,,,,,,,
null,,black_cross(without_color),247303,,blue,,,,null,GW/racine.png,GW/newhope.png,,,,,,,,,,,,,,,,,,
null,,rt_plussign_withcolor,247806,,blue,,,,null,GW/racine.png,GW/newhope.png,,,,,,,,,,,,,,,,,,
818.5,,rt_thecrossant_black,248732,,black_plus_sign,,,,49,,,1,0.8888888888888888,,,,,,,,,,,,,,,,
null,,color_black,248843,,black_plus_sign,,,,null,,,,,,,,,,,,,,,,,,,,
null,,learn_phase(without_color),251858,,black_plus_sign,,,,null,GW/boulder.png,GW/cornwall.png,,,,,,,,,,,,,,,,,,
null,,black_cross(without_color),252643,,yellow,,,,null,GW/boulder.png,GW/cornwall.png,,,,,,,,,,,,,,,,,,
null,,rt_plussign_withcolor,253146,,yellow,,,,null,GW/boulder.png,GW/cornwall.png,,,,,,,,,,,,,,,,,,
1307.7000000029802,,rt_thecrossant_black,254366,,black_plus_sign,,,,50,,,1,0.9,,,,,,,,,,,,,,,,
null,,color_black,254470,,black_plus_sign,,,,null,,,,,,,,,,,,,,,,,,,,
null,,learn_phase(without_color),257473,,black_plus_sign,,,,null,GW/shreveport.png,GW/peoria.png,,,,,,,,,,,,,,,,,,
null,,black_cross(without_color),258201,,yellow,,,,null,GW/shreveport.png,GW/peoria.png,,,,,,,,,,,,,,,,,,
null,,rt_plussign_withcolor,258704,,yellow,,,,null,GW/shreveport.png,GW/peoria.png,,,,,,,,,,,,,,,,,,
921,,rt_thecrossant_black,259982,,black_plus_sign,,,,50,,,1,0.9090909090909091,,,,,,,,,,,,,,,,
null,,color_black,260085,,black_plus_sign,,,,null,,,,,,,,,,,,,,,,,,,,
null,,learn_phase(without_color),263089,,black_plus_sign,,,,null,GW/boulder.png,GW/cornwall.png,,,,,,,,,,,,,,,,,,
null,,black_cross(without_color),263597,,blue,,,,null,GW/boulder.png,GW/cornwall.png,,,,,,,,,,,,,,,,,,
null,,rt_plussign_withcolor,264099,,blue,,,,null,GW/boulder.png,GW/cornwall.png,,,,,,,,,,,,,,,,,,
1081.7999999970198,,rt_thecrossant_black,265596,,black_plus_sign,,,,49,,,1,0.9166666666666666,,,,,,,,,,,,,,,,
null,,color_black,265698,,black_plus_sign,,,,null,,,,,,,,,,,,,,,,,,,,
null,,learn_phase(without_color),268701,,black_plus_sign,,,,null,GW/leesburg.png,GW/hotsprings.png,,,,,,,,,,,,,,,,,,
null,,black_cross(without_color),269565,,blue,,,,null,GW/leesburg.png,GW/hotsprings.png,,,,,,,,,,,,,,,,,,
null,,rt_plussign_withcolor,270070,,blue,,,,null,GW/leesburg.png,GW/hotsprings.png,,,,,,,,,,,,,,,,,,
708.1000000089407,,rt_thecrossant_black,271217,,black_plus_sign,,,,49,,,1,0.9230769230769231,,,,,,,,,,,,,,,,
null,,color_black,271320,,black_plus_sign,,,,null,,,,,,,,,,,,,,,,,,,,
null,,learn_phase(without_color),274325,,black_plus_sign,,,,null,GW/cornwall.png,GW/boulder.png,,,,,,,,,,,,,,,,,,
null,,black_cross(without_color),274920,,blue,,,,null,GW/cornwall.png,GW/boulder.png,,,,,,,,,,,,,,,,,,
445.20000000298023,,rt_plussign_withcolor,275423,,blue,,,,49,GW/cornwall.png,GW/boulder.png,,,,,,,,,,,,,,,,,,
null,,rt_thecrossant_black,276839,,black_plus_sign,,,,null,,,1,0.9285714285714286,,,,,,,,,,,,,,,,
null,,color_black,276942,,black_plus_sign,,,,null,,,,,,,,,,,,,,,,,,,,
null,,learn_phase(without_color),279946,,black_plus_sign,,,,null,GW/newhope.png,GW/racine.png,,,,,,,,,,,,,,,,,,
null,,black_cross(without_color),280471,,blue,,,,null,GW/newhope.png,GW/racine.png,,,,,,,,,,,,,,,,,,
null,,rt_plussign_withcolor,280973,,blue,,,,null,GW/newhope.png,GW/racine.png,,,,,,,,,,,,,,,,,,
689,,rt_thecrossant_black,282454,,black_plus_sign,,,,49,,,1,0.9333333333333333,,,,,,,,,,,,,,,,
null,,color_black,282557,,black_plus_sign,,,,null,,,,,,,,,,,,,,,,,,,,
null,,learn_phase(without_color),285562,,black_plus_sign,,,,null,GW/boulder.png,GW/cornwall.png,,,,,,,,,,,,,,,,,,
null,,black_cross(without_color),286525,,yellow,,,,null,GW/boulder.png,GW/cornwall.png,,,,,,,,,,,,,,,,,,
null,,rt_plussign_withcolor,287027,,yellow,,,,null,GW/boulder.png,GW/cornwall.png,,,,,,,,,,,,,,,,,,
674.6000000089407,,rt_thecrossant_black,288069,,black_plus_sign,,,,50,,,1,0.9375,,,,,,,,,,,,,,,,
null,,color_black,288173,,black_plus_sign,,,,null,,,,,,,,,,,,,,,,,,,,
null,,learn_phase(without_color),291176,,black_plus_sign,,,,null,GW/racine.png,GW/newhope.png,,,,,,,,,,,,,,,,,,
null,,black_cross(without_color),291764,,blue,,,,null,GW/racine.png,GW/newhope.png,,,,,,,,,,,,,,,,,,
null,,rt_plussign_withcolor,292265,,blue,,,,null,GW/racine.png,GW/newhope.png,,,,,,,,,,,,,,,,,,
1095.7999999970198,,rt_thecrossant_black,293684,,black_plus_sign,,,,49,,,1,0.9411764705882353,,,,,,,,,,,,,,,,
null,,color_black,293787,,black_plus_sign,,,,null,,,,,,,,,,,,,,,,,,,,
null,,learn_phase(without_color),296797,,black_plus_sign,,,,null,GW/leesburg.png,GW/hotsprings.png,,,,,,,,,,,,,,,,,,
null,,black_cross(without_color),297236,,blue,,,,null,GW/leesburg.png,GW/hotsprings.png,,,,,,,,,,,,,,,,,,
null,,rt_plussign_withcolor,297738,,blue,,,,null,GW/leesburg.png,GW/hotsprings.png,,,,,,,,,,,,,,,,,,
882.2999999970198,,rt_thecrossant_black,299306,,black_plus_sign,,,,49,,,1,0.9444444444444444,,,,,,,,,,,,,,,,
null,,color_black,299409,,black_plus_sign,,,,null,,,,,,,,,,,,,,,,,,,,
null,,learn_phase(without_color),302413,,black_plus_sign,,,,null,GW/boulder.png,GW/cornwall.png,,,,,,,,,,,,,,,,,,
null,,black_cross(without_color),303113,,blue,,,,null,GW/boulder.png,GW/cornwall.png,,,,,,,,,,,,,,,,,,
390.29999999701977,,rt_plussign_withcolor,303615,,blue,,,,49,GW/boulder.png,GW/cornwall.png,,,,,,,,,,,,,,,,,,
null,,rt_thecrossant_black,304921,,black_plus_sign,,,,null,,,1,0.9473684210526315,,,,,,,,,,,,,,,,
null,,color_black,305023,,black_plus_sign,,,,null,,,,,,,,,,,,,,,,,,,,
null,,learn_phase(without_color),308027,,black_plus_sign,,,,null,GW/newhope.png,GW/racine.png,,,,,,,,,,,,,,,,,,
null,,black_cross(without_color),308560,,yellow,,,,null,GW/newhope.png,GW/racine.png,,,,,,,,,,,,,,,,,,
null,,rt_plussign_withcolor,309061,,yellow,,,,null,GW/newhope.png,GW/racine.png,,,,,,,,,,,,,,,,,,
885.8000000119209,,rt_thecrossant_black,310534,,black_plus_sign,,,,50,,,1,0.95,,,,,,,,,,,,,,,,
null,,color_black,310637,,black_plus_sign,,,,null,,,,,,,,,,,,,,,,,,,,
null,,learn_phase(without_color),313641,,black_plus_sign,,,,null,GW/peoria.png,GW/shreveport.png,,,,,,,,,,,,,,,,,,
null,,black_cross(without_color),314465,,yellow,,,,null,GW/peoria.png,GW/shreveport.png,,,,,,,,,,,,,,,,,,
null,,rt_plussign_withcolor,314968,,yellow,,,,null,GW/peoria.png,GW/shreveport.png,,,,,,,,,,,,,,,,,,
640.9000000059605,,rt_thecrossant_black,316149,,black_plus_sign,,,,50,,,1,0.9523809523809523,,,,,,,,,,,,,,,,
null,,color_black,316252,,black_plus_sign,,,,null,,,,,,,,,,,,,,,,,,,,
null,,learn_phase(without_color),319255,,black_plus_sign,,,,null,GW/newhope.png,GW/racine.png,,,,,,,,,,,,,,,,,,
null,,black_cross(without_color),319671,,blue,,,,null,GW/newhope.png,GW/racine.png,,,,,,,,,,,,,,,,,,
null,,rt_plussign_withcolor,320174,,blue,,,,null,GW/newhope.png,GW/racine.png,,,,,,,,,,,,,,,,,,
1103.300000011921,,rt_thecrossant_black,321764,,black_plus_sign,,,,49,,,1,0.9545454545454546,,,,,,,,,,,,,,,,
null,,color_black,321867,,black_plus_sign,,,,null,,,,,,,,,,,,,,,,,,,,
null,,learn_phase(without_color),324870,,black_plus_sign,,,,null,GW/shreveport.png,GW/peoria.png,,,,,,,,,,,,,,,,,,
null,,black_cross(without_color),325763,,blue,,,,null,GW/shreveport.png,GW/peoria.png,,,,,,,,,,,,,,,,,,
null,,rt_plussign_withcolor,326266,,blue,,,,null,GW/shreveport.png,GW/peoria.png,,,,,,,,,,,,,,,,,,
618.5,,rt_thecrossant_black,327378,,black_plus_sign,,,,49,,,1,0.9565217391304348,,,,,,,,,,,,,,,,
null,,color_black,327481,,black_plus_sign,,,,null,,,,,,,,,,,,,,,,,,,,
null,,learn_phase(without_color),330486,,black_plus_sign,,,,null,GW/hotsprings.png,GW/leesburg.png,,,,,,,,,,,,,,,,,,
null,,black_cross(without_color),331271,,blue,,,,null,GW/hotsprings.png,GW/leesburg.png,,,,,,,,,,,,,,,,,,
null,,rt_plussign_withcolor,331774,,blue,,,,null,GW/hotsprings.png,GW/leesburg.png,,,,,,,,,,,,,,,,,,
1087.0999999940395,,rt_thecrossant_black,332999,,black_plus_sign,,,,49,,,1,0.9583333333333334,,,,,,,,,,,,,,,,
null,,color_black,333101,,black_plus_sign,,,,null,,,,,,,,,,,,,,,,,,,,
null,,learn_phase(without_color),336104,,black_plus_sign,,,,null,GW/racine.png,GW/newhope.png,,,,,,,,,,,,,,,,,,
null,,black_cross(without_color),336887,,yellow,,,,null,GW/racine.png,GW/newhope.png,,,,,,,,,,,,,,,,,,
null,,rt_plussign_withcolor,337389,,yellow,,,,null,GW/racine.png,GW/newhope.png,,,,,,,,,,,,,,,,,,
982.3999999910593,,rt_thecrossant_black,338611,,black_plus_sign,,,,50,,,1,0.96,,,,,,,,,,,,,,,,
null,,color_black,338714,,black_plus_sign,,,,null,,,,,,,,,,,,,,,,,,,,
null,,learn_phase(without_color),341718,,black_plus_sign,,,,null,GW/peoria.png,GW/shreveport.png,,,,,,,,,,,,,,,,,,
null,,black_cross(without_color),342142,,yellow,,,,null,GW/peoria.png,GW/shreveport.png,,,,,,,,,,,,,,,,,,
null,,rt_plussign_withcolor,342644,,yellow,,,,null,GW/peoria.png,GW/shreveport.png,,,,,,,,,,,,,,,,,,
882.1000000089407,,rt_thecrossant_black,344228,,black_plus_sign,,,,50,,,1,0.9615384615384616,,,,,,,,,,,,,,,,
null,,color_black,344331,,black_plus_sign,,,,null,,,,,,,,,,,,,,,,,,,,
null,,learn_phase(without_color),347334,,black_plus_sign,,,,null,GW/boulder.png,GW/cornwall.png,,,,,,,,,,,,,,,,,,
null,,black_cross(without_color),347751,,yellow,,,,null,GW/boulder.png,GW/cornwall.png,,,,,,,,,,,,,,,,,,
null,,rt_plussign_withcolor,348254,,yellow,,,,null,GW/boulder.png,GW/cornwall.png,,,,,,,,,,,,,,,,,,
629.4000000059605,,rt_thecrossant_black,349841,,black_plus_sign,,,,50,,,1,0.9629629629629629,,,,,,,,,,,,,,,,
null,,color_black,349956,,black_plus_sign,,,,null,,,,,,,,,,,,,,,,,,,,
null,,learn_phase(without_color),352969,,black_plus_sign,,,,null,GW/peoria.png,GW/shreveport.png,,,,,,,,,,,,,,,,,,
null,,black_cross(without_color),353774,,yellow,,,,null,GW/peoria.png,GW/shreveport.png,,,,,,,,,,,,,,,,,,
null,,rt_plussign_withcolor,354276,,yellow,,,,null,GW/peoria.png,GW/shreveport.png,,,,,,,,,,,,,,,,,,
624.6999999880791,,rt_thecrossant_black,355478,,black_plus_sign,,,,50,,,1,0.9642857142857143,,,,,,,,,,,,,,,,
null,,color_black,355581,,black_plus_sign,,,,null,,,,,,,,,,,,,,,,,,,,
null,,learn_phase(without_color),358586,,black_plus_sign,,,,null,GW/hotsprings.png,GW/leesburg.png,,,,,,,,,,,,,,,,,,
null,,black_cross(without_color),359367,,yellow,,,,null,GW/hotsprings.png,GW/leesburg.png,,,,,,,,,,,,,,,,,,
null,,rt_plussign_withcolor,359869,,yellow,,,,null,GW/hotsprings.png,GW/leesburg.png,,,,,,,,,,,,,,,,,,
959.1000000089407,,rt_thecrossant_black,361096,,black_plus_sign,,,,50,,,1,0.9655172413793104,,,,,,,,,,,,,,,,
null,,color_black,361199,,black_plus_sign,,,,null,,,,,,,,,,,,,,,,,,,,
null,,learn_phase(without_color),364203,,black_plus_sign,,,,null,GW/shreveport.png,GW/peoria.png,,,,,,,,,,,,,,,,,,
null,,black_cross(without_color),365130,,yellow,,,,null,GW/shreveport.png,GW/peoria.png,,,,,,,,,,,,,,,,,,
490.79999999701977,,rt_plussign_withcolor,365631,,yellow,,,,50,GW/shreveport.png,GW/peoria.png,,,,,,,,,,,,,,,,,,
null,,rt_thecrossant_black,366710,,black_plus_sign,,,,null,,,1,0.9666666666666667,,,,,,,,,,,,,,,,
null,,color_black,366814,,black_plus_sign,,,,null,,,,,,,,,,,,,,,,,,,,
null,,learn_phase(without_color),369818,,black_plus_sign,,,,null,GW/leesburg.png,GW/hotsprings.png,,,,,,,,,,,,,,,,,,
null,,black_cross(without_color),370442,,yellow,,,,null,GW/leesburg.png,GW/hotsprings.png,,,,,,,,,,,,,,,,,,
null,,rt_plussign_withcolor,370944,,yellow,,,,null,GW/leesburg.png,GW/hotsprings.png,,,,,,,,,,,,,,,,,,
1089,,rt_thecrossant_black,372323,,black_plus_sign,,,,50,,,1,0.967741935483871,,,,,,,,,,,,,,,,
null,,color_black,372425,,black_plus_sign,,,,null,,,,,,,,,,,,,,,,,,,,
null,,learn_phase(without_color),375430,,black_plus_sign,,,,null,GW/peoria.png,GW/shreveport.png,,,,,,,,,,,,,,,,,,
null,,black_cross(without_color),376097,,blue,,,,null,GW/peoria.png,GW/shreveport.png,,,,,,,,,,,,,,,,,,
null,,rt_plussign_withcolor,376598,,blue,,,,null,GW/peoria.png,GW/shreveport.png,,,,,,,,,,,,,,,,,,
766.2000000029802,,rt_thecrossant_black,377937,,black_plus_sign,,,,49,,,1,0.96875,,,,,,,,,,,,,,,,
null,,color_black,378040,,black_plus_sign,,,,null,,,,,,,,,,,,,,,,,,,,
null,,learn_phase(without_color),381043,,black_plus_sign,,,,null,GW/hotsprings.png,GW/boulder.png,,,,,,,,,,,,,,,,,,
null,,black_cross(without_color),381551,,blue,,,,null,GW/hotsprings.png,GW/boulder.png,,,,,,,,,,,,,,,,,,
null,,rt_plussign_withcolor,382052,,blue,,,,null,GW/hotsprings.png,GW/boulder.png,,,,,,,,,,,,,,,,,,
1036.5,,rt_thecrossant_black,383547,,black_plus_sign,,,,50,,,0,0.9393939393939394,,,,,,,,,,,,,,,,
null,,color_black,383649,,black_plus_sign,,,,null,,,,,,,,,,,,,,,,,,,,
null,,learn_phase(without_color),386651,,black_plus_sign,,,,null,GW/newhope.png,GW/hanover.png,,,,,,,,,,,,,,,,,,
null,,black_cross(without_color),387113,,yellow,,,,null,GW/newhope.png,GW/hanover.png,,,,,,,,,,,,,,,,,,
458.29999999701977,,rt_plussign_withcolor,387615,,yellow,,,,50,GW/newhope.png,GW/hanover.png,,,,,,,,,,,,,,,,,,
null,,rt_thecrossant_black,389155,,black_plus_sign,,,,null,,,1,0.9411764705882353,,,,,,,,,,,,,,,,
null,,color_black,389257,,black_plus_sign,,,,null,,,,,,,,,,,,,,,,,,,,
null,,learn_phase(without_color),392262,,black_plus_sign,,,,null,GW/boulder.png,GW/hotsprings.png,,,,,,,,,,,,,,,,,,
null,,black_cross(without_color),392740,,yellow,,,,null,GW/boulder.png,GW/hotsprings.png,,,,,,,,,,,,,,,,,,
476.8999999910593,,rt_plussign_withcolor,393242,,yellow,,,,50,GW/boulder.png,GW/hotsprings.png,,,,,,,,,,,,,,,,,,
null,,rt_thecrossant_black,394769,,black_plus_sign,,,,null,,,1,0.9428571428571428,,,,,,,,,,,,,,,,
null,,color_black,394872,,black_plus_sign,,,,null,,,,,,,,,,,,,,,,,,,,
null,,learn_phase(without_color),397876,,black_plus_sign,,,,null,GW/cornwall.png,GW/peoria.png,,,,,,,,,,,,,,,,,,
null,,black_cross(without_color),398518,,yellow,,,,null,GW/cornwall.png,GW/peoria.png,,,,,,,,,,,,,,,,,,
null,,rt_plussign_withcolor,399036,,yellow,,,,null,GW/cornwall.png,GW/peoria.png,,,,,,,,,,,,,,,,,,
814.7000000029802,,rt_thecrossant_black,400402,,black_plus_sign,,,,50,,,1,0.9444444444444444,,,,,,,,,,,,,,,,
null,,color_black,400512,,black_plus_sign,,,,null,,,,,,,,,,,,,,,,,,,,
null,,learn_phase(without_color),403518,,black_plus_sign,,,,null,GW/hotsprings.png,GW/boulder.png,,,,,,,,,,,,,,,,,,
null,,black_cross(without_color),404134,,yellow,,,,null,GW/hotsprings.png,GW/boulder.png,,,,,,,,,,,,,,,,,,
null,,rt_plussign_withcolor,404636,,yellow,,,,null,GW/hotsprings.png,GW/boulder.png,,,,,,,,,,,,,,,,,,
747,,rt_thecrossant_black,406026,,black_plus_sign,,,,50,,,1,0.9459459459459459,,,,,,,,,,,,,,,,
null,,color_black,406129,,black_plus_sign,,,,null,,,,,,,,,,,,,,,,,,,,
null,,learn_phase(without_color),409132,,black_plus_sign,,,,null,GW/newhope.png,GW/hanover.png,,,,,,,,,,,,,,,,,,
null,,black_cross(without_color),409939,,blue,,,,null,GW/newhope.png,GW/hanover.png,,,,,,,,,,,,,,,,,,
null,,rt_plussign_withcolor,410447,,blue,,,,null,GW/newhope.png,GW/hanover.png,,,,,,,,,,,,,,,,,,
767,,rt_thecrossant_black,411646,,black_plus_sign,,,,49,,,1,0.9473684210526315,,,,,,,,,,,,,,,,
null,,color_black,411749,,black_plus_sign,,,,null,,,,,,,,,,,,,,,,,,,,
null,,learn_phase(without_color),414762,,black_plus_sign,,,,null,GW/shreveport.png,GW/leesburg.png,,,,,,,,,,,,,,,,,,
null,,black_cross(without_color),415328,,yellow,,,,null,GW/shreveport.png,GW/leesburg.png,,,,,,,,,,,,,,,,,,
500.5,,rt_plussign_withcolor,415830,,yellow,,,,50,GW/shreveport.png,GW/leesburg.png,,,,,,,,,,,,,,,,,,
null,,rt_thecrossant_black,417271,,black_plus_sign,,,,null,,,1,0.9487179487179487,,,,,,,,,,,,,,,,
null,,color_black,417374,,black_plus_sign,,,,null,,,,,,,,,,,,,,,,,,,,
null,,learn_phase(without_color),420379,,black_plus_sign,,,,null,GW/boulder.png,GW/hotsprings.png,,,,,,,,,,,,,,,,,,
null,,black_cross(without_color),421074,,yellow,,,,null,GW/boulder.png,GW/hotsprings.png,,,,,,,,,,,,,,,,,,
null,,rt_plussign_withcolor,421577,,yellow,,,,null,GW/boulder.png,GW/hotsprings.png,,,,,,,,,,,,,,,,,,
771.2000000029802,,rt_thecrossant_black,422887,,black_plus_sign,,,,50,,,1,0.95,,,,,,,,,,,,,,,,
null,,color_black,422990,,black_plus_sign,,,,null,,,,,,,,,,,,,,,,,,,,
null,,learn_phase(without_color),425993,,black_plus_sign,,,,null,GW/shreveport.png,GW/leesburg.png,,,,,,,,,,,,,,,,,,
null,,black_cross(without_color),426983,,blue,,,,null,GW/shreveport.png,GW/leesburg.png,,,,,,,,,,,,,,,,,,
null,,rt_plussign_withcolor,427486,,blue,,,,null,GW/shreveport.png,GW/leesburg.png,,,,,,,,,,,,,,,,,,
961.2000000029802,,rt_thecrossant_black,428503,,black_plus_sign,,,,49,,,1,0.9512195121951219,,,,,,,,,,,,,,,,
null,,color_black,428610,,black_plus_sign,,,,null,,,,,,,,,,,,,,,,,,,,
null,,learn_phase(without_color),431619,,black_plus_sign,,,,null,GW/peoria.png,GW/cornwall.png,,,,,,,,,,,,,,,,,,
null,,black_cross(without_color),432531,,blue,,,,null,GW/peoria.png,GW/cornwall.png,,,,,,,,,,,,,,,,,,
496.5,,rt_plussign_withcolor,433034,,blue,,,,50,GW/peoria.png,GW/cornwall.png,,,,,,,,,,,,,,,,,,
null,,rt_thecrossant_black,434127,,black_plus_sign,,,,49,,,0,0.9285714285714286,,,,,,,,,,,,,,,,
null,,color_black,434231,,black_plus_sign,,,,null,,,,,,,,,,,,,,,,,,,,
null,,learn_phase(without_color),437235,,black_plus_sign,,,,null,GW/newhope.png,GW/hanover.png,,,,,,,,,,,,,,,,,,
null,,black_cross(without_color),438235,,yellow,,,,null,GW/newhope.png,GW/hanover.png,,,,,,,,,,,,,,,,,,
null,,rt_plussign_withcolor,438737,,yellow,,,,null,GW/newhope.png,GW/hanover.png,,,,,,,,,,,,,,,,,,
1165,,rt_thecrossant_black,439745,,black_plus_sign,,,,50,,,1,0.9302325581395349,,,,,,,,,,,,,,,,
null,,color_black,439848,,black_plus_sign,,,,null,,,,,,,,,,,,,,,,,,,,
null,,learn_phase(without_color),442852,,black_plus_sign,,,,null,GW/hotsprings.png,GW/boulder.png,,,,,,,,,,,,,,,,,,
null,,black_cross(without_color),443527,,blue,,,,null,GW/hotsprings.png,GW/boulder.png,,,,,,,,,,,,,,,,,,
null,,rt_plussign_withcolor,444030,,blue,,,,null,GW/hotsprings.png,GW/boulder.png,,,,,,,,,,,,,,,,,,
1313.8999999910593,,rt_thecrossant_black,445372,,black_plus_sign,,,,49,,,1,0.9318181818181818,,,,,,,,,,,,,,,,
null,,color_black,445475,,black_plus_sign,,,,null,,,,,,,,,,,,,,,,,,,,
null,,learn_phase(without_color),448481,,black_plus_sign,,,,null,GW/newhope.png,GW/hanover.png,,,,,,,,,,,,,,,,,,
null,,black_cross(without_color),449059,,blue,,,,null,GW/newhope.png,GW/hanover.png,,,,,,,,,,,,,,,,,,
null,,rt_plussign_withcolor,449561,,blue,,,,null,GW/newhope.png,GW/hanover.png,,,,,,,,,,,,,,,,,,
943.9000000059605,,rt_thecrossant_black,450989,,black_plus_sign,,,,49,,,1,0.9333333333333333,,,,,,,,,,,,,,,,
null,,color_black,451092,,black_plus_sign,,,,null,,,,,,,,,,,,,,,,,,,,
null,,learn_phase(without_color),454095,,black_plus_sign,,,,null,GW/peoria.png,GW/cornwall.png,,,,,,,,,,,,,,,,,,
null,,black_cross(without_color),454871,,yellow,,,,null,GW/peoria.png,GW/cornwall.png,,,,,,,,,,,,,,,,,,
null,,rt_plussign_withcolor,455373,,yellow,,,,null,GW/peoria.png,GW/cornwall.png,,,,,,,,,,,,,,,,,,
701.5999999940395,,rt_thecrossant_black,456603,,black_plus_sign,,,,50,,,1,0.9347826086956522,,,,,,,,,,,,,,,,
null,,color_black,456706,,black_plus_sign,,,,null,,,,,,,,,,,,,,,,,,,,
null,,learn_phase(without_color),459710,,black_plus_sign,,,,null,GW/shreveport.png,GW/leesburg.png,,,,,,,,,,,,,,,,,,
null,,black_cross(without_color),460251,,blue,,,,null,GW/shreveport.png,GW/leesburg.png,,,,,,,,,,,,,,,,,,
null,,rt_plussign_withcolor,460754,,blue,,,,null,GW/shreveport.png,GW/leesburg.png,,,,,,,,,,,,,,,,,,
1007,,rt_thecrossant_black,462219,,black_plus_sign,,,,49,,,1,0.9361702127659575,,,,,,,,,,,,,,,,
null,,color_black,462322,,black_plus_sign,,,,null,,,,,,,,,,,,,,,,,,,,
null,,learn_phase(without_color),465325,,black_plus_sign,,,,null,GW/newhope.png,GW/hanover.png,,,,,,,,,,,,,,,,,,
null,,black_cross(without_color),465939,,blue,,,,null,GW/newhope.png,GW/hanover.png,,,,,,,,,,,,,,,,,,
null,,rt_plussign_withcolor,466441,,blue,,,,null,GW/newhope.png,GW/hanover.png,,,,,,,,,,,,,,,,,,
690.0999999940395,,rt_thecrossant_black,467832,,black_plus_sign,,,,49,,,1,0.9375,,,,,,,,,,,,,,,,
null,,color_black,467935,,black_plus_sign,,,,null,,,,,,,,,,,,,,,,,,,,
null,,learn_phase(without_color),470939,,black_plus_sign,,,,null,GW/boulder.png,GW/hotsprings.png,,,,,,,,,,,,,,,,,,
null,,black_cross(without_color),471859,,blue,,,,null,GW/boulder.png,GW/hotsprings.png,,,,,,,,,,,,,,,,,,
null,,rt_plussign_withcolor,472362,,blue,,,,null,GW/boulder.png,GW/hotsprings.png,,,,,,,,,,,,,,,,,,
874.7000000029802,,rt_thecrossant_black,473449,,black_plus_sign,,,,49,,,1,0.9387755102040817,,,,,,,,,,,,,,,,
null,,color_black,473553,,black_plus_sign,,,,null,,,,,,,,,,,,,,,,,,,,
null,,learn_phase(without_color),476561,,black_plus_sign,,,,null,GW/shreveport.png,GW/leesburg.png,,,,,,,,,,,,,,,,,,
null,,black_cross(without_color),477450,,yellow,,,,null,GW/shreveport.png,GW/leesburg.png,,,,,,,,,,,,,,,,,,
null,,rt_plussign_withcolor,477952,,yellow,,,,null,GW/shreveport.png,GW/leesburg.png,,,,,,,,,,,,,,,,,,
1192.5,,rt_thecrossant_black,479068,,black_plus_sign,,,,50,,,1,0.94,,,,,,,,,,,,,,,,
null,,color_black,479171,,black_plus_sign,,,,null,,,,,,,,,,,,,,,,,,,,
null,,learn_phase(without_color),482174,,black_plus_sign,,,,null,GW/hanover.png,GW/newhope.png,,,,,,,,,,,,,,,,,,
null,,black_cross(without_color),482992,,yellow,,,,null,GW/hanover.png,GW/newhope.png,,,,,,,,,,,,,,,,,,
null,,rt_plussign_withcolor,483494,,yellow,,,,null,GW/hanover.png,GW/newhope.png,,,,,,,,,,,,,,,,,,
999.5999999940395,,rt_thecrossant_black,484690,,black_plus_sign,,,,50,,,1,0.9411764705882353,,,,,,,,,,,,,,,,
null,,color_black,484792,,black_plus_sign,,,,null,,,,,,,,,,,,,,,,,,,,
null,,learn_phase(without_color),487796,,black_plus_sign,,,,null,GW/shreveport.png,GW/leesburg.png,,,,,,,,,,,,,,,,,,
null,,black_cross(without_color),488819,,yellow,,,,null,GW/shreveport.png,GW/leesburg.png,,,,,,,,,,,,,,,,,,
null,,rt_plussign_withcolor,489321,,yellow,,,,null,GW/shreveport.png,GW/leesburg.png,,,,,,,,,,,,,,,,,,
936.7000000029802,,rt_thecrossant_black,490303,,black_plus_sign,,,,50,,,1,0.9423076923076923,,,,,,,,,,,,,,,,
null,,color_black,490418,,black_plus_sign,,,,null,,,,,,,,,,,,,,,,,,,,
null,,learn_phase(without_color),493420,,black_plus_sign,,,,null,GW/hanover.png,GW/newhope.png,,,,,,,,,,,,,,,,,,
null,,black_cross(without_color),494275,,blue,,,,null,GW/hanover.png,GW/newhope.png,,,,,,,,,,,,,,,,,,
null,,rt_plussign_withcolor,494778,,blue,,,,null,GW/hanover.png,GW/newhope.png,,,,,,,,,,,,,,,,,,
1194.7000000029802,,rt_thecrossant_black,495937,,black_plus_sign,,,,49,,,1,0.9433962264150944,,,,,,,,,,,,,,,,
null,,color_black,496040,,black_plus_sign,,,,null,,,,,,,,,,,,,,,,,,,,
null,,learn_phase(without_color),499044,,black_plus_sign,,,,null,GW/cornwall.png,GW/peoria.png,,,,,,,,,,,,,,,,,,
null,,black_cross(without_color),499828,,blue,,,,null,GW/cornwall.png,GW/peoria.png,,,,,,,,,,,,,,,,,,
null,,rt_plussign_withcolor,500330,,blue,,,,null,GW/cornwall.png,GW/peoria.png,,,,,,,,,,,,,,,,,,
1220.0999999940395,,rt_thecrossant_black,501552,,black_plus_sign,,,,49,,,1,0.9444444444444444,,,,,,,,,,,,,,,,
null,,color_black,501662,,black_plus_sign,,,,null,,,,,,,,,,,,,,,,,,,,
null,,learn_phase(without_color),504668,,black_plus_sign,,,,null,GW/leesburg.png,GW/shreveport.png,,,,,,,,,,,,,,,,,,
null,,black_cross(without_color),505316,,blue,,,,null,GW/leesburg.png,GW/shreveport.png,,,,,,,,,,,,,,,,,,
null,,rt_plussign_withcolor,505818,,blue,,,,null,GW/leesburg.png,GW/shreveport.png,,,,,,,,,,,,,,,,,,
1023,,rt_thecrossant_black,507177,,black_plus_sign,,,,49,,,1,0.9454545454545454,,,,,,,,,,,,,,,,
null,,color_black,507280,,black_plus_sign,,,,null,,,,,,,,,,,,,,,,,,,,
null,,learn_phase(without_color),510283,,black_plus_sign,,,,null,GW/cornwall.png,GW/peoria.png,,,,,,,,,,,,,,,,,,
null,,black_cross(without_color),510875,,blue,,,,null,GW/cornwall.png,GW/peoria.png,,,,,,,,,,,,,,,,,,
null,,rt_plussign_withcolor,511378,,blue,,,,null,GW/cornwall.png,GW/peoria.png,,,,,,,,,,,,,,,,,,
857.0999999940395,,rt_thecrossant_black,512792,,black_plus_sign,,,,49,,,1,0.9464285714285714,,,,,,,,,,,,,,,,
null,,color_black,512905,,black_plus_sign,,,,null,,,,,,,,,,,,,,,,,,,,
null,,learn_phase(without_color),515909,,black_plus_sign,,,,null,GW/hotsprings.png,GW/boulder.png,,,,,,,,,,,,,,,,,,
null,,black_cross(without_color),516564,,blue,,,,null,GW/hotsprings.png,GW/boulder.png,,,,,,,,,,,,,,,,,,
481.09999999403954,,rt_plussign_withcolor,517066,,blue,,,,49,GW/hotsprings.png,GW/boulder.png,,,,,,,,,,,,,,,,,,
null,,rt_thecrossant_black,518417,,black_plus_sign,,,,null,,,1,0.9473684210526315,,,,,,,,,,,,,,,,
null,,color_black,518520,,black_plus_sign,,,,null,,,,,,,,,,,,,,,,,,,,
null,,learn_phase(without_color),521524,,black_plus_sign,,,,null,GW/peoria.png,GW/cornwall.png,,,,,,,,,,,,,,,,,,
null,,black_cross(without_color),522329,,yellow,,,,null,GW/peoria.png,GW/cornwall.png,,,,,,,,,,,,,,,,,,
null,,rt_plussign_withcolor,522831,,yellow,,,,null,GW/peoria.png,GW/cornwall.png,,,,,,,,,,,,,,,,,,
904.9000000059605,,rt_thecrossant_black,524032,,black_plus_sign,,,,50,,,1,0.9482758620689655,,,,,,,,,,,,,,,,
null,,color_black,524147,,black_plus_sign,,,,null,,,,,,,,,,,,,,,,,,,,
null,,learn_phase(without_color),527150,,black_plus_sign,,,,null,GW/hanover.png,GW/newhope.png,,,,,,,,,,,,,,,,,,
null,,black_cross(without_color),528007,,yellow,,,,null,GW/hanover.png,GW/newhope.png,,,,,,,,,,,,,,,,,,
null,,rt_plussign_withcolor,528509,,yellow,,,,null,GW/hanover.png,GW/newhope.png,,,,,,,,,,,,,,,,,,
1182,,rt_thecrossant_black,529658,,black_plus_sign,,,,50,,,1,0.9491525423728814,,,,,,,,,,,,,,,,
null,,color_black,529761,,black_plus_sign,,,,null,,,,,,,,,,,,,,,,,,,,
null,,learn_phase(without_color),532765,,black_plus_sign,,,,null,GW/cornwall.png,GW/peoria.png,,,,,,,,,,,,,,,,,,
null,,black_cross(without_color),533418,,yellow,,,,null,GW/cornwall.png,GW/peoria.png,,,,,,,,,,,,,,,,,,
null,,rt_plussign_withcolor,533928,,yellow,,,,null,GW/cornwall.png,GW/peoria.png,,,,,,,,,,,,,,,,,,
1126.8999999910593,,rt_thecrossant_black,535280,,black_plus_sign,,,,50,,,1,0.95,,,,,,,,,,,,,,,,
null,,color_black,535382,,black_plus_sign,,,,null,,,,,,,,,,,,,,,,,,,,
null,,learn_phase(without_color),538385,,black_plus_sign,,,,null,GW/leesburg.png,GW/shreveport.png,,,,,,,,,,,,,,,,,,
null,,black_cross(without_color),539267,,yellow,,,,null,GW/leesburg.png,GW/shreveport.png,,,,,,,,,,,,,,,,,,
null,,rt_plussign_withcolor,539770,,yellow,,,,null,GW/leesburg.png,GW/shreveport.png,,,,,,,,,,,,,,,,,,
763.1000000089407,,rt_thecrossant_black,540893,,black_plus_sign,,,,50,,,1,0.9508196721311475,,,,,,,,,,,,,,,,
null,,color_black,540997,,black_plus_sign,,,,null,,,,,,,,,,,,,,,,,,,,
null,,learn_phase(without_color),544001,,black_plus_sign,,,,null,GW/hotsprings.png,GW/boulder.png,,,,,,,,,,,,,,,,,,
null,,black_cross(without_color),545089,,yellow,,,,null,GW/hotsprings.png,GW/boulder.png,,,,,,,,,,,,,,,,,,
null,,rt_plussign_withcolor,545591,,yellow,,,,null,GW/hotsprings.png,GW/boulder.png,,,,,,,,,,,,,,,,,,
989.7000000029802,,rt_thecrossant_black,546521,,black_plus_sign,,,,50,,,1,0.9516129032258065,,,,,,,,,,,,,,,,
null,,color_black,546624,,black_plus_sign,,,,null,,,,,,,,,,,,,,,,,,,,
null,,learn_phase(without_color),549628,,black_plus_sign,,,,null,GW/peoria.png,GW/cornwall.png,,,,,,,,,,,,,,,,,,
null,,black_cross(without_color),550474,,yellow,,,,null,GW/peoria.png,GW/cornwall.png,,,,,,,,,,,,,,,,,,
null,,rt_plussign_withcolor,550977,,yellow,,,,null,GW/peoria.png,GW/cornwall.png,,,,,,,,,,,,,,,,,,
1172.2999999970198,,rt_thecrossant_black,552137,,black_plus_sign,,,,50,,,1,0.9523809523809523,,,,,,,,,,,,,,,,
null,,color_black,552239,,black_plus_sign,,,,null,,,,,,,,,,,,,,,,,,,,
null,,learn_phase(without_color),555242,,black_plus_sign,,,,null,GW/leesburg.png,GW/shreveport.png,,,,,,,,,,,,,,,,,,
null,,black_cross(without_color),555708,,blue,,,,null,GW/leesburg.png,GW/shreveport.png,,,,,,,,,,,,,,,,,,
null,,rt_plussign_withcolor,556211,,blue,,,,null,GW/leesburg.png,GW/shreveport.png,,,,,,,,,,,,,,,,,,
1104.1000000089407,,rt_thecrossant_black,557751,,black_plus_sign,,,,49,,,1,0.953125,,,,,,,,,,,,,,,,
null,,color_black,557854,,black_plus_sign,,,,null,,,,,,,,,,,,,,,,,,,,
49096.20000000298,,learn_break,606953,,learn_break,,,,32,,,,,,,,,,,,,,,,,,,,
null,,html-keyboard-response,607955,,<p></p>,,,,null,,,,,,,,,,,,,,,,,,,,
null,,learn_phase(without_color),610957,,black_plus_sign,,,,null,GW/hotsprings.png,GW/peoria.png,,,,,,,,,,,,,,,,,,
null,,black_cross(without_color),611708,,blue,,,,null,GW/hotsprings.png,GW/peoria.png,,,,,,,,,,,,,,,,,,
null,,rt_plussign_withcolor,612217,,blue,,,,null,GW/hotsprings.png,GW/peoria.png,,,,,,,,,,,,,,,,,,
648.5,,rt_thecrossant_black,613474,,black_plus_sign,,,,49,,,1,0.9538461538461539,,,,,,,,,,,,,,,,
null,,color_black,613577,,black_plus_sign,,,,null,,,,,,,,,,,,,,,,,,,,
null,,learn_phase(without_color),616581,,black_plus_sign,,,,null,GW/boulder.png,GW/hanover.png,,,,,,,,,,,,,,,,,,
null,,black_cross(without_color),617273,,blue,,,,null,GW/boulder.png,GW/hanover.png,,,,,,,,,,,,,,,,,,
null,,rt_plussign_withcolor,617776,,blue,,,,null,GW/boulder.png,GW/hanover.png,,,,,,,,,,,,,,,,,,
861.5,,rt_thecrossant_black,619090,,black_plus_sign,,,,49,,,1,0.9545454545454546,,,,,,,,,,,,,,,,
null,,color_black,619192,,black_plus_sign,,,,null,,,,,,,,,,,,,,,,,,,,
null,,learn_phase(without_color),622196,,black_plus_sign,,,,null,GW/westpalmbeach.png,GW/shreveport.png,,,,,,,,,,,,,,,,,,
null,,black_cross(without_color),622853,,blue,,,,null,GW/westpalmbeach.png,GW/shreveport.png,,,,,,,,,,,,,,,,,,
null,,rt_plussign_withcolor,623355,,blue,,,,null,GW/westpalmbeach.png,GW/shreveport.png,,,,,,,,,,,,,,,,,,
835.5,,rt_thecrossant_black,624704,,black_plus_sign,,,,49,,,1,0.9552238805970149,,,,,,,,,,,,,,,,
null,,color_black,624807,,black_plus_sign,,,,null,,,,,,,,,,,,,,,,,,,,
null,,learn_phase(without_color),627811,,black_plus_sign,,,,null,GW/leesburg.png,GW/carmel.png,,,,,,,,,,,,,,,,,,
null,,black_cross(without_color),628443,,yellow,,,,null,GW/leesburg.png,GW/carmel.png,,,,,,,,,,,,,,,,,,
null,,rt_plussign_withcolor,628945,,yellow,,,,null,GW/leesburg.png,GW/carmel.png,,,,,,,,,,,,,,,,,,
756.2000000029802,,rt_thecrossant_black,630320,,black_plus_sign,,,,50,,,1,0.9558823529411765,,,,,,,,,,,,,,,,
null,,color_black,630423,,black_plus_sign,,,,null,,,,,,,,,,,,,,,,,,,,
null,,learn_phase(without_color),633443,,black_plus_sign,,,,null,GW/boulder.png,GW/hanover.png,,,,,,,,,,,,,,,,,,
null,,black_cross(without_color),633971,,yellow,,,,null,GW/boulder.png,GW/hanover.png,,,,,,,,,,,,,,,,,,
null,,rt_plussign_withcolor,634474,,yellow,,,,null,GW/boulder.png,GW/hanover.png,,,,,,,,,,,,,,,,,,
891.6000000089407,,rt_thecrossant_black,635951,,black_plus_sign,,,,50,,,1,0.9565217391304348,,,,,,,,,,,,,,,,
null,,color_black,636068,,black_plus_sign,,,,null,,,,,,,,,,,,,,,,,,,,
null,,learn_phase(without_color),639073,,black_plus_sign,,,,null,GW/hotsprings.png,GW/peoria.png,,,,,,,,,,,,,,,,,,
null,,black_cross(without_color),639777,,yellow,,,,null,GW/hotsprings.png,GW/peoria.png,,,,,,,,,,,,,,,,,,
null,,rt_plussign_withcolor,640278,,yellow,,,,null,GW/hotsprings.png,GW/peoria.png,,,,,,,,,,,,,,,,,,
671.3000000119209,,rt_thecrossant_black,641580,,black_plus_sign,,,,50,,,1,0.9571428571428572,,,,,,,,,,,,,,,,
null,,color_black,641684,,black_plus_sign,,,,null,,,,,,,,,,,,,,,,,,,,
null,,learn_phase(without_color),644688,,black_plus_sign,,,,null,GW/leesburg.png,GW/carmel.png,,,,,,,,,,,,,,,,,,
null,,black_cross(without_color),645127,,blue,,,,null,GW/leesburg.png,GW/carmel.png,,,,,,,,,,,,,,,,,,
null,,rt_plussign_withcolor,645628,,blue,,,,null,GW/leesburg.png,GW/carmel.png,,,,,,,,,,,,,,,,,,
963.4000000059605,,rt_thecrossant_black,647221,,black_plus_sign,,,,49,,,1,0.9577464788732394,,,,,,,,,,,,,,,,
null,,color_black,647333,,black_plus_sign,,,,null,,,,,,,,,,,,,,,,,,,,
null,,learn_phase(without_color),650338,,black_plus_sign,,,,null,GW/hanover.png,GW/boulder.png,,,,,,,,,,,,,,,,,,
null,,black_cross(without_color),651056,,yellow,,,,null,GW/hanover.png,GW/boulder.png,,,,,,,,,,,,,,,,,,
null,,rt_plussign_withcolor,651559,,yellow,,,,null,GW/hanover.png,GW/boulder.png,,,,,,,,,,,,,,,,,,
626.7000000029802,,rt_thecrossant_black,652848,,black_plus_sign,,,,50,,,1,0.9583333333333334,,,,,,,,,,,,,,,,
null,,color_black,652951,,black_plus_sign,,,,null,,,,,,,,,,,,,,,,,,,,
null,,learn_phase(without_color),655956,,black_plus_sign,,,,null,GW/leesburg.png,GW/carmel.png,,,,,,,,,,,,,,,,,,
null,,black_cross(without_color),656398,,yellow,,,,null,GW/leesburg.png,GW/carmel.png,,,,,,,,,,,,,,,,,,
null,,rt_plussign_withcolor,656901,,yellow,,,,null,GW/leesburg.png,GW/carmel.png,,,,,,,,,,,,,,,,,,
907.5,,rt_thecrossant_black,658466,,black_plus_sign,,,,50,,,1,0.958904109589041,,,,,,,,,,,,,,,,
null,,color_black,658570,,black_plus_sign,,,,null,,,,,,,,,,,,,,,,,,,,
null,,learn_phase(without_color),661575,,black_plus_sign,,,,null,GW/boulder.png,GW/hanover.png,,,,,,,,,,,,,,,,,,
null,,black_cross(without_color),662438,,yellow,,,,null,GW/boulder.png,GW/hanover.png,,,,,,,,,,,,,,,,,,
null,,rt_plussign_withcolor,662941,,yellow,,,,null,GW/boulder.png,GW/hanover.png,,,,,,,,,,,,,,,,,,
605.4000000059605,,rt_thecrossant_black,664087,,black_plus_sign,,,,50,,,1,0.9594594594594594,,,,,,,,,,,,,,,,
null,,color_black,664189,,black_plus_sign,,,,null,,,,,,,,,,,,,,,,,,,,
null,,learn_phase(without_color),667193,,black_plus_sign,,,,null,GW/hotsprings.png,GW/peoria.png,,,,,,,,,,,,,,,,,,
null,,black_cross(without_color),667959,,yellow,,,,null,GW/hotsprings.png,GW/peoria.png,,,,,,,,,,,,,,,,,,
null,,rt_plussign_withcolor,668463,,yellow,,,,null,GW/hotsprings.png,GW/peoria.png,,,,,,,,,,,,,,,,,,
1137.6000000089407,,rt_thecrossant_black,669703,,black_plus_sign,,,,50,,,1,0.96,,,,,,,,,,,,,,,,
null,,color_black,669807,,black_plus_sign,,,,null,,,,,,,,,,,,,,,,,,,,
null,,learn_phase(without_color),672811,,black_plus_sign,,,,null,GW/boulder.png,GW/hanover.png,,,,,,,,,,,,,,,,,,
null,,black_cross(without_color),673243,,yellow,,,,null,GW/boulder.png,GW/hanover.png,,,,,,,,,,,,,,,,,,
null,,rt_plussign_withcolor,673746,,yellow,,,,null,GW/boulder.png,GW/hanover.png,,,,,,,,,,,,,,,,,,
877.4000000059605,,rt_thecrossant_black,675320,,black_plus_sign,,,,50,,,1,0.9605263157894737,,,,,,,,,,,,,,,,
null,,color_black,675423,,black_plus_sign,,,,null,,,,,,,,,,,,,,,,,,,,
null,,learn_phase(without_color),678427,,black_plus_sign,,,,null,GW/shreveport.png,GW/westpalmbeach.png,,,,,,,,,,,,,,,,,,
null,,black_cross(without_color),679012,,blue,,,,null,GW/shreveport.png,GW/westpalmbeach.png,,,,,,,,,,,,,,,,,,
null,,rt_plussign_withcolor,679515,,blue,,,,null,GW/shreveport.png,GW/westpalmbeach.png,,,,,,,,,,,,,,,,,,
635.4000000059605,,rt_thecrossant_black,680939,,black_plus_sign,,,,50,,,0,0.948051948051948,,,,,,,,,,,,,,,,
null,,color_black,681042,,black_plus_sign,,,,null,,,,,,,,,,,,,,,,,,,,
null,,learn_phase(without_color),684045,,black_plus_sign,,,,null,GW/hanover.png,GW/boulder.png,,,,,,,,,,,,,,,,,,
null,,black_cross(without_color),684914,,yellow,,,,null,GW/hanover.png,GW/boulder.png,,,,,,,,,,,,,,,,,,
null,,rt_plussign_withcolor,685417,,yellow,,,,null,GW/hanover.png,GW/boulder.png,,,,,,,,,,,,,,,,,,
960.8000000119209,,rt_thecrossant_black,686555,,black_plus_sign,,,,50,,,1,0.9487179487179487,,,,,,,,,,,,,,,,
null,,color_black,686659,,black_plus_sign,,,,null,,,,,,,,,,,,,,,,,,,,
null,,learn_phase(without_color),689663,,black_plus_sign,,,,null,GW/shreveport.png,GW/westpalmbeach.png,,,,,,,,,,,,,,,,,,
null,,black_cross(without_color),690538,,yellow,,,,null,GW/shreveport.png,GW/westpalmbeach.png,,,,,,,,,,,,,,,,,,
null,,rt_plussign_withcolor,691040,,yellow,,,,null,GW/shreveport.png,GW/westpalmbeach.png,,,,,,,,,,,,,,,,,,
1032.5,,rt_thecrossant_black,692172,,black_plus_sign,,,,50,,,1,0.9493670886075949,,,,,,,,,,,,,,,,
null,,color_black,692275,,black_plus_sign,,,,null,,,,,,,,,,,,,,,,,,,,
null,,learn_phase(without_color),695278,,black_plus_sign,,,,null,GW/carmel.png,GW/leesburg.png,,,,,,,,,,,,,,,,,,
null,,black_cross(without_color),695798,,blue,,,,null,GW/carmel.png,GW/leesburg.png,,,,,,,,,,,,,,,,,,
null,,rt_plussign_withcolor,696301,,blue,,,,null,GW/carmel.png,GW/leesburg.png,,,,,,,,,,,,,,,,,,
1050.4000000059605,,rt_thecrossant_black,697787,,black_plus_sign,,,,49,,,1,0.95,,,,,,,,,,,,,,,,
null,,color_black,697890,,black_plus_sign,,,,null,,,,,,,,,,,,,,,,,,,,
null,,learn_phase(without_color),700893,,black_plus_sign,,,,null,GW/boulder.png,GW/hanover.png,,,,,,,,,,,,,,,,,,
null,,black_cross(without_color),701605,,yellow,,,,null,GW/boulder.png,GW/hanover.png,,,,,,,,,,,,,,,,,,
null,,rt_plussign_withcolor,702115,,yellow,,,,null,GW/boulder.png,GW/hanover.png,,,,,,,,,,,,,,,,,,
707.5,,rt_thecrossant_black,703408,,black_plus_sign,,,,50,,,1,0.9506172839506173,,,,,,,,,,,,,,,,
null,,color_black,703512,,black_plus_sign,,,,null,,,,,,,,,,,,,,,,,,,,
null,,learn_phase(without_color),706516,,black_plus_sign,,,,null,GW/shreveport.png,GW/westpalmbeach.png,,,,,,,,,,,,,,,,,,
null,,black_cross(without_color),706963,,blue,,,,null,GW/shreveport.png,GW/westpalmbeach.png,,,,,,,,,,,,,,,,,,
null,,rt_plussign_withcolor,707465,,blue,,,,null,GW/shreveport.png,GW/westpalmbeach.png,,,,,,,,,,,,,,,,,,
1149,,rt_thecrossant_black,709029,,black_plus_sign,,,,49,,,1,0.9512195121951219,,,,,,,,,,,,,,,,
null,,color_black,709132,,black_plus_sign,,,,null,,,,,,,,,,,,,,,,,,,,
null,,learn_phase(without_color),712136,,black_plus_sign,,,,null,GW/carmel.png,GW/leesburg.png,,,,,,,,,,,,,,,,,,
null,,black_cross(without_color),713161,,blue,,,,null,GW/carmel.png,GW/leesburg.png,,,,,,,,,,,,,,,,,,
null,,rt_plussign_withcolor,713663,,blue,,,,null,GW/carmel.png,GW/leesburg.png,,,,,,,,,,,,,,,,,,
559.8999999910593,,rt_thecrossant_black,714645,,black_plus_sign,,,,49,,,1,0.9518072289156626,,,,,,,,,,,,,,,,
null,,color_black,714748,,black_plus_sign,,,,null,,,,,,,,,,,,,,,,,,,,
null,,learn_phase(without_color),717752,,black_plus_sign,,,,null,GW/westpalmbeach.png,GW/shreveport.png,,,,,,,,,,,,,,,,,,
null,,black_cross(without_color),718819,,blue,,,,null,GW/westpalmbeach.png,GW/shreveport.png,,,,,,,,,,,,,,,,,,
null,,rt_plussign_withcolor,719322,,blue,,,,null,GW/westpalmbeach.png,GW/shreveport.png,,,,,,,,,,,,,,,,,,
1254.8999999910593,,rt_thecrossant_black,720261,,black_plus_sign,,,,49,,,1,0.9523809523809523,,,,,,,,,,,,,,,,
null,,color_black,720363,,black_plus_sign,,,,null,,,,,,,,,,,,,,,,,,,,
null,,learn_phase(without_color),723368,,black_plus_sign,,,,null,GW/boulder.png,GW/hanover.png,,,,,,,,,,,,,,,,,,
null,,black_cross(without_color),723850,,yellow,,,,null,GW/boulder.png,GW/hanover.png,,,,,,,,,,,,,,,,,,
null,,rt_plussign_withcolor,724353,,yellow,,,,null,GW/boulder.png,GW/hanover.png,,,,,,,,,,,,,,,,,,
1375.2000000029802,,rt_thecrossant_black,725876,,black_plus_sign,,,,50,,,1,0.9529411764705882,,,,,,,,,,,,,,,,
null,,color_black,725980,,black_plus_sign,,,,null,,,,,,,,,,,,,,,,,,,,
null,,learn_phase(without_color),728984,,black_plus_sign,,,,null,GW/westpalmbeach.png,GW/shreveport.png,,,,,,,,,,,,,,,,,,
null,,black_cross(without_color),729388,,blue,,,,null,GW/westpalmbeach.png,GW/shreveport.png,,,,,,,,,,,,,,,,,,
null,,rt_plussign_withcolor,729891,,blue,,,,null,GW/westpalmbeach.png,GW/shreveport.png,,,,,,,,,,,,,,,,,,
723.7999999970198,,rt_thecrossant_black,731491,,black_plus_sign,,,,49,,,1,0.9534883720930233,,,,,,,,,,,,,,,,
null,,color_black,731597,,black_plus_sign,,,,null,,,,,,,,,,,,,,,,,,,,
null,,learn_phase(without_color),734601,,black_plus_sign,,,,null,GW/leesburg.png,GW/carmel.png,,,,,,,,,,,,,,,,,,
null,,black_cross(without_color),735051,,yellow,,,,null,GW/leesburg.png,GW/carmel.png,,,,,,,,,,,,,,,,,,
null,,rt_plussign_withcolor,735554,,yellow,,,,null,GW/leesburg.png,GW/carmel.png,,,,,,,,,,,,,,,,,,
611,,rt_thecrossant_black,737110,,black_plus_sign,,,,50,,,1,0.9540229885057471,,,,,,,,,,,,,,,,
null,,color_black,737213,,black_plus_sign,,,,null,,,,,,,,,,,,,,,,,,,,
null,,learn_phase(without_color),740217,,black_plus_sign,,,,null,GW/hotsprings.png,GW/peoria.png,,,,,,,,,,,,,,,,,,
null,,black_cross(without_color),741279,,blue,,,,null,GW/hotsprings.png,GW/peoria.png,,,,,,,,,,,,,,,,,,
null,,rt_plussign_withcolor,741782,,blue,,,,null,GW/hotsprings.png,GW/peoria.png,,,,,,,,,,,,,,,,,,
648.2999999970198,,rt_thecrossant_black,742734,,black_plus_sign,,,,49,,,1,0.9545454545454546,,,,,,,,,,,,,,,,
null,,color_black,742844,,black_plus_sign,,,,null,,,,,,,,,,,,,,,,,,,,
null,,learn_phase(without_color),745848,,black_plus_sign,,,,null,GW/hotsprings.png,GW/peoria.png,,,,,,,,,,,,,,,,,,
null,,black_cross(without_color),746464,,blue,,,,null,GW/hotsprings.png,GW/peoria.png,,,,,,,,,,,,,,,,,,
null,,rt_plussign_withcolor,746969,,blue,,,,null,GW/hotsprings.png,GW/peoria.png,,,,,,,,,,,,,,,,,,
1357.1000000089407,,rt_thecrossant_black,748358,,black_plus_sign,,,,49,,,1,0.9550561797752809,,,,,,,,,,,,,,,,
null,,color_black,748463,,black_plus_sign,,,,null,,,,,,,,,,,,,,,,,,,,
null,,learn_phase(without_color),751467,,black_plus_sign,,,,null,GW/westpalmbeach.png,GW/shreveport.png,,,,,,,,,,,,,,,,,,
null,,black_cross(without_color),752184,,yellow,,,,null,GW/westpalmbeach.png,GW/shreveport.png,,,,,,,,,,,,,,,,,,
null,,rt_plussign_withcolor,752688,,yellow,,,,null,GW/westpalmbeach.png,GW/shreveport.png,,,,,,,,,,,,,,,,,,
854.5,,rt_thecrossant_black,753978,,black_plus_sign,,,,50,,,1,0.9555555555555556,,,,,,,,,,,,,,,,
null,,color_black,754081,,black_plus_sign,,,,null,,,,,,,,,,,,,,,,,,,,
null,,learn_phase(without_color),757086,,black_plus_sign,,,,null,GW/hotsprings.png,GW/peoria.png,,,,,,,,,,,,,,,,,,
null,,black_cross(without_color),757603,,blue,,,,null,GW/hotsprings.png,GW/peoria.png,,,,,,,,,,,,,,,,,,
null,,rt_plussign_withcolor,758105,,blue,,,,null,GW/hotsprings.png,GW/peoria.png,,,,,,,,,,,,,,,,,,
950.1000000089407,,rt_thecrossant_black,759594,,black_plus_sign,,,,49,,,1,0.9560439560439561,,,,,,,,,,,,,,,,
null,,color_black,759698,,black_plus_sign,,,,null,,,,,,,,,,,,,,,,,,,,
null,,learn_phase(without_color),762702,,black_plus_sign,,,,null,GW/leesburg.png,GW/carmel.png,,,,,,,,,,,,,,,,,,
null,,black_cross(without_color),763216,,yellow,,,,null,GW/leesburg.png,GW/carmel.png,,,,,,,,,,,,,,,,,,
null,,rt_plussign_withcolor,763718,,yellow,,,,null,GW/leesburg.png,GW/carmel.png,,,,,,,,,,,,,,,,,,
952.4000000059605,,rt_thecrossant_black,765211,,black_plus_sign,,,,50,,,1,0.9565217391304348,,,,,,,,,,,,,,,,
null,,color_black,765313,,black_plus_sign,,,,null,,,,,,,,,,,,,,,,,,,,
null,,learn_phase(without_color),768317,,black_plus_sign,,,,null,GW/peoria.png,GW/hotsprings.png,,,,,,,,,,,,,,,,,,
null,,black_cross(without_color),769078,,blue,,,,null,GW/peoria.png,GW/hotsprings.png,,,,,,,,,,,,,,,,,,
null,,rt_plussign_withcolor,769580,,blue,,,,null,GW/peoria.png,GW/hotsprings.png,,,,,,,,,,,,,,,,,,
621.5,,rt_thecrossant_black,770828,,black_plus_sign,,,,49,,,1,0.956989247311828,,,,,,,,,,,,,,,,
null,,color_black,770932,,black_plus_sign,,,,null,,,,,,,,,,,,,,,,,,,,
null,,learn_phase(without_color),773935,,black_plus_sign,,,,null,GW/carmel.png,GW/leesburg.png,,,,,,,,,,,,,,,,,,
null,,black_cross(without_color),774600,,yellow,,,,null,GW/carmel.png,GW/leesburg.png,,,,,,,,,,,,,,,,,,
null,,rt_plussign_withcolor,775102,,yellow,,,,null,GW/carmel.png,GW/leesburg.png,,,,,,,,,,,,,,,,,,
930.6000000089407,,rt_thecrossant_black,776442,,black_plus_sign,,,,50,,,1,0.9574468085106383,,,,,,,,,,,,,,,,
null,,color_black,776545,,black_plus_sign,,,,null,,,,,,,,,,,,,,,,,,,,
null,,learn_phase(without_color),779550,,black_plus_sign,,,,null,GW/peoria.png,GW/hotsprings.png,,,,,,,,,,,,,,,,,,
null,,black_cross(without_color),780485,,yellow,,,,null,GW/peoria.png,GW/hotsprings.png,,,,,,,,,,,,,,,,,,
null,,rt_plussign_withcolor,780989,,yellow,,,,null,GW/peoria.png,GW/hotsprings.png,,,,,,,,,,,,,,,,,,
875.5999999940395,,rt_thecrossant_black,782059,,black_plus_sign,,,,50,,,1,0.9578947368421052,,,,,,,,,,,,,,,,
null,,color_black,782163,,black_plus_sign,,,,null,,,,,,,,,,,,,,,,,,,,
null,,learn_phase(without_color),785168,,black_plus_sign,,,,null,GW/westpalmbeach.png,GW/shreveport.png,,,,,,,,,,,,,,,,,,
null,,black_cross(without_color),785607,,yellow,,,,null,GW/westpalmbeach.png,GW/shreveport.png,,,,,,,,,,,,,,,,,,
null,,rt_plussign_withcolor,786109,,yellow,,,,null,GW/westpalmbeach.png,GW/shreveport.png,,,,,,,,,,,,,,,,,,
1120.8999999910593,,rt_thecrossant_black,787678,,black_plus_sign,,,,50,,,1,0.9583333333333334,,,,,,,,,,,,,,,,
null,,color_black,787782,,black_plus_sign,,,,null,,,,,,,,,,,,,,,,,,,,
null,,learn_phase(without_color),790787,,black_plus_sign,,,,null,GW/leesburg.png,GW/peoria.png,,,,,,,,,,,,,,,,,,
null,,black_cross(without_color),791602,,blue,,,,null,GW/leesburg.png,GW/peoria.png,,,,,,,,,,,,,,,,,,
null,,rt_plussign_withcolor,792105,,blue,,,,null,GW/leesburg.png,GW/peoria.png,,,,,,,,,,,,,,,,,,
712.7999999970198,,rt_thecrossant_black,793303,,black_plus_sign,,,,49,,,1,0.9587628865979382,,,,,,,,,,,,,,,,
null,,color_black,793407,,black_plus_sign,,,,null,,,,,,,,,,,,,,,,,,,,
null,,learn_phase(without_color),796412,,black_plus_sign,,,,null,GW/newhope.png,GW/huntsville.png,,,,,,,,,,,,,,,,,,
null,,black_cross(without_color),796965,,blue,,,,null,GW/newhope.png,GW/huntsville.png,,,,,,,,,,,,,,,,,,
null,,rt_plussign_withcolor,797468,,blue,,,,null,GW/newhope.png,GW/huntsville.png,,,,,,,,,,,,,,,,,,
1118.2000000029802,,rt_thecrossant_black,798920,,black_plus_sign,,,,49,,,1,0.9591836734693877,,,,,,,,,,,,,,,,
null,,color_black,799023,,black_plus_sign,,,,null,,,,,,,,,,,,,,,,,,,,
null,,learn_phase(without_color),802029,,black_plus_sign,,,,null,GW/hanover.png,GW/gatlinburg.png,,,,,,,,,,,,,,,,,,
null,,black_cross(without_color),803075,,blue,,,,null,GW/hanover.png,GW/gatlinburg.png,,,,,,,,,,,,,,,,,,
478.09999999403954,,rt_plussign_withcolor,803577,,blue,,,,49,GW/hanover.png,GW/gatlinburg.png,,,,,,,,,,,,,,,,,,
null,,rt_thecrossant_black,804538,,black_plus_sign,,,,null,,,1,0.9595959595959596,,,,,,,,,,,,,,,,
null,,color_black,804642,,black_plus_sign,,,,null,,,,,,,,,,,,,,,,,,,,
null,,learn_phase(without_color),807647,,black_plus_sign,,,,null,GW/racine.png,GW/cornwall.png,,,,,,,,,,,,,,,,,,
null,,black_cross(without_color),808707,,yellow,,,,null,GW/racine.png,GW/cornwall.png,,,,,,,,,,,,,,,,,,
null,,rt_plussign_withcolor,809210,,yellow,,,,null,GW/racine.png,GW/cornwall.png,,,,,,,,,,,,,,,,,,
1276.7000000029802,,rt_thecrossant_black,810156,,black_plus_sign,,,,50,,,1,0.96,,,,,,,,,,,,,,,,
null,,color_black,810259,,black_plus_sign,,,,null,,,,,,,,,,,,,,,,,,,,
null,,learn_phase(without_color),813262,,black_plus_sign,,,,null,GW/gatlinburg.png,GW/hanover.png,,,,,,,,,,,,,,,,,,
null,,black_cross(without_color),814214,,blue,,,,null,GW/gatlinburg.png,GW/hanover.png,,,,,,,,,,,,,,,,,,
null,,rt_plussign_withcolor,814718,,blue,,,,null,GW/gatlinburg.png,GW/hanover.png,,,,,,,,,,,,,,,,,,
1216.7000000029802,,rt_thecrossant_black,815777,,black_plus_sign,,,,49,,,1,0.9603960396039604,,,,,,,,,,,,,,,,
null,,color_black,815882,,black_plus_sign,,,,null,,,,,,,,,,,,,,,,,,,,
null,,learn_phase(without_color),818886,,black_plus_sign,,,,null,GW/newhope.png,GW/huntsville.png,,,,,,,,,,,,,,,,,,
null,,black_cross(without_color),819528,,yellow,,,,null,GW/newhope.png,GW/huntsville.png,,,,,,,,,,,,,,,,,,
null,,rt_plussign_withcolor,820030,,yellow,,,,null,GW/newhope.png,GW/huntsville.png,,,,,,,,,,,,,,,,,,
1089.2999999970198,,rt_thecrossant_black,821395,,black_plus_sign,,,,50,,,1,0.9607843137254902,,,,,,,,,,,,,,,,
null,,color_black,821497,,black_plus_sign,,,,null,,,,,,,,,,,,,,,,,,,,
null,,learn_phase(without_color),824498,,black_plus_sign,,,,null,GW/cornwall.png,GW/racine.png,,,,,,,,,,,,,,,,,,
null,,black_cross(without_color),825398,,yellow,,,,null,GW/cornwall.png,GW/racine.png,,,,,,,,,,,,,,,,,,
null,,rt_plussign_withcolor,825901,,yellow,,,,null,GW/cornwall.png,GW/racine.png,,,,,,,,,,,,,,,,,,
790,,rt_thecrossant_black,827009,,black_plus_sign,,,,50,,,1,0.9611650485436893,,,,,,,,,,,,,,,,
null,,color_black,827113,,black_plus_sign,,,,null,,,,,,,,,,,,,,,,,,,,
null,,learn_phase(without_color),830116,,black_plus_sign,,,,null,GW/hanover.png,GW/gatlinburg.png,,,,,,,,,,,,,,,,,,
null,,black_cross(without_color),830669,,blue,,,,null,GW/hanover.png,GW/gatlinburg.png,,,,,,,,,,,,,,,,,,
null,,rt_plussign_withcolor,831171,,blue,,,,null,GW/hanover.png,GW/gatlinburg.png,,,,,,,,,,,,,,,,,,
1066.5999999940395,,rt_thecrossant_black,832624,,black_plus_sign,,,,49,,,1,0.9615384615384616,,,,,,,,,,,,,,,,
null,,color_black,832728,,black_plus_sign,,,,null,,,,,,,,,,,,,,,,,,,,
null,,learn_phase(without_color),835735,,black_plus_sign,,,,null,GW/peoria.png,GW/leesburg.png,,,,,,,,,,,,,,,,,,
null,,black_cross(without_color),836588,,yellow,,,,null,GW/peoria.png,GW/leesburg.png,,,,,,,,,,,,,,,,,,
null,,rt_plussign_withcolor,837090,,yellow,,,,null,GW/peoria.png,GW/leesburg.png,,,,,,,,,,,,,,,,,,
828,,rt_thecrossant_black,838244,,black_plus_sign,,,,50,,,1,0.9619047619047619,,,,,,,,,,,,,,,,
null,,color_black,838347,,black_plus_sign,,,,null,,,,,,,,,,,,,,,,,,,,
null,,learn_phase(without_color),841351,,black_plus_sign,,,,null,GW/gatlinburg.png,GW/hanover.png,,,,,,,,,,,,,,,,,,
null,,black_cross(without_color),842219,,yellow,,,,null,GW/gatlinburg.png,GW/hanover.png,,,,,,,,,,,,,,,,,,
null,,rt_plussign_withcolor,842722,,yellow,,,,null,GW/gatlinburg.png,GW/hanover.png,,,,,,,,,,,,,,,,,,
1091.2999999970198,,rt_thecrossant_black,843860,,black_plus_sign,,,,50,,,1,0.9622641509433962,,,,,,,,,,,,,,,,
null,,color_black,843963,,black_plus_sign,,,,null,,,,,,,,,,,,,,,,,,,,
null,,learn_phase(without_color),846967,,black_plus_sign,,,,null,GW/cornwall.png,GW/racine.png,,,,,,,,,,,,,,,,,,
null,,black_cross(without_color),847699,,yellow,,,,null,GW/cornwall.png,GW/racine.png,,,,,,,,,,,,,,,,,,
null,,rt_plussign_withcolor,848202,,yellow,,,,null,GW/cornwall.png,GW/racine.png,,,,,,,,,,,,,,,,,,
1081.5999999940395,,rt_thecrossant_black,849478,,black_plus_sign,,,,50,,,1,0.9626168224299065,,,,,,,,,,,,,,,,
null,,color_black,849580,,black_plus_sign,,,,null,,,,,,,,,,,,,,,,,,,,
null,,learn_phase(without_color),852585,,black_plus_sign,,,,null,GW/peoria.png,GW/leesburg.png,,,,,,,,,,,,,,,,,,
null,,black_cross(without_color),853128,,blue,,,,null,GW/peoria.png,GW/leesburg.png,,,,,,,,,,,,,,,,,,
null,,rt_plussign_withcolor,853631,,blue,,,,null,GW/peoria.png,GW/leesburg.png,,,,,,,,,,,,,,,,,,
901.6000000089407,,rt_thecrossant_black,855097,,black_plus_sign,,,,49,,,1,0.9629629629629629,,,,,,,,,,,,,,,,
null,,color_black,855200,,black_plus_sign,,,,null,,,,,,,,,,,,,,,,,,,,
null,,learn_phase(without_color),858205,,black_plus_sign,,,,null,GW/gatlinburg.png,GW/hanover.png,,,,,,,,,,,,,,,,,,
null,,black_cross(without_color),859063,,yellow,,,,null,GW/gatlinburg.png,GW/hanover.png,,,,,,,,,,,,,,,,,,
null,,rt_plussign_withcolor,859565,,yellow,,,,null,GW/gatlinburg.png,GW/hanover.png,,,,,,,,,,,,,,,,,,
668.2000000029802,,rt_thecrossant_black,860713,,black_plus_sign,,,,50,,,1,0.963302752293578,,,,,,,,,,,,,,,,
null,,color_black,860815,,black_plus_sign,,,,null,,,,,,,,,,,,,,,,,,,,
null,,learn_phase(without_color),863818,,black_plus_sign,,,,null,GW/newhope.png,GW/huntsville.png,,,,,,,,,,,,,,,,,,
null,,black_cross(without_color),864641,,blue,,,,null,GW/newhope.png,GW/huntsville.png,,,,,,,,,,,,,,,,,,
null,,rt_plussign_withcolor,865144,,blue,,,,null,GW/newhope.png,GW/huntsville.png,,,,,,,,,,,,,,,,,,
1028.199999988079,,rt_thecrossant_black,866330,,black_plus_sign,,,,49,,,1,0.9636363636363636,,,,,,,,,,,,,,,,
null,,color_black,866433,,black_plus_sign,,,,null,,,,,,,,,,,,,,,,,,,,
null,,learn_phase(without_color),869437,,black_plus_sign,,,,null,GW/peoria.png,GW/leesburg.png,,,,,,,,,,,,,,,,,,
null,,black_cross(without_color),870012,,blue,,,,null,GW/peoria.png,GW/leesburg.png,,,,,,,,,,,,,,,,,,
null,,rt_plussign_withcolor,870515,,blue,,,,null,GW/peoria.png,GW/leesburg.png,,,,,,,,,,,,,,,,,,
960.7999999970198,,rt_thecrossant_black,871947,,black_plus_sign,,,,50,,,0,0.954954954954955,,,,,,,,,,,,,,,,
null,,color_black,872050,,black_plus_sign,,,,null,,,,,,,,,,,,,,,,,,,,
null,,learn_phase(without_color),875054,,black_plus_sign,,,,null,GW/huntsville.png,GW/newhope.png,,,,,,,,,,,,,,,,,,
null,,black_cross(without_color),875594,,blue,,,,null,GW/huntsville.png,GW/newhope.png,,,,,,,,,,,,,,,,,,
449.40000000596046,,rt_plussign_withcolor,876096,,blue,,,,49,GW/huntsville.png,GW/newhope.png,,,,,,,,,,,,,,,,,,
null,,rt_thecrossant_black,877562,,black_plus_sign,,,,null,,,1,0.9553571428571429,,,,,,,,,,,,,,,,
null,,color_black,877666,,black_plus_sign,,,,null,,,,,,,,,,,,,,,,,,,,
null,,learn_phase(without_color),880670,,black_plus_sign,,,,null,GW/peoria.png,GW/leesburg.png,,,,,,,,,,,,,,,,,,
null,,black_cross(without_color),881510,,blue,,,,null,GW/peoria.png,GW/leesburg.png,,,,,,,,,,,,,,,,,,
496.40000000596046,,rt_plussign_withcolor,882012,,blue,,,,49,GW/peoria.png,GW/leesburg.png,,,,,,,,,,,,,,,,,,
null,,rt_thecrossant_black,883180,,black_plus_sign,,,,null,,,1,0.9557522123893806,,,,,,,,,,,,,,,,
null,,color_black,883283,,black_plus_sign,,,,null,,,,,,,,,,,,,,,,,,,,
null,,learn_phase(without_color),886288,,black_plus_sign,,,,null,GW/racine.png,GW/cornwall.png,,,,,,,,,,,,,,,,,,
null,,black_cross(without_color),887388,,yellow,,,,null,GW/racine.png,GW/cornwall.png,,,,,,,,,,,,,,,,,,
null,,rt_plussign_withcolor,887894,,yellow,,,,null,GW/racine.png,GW/cornwall.png,,,,,,,,,,,,,,,,,,
964.0999999940395,,rt_thecrossant_black,888802,,black_plus_sign,,,,50,,,1,0.956140350877193,,,,,,,,,,,,,,,,
null,,color_black,888907,,black_plus_sign,,,,null,,,,,,,,,,,,,,,,,,,,
null,,learn_phase(without_color),891910,,black_plus_sign,,,,null,GW/gatlinburg.png,GW/hanover.png,,,,,,,,,,,,,,,,,,
null,,black_cross(without_color),892446,,yellow,,,,null,GW/gatlinburg.png,GW/hanover.png,,,,,,,,,,,,,,,,,,
null,,rt_plussign_withcolor,892949,,yellow,,,,null,GW/gatlinburg.png,GW/hanover.png,,,,,,,,,,,,,,,,,,
1459.9000000059605,,rt_thecrossant_black,894420,,black_plus_sign,,,,50,,,1,0.9565217391304348,,,,,,,,,,,,,,,,
null,,color_black,894523,,black_plus_sign,,,,null,,,,,,,,,,,,,,,,,,,,
null,,learn_phase(without_color),897526,,black_plus_sign,,,,null,GW/newhope.png,GW/huntsville.png,,,,,,,,,,,,,,,,,,
null,,black_cross(without_color),898465,,blue,,,,null,GW/newhope.png,GW/huntsville.png,,,,,,,,,,,,,,,,,,
null,,rt_plussign_withcolor,898980,,blue,,,,null,GW/newhope.png,GW/huntsville.png,,,,,,,,,,,,,,,,,,
749.2000000029802,,rt_thecrossant_black,900048,,black_plus_sign,,,,49,,,1,0.9568965517241379,,,,,,,,,,,,,,,,
null,,color_black,900152,,black_plus_sign,,,,null,,,,,,,,,,,,,,,,,,,,
null,,learn_phase(without_color),903157,,black_plus_sign,,,,null,GW/racine.png,GW/cornwall.png,,,,,,,,,,,,,,,,,,
null,,black_cross(without_color),903734,,blue,,,,null,GW/racine.png,GW/cornwall.png,,,,,,,,,,,,,,,,,,
null,,rt_plussign_withcolor,904238,,blue,,,,null,GW/racine.png,GW/cornwall.png,,,,,,,,,,,,,,,,,,
1163.8999999910593,,rt_thecrossant_black,905667,,black_plus_sign,,,,49,,,1,0.9572649572649573,,,,,,,,,,,,,,,,
null,,color_black,905771,,black_plus_sign,,,,null,,,,,,,,,,,,,,,,,,,,
null,,learn_phase(without_color),908790,,black_plus_sign,,,,null,GW/newhope.png,GW/huntsville.png,,,,,,,,,,,,,,,,,,
null,,black_cross(without_color),909678,,blue,,,,null,GW/newhope.png,GW/huntsville.png,,,,,,,,,,,,,,,,,,
null,,rt_plussign_withcolor,910181,,blue,,,,null,GW/newhope.png,GW/huntsville.png,,,,,,,,,,,,,,,,,,
700.3999999910593,,rt_thecrossant_black,911299,,black_plus_sign,,,,49,,,1,0.9576271186440678,,,,,,,,,,,,,,,,
null,,color_black,911403,,black_plus_sign,,,,null,,,,,,,,,,,,,,,,,,,,
null,,learn_phase(without_color),914408,,black_plus_sign,,,,null,GW/racine.png,GW/cornwall.png,,,,,,,,,,,,,,,,,,
null,,black_cross(without_color),915103,,yellow,,,,null,GW/racine.png,GW/cornwall.png,,,,,,,,,,,,,,,,,,
486.79999999701977,,rt_plussign_withcolor,915605,,yellow,,,,50,GW/racine.png,GW/cornwall.png,,,,,,,,,,,,,,,,,,
null,,rt_thecrossant_black,916914,,black_plus_sign,,,,null,,,1,0.957983193277311,,,,,,,,,,,,,,,,
null,,color_black,917017,,black_plus_sign,,,,null,,,,,,,,,,,,,,,,,,,,
null,,learn_phase(without_color),920029,,black_plus_sign,,,,null,GW/huntsville.png,GW/newhope.png,,,,,,,,,,,,,,,,,,
null,,black_cross(without_color),920483,,yellow,,,,null,GW/huntsville.png,GW/newhope.png,,,,,,,,,,,,,,,,,,
null,,rt_plussign_withcolor,920985,,yellow,,,,null,GW/huntsville.png,GW/newhope.png,,,,,,,,,,,,,,,,,,
941.2000000029802,,rt_thecrossant_black,922536,,black_plus_sign,,,,50,,,1,0.9583333333333334,,,,,,,,,,,,,,,,
null,,color_black,922639,,black_plus_sign,,,,null,,,,,,,,,,,,,,,,,,,,
null,,learn_phase(without_color),925643,,black_plus_sign,,,,null,GW/racine.png,GW/cornwall.png,,,,,,,,,,,,,,,,,,
null,,black_cross(without_color),926418,,yellow,,,,null,GW/racine.png,GW/cornwall.png,,,,,,,,,,,,,,,,,,
473.3999999910593,,rt_plussign_withcolor,926921,,yellow,,,,50,GW/racine.png,GW/cornwall.png,,,,,,,,,,,,,,,,,,
null,,rt_thecrossant_black,928156,,black_plus_sign,,,,null,,,1,0.9586776859504132,,,,,,,,,,,,,,,,
null,,color_black,928260,,black_plus_sign,,,,null,,,,,,,,,,,,,,,,,,,,
null,,learn_phase(without_color),931264,,black_plus_sign,,,,null,GW/newhope.png,GW/huntsville.png,,,,,,,,,,,,,,,,,,
null,,black_cross(without_color),931851,,yellow,,,,null,GW/newhope.png,GW/huntsville.png,,,,,,,,,,,,,,,,,,
null,,rt_plussign_withcolor,932354,,yellow,,,,null,GW/newhope.png,GW/huntsville.png,,,,,,,,,,,,,,,,,,
896.0999999940395,,rt_thecrossant_black,933774,,black_plus_sign,,,,50,,,1,0.9590163934426229,,,,,,,,,,,,,,,,
null,,color_black,933877,,black_plus_sign,,,,null,,,,,,,,,,,,,,,,,,,,
null,,learn_phase(without_color),936882,,black_plus_sign,,,,null,GW/gatlinburg.png,GW/hanover.png,,,,,,,,,,,,,,,,,,
null,,black_cross(without_color),937439,,blue,,,,null,GW/gatlinburg.png,GW/hanover.png,,,,,,,,,,,,,,,,,,
null,,rt_plussign_withcolor,937942,,blue,,,,null,GW/gatlinburg.png,GW/hanover.png,,,,,,,,,,,,,,,,,,
762.7000000029802,,rt_thecrossant_black,939391,,black_plus_sign,,,,50,,,0,0.9512195121951219,,,,,,,,,,,,,,,,
null,,color_black,939494,,black_plus_sign,,,,null,,,,,,,,,,,,,,,,,,,,
null,,learn_phase(without_color),942499,,black_plus_sign,,,,null,GW/peoria.png,GW/leesburg.png,,,,,,,,,,,,,,,,,,
null,,black_cross(without_color),943550,,blue,,,,null,GW/peoria.png,GW/leesburg.png,,,,,,,,,,,,,,,,,,
null,,rt_plussign_withcolor,944053,,blue,,,,null,GW/peoria.png,GW/leesburg.png,,,,,,,,,,,,,,,,,,
703.5,,rt_thecrossant_black,945008,,black_plus_sign,,,,49,,,1,0.9516129032258065,,,,,,,,,,,,,,,,
null,,color_black,945112,,black_plus_sign,,,,null,,,,,,,,,,,,,,,,,,,,
null,,learn_phase(without_color),948116,,black_plus_sign,,,,null,GW/hanover.png,GW/gatlinburg.png,,,,,,,,,,,,,,,,,,
null,,black_cross(without_color),948718,,blue,,,,null,GW/hanover.png,GW/gatlinburg.png,,,,,,,,,,,,,,,,,,
null,,rt_plussign_withcolor,949222,,blue,,,,null,GW/hanover.png,GW/gatlinburg.png,,,,,,,,,,,,,,,,,,
1251,,rt_thecrossant_black,950626,,black_plus_sign,,,,49,,,1,0.952,,,,,,,,,,,,,,,,
null,,color_black,950729,,black_plus_sign,,,,null,,,,,,,,,,,,,,,,,,,,
null,,learn_phase(without_color),953732,,black_plus_sign,,,,null,GW/leesburg.png,GW/peoria.png,,,,,,,,,,,,,,,,,,
null,,black_cross(without_color),954606,,yellow,,,,null,GW/leesburg.png,GW/peoria.png,,,,,,,,,,,,,,,,,,
null,,rt_plussign_withcolor,955109,,yellow,,,,null,GW/leesburg.png,GW/peoria.png,,,,,,,,,,,,,,,,,,
747.2000000029802,,rt_thecrossant_black,956241,,black_plus_sign,,,,50,,,1,0.9523809523809523,,,,,,,,,,,,,,,,
null,,color_black,956354,,black_plus_sign,,,,null,,,,,,,,,,,,,,,,,,,,
null,,learn_phase(without_color),959359,,black_plus_sign,,,,null,GW/leesburg.png,GW/peoria.png,,,,,,,,,,,,,,,,,,
null,,black_cross(without_color),959806,,blue,,,,null,GW/leesburg.png,GW/peoria.png,,,,,,,,,,,,,,,,,,
null,,rt_plussign_withcolor,960310,,blue,,,,null,GW/leesburg.png,GW/peoria.png,,,,,,,,,,,,,,,,,,
1030.7000000029802,,rt_thecrossant_black,961878,,black_plus_sign,,,,49,,,1,0.952755905511811,,,,,,,,,,,,,,,,
null,,color_black,961981,,black_plus_sign,,,,null,,,,,,,,,,,,,,,,,,,,
null,,learn_phase(without_color),964984,,black_plus_sign,,,,null,GW/cornwall.png,GW/racine.png,,,,,,,,,,,,,,,,,,
null,,black_cross(without_color),965727,,yellow,,,,null,GW/cornwall.png,GW/racine.png,,,,,,,,,,,,,,,,,,
null,,rt_plussign_withcolor,966229,,yellow,,,,null,GW/cornwall.png,GW/racine.png,,,,,,,,,,,,,,,,,,
569.0999999940395,,rt_thecrossant_black,967493,,black_plus_sign,,,,50,,,1,0.953125,,,,,,,,,,,,,,,,
null,,color_black,967598,,black_plus_sign,,,,null,,,,,,,,,,,,,,,,,,,,
null,,learn_break,1027602,,learn_break,,,,null,,,,,,,,,,,,,,,,,,,,
19995.09999999404,,intro_1,1047600,,instruct,,0,Start,,,,,,,,,,,,,,,,,,,,,
4308,,directmemory_phase,1051911,,GW/hanover.png,,,,51,,,1,1,GW/carmel.png,GW/huntsville.png,GW/gatlinburg.png,GW/gatlinburg.png,GW/huntsville.png,GW/carmel.png,1,,,,,,,,,
null,,html-keyboard-response,1052916,,<p></p>,,,,null,,,,,,,,,,,,,,,,,,,,
1724.9000000059605,,directmemory_phase,1054643,,GW/newhope.png,,,,50,,,0,0.5,GW/peoria.png,GW/cornwall.png,GW/racine.png,GW/racine.png,GW/cornwall.png,GW/peoria.png,0.5,closer,,,,,,,,
null,,html-keyboard-response,1055648,,<p></p>,,,,null,,,,,,,,,,,,,,,,,,,,
5815.9000000059605,,directmemory_phase,1061466,,GW/peoria.png,,,,49,,,1,0.6666666666666666,GW/hotsprings.png,GW/gatlinburg.png,GW/boulder.png,GW/hotsprings.png,GW/boulder.png,GW/gatlinburg.png,1,,,,,,,,,
null,,html-keyboard-response,1062485,,<p></p>,,,,null,,,,,,,,,,,,,,,,,,,,
1344.2999999970198,,directmemory_phase,1063831,,GW/carmel.png,,,,51,,,1,0.75,GW/westpalmbeach.png,GW/shreveport.png,GW/leesburg.png,GW/leesburg.png,GW/shreveport.png,GW/westpalmbeach.png,1,,,,,,,,,
null,,html-keyboard-response,1064836,,<p></p>,,,,null,,,,,,,,,,,,,,,,,,,,
4039.1000000089407,,directmemory_phase,1068878,,GW/hanover.png,,,,49,,,1,0.8,GW/boulder.png,GW/peoria.png,GW/cornwall.png,GW/boulder.png,GW/cornwall.png,GW/peoria.png,1,,,,,,,,,
null,,html-keyboard-response,1069882,,<p></p>,,,,null,,,,,,,,,,,,,,,,,,,,
3548.2000000029802,,directmemory_phase,1073432,,GW/peoria.png,,,,50,,,1,0.8333333333333334,GW/carmel.png,GW/cornwall.png,GW/newhope.png,GW/cornwall.png,GW/carmel.png,GW/newhope.png,1,,,,,,,,,
null,,html-keyboard-response,1074436,,<p></p>,,,,null,,,,,,,,,,,,,,,,,,,,
1314,,directmemory_phase,1075753,,GW/boulder.png,,,,49,,,1,0.8571428571428571,GW/hotsprings.png,GW/carmel.png,GW/newhope.png,GW/hotsprings.png,GW/newhope.png,GW/carmel.png,1,,,,,,,,,
null,,html-keyboard-response,1076761,,<p></p>,,,,null,,,,,,,,,,,,,,,,,,,,
2119.199999988079,,directmemory_phase,1078883,,GW/shreveport.png,,,,51,,,1,0.875,GW/racine.png,GW/hotsprings.png,GW/leesburg.png,GW/leesburg.png,GW/hotsprings.png,GW/racine.png,1,,,,,,,,,
null,,html-keyboard-response,1079888,,<p></p>,,,,null,,,,,,,,,,,,,,,,,,,,
2053.5,,directmemory_phase,1081944,,GW/newhope.png,,,,51,,,1,0.8888888888888888,GW/shreveport.png,GW/boulder.png,GW/huntsville.png,GW/huntsville.png,GW/boulder.png,GW/shreveport.png,1,,,,,,,,,
null,,html-keyboard-response,1082953,,<p></p>,,,,null,,,,,,,,,,,,,,,,,,,,
5712.5,,directmemory_phase,1088667,,GW/leesburg.png,,,,51,,,1,0.9,GW/gatlinburg.png,GW/westpalmbeach.png,GW/hotsprings.png,GW/hotsprings.png,GW/westpalmbeach.png,GW/gatlinburg.png,1,,,,,,,,,
null,,html-keyboard-response,1089671,,<p></p>,,,,null,,,,,,,,,,,,,,,,,,,,
3903.0999999940395,,directmemory_phase,1093576,,GW/cornwall.png,,,,49,,,0,0.8181818181818182,GW/carmel.png,GW/hanover.png,GW/boulder.png,GW/boulder.png,GW/hanover.png,GW/carmel.png,0.5,closer,,,,,,,,
null,,html-keyboard-response,1094581,,<p></p>,,,,null,,,,,,,,,,,,,,,,,,,,
3055.5999999940395,,directmemory_phase,1097639,,GW/shreveport.png,,,,49,,,1,0.8333333333333334,GW/peoria.png,GW/boulder.png,GW/carmel.png,GW/peoria.png,GW/carmel.png,GW/boulder.png,1,,,,,,,,,
null,,html-keyboard-response,1098641,,<p></p>,,,,null,,,,,,,,,,,,,,,,,,,,
null,,directmemory_phase,1105145,,GW/newhope.png,,,,null,,,0,0.7692307692307693,GW/leesburg.png,GW/gatlinburg.png,GW/hanover.png,GW/hanover.png,GW/gatlinburg.png,GW/leesburg.png,0,,,,,,,,,
null,,warning_page,1108156,,warning,,,,null,,,,,,,,,,,,,,,,,,,,
null,,html-keyboard-response,1109159,,<p></p>,,,,null,,,,,,,,,,,,,,,,,,,,
2616.1000000089407,,directmemory_phase,1111778,,GW/peoria.png,,,,50,,,1,0.7857142857142857,GW/boulder.png,GW/leesburg.png,GW/hanover.png,GW/leesburg.png,GW/boulder.png,GW/hanover.png,1,,,,,,,,,
null,,html-keyboard-response,1112782,,<p></p>,,,,null,,,,,,,,,,,,,,,,,,,,
1675.5999999940395,,directmemory_phase,1114460,,GW/hotsprings.png,,,,51,,,1,0.8,GW/racine.png,GW/hanover.png,GW/boulder.png,GW/boulder.png,GW/hanover.png,GW/racine.png,1,,,,,,,,,
null,,html-keyboard-response,1115464,,<p></p>,,,,null,,,,,,,,,,,,,,,,,,,,
2804.0999999940395,,directmemory_phase,1118271,,GW/leesburg.png,,,,51,,,1,0.8125,GW/racine.png,GW/cornwall.png,GW/peoria.png,GW/peoria.png,GW/cornwall.png,GW/racine.png,1,,,,,,,,,
null,,html-keyboard-response,1119275,,<p></p>,,,,null,,,,,,,,,,,,,,,,,,,,
2365.4000000059605,,directmemory_phase,1121643,,GW/racine.png,,,,50,,,0,0.7647058823529411,GW/cornwall.png,GW/shreveport.png,GW/hanover.png,GW/cornwall.png,GW/hanover.png,GW/shreveport.png,0.5,closer,,,,,,,,
null,,html-keyboard-response,1122648,,<p></p>,,,,null,,,,,,,,,,,,,,,,,,,,
2045,,directmemory_phase,1124695,,GW/hotsprings.png,,,,51,,,1,0.7777777777777778,GW/newhope.png,GW/cornwall.png,GW/leesburg.png,GW/leesburg.png,GW/cornwall.png,GW/newhope.png,1,,,,,,,,,
null,,html-keyboard-response,1125699,,<p></p>,,,,null,,,,,,,,,,,,,,,,,,,,
1301.8999999910593,,directmemory_phase,1127004,,GW/huntsville.png,,,,50,,,1,0.7894736842105263,GW/racine.png,GW/newhope.png,GW/cornwall.png,GW/newhope.png,GW/racine.png,GW/cornwall.png,1,,,,,,,,,
null,,html-keyboard-response,1128016,,<p></p>,,,,null,,,,,,,,,,,,,,,,,,,,
2112.9000000059605,,directmemory_phase,1130131,,GW/hotsprings.png,,,,49,,,1,0.8,GW/peoria.png,GW/huntsville.png,GW/hanover.png,GW/peoria.png,GW/hanover.png,GW/huntsville.png,1,,,,,,,,,
null,,html-keyboard-response,1131133,,<p></p>,,,,null,,,,,,,,,,,,,,,,,,,,
2212.8999999910593,,directmemory_phase,1133347,,GW/westpalmbeach.png,,,,50,,,1,0.8095238095238095,GW/leesburg.png,GW/shreveport.png,GW/racine.png,GW/shreveport.png,GW/leesburg.png,GW/racine.png,1,,,,,,,,,
null,,html-keyboard-response,1134349,,<p></p>,,,,null,,,,,,,,,,,,,,,,,,,,
1373.5,,directmemory_phase,1135724,,GW/gatlinburg.png,,,,51,,,1,0.8181818181818182,GW/leesburg.png,GW/boulder.png,GW/hanover.png,GW/hanover.png,GW/boulder.png,GW/leesburg.png,1,,,,,,,,,
null,,html-keyboard-response,1136728,,<p></p>,,,,null,,,,,,,,,,,,,,,,,,,,
2288.5,,directmemory_phase,1139019,,GW/peoria.png,,,,49,,,0,0.782608695652174,GW/hanover.png,GW/racine.png,GW/shreveport.png,GW/shreveport.png,GW/racine.png,GW/hanover.png,0.5,closer,,,,,,,,
null,,html-keyboard-response,1140024,,<p></p>,,,,null,,,,,,,,,,,,,,,,,,,,
2614.6000000089407,,directmemory_phase,1142641,,GW/boulder.png,,,,49,,,0,0.75,GW/shreveport.png,GW/peoria.png,GW/cornwall.png,GW/cornwall.png,GW/peoria.png,GW/shreveport.png,0.5,closer,,,,,,,,
null,,html-keyboard-response,1143646,,<p></p>,,,,null,,,,,,,,,,,,,,,,,,,,
2165.6000000089407,,directmemory_phase,1145814,,GW/racine.png,,,,50,,,0,0.72,GW/newhope.png,GW/shreveport.png,GW/peoria.png,GW/newhope.png,GW/peoria.png,GW/shreveport.png,0.5,closer,,,,,,,,
null,,html-keyboard-response,1146819,,<p></p>,,,,null,,,,,,,,,,,,,,,,,,,,
2359.7999999970198,,directmemory_phase,1149181,,GW/cornwall.png,,,,49,,,1,0.7307692307692307,GW/peoria.png,GW/carmel.png,GW/hanover.png,GW/peoria.png,GW/hanover.png,GW/carmel.png,1,,,,,,,,,
null,,html-keyboard-response,1150185,,<p></p>,,,,null,,,,,,,,,,,,,,,,,,,,
2127.3999999910593,,directmemory_phase,1152315,,GW/shreveport.png,,,,49,,,0,0.7037037037037037,GW/cornwall.png,GW/westpalmbeach.png,GW/hanover.png,GW/westpalmbeach.png,GW/cornwall.png,GW/hanover.png,0.5,closer,,,,,,,,
null,,html-keyboard-response,1153324,,<p></p>,,,,null,,,,,,,,,,,,,,,,,,,,
2405.2999999970198,,directmemory_phase,1155731,,GW/hanover.png,,,,50,,,1,0.7142857142857143,GW/cornwall.png,GW/newhope.png,GW/shreveport.png,GW/newhope.png,GW/cornwall.png,GW/shreveport.png,1,,,,,,,,,
null,,html-keyboard-response,1156736,,<p></p>,,,,null,,,,,,,,,,,,,,,,,,,,
1783,,directmemory_phase,1158522,,GW/leesburg.png,,,,49,,,0,0.6896551724137931,GW/newhope.png,GW/westpalmbeach.png,GW/carmel.png,GW/carmel.png,GW/westpalmbeach.png,GW/newhope.png,0.5,closer,,,,,,,,
null,,html-keyboard-response,1159528,,<p></p>,,,,null,,,,,,,,,,,,,,,,,,,,
1948,,directmemory_phase,1161478,,GW/boulder.png,,,,51,,,1,0.7,GW/westpalmbeach.png,GW/racine.png,GW/hanover.png,GW/hanover.png,GW/racine.png,GW/westpalmbeach.png,1,,,,,,,,,
null,,html-keyboard-response,1162483,,<p></p>,,,,null,,,,,,,,,,,,,,,,,,,,
1585.7999999970198,,directmemory_phase,1164071,,GW/leesburg.png,,,,49,,,1,0.7096774193548387,GW/shreveport.png,GW/newhope.png,GW/boulder.png,GW/shreveport.png,GW/boulder.png,GW/newhope.png,1,,,,,,,,,
null,,html-keyboard-response,1165076,,<p></p>,,,,null,,,,,,,,,,,,,,,,,,,,
2114.9000000059605,,directmemory_phase,1167193,,GW/cornwall.png,,,,51,,,0,0.6875,GW/racine.png,GW/gatlinburg.png,GW/newhope.png,GW/racine.png,GW/newhope.png,GW/gatlinburg.png,0.5,closer,,,,,,,,
null,,html-keyboard-response,1168199,,<p></p>,,,,null,,,,,,,,,,,,,,,,,,,,
23653,,intro_1,1191854,,instruct,,0,,,,,,,,,,,,,,,,,,,,,,
11158,,intro_2,1203014,,instruct,,1,Next,,,,,,,,,,,,,,,,,,,,,
5285.79999999702,,intro_3,1208302,,instruct,,1,Next,,,,,,,,,,,,,,,,,,,,,
5758,,intro_4,1214062,,instruct,,1,Next,,,,,,,,,,,,,,,,,,,,,
17317.10000000894,,intro_5,1231381,,instruct,,1,Next,,,,,,,,,,,,,,,,,,,,,
38286.09999999404,,intro_6,1269669,,instruct,,1,Next,,,,,,,,,,,,,,,,,,,,,
13917.20000000298,,intro_7,1283588,,instruct,,1,Next,,,,,,,,,,,,,,,,,,,,,
9102.60000000894,,intro_8,1292692,,instruct,,0,Previous,,,,,,,,,,,,,,,,,,,,,
895.3999999910593,,intro_7,1293589,,instruct,,0,Previous,,,,,,,,,,,,,,,,,,,,,
509.70000000298023,,intro_6,1294100,,instruct,,0,Previous,,,,,,,,,,,,,,,,,,,,,
351.3999999910593,,intro_5,1294454,,instruct,,0,Previous,,,,,,,,,,,,,,,,,,,,,
357.30000001192093,,intro_4,1294813,,instruct,,0,Previous,,,,,,,,,,,,,,,,,,,,,
452.90000000596046,,intro_3,1295268,,instruct,,0,Previous,,,,,,,,,,,,,,,,,,,,,
895,,intro_2,1296165,,instruct,,0,Previous,,,,,,,,,,,,,,,,,,,,,
12957.89999999106,,intro_1,1309124,,instruct,,0,,,,,,,,,,,,,,,,,,,,,,
8255,,intro_2,1317381,,instruct,,1,Next,,,,,,,,,,,,,,,,,,,,,
5252.70000000298,,intro_3,1322636,,instruct,,1,Next,,,,,,,,,,,,,,,,,,,,,
11391.79999999702,,intro_4,1334030,,instruct,,1,Next,,,,,,,,,,,,,,,,,,,,,
17589.5,,intro_5,1351621,,instruct,,1,Next,,,,,,,,,,,,,,,,,,,,,
24253.20000000298,,intro_6,1375877,,instruct,,1,Next,,,,,,,,,,,,,,,,,,,,,
16845.39999999106,,intro_7,1392725,,instruct,,1,Next,,,,,,,,,,,,,,,,,,,,,
17812.79999999702,,intro_8,1410540,,instruct,,1,Next,,,,,,,,,,,,,,,,,,,,,
1869.9000000059605,,shortestpath_phase,1412412,,GW/westpalmbeach.png,,,,50,GW/hanover.png,GW/leesburg.png,1,1,,,,GW/leesburg.png,,,,,Three Edge Diff,Three Edge Six Edge,,,,,,
null,,html-keyboard-response,1413417,,<p></p>,,,,null,,,,,,,,,,,,,,,,,,,,
1919.5,,shortestpath_phase,1415339,,GW/huntsville.png,,,,49,GW/westpalmbeach.png,GW/peoria.png,0,0.5,,,,GW/peoria.png,,,,,Two Edge Diff,Four Edge Six Edge,,,,,,
null,,html-keyboard-response,1416342,,<p></p>,,,,null,,,,,,,,,,,,,,,,,,,,
2775.5,,shortestpath_phase,1419120,,GW/carmel.png,,,,49,GW/shreveport.png,GW/huntsville.png,1,0.6666666666666666,,,,GW/shreveport.png,,,,,Four Edge Diff,Two Edge Six Edge,,,,,,
null,,html-keyboard-response,1420122,,<p></p>,,,,null,,,,,,,,,,,,,,,,,,,,
2307.2999999970198,,shortestpath_phase,1422430,,GW/westpalmbeach.png,,,,50,GW/newhope.png,GW/cornwall.png,1,0.75,,,,GW/cornwall.png,,,,,Two Edge Diff,Three Edge Five Edge,,,,,,
null,,html-keyboard-response,1423432,,<p></p>,,,,null,,,,,,,,,,,,,,,,,,,,
null,,shortestpath_phase,1430934,,GW/huntsville.png,,,,null,GW/westpalmbeach.png,GW/hotsprings.png,0,0.6,,,,GW/hotsprings.png,,,,,Two Edge Diff,Four Edge Six Edge,,,,,,
null,,warning_page,1433936,,warning,,,,null,,,,,,,,,,,,,,,,,,,,
null,,html-keyboard-response,1434938,,<p></p>,,,,null,,,,,,,,,,,,,,,,,,,,
1991.699999988079,,shortestpath_phase,1436930,,GW/westpalmbeach.png,,,,49,GW/newhope.png,GW/gatlinburg.png,1,0.6666666666666666,,,,GW/newhope.png,,,,,One Edge Diff,Five Edge Six Edge,,,,,,
null,,html-keyboard-response,1437932,,<p></p>,,,,null,,,,,,,,,,,,,,,,,,,,
2586.4000000059605,,shortestpath_phase,1440520,,GW/carmel.png,,,,49,GW/peoria.png,GW/hanover.png,1,0.7142857142857143,,,,GW/peoria.png,,,,,Two Edge Diff,Two Edge Four Edge,,,,,,
null,,html-keyboard-response,1441523,,<p></p>,,,,null,,,,,,,,,,,,,,,,,,,,
1752.7999999970198,,shortestpath_phase,1443276,,GW/hanover.png,,,,50,GW/huntsville.png,GW/westpalmbeach.png,0,0.625,,,,GW/huntsville.png,,,,,Three Edge Diff,Three Edge Six Edge,,,,,,
null,,html-keyboard-response,1444278,,<p></p>,,,,null,,,,,,,,,,,,,,,,,,,,
2090.7000000029802,,shortestpath_phase,1446370,,GW/gatlinburg.png,,,,50,GW/shreveport.png,GW/newhope.png,1,0.6666666666666666,,,,GW/newhope.png,,,,,Three Edge Diff,Three Edge Six Edge,,,,,,
null,,html-keyboard-response,1447372,,<p></p>,,,,null,,,,,,,,,,,,,,,,,,,,
2504.9000000059605,,shortestpath_phase,1449878,,GW/racine.png,,,,49,GW/leesburg.png,GW/carmel.png,1,0.7,,,,GW/leesburg.png,,,,,One Edge Diff,Three Edge Four Edge,,,,,,
null,,html-keyboard-response,1450880,,<p></p>,,,,null,,,,,,,,,,,,,,,,,,,,
2038.4000000059605,,shortestpath_phase,1452920,,GW/newhope.png,,,,49,GW/cornwall.png,GW/carmel.png,1,0.7272727272727273,,,,GW/cornwall.png,,,,,Three Edge Diff,Two Edge Five Edge,,,,,,
null,,html-keyboard-response,1453925,,<p></p>,,,,null,,,,,,,,,,,,,,,,,,,,
1837.2999999970198,,shortestpath_phase,1455763,,GW/westpalmbeach.png,,,,50,GW/huntsville.png,GW/peoria.png,1,0.75,,,,GW/peoria.png,,,,,Four Edge Diff,Two Edge Six Edge,,,,,,
null,,html-keyboard-response,1456766,,<p></p>,,,,null,,,,,,,,,,,,,,,,,,,,
2210.6000000089407,,shortestpath_phase,1458978,,GW/shreveport.png,,,,50,GW/gatlinburg.png,GW/boulder.png,1,0.7692307692307693,,,,GW/boulder.png,,,,,Two Edge Diff,Three Edge Five Edge,,,,,,
null,,html-keyboard-response,1459982,,<p></p>,,,,null,,,,,,,,,,,,,,,,,,,,
1929.2000000029802,,shortestpath_phase,1461912,,GW/westpalmbeach.png,,,,49,GW/hanover.png,GW/peoria.png,0,0.7142857142857143,,,,GW/peoria.png,,,,,Three Edge Diff,Three Edge Six Edge,,,,,,
null,,html-keyboard-response,1462915,,<p></p>,,,,null,,,,,,,,,,,,,,,,,,,,
2143.4000000059605,,shortestpath_phase,1465061,,GW/shreveport.png,,,,50,GW/newhope.png,GW/hotsprings.png,1,0.7333333333333333,,,,GW/hotsprings.png,,,,,Two Edge Diff,Two Edge Four Edge,,,,,,
null,,html-keyboard-response,1466063,,<p></p>,,,,null,,,,,,,,,,,,,,,,,,,,
2806.199999988079,,shortestpath_phase,1468872,,GW/newhope.png,,,,50,GW/boulder.png,GW/westpalmbeach.png,0,0.6875,,,,GW/boulder.png,,,,,Three Edge Diff,Two Edge Five Edge,,,,,,
null,,html-keyboard-response,1469877,,<p></p>,,,,null,,,,,,,,,,,,,,,,,,,,
1842.2999999970198,,shortestpath_phase,1471722,,GW/hanover.png,,,,49,GW/peoria.png,GW/carmel.png,1,0.7058823529411765,,,,GW/peoria.png,,,,,One Edge Diff,Three Edge Four Edge,,,,,,
null,,html-keyboard-response,1472726,,<p></p>,,,,null,,,,,,,,,,,,,,,,,,,,
1637.199999988079,,shortestpath_phase,1474366,,GW/huntsville.png,,,,50,GW/boulder.png,GW/peoria.png,0,0.6666666666666666,,,,GW/boulder.png,,,,,One Edge Diff,Three Edge Four Edge,,,,,,
null,,html-keyboard-response,1475371,,<p></p>,,,,null,,,,,,,,,,,,,,,,,,,,
1930.2999999970198,,shortestpath_phase,1477304,,GW/gatlinburg.png,,,,49,GW/hotsprings.png,GW/newhope.png,0,0.631578947368421,,,,GW/newhope.png,,,,,One Edge Diff,Two Edge Three Edge,,,,,,
null,,html-keyboard-response,1478310,,<p></p>,,,,null,,,,,,,,,,,,,,,,,,,,
2270.2999999970198,,shortestpath_phase,1480583,,GW/westpalmbeach.png,,,,50,GW/gatlinburg.png,GW/boulder.png,1,0.65,,,,GW/boulder.png,,,,,Two Edge Diff,Four Edge Six Edge,,,,,,
null,,html-keyboard-response,1481588,,<p></p>,,,,null,,,,,,,,,,,,,,,,,,,,
2326.699999988079,,shortestpath_phase,1483917,,GW/shreveport.png,,,,49,GW/carmel.png,GW/gatlinburg.png,1,0.6666666666666666,,,,GW/carmel.png,,,,,Three Edge Diff,Two Edge Five Edge,,,,,,
null,,html-keyboard-response,1484931,,<p></p>,,,,null,,,,,,,,,,,,,,,,,,,,
2113.9000000059605,,shortestpath_phase,1487048,,GW/gatlinburg.png,,,,49,GW/westpalmbeach.png,GW/boulder.png,0,0.6363636363636364,,,,GW/boulder.png,,,,,Four Edge Diff,Two Edge Six Edge,,,,,,
null,,html-keyboard-response,1488053,,<p></p>,,,,null,,,,,,,,,,,,,,,,,,,,
2292.2000000029802,,shortestpath_phase,1490348,,GW/westpalmbeach.png,,,,50,GW/gatlinburg.png,GW/racine.png,1,0.6521739130434783,,,,GW/racine.png,,,,,Two Edge Diff,Four Edge Six Edge,,,,,,
null,,html-keyboard-response,1491354,,<p></p>,,,,null,,,,,,,,,,,,,,,,,,,,
2187.4000000059605,,shortestpath_phase,1493543,,GW/carmel.png,,,,49,GW/huntsville.png,GW/gatlinburg.png,0,0.625,,,,GW/gatlinburg.png,,,,,One Edge Diff,Five Edge Six Edge,,,,,,
null,,html-keyboard-response,1494557,,<p></p>,,,,null,,,,,,,,,,,,,,,,,,,,
1985,,shortestpath_phase,1496544,,GW/huntsville.png,,,,50,GW/cornwall.png,GW/shreveport.png,0,0.6,,,,GW/cornwall.png,,,,,Two Edge Diff,Three Edge Five Edge,,,,,,
null,,html-keyboard-response,1497548,,<p></p>,,,,null,,,,,,,,,,,,,,,,,,,,
1943.800000011921,,shortestpath_phase,1499493,,GW/hotsprings.png,,,,50,GW/racine.png,GW/hanover.png,1,0.6153846153846154,,,,GW/hanover.png,,,,,One Edge Diff,Two Edge Three Edge,,,,,,
null,,html-keyboard-response,1500496,,<p></p>,,,,null,,,,,,,,,,,,,,,,,,,,
1788.2999999970198,,shortestpath_phase,1502287,,GW/newhope.png,,,,49,GW/westpalmbeach.png,GW/cornwall.png,0,0.5925925925925926,,,,GW/cornwall.png,,,,,Three Edge Diff,Three Edge Six Edge,,,,,,
null,,html-keyboard-response,1503292,,<p></p>,,,,null,,,,,,,,,,,,,,,,,,,,
1774.3999999910593,,shortestpath_phase,1505069,,GW/hanover.png,,,,49,GW/shreveport.png,GW/hotsprings.png,0,0.5714285714285714,,,,GW/hotsprings.png,,,,,Two Edge Diff,Two Edge Four Edge,,,,,,
null,,html-keyboard-response,1506073,,<p></p>,,,,null,,,,,,,,,,,,,,,,,,,,
2635.0999999940395,,shortestpath_phase,1508711,,GW/newhope.png,,,,50,GW/peoria.png,GW/shreveport.png,0,0.5517241379310345,,,,GW/peoria.png,,,,,One Edge Diff,Three Edge Four Edge,,,,,,
null,,html-keyboard-response,1509715,,<p></p>,,,,null,,,,,,,,,,,,,,,,,,,,
2115.3999999910593,,shortestpath_phase,1511833,,GW/carmel.png,,,,50,GW/huntsville.png,GW/hotsprings.png,1,0.5666666666666667,,,,GW/hotsprings.png,,,,,Four Edge Diff,Two Edge Six Edge,,,,,,
null,,html-keyboard-response,1512837,,<p></p>,,,,null,,,,,,,,,,,,,,,,,,,,
1859.0999999940395,,shortestpath_phase,1514699,,GW/leesburg.png,,,,49,GW/cornwall.png,GW/huntsville.png,1,0.5806451612903226,,,,GW/cornwall.png,,,,,Three Edge Diff,Three Edge Six Edge,,,,,,
null,,html-keyboard-response,1515704,,<p></p>,,,,null,,,,,,,,,,,,,,,,,,,,
2411.5999999940395,,shortestpath_phase,1518118,,GW/carmel.png,,,,50,GW/gatlinburg.png,GW/racine.png,1,0.59375,,,,GW/racine.png,,,,,One Edge Diff,Four Edge Five Edge,,,,,,
null,,html-keyboard-response,1519127,,<p></p>,,,,null,,,,,,,,,,,,,,,,,,,,
2910,,shortestpath_phase,1522038,,GW/boulder.png,,,,49,GW/peoria.png,GW/westpalmbeach.png,1,0.6060606060606061,,,,GW/peoria.png,,,,,Two Edge Diff,Two Edge Four Edge,,,,,,
null,,html-keyboard-response,1523039,,<p></p>,,,,null,,,,,,,,,,,,,,,,,,,,
2386.7999999970198,,shortestpath_phase,1525428,,GW/leesburg.png,,,,49,GW/westpalmbeach.png,GW/huntsville.png,1,0.6176470588235294,,,,GW/westpalmbeach.png,,,,,Three Edge Diff,Two Edge Five Edge,,,,,,
null,,html-keyboard-response,1526433,,<p></p>,,,,null,,,,,,,,,,,,,,,,,,,,
2098.300000011921,,shortestpath_phase,1528534,,GW/newhope.png,,,,50,GW/cornwall.png,GW/shreveport.png,0,0.6,,,,GW/cornwall.png,,,,,Two Edge Diff,Two Edge Four Edge,,,,,,
null,,html-keyboard-response,1529539,,<p></p>,,,,null,,,,,,,,,,,,,,,,,,,,
1604.9000000059605,,shortestpath_phase,1531146,,GW/gatlinburg.png,,,,50,GW/huntsville.png,GW/shreveport.png,0,0.5833333333333334,,,,GW/huntsville.png,,,,,Two Edge Diff,Three Edge Five Edge,,,,,,
null,,html-keyboard-response,1532150,,<p></p>,,,,null,,,,,,,,,,,,,,,,,,,,
2086.2999999970198,,shortestpath_phase,1534238,,GW/westpalmbeach.png,,,,50,GW/huntsville.png,GW/racine.png,1,0.5945945945945946,,,,GW/racine.png,,,,,Two Edge Diff,Four Edge Six Edge,,,,,,
null,,html-keyboard-response,1535244,,<p></p>,,,,null,,,,,,,,,,,,,,,,,,,,
2398.1000000089407,,shortestpath_phase,1537643,,GW/huntsville.png,,,,50,GW/hanover.png,GW/leesburg.png,0,0.5789473684210527,,,,GW/hanover.png,,,,,Three Edge Diff,Two Edge Five Edge,,,,,,
null,,html-keyboard-response,1538644,,<p></p>,,,,null,,,,,,,,,,,,,,,,,,,,
2612,,shortestpath_phase,1541257,,GW/westpalmbeach.png,,,,50,GW/leesburg.png,GW/gatlinburg.png,0,0.5641025641025641,,,,GW/leesburg.png,,,,,Four Edge Diff,Two Edge Six Edge,,,,,,
null,,html-keyboard-response,1542262,,<p></p>,,,,null,,,,,,,,,,,,,,,,,,,,
2289.9000000059605,,shortestpath_phase,1544554,,GW/newhope.png,,,,49,GW/boulder.png,GW/carmel.png,1,0.575,,,,GW/boulder.png,,,,,Three Edge Diff,Two Edge Five Edge,,,,,,
null,,html-keyboard-response,1545560,,<p></p>,,,,null,,,,,,,,,,,,,,,,,,,,
1538.2000000029802,,shortestpath_phase,1547100,,GW/westpalmbeach.png,,,,50,GW/huntsville.png,GW/hanover.png,1,0.5853658536585366,,,,GW/hanover.png,,,,,One Edge Diff,Five Edge Six Edge,,,,,,
null,,html-keyboard-response,1548103,,<p></p>,,,,null,,,,,,,,,,,,,,,,,,,,
1913,,shortestpath_phase,1550017,,GW/shreveport.png,,,,50,GW/gatlinburg.png,GW/cornwall.png,1,0.5952380952380952,,,,GW/cornwall.png,,,,,Three Edge Diff,Three Edge Six Edge,,,,,,
null,,html-keyboard-response,1551019,,<p></p>,,,,null,,,,,,,,,,,,,,,,,,,,
2246.4000000059605,,shortestpath_phase,1553269,,GW/carmel.png,,,,49,GW/hanover.png,GW/huntsville.png,1,0.6046511627906976,,,,GW/hanover.png,,,,,Two Edge Diff,Four Edge Six Edge,,,,,,
null,,html-keyboard-response,1554274,,<p></p>,,,,null,,,,,,,,,,,,,,,,,,,,
1635.6000000089407,,shortestpath_phase,1555912,,GW/shreveport.png,,,,50,GW/gatlinburg.png,GW/hotsprings.png,1,0.6136363636363636,,,,GW/hotsprings.png,,,,,Three Edge Diff,Two Edge Five Edge,,,,,,
null,,html-keyboard-response,1556918,,<p></p>,,,,null,,,,,,,,,,,,,,,,,,,,
1341.7999999970198,,shortestpath_phase,1558263,,GW/gatlinburg.png,,,,49,GW/newhope.png,GW/westpalmbeach.png,1,0.6222222222222222,,,,GW/newhope.png,,,,,Four Edge Diff,Two Edge Six Edge,,,,,,
null,,html-keyboard-response,1559267,,<p></p>,,,,null,,,,,,,,,,,,,,,,,,,,
1658.5,,shortestpath_phase,1560928,,GW/leesburg.png,,,,49,GW/boulder.png,GW/huntsville.png,1,0.6304347826086957,,,,GW/boulder.png,,,,,Three Edge Diff,Three Edge Six Edge,,,,,,
null,,html-keyboard-response,1561934,,<p></p>,,,,null,,,,,,,,,,,,,,,,,,,,
2310.5999999940395,,shortestpath_phase,1564247,,GW/huntsville.png,,,,50,GW/peoria.png,GW/carmel.png,0,0.6170212765957447,,,,GW/peoria.png,,,,,Two Edge Diff,Four Edge Six Edge,,,,,,
null,,html-keyboard-response,1565250,,<p></p>,,,,null,,,,,,,,,,,,,,,,,,,,
2661.7999999970198,,shortestpath_phase,1567914,,GW/carmel.png,,,,49,GW/boulder.png,GW/hanover.png,1,0.625,,,,GW/boulder.png,,,,,One Edge Diff,Three Edge Four Edge,,,,,,
null,,html-keyboard-response,1568919,,<p></p>,,,,null,,,,,,,,,,,,,,,,,,,,
1762.7999999970198,,shortestpath_phase,1570683,,GW/gatlinburg.png,,,,50,GW/carmel.png,GW/hotsprings.png,1,0.6326530612244898,,,,GW/hotsprings.png,,,,,Two Edge Diff,Three Edge Five Edge,,,,,,
null,,html-keyboard-response,1571687,,<p></p>,,,,null,,,,,,,,,,,,,,,,,,,,
1486.5999999940395,,shortestpath_phase,1573176,,GW/westpalmbeach.png,,,,50,GW/peoria.png,GW/hanover.png,0,0.62,,,,GW/peoria.png,,,,,Three Edge Diff,Two Edge Five Edge,,,,,,
null,,html-keyboard-response,1574181,,<p></p>,,,,null,,,,,,,,,,,,,,,,,,,,
1557.7000000029802,,shortestpath_phase,1575741,,GW/carmel.png,,,,49,GW/racine.png,GW/newhope.png,1,0.6274509803921569,,,,GW/racine.png,,,,,One Edge Diff,Four Edge Five Edge,,,,,,
null,,html-keyboard-response,1576746,,<p></p>,,,,null,,,,,,,,,,,,,,,,,,,,
2295.2000000029802,,shortestpath_phase,1579044,,GW/huntsville.png,,,,50,GW/peoria.png,GW/leesburg.png,0,0.6153846153846154,,,,GW/peoria.png,,,,,One Edge Diff,Four Edge Five Edge,,,,,,
null,,html-keyboard-response,1580049,,<p></p>,,,,null,,,,,,,,,,,,,,,,,,,,
1885.3999999910593,,shortestpath_phase,1581938,,GW/hanover.png,,,,50,GW/racine.png,GW/westpalmbeach.png,0,0.6037735849056604,,,,GW/racine.png,,,,,Three Edge Diff,Two Edge Five Edge,,,,,,
null,,html-keyboard-response,1582942,,<p></p>,,,,null,,,,,,,,,,,,,,,,,,,,
1925,,shortestpath_phase,1584869,,GW/gatlinburg.png,,,,49,GW/hotsprings.png,GW/leesburg.png,1,0.6111111111111112,,,,GW/hotsprings.png,,,,,One Edge Diff,Three Edge Four Edge,,,,,,
null,,html-keyboard-response,1585872,,<p></p>,,,,null,,,,,,,,,,,,,,,,,,,,
1711,,shortestpath_phase,1587585,,GW/huntsville.png,,,,49,GW/carmel.png,GW/racine.png,0,0.6,,,,GW/racine.png,,,,,Four Edge Diff,Two Edge Six Edge,,,,,,
null,,html-keyboard-response,1588589,,<p></p>,,,,null,,,,,,,,,,,,,,,,,,,,
2492.0999999940395,,shortestpath_phase,1591084,,GW/gatlinburg.png,,,,50,GW/westpalmbeach.png,GW/shreveport.png,1,0.6071428571428571,,,,GW/shreveport.png,,,,,One Edge Diff,Five Edge Six Edge,,,,,,
null,,html-keyboard-response,1592089,,<p></p>,,,,null,,,,,,,,,,,,,,,,,,,,
2316.7999999970198,,shortestpath_phase,1594407,,GW/westpalmbeach.png,,,,50,GW/hanover.png,GW/boulder.png,1,0.6140350877192983,,,,GW/boulder.png,,,,,One Edge Diff,Four Edge Five Edge,,,,,,
null,,html-keyboard-response,1595411,,<p></p>,,,,null,,,,,,,,,,,,,,,,,,,,
2134.2999999970198,,shortestpath_phase,1597548,,GW/hanover.png,,,,50,GW/peoria.png,GW/westpalmbeach.png,0,0.603448275862069,,,,GW/peoria.png,,,,,Two Edge Diff,Three Edge Five Edge,,,,,,
null,,html-keyboard-response,1598553,,<p></p>,,,,null,,,,,,,,,,,,,,,,,,,,
2614.2000000029802,,shortestpath_phase,1601170,,GW/carmel.png,,,,50,GW/gatlinburg.png,GW/shreveport.png,1,0.6101694915254238,,,,GW/shreveport.png,,,,,Three Edge Diff,Two Edge Five Edge,,,,,,
null,,html-keyboard-response,1602174,,<p></p>,,,,null,,,,,,,,,,,,,,,,,,,,
2544.800000011921,,shortestpath_phase,1604722,,GW/gatlinburg.png,,,,50,GW/carmel.png,GW/cornwall.png,1,0.6166666666666667,,,,GW/cornwall.png,,,,,Two Edge Diff,Three Edge Five Edge,,,,,,
null,,html-keyboard-response,1605728,,<p></p>,,,,null,,,,,,,,,,,,,,,,,,,,
2393.6000000089407,,shortestpath_phase,1608124,,GW/westpalmbeach.png,,,,50,GW/huntsville.png,GW/boulder.png,1,0.6229508196721312,,,,GW/boulder.png,,,,,Two Edge Diff,Four Edge Six Edge,,,,,,
null,,html-keyboard-response,1609128,,<p></p>,,,,null,,,,,,,,,,,,,,,,,,,,
2231.2000000029802,,shortestpath_phase,1611362,,GW/leesburg.png,,,,49,GW/racine.png,GW/cornwall.png,0,0.6129032258064516,,,,GW/cornwall.png,,,,,One Edge Diff,Two Edge Three Edge,,,,,,
null,,html-keyboard-response,1612365,,<p></p>,,,,null,,,,,,,,,,,,,,,,,,,,
1894.5999999940395,,shortestpath_phase,1614261,,GW/newhope.png,,,,50,GW/carmel.png,GW/gatlinburg.png,1,0.6190476190476191,,,,GW/gatlinburg.png,,,,,Three Edge Diff,Two Edge Five Edge,,,,,,
null,,html-keyboard-response,1615264,,<p></p>,,,,null,,,,,,,,,,,,,,,,,,,,
1143.7000000029802,,shortestpath_phase,1616409,,GW/huntsville.png,,,,50,GW/hotsprings.png,GW/hanover.png,1,0.625,,,,GW/hanover.png,,,,,Two Edge Diff,Two Edge Four Edge,,,,,,
null,,html-keyboard-response,1617414,,<p></p>,,,,null,,,,,,,,,,,,,,,,,,,,
1583,,shortestpath_phase,1618999,,GW/newhope.png,,,,50,GW/carmel.png,GW/cornwall.png,1,0.6307692307692307,,,,GW/cornwall.png,,,,,Three Edge Diff,Three Edge Six Edge,,,,,,
null,,html-keyboard-response,1620002,,<p></p>,,,,null,,,,,,,,,,,,,,,,,,,,
2656.199999988079,,shortestpath_phase,1622662,,GW/huntsville.png,,,,49,GW/shreveport.png,GW/hanover.png,0,0.6212121212121212,,,,GW/hanover.png,,,,,Three Edge Diff,Two Edge Five Edge,,,,,,
null,,html-keyboard-response,1623676,,<p></p>,,,,null,,,,,,,,,,,,,,,,,,,,
2145.5999999940395,,shortestpath_phase,1625825,,GW/peoria.png,,,,49,GW/huntsville.png,GW/carmel.png,0,0.6119402985074627,,,,GW/carmel.png,,,,,Two Edge Diff,Two Edge Four Edge,,,,,,
null,,html-keyboard-response,1626830,,<p></p>,,,,null,,,,,,,,,,,,,,,,,,,,
2506.1000000089407,,shortestpath_phase,1629339,,GW/gatlinburg.png,,,,50,GW/hotsprings.png,GW/shreveport.png,0,0.6029411764705882,,,,GW/hotsprings.png,,,,,Two Edge Diff,Three Edge Five Edge,,,,,,
null,,html-keyboard-response,1630342,,<p></p>,,,,null,,,,,,,,,,,,,,,,,,,,
1926.7000000029802,,shortestpath_phase,1632271,,GW/huntsville.png,,,,49,GW/hanover.png,GW/carmel.png,1,0.6086956521739131,,,,GW/hanover.png,,,,,Four Edge Diff,Two Edge Six Edge,,,,,,
null,,html-keyboard-response,1633277,,<p></p>,,,,null,,,,,,,,,,,,,,,,,,,,
2283.2999999970198,,shortestpath_phase,1635563,,GW/gatlinburg.png,,,,50,GW/westpalmbeach.png,GW/carmel.png,1,0.6142857142857143,,,,GW/carmel.png,,,,,One Edge Diff,Five Edge Six Edge,,,,,,
null,,html-keyboard-response,1636568,,<p></p>,,,,null,,,,,,,,,,,,,,,,,,,,
2472.5,,shortestpath_phase,1639043,,GW/huntsville.png,,,,49,GW/westpalmbeach.png,GW/hanover.png,0,0.6056338028169014,,,,GW/hanover.png,,,,,Four Edge Diff,Two Edge Six Edge,,,,,,
null,,html-keyboard-response,1640058,,<p></p>,,,,null,,,,,,,,,,,,,,,,,,,,
2108.2999999970198,,shortestpath_phase,1642169,,GW/gatlinburg.png,,,,50,GW/carmel.png,GW/leesburg.png,1,0.6111111111111112,,,,GW/leesburg.png,,,,,One Edge Diff,Four Edge Five Edge,,,,,,
null,,html-keyboard-response,1643183,,<p></p>,,,,null,,,,,,,,,,,,,,,,,,,,
2111.7000000029802,,shortestpath_phase,1645297,,GW/carmel.png,,,,50,GW/hanover.png,GW/gatlinburg.png,0,0.6027397260273972,,,,GW/hanover.png,,,,,One Edge Diff,Four Edge Five Edge,,,,,,
null,,html-keyboard-response,1646302,,<p></p>,,,,null,,,,,,,,,,,,,,,,,,,,
2414.5,,shortestpath_phase,1648719,,GW/huntsville.png,,,,49,GW/westpalmbeach.png,GW/racine.png,0,0.5945945945945946,,,,GW/racine.png,,,,,Four Edge Diff,Two Edge Six Edge,,,,,,
null,,html-keyboard-response,1649724,,<p></p>,,,,null,,,,,,,,,,,,,,,,,,,,
3002,,shortestpath_phase,1652730,,GW/newhope.png,,,,50,GW/carmel.png,GW/gatlinburg.png,1,0.6,,,,GW/gatlinburg.png,,,,,Three Edge Diff,Three Edge Six Edge,,,,,,
null,,html-keyboard-response,1653735,,<p></p>,,,,null,,,,,,,,,,,,,,,,,,,,
2570.300000011921,,shortestpath_phase,1656309,,GW/huntsville.png,,,,49,GW/shreveport.png,GW/carmel.png,1,0.6052631578947368,,,,GW/shreveport.png,,,,,One Edge Diff,Five Edge Six Edge,,,,,,
null,,html-keyboard-response,1657317,,<p></p>,,,,null,,,,,,,,,,,,,,,,,,,,
4253,,shortestpath_phase,1661572,,GW/peoria.png,,,,49,GW/newhope.png,GW/racine.png,0,0.5974025974025974,,,,GW/racine.png,,,,,One Edge Diff,Two Edge Three Edge,,,,,,
null,,html-keyboard-response,1662578,,<p></p>,,,,null,,,,,,,,,,,,,,,,,,,,
2405.6000000089407,,shortestpath_phase,1664986,,GW/huntsville.png,,,,50,GW/hanover.png,GW/cornwall.png,0,0.5897435897435898,,,,GW/hanover.png,,,,,One Edge Diff,Two Edge Three Edge,,,,,,
null,,html-keyboard-response,1665988,,<p></p>,,,,null,,,,,,,,,,,,,,,,,,,,
2621.8999999910593,,shortestpath_phase,1668612,,GW/westpalmbeach.png,,,,50,GW/gatlinburg.png,GW/peoria.png,1,0.5949367088607594,,,,GW/peoria.png,,,,,Four Edge Diff,Two Edge Six Edge,,,,,,
null,,html-keyboard-response,1669617,,<p></p>,,,,null,,,,,,,,,,,,,,,,,,,,
2195.2999999970198,,shortestpath_phase,1671815,,GW/carmel.png,,,,49,GW/shreveport.png,GW/newhope.png,1,0.6,,,,GW/shreveport.png,,,,,Three Edge Diff,Three Edge Six Edge,,,,,,
null,,html-keyboard-response,1672820,,<p></p>,,,,null,,,,,,,,,,,,,,,,,,,,
2908.7000000029802,,shortestpath_phase,1675731,,GW/westpalmbeach.png,,,,49,GW/leesburg.png,GW/huntsville.png,1,0.6049382716049383,,,,GW/leesburg.png,,,,,Four Edge Diff,Two Edge Six Edge,,,,,,
null,,html-keyboard-response,1676735,,<p></p>,,,,null,,,,,,,,,,,,,,,,,,,,
2544.6000000089407,,shortestpath_phase,1679282,,GW/newhope.png,,,,50,GW/carmel.png,GW/boulder.png,1,0.6097560975609756,,,,GW/boulder.png,,,,,Three Edge Diff,Three Edge Six Edge,,,,,,
null,,html-keyboard-response,1680285,,<p></p>,,,,null,,,,,,,,,,,,,,,,,,,,
