rt,responses,trial_type,time_elapsed,sequence,stimulus,graphorder,button_pressed,response,key_press,stimulus_left,stimulus_right,accuracy,cumulative_accuracy,stimulus_down_left,stimulus_down_mid,stimulus_down_right,stimulus_correct,stimulus_short,stimulus_far,weighted_accuracy,missedtrial,condition,specific_pairs,imgL_ID,imgR_ID,linedress,linedressed,linedressed_detor,detour_trial
30980.60000000149,{worker_id:5e34325430e5263f0bebb32d},id_enter,30982,interleaved,replication,GW/shreveport.png; GW/leesburg.png; GW/boulder.png; GW/racine.png; GW/cornwall.png; GW/peoria.png; GW/hanover.png; GW/huntsville.png; GW/hotsprings.png; GW/carmel.png; GW/newhope.png; GW/westpalmbeach.png; GW/gatlinburg.png,,,,,,,,,,,,,,,,,,,,,,,
53184.29999999702,,fullscreen,84168,,fullscreen,,0,,,,,,,,,,,,,,,,,,,,,,
260541.70000000298,,intro_1,344711,,instruct,,0,,,,,,,,,,,,,,,,,,,,,,
15221.19999999553,,intro_2,359933,,instruct,,1,Next,,,,,,,,,,,,,,,,,,,,,
13884.60000000149,,intro_3,373818,,instruct,,1,Next,,,,,,,,,,,,,,,,,,,,,
null,,learn_prac_1,376820,,lean_prac_1,,,,null,,,,,,,,,,,,,,,,,,,,
null,,html-keyboard-response,377823,,<p></p>,,,,null,,,,,,,,,,,,,,,,,,,,
7808.19999999553,,intro_1,385632,,instruct,,0,,,,,,,,,,,,,,,,,,,,,,
2571.6999999955297,,intro_2,388204,,instruct,,1,Next,,,,,,,,,,,,,,,,,,,,,
null,,learn_prac_2,391205,,lean_prac_2,,,,null,,,,,,,,,,,,,,,,,,,,
null,,html-keyboard-response,392206,,<p></p>,,,,null,,,,,,,,,,,,,,,,,,,,
1277.8999999985099,,intro_1,393485,,instruct,,0,,,,,,,,,,,,,,,,,,,,,,
1067.3000000044703,,intro_2,394553,,instruct,,1,Next,,,,,,,,,,,,,,,,,,,,,
238548,,intro_3,633102,,instruct,,1,Next,,,,,,,,,,,,,,,,,,,,,
null,,prac_atten_color_black,634045,,black_plus_sign,,,,null,,,,,,,,,,,,,,,,,,,,
null,,prac_atten_color,634505,,prac_stop_color,,,,null,,,,,,,,,,,,,,,,,,,,
null,,prac_atten_color_black,636505,,black_plus_sign,,,,null,,,,,,,,,,,,,,,,,,,,
15557.80000000447,,attentioncheck_help,652064,,instruct,,,,32,,,,,,,,,,,,,,,,,,,,
null,,prac_atten_color_black,653007,,black_plus_sign,,,,null,,,,,,,,,,,,,,,,,,,,
null,,prac_atten_color,653563,,prac_stop_color,,,,null,,,,,,,,,,,,,,,,,,,,
549.1000000014901,,prac_atten_color_black,655563,,black_plus_sign,,,,50,,,,,,,,,,,,,,,,,,,,
null,,prac_atten_color_black,656410,,black_plus_sign,,,,null,,,,,,,,,,,,,,,,,,,,
null,,prac_atten_color,657377,,prac_stop_color,,,,null,,,,,,,,,,,,,,,,,,,,
254.89999999850988,,prac_atten_color_black,659377,,black_plus_sign,,,,50,,,,,,,,,,,,,,,,,,,,
null,,prac_atten_color_black,659814,,black_plus_sign,,,,null,,,,,,,,,,,,,,,,,,,,
null,,prac_atten_color,660426,,prac_stop_color,,,,null,,,,,,,,,,,,,,,,,,,,
391.1000000014901,,prac_atten_color_black,662427,,black_plus_sign,,,,49,,,,,,,,,,,,,,,,,,,,
null,,prac_atten_color_black,663218,,black_plus_sign,,,,null,,,,,,,,,,,,,,,,,,,,
919.1000000014901,,prac_atten_color,664170,,prac_stop_color,,,,50,,,,,,,,,,,,,,,,,,,,
null,,prac_atten_color_black,666172,,black_plus_sign,,,,null,,,,,,,,,,,,,,,,,,,,
null,,prac_atten_color_black,666623,,black_plus_sign,,,,null,,,,,,,,,,,,,,,,,,,,
770.5,,prac_atten_color,667671,,prac_stop_color,,,,50,,,,,,,,,,,,,,,,,,,,
null,,prac_atten_color_black,669672,,black_plus_sign,,,,null,,,,,,,,,,,,,,,,,,,,
null,,prac_atten_color_black,670027,,black_plus_sign,,,,null,,,,,,,,,,,,,,,,,,,,
782.6999999955297,,prac_atten_color,670885,,prac_stop_color,,,,49,,,,,,,,,,,,,,,,,,,,
null,,prac_atten_color_black,672887,,black_plus_sign,,,,null,,,,,,,,,,,,,,,,,,,,
null,,prac_atten_color_black,673431,,black_plus_sign,,,,null,,,,,,,,,,,,,,,,,,,,
null,,prac_atten_color,674098,,prac_stop_color,,,,null,,,,,,,,,,,,,,,,,,,,
0.3999999985098839,,prac_atten_color_black,676100,,black_plus_sign,,,,50,,,,,,,,,,,,,,,,,,,,
null,,prac_atten_color_black,676837,,black_plus_sign,,,,null,,,,,,,,,,,,,,,,,,,,
598.2999999970198,,prac_atten_color,677597,,prac_stop_color,,,,49,,,,,,,,,,,,,,,,,,,,
null,,prac_atten_color_black,679598,,black_plus_sign,,,,null,,,,,,,,,,,,,,,,,,,,
null,,prac_atten_color_black,680239,,black_plus_sign,,,,null,,,,,,,,,,,,,,,,,,,,
null,,prac_atten_color,681265,,prac_stop_color,,,,null,,,,,,,,,,,,,,,,,,,,
65.89999999850988,,prac_atten_color_black,683266,,black_plus_sign,,,,49,,,,,,,,,,,,,,,,,,,,
21679.60000000149,,attentioncheck_feedback,704947,,cross_check_feedback,,0,,,,,,,,,,,,,,,,,,,,,,
36719.79999999702,,last_instruct,741667,,instruct,,,,32,,,,,,,,,,,,,,,,,,,,
null,,learn_phase(without_color),744668,,black_plus_sign,,,,null,GW/peoria.png,GW/hanover.png,,,,,,,,,,,,,,,,,,
null,,black_cross(without_color),745630,,yellow,,,,null,GW/peoria.png,GW/hanover.png,,,,,,,,,,,,,,,,,,
null,,rt_plussign_withcolor,746131,,yellow,,,,null,GW/peoria.png,GW/hanover.png,,,,,,,,,,,,,,,,,,
1644.7999999970198,,rt_thecrossant_black,747171,,black_plus_sign,,,,50,,,1,1,,,,,,,,,,,,,,,,
null,,color_black,747272,,black_plus_sign,,,,null,,,,,,,,,,,,,,,,,,,,
null,,learn_phase(without_color),750274,,black_plus_sign,,,,null,GW/leesburg.png,GW/shreveport.png,,,,,,,,,,,,,,,,,,
null,,black_cross(without_color),750902,,yellow,,,,null,GW/leesburg.png,GW/shreveport.png,,,,,,,,,,,,,,,,,,
null,,rt_plussign_withcolor,751402,,yellow,,,,null,GW/leesburg.png,GW/shreveport.png,,,,,,,,,,,,,,,,,,
1499.2000000029802,,rt_thecrossant_black,752779,,black_plus_sign,,,,50,,,1,1,,,,,,,,,,,,,,,,
null,,color_black,752880,,black_plus_sign,,,,null,,,,,,,,,,,,,,,,,,,,
null,,learn_phase(without_color),755881,,black_plus_sign,,,,null,GW/westpalmbeach.png,GW/racine.png,,,,,,,,,,,,,,,,,,
null,,black_cross(without_color),756913,,yellow,,,,null,GW/westpalmbeach.png,GW/racine.png,,,,,,,,,,,,,,,,,,
null,,rt_plussign_withcolor,757415,,yellow,,,,null,GW/westpalmbeach.png,GW/racine.png,,,,,,,,,,,,,,,,,,
1043.5,,rt_thecrossant_black,758385,,black_plus_sign,,,,50,,,1,1,,,,,,,,,,,,,,,,
null,,color_black,758486,,black_plus_sign,,,,null,,,,,,,,,,,,,,,,,,,,
null,,learn_phase(without_color),761488,,black_plus_sign,,,,null,GW/hanover.png,GW/huntsville.png,,,,,,,,,,,,,,,,,,
null,,black_cross(without_color),762558,,yellow,,,,null,GW/hanover.png,GW/huntsville.png,,,,,,,,,,,,,,,,,,
null,,rt_plussign_withcolor,763060,,yellow,,,,null,GW/hanover.png,GW/huntsville.png,,,,,,,,,,,,,,,,,,
1411.3999999985099,,rt_thecrossant_black,763992,,black_plus_sign,,,,50,,,1,1,,,,,,,,,,,,,,,,
null,,color_black,764092,,black_plus_sign,,,,null,,,,,,,,,,,,,,,,,,,,
null,,learn_phase(without_color),767094,,black_plus_sign,,,,null,GW/peoria.png,GW/boulder.png,,,,,,,,,,,,,,,,,,
null,,black_cross(without_color),767686,,blue,,,,null,GW/peoria.png,GW/boulder.png,,,,,,,,,,,,,,,,,,
null,,rt_plussign_withcolor,768187,,blue,,,,null,GW/peoria.png,GW/boulder.png,,,,,,,,,,,,,,,,,,
1467.2999999970198,,rt_thecrossant_black,769603,,black_plus_sign,,,,50,,,0,0.8,,,,,,,,,,,,,,,,
null,,color_black,769707,,black_plus_sign,,,,null,,,,,,,,,,,,,,,,,,,,
null,,learn_phase(without_color),772708,,black_plus_sign,,,,null,GW/boulder.png,GW/newhope.png,,,,,,,,,,,,,,,,,,
null,,black_cross(without_color),773552,,blue,,,,null,GW/boulder.png,GW/newhope.png,,,,,,,,,,,,,,,,,,
null,,rt_plussign_withcolor,774053,,blue,,,,null,GW/boulder.png,GW/newhope.png,,,,,,,,,,,,,,,,,,
900.5,,rt_thecrossant_black,775211,,black_plus_sign,,,,49,,,1,0.8333333333333334,,,,,,,,,,,,,,,,
null,,color_black,775312,,black_plus_sign,,,,null,,,,,,,,,,,,,,,,,,,,
null,,learn_phase(without_color),778313,,black_plus_sign,,,,null,GW/racine.png,GW/leesburg.png,,,,,,,,,,,,,,,,,,
null,,black_cross(without_color),778987,,yellow,,,,null,GW/racine.png,GW/leesburg.png,,,,,,,,,,,,,,,,,,
null,,rt_plussign_withcolor,779489,,yellow,,,,null,GW/racine.png,GW/leesburg.png,,,,,,,,,,,,,,,,,,
1276.8999999985099,,rt_thecrossant_black,780818,,black_plus_sign,,,,50,,,1,0.8571428571428571,,,,,,,,,,,,,,,,
null,,color_black,780921,,black_plus_sign,,,,null,,,,,,,,,,,,,,,,,,,,
null,,learn_phase(without_color),783922,,black_plus_sign,,,,null,GW/newhope.png,GW/hotsprings.png,,,,,,,,,,,,,,,,,,
null,,black_cross(without_color),784821,,blue,,,,null,GW/newhope.png,GW/hotsprings.png,,,,,,,,,,,,,,,,,,
null,,rt_plussign_withcolor,785322,,blue,,,,null,GW/newhope.png,GW/hotsprings.png,,,,,,,,,,,,,,,,,,
1265.8999999985099,,rt_thecrossant_black,786426,,black_plus_sign,,,,49,,,1,0.875,,,,,,,,,,,,,,,,
null,,color_black,786527,,black_plus_sign,,,,null,,,,,,,,,,,,,,,,,,,,
null,,learn_phase(without_color),789529,,black_plus_sign,,,,null,GW/leesburg.png,GW/boulder.png,,,,,,,,,,,,,,,,,,
null,,black_cross(without_color),790084,,blue,,,,null,GW/leesburg.png,GW/boulder.png,,,,,,,,,,,,,,,,,,
null,,rt_plussign_withcolor,790586,,blue,,,,null,GW/leesburg.png,GW/boulder.png,,,,,,,,,,,,,,,,,,
1442.6000000014901,,rt_thecrossant_black,792035,,black_plus_sign,,,,49,,,1,0.8888888888888888,,,,,,,,,,,,,,,,
null,,color_black,792135,,black_plus_sign,,,,null,,,,,,,,,,,,,,,,,,,,
null,,learn_phase(without_color),795137,,black_plus_sign,,,,null,GW/boulder.png,GW/leesburg.png,,,,,,,,,,,,,,,,,,
null,,black_cross(without_color),795705,,yellow,,,,null,GW/boulder.png,GW/leesburg.png,,,,,,,,,,,,,,,,,,
null,,rt_plussign_withcolor,796207,,yellow,,,,null,GW/boulder.png,GW/leesburg.png,,,,,,,,,,,,,,,,,,
1743.5,,rt_thecrossant_black,797641,,black_plus_sign,,,,50,,,1,0.9,,,,,,,,,,,,,,,,
null,,color_black,797743,,black_plus_sign,,,,null,,,,,,,,,,,,,,,,,,,,
null,,learn_phase(without_color),800744,,black_plus_sign,,,,null,GW/hotsprings.png,GW/newhope.png,,,,,,,,,,,,,,,,,,
null,,black_cross(without_color),801442,,yellow,,,,null,GW/hotsprings.png,GW/newhope.png,,,,,,,,,,,,,,,,,,
null,,rt_plussign_withcolor,801943,,yellow,,,,null,GW/hotsprings.png,GW/newhope.png,,,,,,,,,,,,,,,,,,
1117.0999999940395,,rt_thecrossant_black,803248,,black_plus_sign,,,,50,,,1,0.9090909090909091,,,,,,,,,,,,,,,,
null,,color_black,803349,,black_plus_sign,,,,null,,,,,,,,,,,,,,,,,,,,
null,,learn_phase(without_color),806350,,black_plus_sign,,,,null,GW/cornwall.png,GW/racine.png,,,,,,,,,,,,,,,,,,
null,,black_cross(without_color),807002,,blue,,,,null,GW/cornwall.png,GW/racine.png,,,,,,,,,,,,,,,,,,
null,,rt_plussign_withcolor,807503,,blue,,,,null,GW/cornwall.png,GW/racine.png,,,,,,,,,,,,,,,,,,
992.3999999985099,,rt_thecrossant_black,808855,,black_plus_sign,,,,49,,,1,0.9166666666666666,,,,,,,,,,,,,,,,
null,,color_black,808955,,black_plus_sign,,,,null,,,,,,,,,,,,,,,,,,,,
null,,learn_phase(without_color),811956,,black_plus_sign,,,,null,GW/cornwall.png,GW/racine.png,,,,,,,,,,,,,,,,,,
null,,black_cross(without_color),812383,,yellow,,,,null,GW/cornwall.png,GW/racine.png,,,,,,,,,,,,,,,,,,
null,,rt_plussign_withcolor,812885,,yellow,,,,null,GW/cornwall.png,GW/racine.png,,,,,,,,,,,,,,,,,,
932.2999999970198,,rt_thecrossant_black,814460,,black_plus_sign,,,,50,,,1,0.9230769230769231,,,,,,,,,,,,,,,,
null,,color_black,814561,,black_plus_sign,,,,null,,,,,,,,,,,,,,,,,,,,
null,,learn_phase(without_color),817563,,black_plus_sign,,,,null,GW/hanover.png,GW/peoria.png,,,,,,,,,,,,,,,,,,
null,,black_cross(without_color),818041,,blue,,,,null,GW/hanover.png,GW/peoria.png,,,,,,,,,,,,,,,,,,
null,,rt_plussign_withcolor,818542,,blue,,,,null,GW/hanover.png,GW/peoria.png,,,,,,,,,,,,,,,,,,
779.3000000044703,,rt_thecrossant_black,820066,,black_plus_sign,,,,49,,,1,0.9285714285714286,,,,,,,,,,,,,,,,
null,,color_black,820168,,black_plus_sign,,,,null,,,,,,,,,,,,,,,,,,,,
null,,learn_phase(without_color),823169,,black_plus_sign,,,,null,GW/hotsprings.png,GW/hanover.png,,,,,,,,,,,,,,,,,,
null,,black_cross(without_color),824255,,blue,,,,null,GW/hotsprings.png,GW/hanover.png,,,,,,,,,,,,,,,,,,
null,,rt_plussign_withcolor,824755,,blue,,,,null,GW/hotsprings.png,GW/hanover.png,,,,,,,,,,,,,,,,,,
746,,rt_thecrossant_black,825672,,black_plus_sign,,,,49,,,1,0.9333333333333333,,,,,,,,,,,,,,,,
null,,color_black,825773,,black_plus_sign,,,,null,,,,,,,,,,,,,,,,,,,,
null,,learn_phase(without_color),828774,,black_plus_sign,,,,null,GW/hotsprings.png,GW/peoria.png,,,,,,,,,,,,,,,,,,
null,,black_cross(without_color),829837,,blue,,,,null,GW/hotsprings.png,GW/peoria.png,,,,,,,,,,,,,,,,,,
null,,rt_plussign_withcolor,830338,,blue,,,,null,GW/hotsprings.png,GW/peoria.png,,,,,,,,,,,,,,,,,,
1412.5,,rt_thecrossant_black,831277,,black_plus_sign,,,,49,,,1,0.9375,,,,,,,,,,,,,,,,
null,,color_black,831379,,black_plus_sign,,,,null,,,,,,,,,,,,,,,,,,,,
null,,learn_phase(without_color),834380,,black_plus_sign,,,,null,GW/boulder.png,GW/newhope.png,,,,,,,,,,,,,,,,,,
null,,black_cross(without_color),835061,,blue,,,,null,GW/boulder.png,GW/newhope.png,,,,,,,,,,,,,,,,,,
null,,rt_plussign_withcolor,835562,,blue,,,,null,GW/boulder.png,GW/newhope.png,,,,,,,,,,,,,,,,,,
1260.3000000044703,,rt_thecrossant_black,836884,,black_plus_sign,,,,49,,,1,0.9411764705882353,,,,,,,,,,,,,,,,
null,,color_black,836985,,black_plus_sign,,,,null,,,,,,,,,,,,,,,,,,,,
null,,learn_phase(without_color),839986,,black_plus_sign,,,,null,GW/hotsprings.png,GW/peoria.png,,,,,,,,,,,,,,,,,,
null,,black_cross(without_color),841017,,yellow,,,,null,GW/hotsprings.png,GW/peoria.png,,,,,,,,,,,,,,,,,,
null,,rt_plussign_withcolor,841518,,yellow,,,,null,GW/hotsprings.png,GW/peoria.png,,,,,,,,,,,,,,,,,,
956.2000000029802,,rt_thecrossant_black,842490,,black_plus_sign,,,,50,,,1,0.9444444444444444,,,,,,,,,,,,,,,,
null,,color_black,842592,,black_plus_sign,,,,null,,,,,,,,,,,,,,,,,,,,
null,,learn_phase(without_color),845594,,black_plus_sign,,,,null,GW/leesburg.png,GW/racine.png,,,,,,,,,,,,,,,,,,
null,,black_cross(without_color),846418,,blue,,,,null,GW/leesburg.png,GW/racine.png,,,,,,,,,,,,,,,,,,
null,,rt_plussign_withcolor,846918,,blue,,,,null,GW/leesburg.png,GW/racine.png,,,,,,,,,,,,,,,,,,
1162.7000000029802,,rt_thecrossant_black,848097,,black_plus_sign,,,,49,,,1,0.9473684210526315,,,,,,,,,,,,,,,,
null,,color_black,848211,,black_plus_sign,,,,null,,,,,,,,,,,,,,,,,,,,
null,,learn_phase(without_color),851212,,black_plus_sign,,,,null,GW/hotsprings.png,GW/huntsville.png,,,,,,,,,,,,,,,,,,
null,,black_cross(without_color),851626,,yellow,,,,null,GW/hotsprings.png,GW/huntsville.png,,,,,,,,,,,,,,,,,,
null,,rt_plussign_withcolor,852128,,yellow,,,,null,GW/hotsprings.png,GW/huntsville.png,,,,,,,,,,,,,,,,,,
1114.5999999940395,,rt_thecrossant_black,853719,,black_plus_sign,,,,50,,,1,0.95,,,,,,,,,,,,,,,,
null,,color_black,853821,,black_plus_sign,,,,null,,,,,,,,,,,,,,,,,,,,
null,,learn_phase(without_color),856822,,black_plus_sign,,,,null,GW/hanover.png,GW/peoria.png,,,,,,,,,,,,,,,,,,
null,,black_cross(without_color),857453,,yellow,,,,null,GW/hanover.png,GW/peoria.png,,,,,,,,,,,,,,,,,,
null,,rt_plussign_withcolor,857955,,yellow,,,,null,GW/hanover.png,GW/peoria.png,,,,,,,,,,,,,,,,,,
795.2000000029802,,rt_thecrossant_black,859327,,black_plus_sign,,,,50,,,1,0.9523809523809523,,,,,,,,,,,,,,,,
null,,color_black,859429,,black_plus_sign,,,,null,,,,,,,,,,,,,,,,,,,,
null,,learn_phase(without_color),862430,,black_plus_sign,,,,null,GW/leesburg.png,GW/boulder.png,,,,,,,,,,,,,,,,,,
null,,black_cross(without_color),863403,,blue,,,,null,GW/leesburg.png,GW/boulder.png,,,,,,,,,,,,,,,,,,
null,,rt_plussign_withcolor,863912,,blue,,,,null,GW/leesburg.png,GW/boulder.png,,,,,,,,,,,,,,,,,,
746.2000000029802,,rt_thecrossant_black,864942,,black_plus_sign,,,,49,,,1,0.9545454545454546,,,,,,,,,,,,,,,,
null,,color_black,865044,,black_plus_sign,,,,null,,,,,,,,,,,,,,,,,,,,
null,,learn_phase(without_color),868046,,black_plus_sign,,,,null,GW/huntsville.png,GW/hanover.png,,,,,,,,,,,,,,,,,,
null,,black_cross(without_color),868851,,yellow,,,,null,GW/huntsville.png,GW/hanover.png,,,,,,,,,,,,,,,,,,
null,,rt_plussign_withcolor,869352,,yellow,,,,null,GW/huntsville.png,GW/hanover.png,,,,,,,,,,,,,,,,,,
1274.2000000029802,,rt_thecrossant_black,870549,,black_plus_sign,,,,50,,,1,0.9565217391304348,,,,,,,,,,,,,,,,
null,,color_black,870650,,black_plus_sign,,,,null,,,,,,,,,,,,,,,,,,,,
null,,learn_phase(without_color),873652,,black_plus_sign,,,,null,GW/leesburg.png,GW/racine.png,,,,,,,,,,,,,,,,,,
null,,black_cross(without_color),874244,,blue,,,,null,GW/leesburg.png,GW/racine.png,,,,,,,,,,,,,,,,,,
null,,rt_plussign_withcolor,874746,,blue,,,,null,GW/leesburg.png,GW/racine.png,,,,,,,,,,,,,,,,,,
1088.5,,rt_thecrossant_black,876156,,black_plus_sign,,,,49,,,1,0.9583333333333334,,,,,,,,,,,,,,,,
null,,color_black,876259,,black_plus_sign,,,,null,,,,,,,,,,,,,,,,,,,,
null,,learn_phase(without_color),879260,,black_plus_sign,,,,null,GW/newhope.png,GW/westpalmbeach.png,,,,,,,,,,,,,,,,,,
null,,black_cross(without_color),879898,,blue,,,,null,GW/newhope.png,GW/westpalmbeach.png,,,,,,,,,,,,,,,,,,
null,,rt_plussign_withcolor,880399,,blue,,,,null,GW/newhope.png,GW/westpalmbeach.png,,,,,,,,,,,,,,,,,,
693.3999999985099,,rt_thecrossant_black,881764,,black_plus_sign,,,,49,,,1,0.96,,,,,,,,,,,,,,,,
null,,color_black,881865,,black_plus_sign,,,,null,,,,,,,,,,,,,,,,,,,,
null,,learn_phase(without_color),884868,,black_plus_sign,,,,null,GW/boulder.png,GW/leesburg.png,,,,,,,,,,,,,,,,,,
null,,black_cross(without_color),885490,,yellow,,,,null,GW/boulder.png,GW/leesburg.png,,,,,,,,,,,,,,,,,,
null,,rt_plussign_withcolor,885991,,yellow,,,,null,GW/boulder.png,GW/leesburg.png,,,,,,,,,,,,,,,,,,
869.1000000014901,,rt_thecrossant_black,887370,,black_plus_sign,,,,50,,,1,0.9615384615384616,,,,,,,,,,,,,,,,
null,,color_black,887472,,black_plus_sign,,,,null,,,,,,,,,,,,,,,,,,,,
null,,learn_phase(without_color),890474,,black_plus_sign,,,,null,GW/peoria.png,GW/hotsprings.png,,,,,,,,,,,,,,,,,,
null,,black_cross(without_color),891120,,blue,,,,null,GW/peoria.png,GW/hotsprings.png,,,,,,,,,,,,,,,,,,
null,,rt_plussign_withcolor,891621,,blue,,,,null,GW/peoria.png,GW/hotsprings.png,,,,,,,,,,,,,,,,,,
880.7999999970198,,rt_thecrossant_black,892978,,black_plus_sign,,,,49,,,1,0.9629629629629629,,,,,,,,,,,,,,,,
null,,color_black,893079,,black_plus_sign,,,,null,,,,,,,,,,,,,,,,,,,,
null,,learn_phase(without_color),896081,,black_plus_sign,,,,null,GW/shreveport.png,GW/leesburg.png,,,,,,,,,,,,,,,,,,
null,,black_cross(without_color),897055,,blue,,,,null,GW/shreveport.png,GW/leesburg.png,,,,,,,,,,,,,,,,,,
null,,rt_plussign_withcolor,897556,,blue,,,,null,GW/shreveport.png,GW/leesburg.png,,,,,,,,,,,,,,,,,,
777.6000000014901,,rt_thecrossant_black,898585,,black_plus_sign,,,,49,,,1,0.9642857142857143,,,,,,,,,,,,,,,,
null,,color_black,898687,,black_plus_sign,,,,null,,,,,,,,,,,,,,,,,,,,
null,,learn_phase(without_color),901688,,black_plus_sign,,,,null,GW/peoria.png,GW/boulder.png,,,,,,,,,,,,,,,,,,
null,,black_cross(without_color),902132,,yellow,,,,null,GW/peoria.png,GW/boulder.png,,,,,,,,,,,,,,,,,,
null,,rt_plussign_withcolor,902633,,yellow,,,,null,GW/peoria.png,GW/boulder.png,,,,,,,,,,,,,,,,,,
1206,,rt_thecrossant_black,904191,,black_plus_sign,,,,50,,,1,0.9655172413793104,,,,,,,,,,,,,,,,
null,,color_black,904292,,black_plus_sign,,,,null,,,,,,,,,,,,,,,,,,,,
null,,learn_phase(without_color),907293,,black_plus_sign,,,,null,GW/gatlinburg.png,GW/hanover.png,,,,,,,,,,,,,,,,,,
null,,black_cross(without_color),908040,,yellow,,,,null,GW/gatlinburg.png,GW/hanover.png,,,,,,,,,,,,,,,,,,
null,,rt_plussign_withcolor,908541,,yellow,,,,null,GW/gatlinburg.png,GW/hanover.png,,,,,,,,,,,,,,,,,,
801.3000000044703,,rt_thecrossant_black,909808,,black_plus_sign,,,,50,,,1,0.9666666666666667,,,,,,,,,,,,,,,,
null,,color_black,909909,,black_plus_sign,,,,null,,,,,,,,,,,,,,,,,,,,
null,,learn_phase(without_color),912910,,black_plus_sign,,,,null,GW/gatlinburg.png,GW/hanover.png,,,,,,,,,,,,,,,,,,
null,,black_cross(without_color),913863,,blue,,,,null,GW/gatlinburg.png,GW/hanover.png,,,,,,,,,,,,,,,,,,
null,,rt_plussign_withcolor,914363,,blue,,,,null,GW/gatlinburg.png,GW/hanover.png,,,,,,,,,,,,,,,,,,
967,,rt_thecrossant_black,915413,,black_plus_sign,,,,49,,,1,0.967741935483871,,,,,,,,,,,,,,,,
null,,color_black,915514,,black_plus_sign,,,,null,,,,,,,,,,,,,,,,,,,,
null,,learn_phase(without_color),918516,,black_plus_sign,,,,null,GW/hanover.png,GW/hotsprings.png,,,,,,,,,,,,,,,,,,
null,,black_cross(without_color),918935,,yellow,,,,null,GW/hanover.png,GW/hotsprings.png,,,,,,,,,,,,,,,,,,
null,,rt_plussign_withcolor,919436,,yellow,,,,null,GW/hanover.png,GW/hotsprings.png,,,,,,,,,,,,,,,,,,
1494.1999999955297,,rt_thecrossant_black,921019,,black_plus_sign,,,,50,,,1,0.96875,,,,,,,,,,,,,,,,
null,,color_black,921120,,black_plus_sign,,,,null,,,,,,,,,,,,,,,,,,,,
null,,learn_phase(without_color),924121,,black_plus_sign,,,,null,GW/hanover.png,GW/hotsprings.png,,,,,,,,,,,,,,,,,,
null,,black_cross(without_color),925147,,blue,,,,null,GW/hanover.png,GW/hotsprings.png,,,,,,,,,,,,,,,,,,
null,,rt_plussign_withcolor,925648,,blue,,,,null,GW/hanover.png,GW/hotsprings.png,,,,,,,,,,,,,,,,,,
806.3999999985099,,rt_thecrossant_black,926625,,black_plus_sign,,,,49,,,1,0.9696969696969697,,,,,,,,,,,,,,,,
null,,color_black,926727,,black_plus_sign,,,,null,,,,,,,,,,,,,,,,,,,,
null,,learn_phase(without_color),929730,,black_plus_sign,,,,null,GW/hanover.png,GW/hotsprings.png,,,,,,,,,,,,,,,,,,
null,,black_cross(without_color),930326,,yellow,,,,null,GW/hanover.png,GW/hotsprings.png,,,,,,,,,,,,,,,,,,
null,,rt_plussign_withcolor,930827,,yellow,,,,null,GW/hanover.png,GW/hotsprings.png,,,,,,,,,,,,,,,,,,
1234.6000000014901,,rt_thecrossant_black,932234,,black_plus_sign,,,,50,,,1,0.9705882352941176,,,,,,,,,,,,,,,,
null,,color_black,932335,,black_plus_sign,,,,null,,,,,,,,,,,,,,,,,,,,
null,,learn_phase(without_color),935336,,black_plus_sign,,,,null,GW/racine.png,GW/westpalmbeach.png,,,,,,,,,,,,,,,,,,
null,,black_cross(without_color),936013,,yellow,,,,null,GW/racine.png,GW/westpalmbeach.png,,,,,,,,,,,,,,,,,,
null,,rt_plussign_withcolor,936515,,yellow,,,,null,GW/racine.png,GW/westpalmbeach.png,,,,,,,,,,,,,,,,,,
981,,rt_thecrossant_black,937840,,black_plus_sign,,,,50,,,1,0.9714285714285714,,,,,,,,,,,,,,,,
null,,color_black,937941,,black_plus_sign,,,,null,,,,,,,,,,,,,,,,,,,,
null,,learn_phase(without_color),940942,,black_plus_sign,,,,null,GW/newhope.png,GW/hotsprings.png,,,,,,,,,,,,,,,,,,
null,,black_cross(without_color),941535,,blue,,,,null,GW/newhope.png,GW/hotsprings.png,,,,,,,,,,,,,,,,,,
null,,rt_plussign_withcolor,942037,,blue,,,,null,GW/newhope.png,GW/hotsprings.png,,,,,,,,,,,,,,,,,,
917.8999999985099,,rt_thecrossant_black,943447,,black_plus_sign,,,,49,,,1,0.9722222222222222,,,,,,,,,,,,,,,,
null,,color_black,943562,,black_plus_sign,,,,null,,,,,,,,,,,,,,,,,,,,
null,,learn_phase(without_color),946564,,black_plus_sign,,,,null,GW/gatlinburg.png,GW/hanover.png,,,,,,,,,,,,,,,,,,
null,,black_cross(without_color),947346,,blue,,,,null,GW/gatlinburg.png,GW/hanover.png,,,,,,,,,,,,,,,,,,
null,,rt_plussign_withcolor,947847,,blue,,,,null,GW/gatlinburg.png,GW/hanover.png,,,,,,,,,,,,,,,,,,
910.8000000044703,,rt_thecrossant_black,949069,,black_plus_sign,,,,49,,,1,0.972972972972973,,,,,,,,,,,,,,,,
null,,color_black,949172,,black_plus_sign,,,,null,,,,,,,,,,,,,,,,,,,,
null,,learn_phase(without_color),952173,,black_plus_sign,,,,null,GW/hanover.png,GW/gatlinburg.png,,,,,,,,,,,,,,,,,,
null,,black_cross(without_color),953064,,yellow,,,,null,GW/hanover.png,GW/gatlinburg.png,,,,,,,,,,,,,,,,,,
null,,rt_plussign_withcolor,953565,,yellow,,,,null,GW/hanover.png,GW/gatlinburg.png,,,,,,,,,,,,,,,,,,
1071.3999999985099,,rt_thecrossant_black,954677,,black_plus_sign,,,,50,,,1,0.9736842105263158,,,,,,,,,,,,,,,,
null,,color_black,954778,,black_plus_sign,,,,null,,,,,,,,,,,,,,,,,,,,
null,,learn_phase(without_color),957780,,black_plus_sign,,,,null,GW/cornwall.png,GW/racine.png,,,,,,,,,,,,,,,,,,
null,,black_cross(without_color),958769,,yellow,,,,null,GW/cornwall.png,GW/racine.png,,,,,,,,,,,,,,,,,,
null,,rt_plussign_withcolor,959270,,yellow,,,,null,GW/cornwall.png,GW/racine.png,,,,,,,,,,,,,,,,,,
1227.8999999985099,,rt_thecrossant_black,960286,,black_plus_sign,,,,50,,,1,0.9743589743589743,,,,,,,,,,,,,,,,
null,,color_black,960387,,black_plus_sign,,,,null,,,,,,,,,,,,,,,,,,,,
null,,learn_phase(without_color),963388,,black_plus_sign,,,,null,GW/boulder.png,GW/newhope.png,,,,,,,,,,,,,,,,,,
null,,black_cross(without_color),963917,,blue,,,,null,GW/boulder.png,GW/newhope.png,,,,,,,,,,,,,,,,,,
null,,rt_plussign_withcolor,964419,,blue,,,,null,GW/boulder.png,GW/newhope.png,,,,,,,,,,,,,,,,,,
1226.7000000029802,,rt_thecrossant_black,965892,,black_plus_sign,,,,49,,,1,0.975,,,,,,,,,,,,,,,,
null,,color_black,965993,,black_plus_sign,,,,null,,,,,,,,,,,,,,,,,,,,
null,,learn_phase(without_color),968994,,black_plus_sign,,,,null,GW/leesburg.png,GW/racine.png,,,,,,,,,,,,,,,,,,
null,,black_cross(without_color),969434,,blue,,,,null,GW/leesburg.png,GW/racine.png,,,,,,,,,,,,,,,,,,
null,,rt_plussign_withcolor,969935,,blue,,,,null,GW/leesburg.png,GW/racine.png,,,,,,,,,,,,,,,,,,
842.4000000059605,,rt_thecrossant_black,971499,,black_plus_sign,,,,49,,,1,0.975609756097561,,,,,,,,,,,,,,,,
null,,color_black,971601,,black_plus_sign,,,,null,,,,,,,,,,,,,,,,,,,,
null,,learn_phase(without_color),974602,,black_plus_sign,,,,null,GW/racine.png,GW/leesburg.png,,,,,,,,,,,,,,,,,,
null,,black_cross(without_color),975376,,blue,,,,null,GW/racine.png,GW/leesburg.png,,,,,,,,,,,,,,,,,,
null,,rt_plussign_withcolor,975878,,blue,,,,null,GW/racine.png,GW/leesburg.png,,,,,,,,,,,,,,,,,,
740.0999999940395,,rt_thecrossant_black,977107,,black_plus_sign,,,,49,,,1,0.9761904761904762,,,,,,,,,,,,,,,,
null,,color_black,977209,,black_plus_sign,,,,null,,,,,,,,,,,,,,,,,,,,
null,,learn_phase(without_color),980211,,black_plus_sign,,,,null,GW/newhope.png,GW/boulder.png,,,,,,,,,,,,,,,,,,
null,,black_cross(without_color),981224,,yellow,,,,null,GW/newhope.png,GW/boulder.png,,,,,,,,,,,,,,,,,,
null,,rt_plussign_withcolor,981725,,yellow,,,,null,GW/newhope.png,GW/boulder.png,,,,,,,,,,,,,,,,,,
1234.8000000044703,,rt_thecrossant_black,982714,,black_plus_sign,,,,50,,,1,0.9767441860465116,,,,,,,,,,,,,,,,
null,,color_black,982815,,black_plus_sign,,,,null,,,,,,,,,,,,,,,,,,,,
null,,learn_phase(without_color),985817,,black_plus_sign,,,,null,GW/westpalmbeach.png,GW/newhope.png,,,,,,,,,,,,,,,,,,
null,,black_cross(without_color),986697,,yellow,,,,null,GW/westpalmbeach.png,GW/newhope.png,,,,,,,,,,,,,,,,,,
null,,rt_plussign_withcolor,987198,,yellow,,,,null,GW/westpalmbeach.png,GW/newhope.png,,,,,,,,,,,,,,,,,,
1570,,rt_thecrossant_black,988320,,black_plus_sign,,,,50,,,1,0.9772727272727273,,,,,,,,,,,,,,,,
null,,color_black,988421,,black_plus_sign,,,,null,,,,,,,,,,,,,,,,,,,,
null,,learn_phase(without_color),991422,,black_plus_sign,,,,null,GW/huntsville.png,GW/carmel.png,,,,,,,,,,,,,,,,,,
null,,black_cross(without_color),992266,,blue,,,,null,GW/huntsville.png,GW/carmel.png,,,,,,,,,,,,,,,,,,
null,,rt_plussign_withcolor,992768,,blue,,,,null,GW/huntsville.png,GW/carmel.png,,,,,,,,,,,,,,,,,,
1698.9000000059605,,rt_thecrossant_black,993927,,black_plus_sign,,,,49,,,1,0.9777777777777777,,,,,,,,,,,,,,,,
null,,color_black,994029,,black_plus_sign,,,,null,,,,,,,,,,,,,,,,,,,,
null,,learn_phase(without_color),997030,,black_plus_sign,,,,null,GW/huntsville.png,GW/hanover.png,,,,,,,,,,,,,,,,,,
null,,black_cross(without_color),997558,,blue,,,,null,GW/huntsville.png,GW/hanover.png,,,,,,,,,,,,,,,,,,
null,,rt_plussign_withcolor,998060,,blue,,,,null,GW/huntsville.png,GW/hanover.png,,,,,,,,,,,,,,,,,,
988.2999999970198,,rt_thecrossant_black,999535,,black_plus_sign,,,,49,,,1,0.9782608695652174,,,,,,,,,,,,,,,,
null,,color_black,999637,,black_plus_sign,,,,null,,,,,,,,,,,,,,,,,,,,
null,,learn_phase(without_color),1002638,,black_plus_sign,,,,null,GW/peoria.png,GW/hanover.png,,,,,,,,,,,,,,,,,,
null,,black_cross(without_color),1003357,,blue,,,,null,GW/peoria.png,GW/hanover.png,,,,,,,,,,,,,,,,,,
null,,rt_plussign_withcolor,1003858,,blue,,,,null,GW/peoria.png,GW/hanover.png,,,,,,,,,,,,,,,,,,
1001.7000000029802,,rt_thecrossant_black,1005143,,black_plus_sign,,,,49,,,1,0.9787234042553191,,,,,,,,,,,,,,,,
null,,color_black,1005244,,black_plus_sign,,,,null,,,,,,,,,,,,,,,,,,,,
null,,learn_phase(without_color),1008245,,black_plus_sign,,,,null,GW/hotsprings.png,GW/hanover.png,,,,,,,,,,,,,,,,,,
null,,black_cross(without_color),1008655,,blue,,,,null,GW/hotsprings.png,GW/hanover.png,,,,,,,,,,,,,,,,,,
null,,rt_plussign_withcolor,1009156,,blue,,,,null,GW/hotsprings.png,GW/hanover.png,,,,,,,,,,,,,,,,,,
943.2999999970198,,rt_thecrossant_black,1010749,,black_plus_sign,,,,49,,,1,0.9791666666666666,,,,,,,,,,,,,,,,
null,,color_black,1010850,,black_plus_sign,,,,null,,,,,,,,,,,,,,,,,,,,
null,,learn_phase(without_color),1013852,,black_plus_sign,,,,null,GW/hotsprings.png,GW/hanover.png,,,,,,,,,,,,,,,,,,
null,,black_cross(without_color),1014638,,blue,,,,null,GW/hotsprings.png,GW/hanover.png,,,,,,,,,,,,,,,,,,
null,,rt_plussign_withcolor,1015140,,blue,,,,null,GW/hotsprings.png,GW/hanover.png,,,,,,,,,,,,,,,,,,
722.8000000044703,,rt_thecrossant_black,1016357,,black_plus_sign,,,,49,,,1,0.9795918367346939,,,,,,,,,,,,,,,,
null,,color_black,1016458,,black_plus_sign,,,,null,,,,,,,,,,,,,,,,,,,,
null,,learn_phase(without_color),1019459,,black_plus_sign,,,,null,GW/racine.png,GW/westpalmbeach.png,,,,,,,,,,,,,,,,,,
null,,black_cross(without_color),1019901,,yellow,,,,null,GW/racine.png,GW/westpalmbeach.png,,,,,,,,,,,,,,,,,,
null,,rt_plussign_withcolor,1020402,,yellow,,,,null,GW/racine.png,GW/westpalmbeach.png,,,,,,,,,,,,,,,,,,
1135.2999999970198,,rt_thecrossant_black,1021964,,black_plus_sign,,,,50,,,1,0.98,,,,,,,,,,,,,,,,
null,,color_black,1022065,,black_plus_sign,,,,null,,,,,,,,,,,,,,,,,,,,
null,,learn_phase(without_color),1025066,,black_plus_sign,,,,null,GW/shreveport.png,GW/leesburg.png,,,,,,,,,,,,,,,,,,
null,,black_cross(without_color),1025562,,yellow,,,,null,GW/shreveport.png,GW/leesburg.png,,,,,,,,,,,,,,,,,,
null,,rt_plussign_withcolor,1026063,,yellow,,,,null,GW/shreveport.png,GW/leesburg.png,,,,,,,,,,,,,,,,,,
1009.3000000044703,,rt_thecrossant_black,1027571,,black_plus_sign,,,,50,,,1,0.9803921568627451,,,,,,,,,,,,,,,,
null,,color_black,1027673,,black_plus_sign,,,,null,,,,,,,,,,,,,,,,,,,,
null,,learn_phase(without_color),1030674,,black_plus_sign,,,,null,GW/peoria.png,GW/boulder.png,,,,,,,,,,,,,,,,,,
null,,black_cross(without_color),1031748,,blue,,,,null,GW/peoria.png,GW/boulder.png,,,,,,,,,,,,,,,,,,
null,,rt_plussign_withcolor,1032249,,blue,,,,null,GW/peoria.png,GW/boulder.png,,,,,,,,,,,,,,,,,,
941.5,,rt_thecrossant_black,1033178,,black_plus_sign,,,,49,,,1,0.9807692307692307,,,,,,,,,,,,,,,,
null,,color_black,1033280,,black_plus_sign,,,,null,,,,,,,,,,,,,,,,,,,,
null,,learn_phase(without_color),1036282,,black_plus_sign,,,,null,GW/westpalmbeach.png,GW/newhope.png,,,,,,,,,,,,,,,,,,
null,,black_cross(without_color),1037012,,blue,,,,null,GW/westpalmbeach.png,GW/newhope.png,,,,,,,,,,,,,,,,,,
null,,rt_plussign_withcolor,1037512,,blue,,,,null,GW/westpalmbeach.png,GW/newhope.png,,,,,,,,,,,,,,,,,,
1218.3999999985099,,rt_thecrossant_black,1038785,,black_plus_sign,,,,49,,,1,0.9811320754716981,,,,,,,,,,,,,,,,
null,,color_black,1038886,,black_plus_sign,,,,null,,,,,,,,,,,,,,,,,,,,
null,,learn_phase(without_color),1041888,,black_plus_sign,,,,null,GW/peoria.png,GW/hanover.png,,,,,,,,,,,,,,,,,,
null,,black_cross(without_color),1042879,,yellow,,,,null,GW/peoria.png,GW/hanover.png,,,,,,,,,,,,,,,,,,
null,,rt_plussign_withcolor,1043381,,yellow,,,,null,GW/peoria.png,GW/hanover.png,,,,,,,,,,,,,,,,,,
990.7999999970198,,rt_thecrossant_black,1044392,,black_plus_sign,,,,50,,,1,0.9814814814814815,,,,,,,,,,,,,,,,
null,,color_black,1044493,,black_plus_sign,,,,null,,,,,,,,,,,,,,,,,,,,
null,,learn_phase(without_color),1047494,,black_plus_sign,,,,null,GW/boulder.png,GW/peoria.png,,,,,,,,,,,,,,,,,,
null,,black_cross(without_color),1048237,,blue,,,,null,GW/boulder.png,GW/peoria.png,,,,,,,,,,,,,,,,,,
null,,rt_plussign_withcolor,1048738,,blue,,,,null,GW/boulder.png,GW/peoria.png,,,,,,,,,,,,,,,,,,
null,,rt_thecrossant_black,1049998,,black_plus_sign,,,,null,,,,0.9814814814814815,,,,,,,,,,,,,,,,
null,,color_black,1050100,,black_plus_sign,,,,null,,,,,,,,,,,,,,,,,,,,
null,,learn_phase(without_color),1053101,,black_plus_sign,,,,null,GW/leesburg.png,GW/racine.png,,,,,,,,,,,,,,,,,,
null,,black_cross(without_color),1054066,,yellow,,,,null,GW/leesburg.png,GW/racine.png,,,,,,,,,,,,,,,,,,
null,,rt_plussign_withcolor,1054567,,yellow,,,,null,GW/leesburg.png,GW/racine.png,,,,,,,,,,,,,,,,,,
1266.7000000029802,,rt_thecrossant_black,1055606,,black_plus_sign,,,,50,,,1,0.9818181818181818,,,,,,,,,,,,,,,,
null,,color_black,1055707,,black_plus_sign,,,,null,,,,,,,,,,,,,,,,,,,,
null,,learn_phase(without_color),1058709,,black_plus_sign,,,,null,GW/boulder.png,GW/peoria.png,,,,,,,,,,,,,,,,,,
null,,black_cross(without_color),1059662,,yellow,,,,null,GW/boulder.png,GW/peoria.png,,,,,,,,,,,,,,,,,,
null,,rt_plussign_withcolor,1060163,,yellow,,,,null,GW/boulder.png,GW/peoria.png,,,,,,,,,,,,,,,,,,
1628.5,,rt_thecrossant_black,1061213,,black_plus_sign,,,,50,,,1,0.9821428571428571,,,,,,,,,,,,,,,,
null,,color_black,1061314,,black_plus_sign,,,,null,,,,,,,,,,,,,,,,,,,,
null,,learn_phase(without_color),1064315,,black_plus_sign,,,,null,GW/peoria.png,GW/hanover.png,,,,,,,,,,,,,,,,,,
null,,black_cross(without_color),1064973,,yellow,,,,null,GW/peoria.png,GW/hanover.png,,,,,,,,,,,,,,,,,,
null,,rt_plussign_withcolor,1065475,,yellow,,,,null,GW/peoria.png,GW/hanover.png,,,,,,,,,,,,,,,,,,
1682.8999999985099,,rt_thecrossant_black,1066820,,black_plus_sign,,,,50,,,1,0.9824561403508771,,,,,,,,,,,,,,,,
null,,color_black,1066922,,black_plus_sign,,,,null,,,,,,,,,,,,,,,,,,,,
null,,learn_phase(without_color),1069924,,black_plus_sign,,,,null,GW/shreveport.png,GW/leesburg.png,,,,,,,,,,,,,,,,,,
null,,black_cross(without_color),1070821,,blue,,,,null,GW/shreveport.png,GW/leesburg.png,,,,,,,,,,,,,,,,,,
null,,rt_plussign_withcolor,1071322,,blue,,,,null,GW/shreveport.png,GW/leesburg.png,,,,,,,,,,,,,,,,,,
1181.2000000029802,,rt_thecrossant_black,1072428,,black_plus_sign,,,,49,,,1,0.9827586206896551,,,,,,,,,,,,,,,,
null,,color_black,1072530,,black_plus_sign,,,,null,,,,,,,,,,,,,,,,,,,,
null,,learn_phase(without_color),1075531,,black_plus_sign,,,,null,GW/racine.png,GW/cornwall.png,,,,,,,,,,,,,,,,,,
null,,black_cross(without_color),1076097,,blue,,,,null,GW/racine.png,GW/cornwall.png,,,,,,,,,,,,,,,,,,
null,,rt_plussign_withcolor,1076599,,blue,,,,null,GW/racine.png,GW/cornwall.png,,,,,,,,,,,,,,,,,,
1150.7000000029802,,rt_thecrossant_black,1078035,,black_plus_sign,,,,49,,,1,0.9830508474576272,,,,,,,,,,,,,,,,
null,,color_black,1078136,,black_plus_sign,,,,null,,,,,,,,,,,,,,,,,,,,
null,,learn_phase(without_color),1081137,,black_plus_sign,,,,null,GW/westpalmbeach.png,GW/racine.png,,,,,,,,,,,,,,,,,,
null,,black_cross(without_color),1081580,,blue,,,,null,GW/westpalmbeach.png,GW/racine.png,,,,,,,,,,,,,,,,,,
null,,rt_plussign_withcolor,1082080,,blue,,,,null,GW/westpalmbeach.png,GW/racine.png,,,,,,,,,,,,,,,,,,
907.8000000044703,,rt_thecrossant_black,1083641,,black_plus_sign,,,,49,,,1,0.9833333333333333,,,,,,,,,,,,,,,,
null,,color_black,1083742,,black_plus_sign,,,,null,,,,,,,,,,,,,,,,,,,,
null,,learn_phase(without_color),1086744,,black_plus_sign,,,,null,GW/boulder.png,GW/peoria.png,,,,,,,,,,,,,,,,,,
null,,black_cross(without_color),1087576,,blue,,,,null,GW/boulder.png,GW/peoria.png,,,,,,,,,,,,,,,,,,
null,,rt_plussign_withcolor,1088078,,blue,,,,null,GW/boulder.png,GW/peoria.png,,,,,,,,,,,,,,,,,,
null,,rt_thecrossant_black,1089249,,black_plus_sign,,,,null,,,,0.9833333333333333,,,,,,,,,,,,,,,,
null,,color_black,1089351,,black_plus_sign,,,,null,,,,,,,,,,,,,,,,,,,,
null,,learn_phase(without_color),1092351,,black_plus_sign,,,,null,GW/newhope.png,GW/boulder.png,,,,,,,,,,,,,,,,,,
null,,black_cross(without_color),1093430,,yellow,,,,null,GW/newhope.png,GW/boulder.png,,,,,,,,,,,,,,,,,,
null,,rt_plussign_withcolor,1093932,,yellow,,,,null,GW/newhope.png,GW/boulder.png,,,,,,,,,,,,,,,,,,
1068.0999999940395,,rt_thecrossant_black,1094856,,black_plus_sign,,,,50,,,1,0.9836065573770492,,,,,,,,,,,,,,,,
null,,color_black,1094957,,black_plus_sign,,,,null,,,,,,,,,,,,,,,,,,,,
null,,learn_phase(without_color),1097958,,black_plus_sign,,,,null,GW/hanover.png,GW/peoria.png,,,,,,,,,,,,,,,,,,
null,,black_cross(without_color),1098480,,blue,,,,null,GW/hanover.png,GW/peoria.png,,,,,,,,,,,,,,,,,,
null,,rt_plussign_withcolor,1098981,,blue,,,,null,GW/hanover.png,GW/peoria.png,,,,,,,,,,,,,,,,,,
1248.8000000044703,,rt_thecrossant_black,1100462,,black_plus_sign,,,,49,,,1,0.9838709677419355,,,,,,,,,,,,,,,,
null,,color_black,1100564,,black_plus_sign,,,,null,,,,,,,,,,,,,,,,,,,,
null,,learn_break,1160566,,learn_break,,,,null,,,,,,,,,,,,,,,,,,,,
null,,html-keyboard-response,1161567,,<p></p>,,,,null,,,,,,,,,,,,,,,,,,,,
null,,learn_phase(without_color),1164568,,black_plus_sign,,,,null,GW/hotsprings.png,GW/huntsville.png,,,,,,,,,,,,,,,,,,
null,,black_cross(without_color),1165249,,yellow,,,,null,GW/hotsprings.png,GW/huntsville.png,,,,,,,,,,,,,,,,,,
null,,rt_plussign_withcolor,1165750,,yellow,,,,null,GW/hotsprings.png,GW/huntsville.png,,,,,,,,,,,,,,,,,,
null,,rt_thecrossant_black,1167073,,black_plus_sign,,,,null,,,,0.9838709677419355,,,,,,,,,,,,,,,,
null,,color_black,1167173,,black_plus_sign,,,,null,,,,,,,,,,,,,,,,,,,,
null,,learn_phase(without_color),1170175,,black_plus_sign,,,,null,GW/boulder.png,GW/newhope.png,,,,,,,,,,,,,,,,,,
null,,black_cross(without_color),1170652,,yellow,,,,null,GW/boulder.png,GW/newhope.png,,,,,,,,,,,,,,,,,,
null,,rt_plussign_withcolor,1171153,,yellow,,,,null,GW/boulder.png,GW/newhope.png,,,,,,,,,,,,,,,,,,
1622.8000000044703,,rt_thecrossant_black,1172685,,black_plus_sign,,,,50,,,1,0.9841269841269841,,,,,,,,,,,,,,,,
null,,color_black,1172787,,black_plus_sign,,,,null,,,,,,,,,,,,,,,,,,,,
null,,learn_phase(without_color),1175788,,black_plus_sign,,,,null,GW/carmel.png,GW/huntsville.png,,,,,,,,,,,,,,,,,,
null,,black_cross(without_color),1176271,,blue,,,,null,GW/carmel.png,GW/huntsville.png,,,,,,,,,,,,,,,,,,
null,,rt_plussign_withcolor,1176772,,blue,,,,null,GW/carmel.png,GW/huntsville.png,,,,,,,,,,,,,,,,,,
940.3000000044703,,rt_thecrossant_black,1178292,,black_plus_sign,,,,49,,,1,0.984375,,,,,,,,,,,,,,,,
null,,color_black,1178394,,black_plus_sign,,,,null,,,,,,,,,,,,,,,,,,,,
null,,learn_phase(without_color),1181396,,black_plus_sign,,,,null,GW/hanover.png,GW/huntsville.png,,,,,,,,,,,,,,,,,,
null,,black_cross(without_color),1182119,,blue,,,,null,GW/hanover.png,GW/huntsville.png,,,,,,,,,,,,,,,,,,
null,,rt_plussign_withcolor,1182620,,blue,,,,null,GW/hanover.png,GW/huntsville.png,,,,,,,,,,,,,,,,,,
815.7000000029802,,rt_thecrossant_black,1183904,,black_plus_sign,,,,49,,,1,0.9846153846153847,,,,,,,,,,,,,,,,
null,,color_black,1184005,,black_plus_sign,,,,null,,,,,,,,,,,,,,,,,,,,
null,,learn_phase(without_color),1187006,,black_plus_sign,,,,null,GW/hanover.png,GW/gatlinburg.png,,,,,,,,,,,,,,,,,,
null,,black_cross(without_color),1187728,,yellow,,,,null,GW/hanover.png,GW/gatlinburg.png,,,,,,,,,,,,,,,,,,
null,,rt_plussign_withcolor,1188230,,yellow,,,,null,GW/hanover.png,GW/gatlinburg.png,,,,,,,,,,,,,,,,,,
1015.5999999940395,,rt_thecrossant_black,1189518,,black_plus_sign,,,,50,,,1,0.9848484848484849,,,,,,,,,,,,,,,,
null,,color_black,1189627,,black_plus_sign,,,,null,,,,,,,,,,,,,,,,,,,,
null,,learn_phase(without_color),1192629,,black_plus_sign,,,,null,GW/boulder.png,GW/leesburg.png,,,,,,,,,,,,,,,,,,
null,,black_cross(without_color),1193610,,blue,,,,null,GW/boulder.png,GW/leesburg.png,,,,,,,,,,,,,,,,,,
null,,rt_plussign_withcolor,1194111,,blue,,,,null,GW/boulder.png,GW/leesburg.png,,,,,,,,,,,,,,,,,,
1103.2999999970198,,rt_thecrossant_black,1195132,,black_plus_sign,,,,49,,,1,0.9850746268656716,,,,,,,,,,,,,,,,
null,,color_black,1195233,,black_plus_sign,,,,null,,,,,,,,,,,,,,,,,,,,
null,,learn_phase(without_color),1198235,,black_plus_sign,,,,null,GW/huntsville.png,GW/carmel.png,,,,,,,,,,,,,,,,,,
null,,black_cross(without_color),1198889,,yellow,,,,null,GW/huntsville.png,GW/carmel.png,,,,,,,,,,,,,,,,,,
null,,rt_plussign_withcolor,1199389,,yellow,,,,null,GW/huntsville.png,GW/carmel.png,,,,,,,,,,,,,,,,,,
1164.1000000014901,,rt_thecrossant_black,1200748,,black_plus_sign,,,,50,,,1,0.9852941176470589,,,,,,,,,,,,,,,,
null,,color_black,1200850,,black_plus_sign,,,,null,,,,,,,,,,,,,,,,,,,,
null,,learn_phase(without_color),1203851,,black_plus_sign,,,,null,GW/peoria.png,GW/boulder.png,,,,,,,,,,,,,,,,,,
null,,black_cross(without_color),1204802,,blue,,,,null,GW/peoria.png,GW/boulder.png,,,,,,,,,,,,,,,,,,
null,,rt_plussign_withcolor,1205304,,blue,,,,null,GW/peoria.png,GW/boulder.png,,,,,,,,,,,,,,,,,,
769.7000000029802,,rt_thecrossant_black,1206356,,black_plus_sign,,,,49,,,1,0.9855072463768116,,,,,,,,,,,,,,,,
null,,color_black,1206457,,black_plus_sign,,,,null,,,,,,,,,,,,,,,,,,,,
null,,learn_phase(without_color),1209458,,black_plus_sign,,,,null,GW/cornwall.png,GW/racine.png,,,,,,,,,,,,,,,,,,
null,,black_cross(without_color),1210181,,yellow,,,,null,GW/cornwall.png,GW/racine.png,,,,,,,,,,,,,,,,,,
null,,rt_plussign_withcolor,1210682,,yellow,,,,null,GW/cornwall.png,GW/racine.png,,,,,,,,,,,,,,,,,,
1426.3000000044703,,rt_thecrossant_black,1211964,,black_plus_sign,,,,50,,,1,0.9857142857142858,,,,,,,,,,,,,,,,
null,,color_black,1212065,,black_plus_sign,,,,null,,,,,,,,,,,,,,,,,,,,
null,,learn_phase(without_color),1215067,,black_plus_sign,,,,null,GW/boulder.png,GW/leesburg.png,,,,,,,,,,,,,,,,,,
null,,black_cross(without_color),1215741,,yellow,,,,null,GW/boulder.png,GW/leesburg.png,,,,,,,,,,,,,,,,,,
null,,rt_plussign_withcolor,1216242,,yellow,,,,null,GW/boulder.png,GW/leesburg.png,,,,,,,,,,,,,,,,,,
1293.8000000044703,,rt_thecrossant_black,1217571,,black_plus_sign,,,,49,,,0,0.971830985915493,,,,,,,,,,,,,,,,
null,,color_black,1217673,,black_plus_sign,,,,null,,,,,,,,,,,,,,,,,,,,
null,,learn_phase(without_color),1220674,,black_plus_sign,,,,null,GW/newhope.png,GW/hotsprings.png,,,,,,,,,,,,,,,,,,
null,,black_cross(without_color),1221372,,blue,,,,null,GW/newhope.png,GW/hotsprings.png,,,,,,,,,,,,,,,,,,
null,,rt_plussign_withcolor,1221873,,blue,,,,null,GW/newhope.png,GW/hotsprings.png,,,,,,,,,,,,,,,,,,
1311.7000000029802,,rt_thecrossant_black,1223178,,black_plus_sign,,,,49,,,1,0.9722222222222222,,,,,,,,,,,,,,,,
null,,color_black,1223280,,black_plus_sign,,,,null,,,,,,,,,,,,,,,,,,,,
null,,learn_phase(without_color),1226281,,black_plus_sign,,,,null,GW/gatlinburg.png,GW/hanover.png,,,,,,,,,,,,,,,,,,
null,,black_cross(without_color),1227240,,yellow,,,,null,GW/gatlinburg.png,GW/hanover.png,,,,,,,,,,,,,,,,,,
null,,rt_plussign_withcolor,1227740,,yellow,,,,null,GW/gatlinburg.png,GW/hanover.png,,,,,,,,,,,,,,,,,,
1005.3999999985099,,rt_thecrossant_black,1228785,,black_plus_sign,,,,50,,,1,0.9726027397260274,,,,,,,,,,,,,,,,
null,,color_black,1228888,,black_plus_sign,,,,null,,,,,,,,,,,,,,,,,,,,
null,,learn_phase(without_color),1231889,,black_plus_sign,,,,null,GW/westpalmbeach.png,GW/newhope.png,,,,,,,,,,,,,,,,,,
null,,black_cross(without_color),1232530,,yellow,,,,null,GW/westpalmbeach.png,GW/newhope.png,,,,,,,,,,,,,,,,,,
null,,rt_plussign_withcolor,1233032,,yellow,,,,null,GW/westpalmbeach.png,GW/newhope.png,,,,,,,,,,,,,,,,,,
1542.1000000014901,,rt_thecrossant_black,1234406,,black_plus_sign,,,,50,,,1,0.972972972972973,,,,,,,,,,,,,,,,
null,,color_black,1234506,,black_plus_sign,,,,null,,,,,,,,,,,,,,,,,,,,
null,,learn_phase(without_color),1237508,,black_plus_sign,,,,null,GW/hanover.png,GW/huntsville.png,,,,,,,,,,,,,,,,,,
null,,black_cross(without_color),1238506,,blue,,,,null,GW/hanover.png,GW/huntsville.png,,,,,,,,,,,,,,,,,,
null,,rt_plussign_withcolor,1239008,,blue,,,,null,GW/hanover.png,GW/huntsville.png,,,,,,,,,,,,,,,,,,
1193.5999999940395,,rt_thecrossant_black,1240012,,black_plus_sign,,,,49,,,1,0.9733333333333334,,,,,,,,,,,,,,,,
null,,color_black,1240113,,black_plus_sign,,,,null,,,,,,,,,,,,,,,,,,,,
null,,learn_phase(without_color),1243115,,black_plus_sign,,,,null,GW/peoria.png,GW/boulder.png,,,,,,,,,,,,,,,,,,
null,,black_cross(without_color),1243613,,blue,,,,null,GW/peoria.png,GW/boulder.png,,,,,,,,,,,,,,,,,,
null,,rt_plussign_withcolor,1244129,,blue,,,,null,GW/peoria.png,GW/boulder.png,,,,,,,,,,,,,,,,,,
1550.5,,rt_thecrossant_black,1245634,,black_plus_sign,,,,49,,,1,0.9736842105263158,,,,,,,,,,,,,,,,
null,,color_black,1245736,,black_plus_sign,,,,null,,,,,,,,,,,,,,,,,,,,
null,,learn_phase(without_color),1248738,,black_plus_sign,,,,null,GW/hanover.png,GW/huntsville.png,,,,,,,,,,,,,,,,,,
null,,black_cross(without_color),1249445,,blue,,,,null,GW/hanover.png,GW/huntsville.png,,,,,,,,,,,,,,,,,,
null,,rt_plussign_withcolor,1249947,,blue,,,,null,GW/hanover.png,GW/huntsville.png,,,,,,,,,,,,,,,,,,
904.8999999985099,,rt_thecrossant_black,1251242,,black_plus_sign,,,,49,,,1,0.974025974025974,,,,,,,,,,,,,,,,
null,,color_black,1251344,,black_plus_sign,,,,null,,,,,,,,,,,,,,,,,,,,
null,,learn_phase(without_color),1254345,,black_plus_sign,,,,null,GW/shreveport.png,GW/leesburg.png,,,,,,,,,,,,,,,,,,
null,,black_cross(without_color),1254960,,blue,,,,null,GW/shreveport.png,GW/leesburg.png,,,,,,,,,,,,,,,,,,
null,,rt_plussign_withcolor,1255462,,blue,,,,null,GW/shreveport.png,GW/leesburg.png,,,,,,,,,,,,,,,,,,
1000.6000000014901,,rt_thecrossant_black,1256851,,black_plus_sign,,,,49,,,1,0.9743589743589743,,,,,,,,,,,,,,,,
null,,color_black,1256952,,black_plus_sign,,,,null,,,,,,,,,,,,,,,,,,,,
null,,learn_phase(without_color),1259954,,black_plus_sign,,,,null,GW/huntsville.png,GW/carmel.png,,,,,,,,,,,,,,,,,,
null,,black_cross(without_color),1260630,,blue,,,,null,GW/huntsville.png,GW/carmel.png,,,,,,,,,,,,,,,,,,
null,,rt_plussign_withcolor,1261131,,blue,,,,null,GW/huntsville.png,GW/carmel.png,,,,,,,,,,,,,,,,,,
911,,rt_thecrossant_black,1262457,,black_plus_sign,,,,49,,,1,0.9746835443037974,,,,,,,,,,,,,,,,
null,,color_black,1262558,,black_plus_sign,,,,null,,,,,,,,,,,,,,,,,,,,
null,,learn_phase(without_color),1265560,,black_plus_sign,,,,null,GW/hanover.png,GW/peoria.png,,,,,,,,,,,,,,,,,,
null,,black_cross(without_color),1266274,,blue,,,,null,GW/hanover.png,GW/peoria.png,,,,,,,,,,,,,,,,,,
null,,rt_plussign_withcolor,1266775,,blue,,,,null,GW/hanover.png,GW/peoria.png,,,,,,,,,,,,,,,,,,
921.6999999955297,,rt_thecrossant_black,1268064,,black_plus_sign,,,,49,,,1,0.975,,,,,,,,,,,,,,,,
null,,color_black,1268164,,black_plus_sign,,,,null,,,,,,,,,,,,,,,,,,,,
null,,learn_phase(without_color),1271167,,black_plus_sign,,,,null,GW/racine.png,GW/westpalmbeach.png,,,,,,,,,,,,,,,,,,
null,,black_cross(without_color),1271997,,yellow,,,,null,GW/racine.png,GW/westpalmbeach.png,,,,,,,,,,,,,,,,,,
null,,rt_plussign_withcolor,1272505,,yellow,,,,null,GW/racine.png,GW/westpalmbeach.png,,,,,,,,,,,,,,,,,,
1476.3999999985099,,rt_thecrossant_black,1273678,,black_plus_sign,,,,50,,,1,0.9753086419753086,,,,,,,,,,,,,,,,
null,,color_black,1273779,,black_plus_sign,,,,null,,,,,,,,,,,,,,,,,,,,
null,,learn_phase(without_color),1276780,,black_plus_sign,,,,null,GW/cornwall.png,GW/racine.png,,,,,,,,,,,,,,,,,,
null,,black_cross(without_color),1277749,,yellow,,,,null,GW/cornwall.png,GW/racine.png,,,,,,,,,,,,,,,,,,
null,,rt_plussign_withcolor,1278250,,yellow,,,,null,GW/cornwall.png,GW/racine.png,,,,,,,,,,,,,,,,,,
1529.1000000014901,,rt_thecrossant_black,1279285,,black_plus_sign,,,,50,,,1,0.975609756097561,,,,,,,,,,,,,,,,
null,,color_black,1279387,,black_plus_sign,,,,null,,,,,,,,,,,,,,,,,,,,
null,,learn_phase(without_color),1282388,,black_plus_sign,,,,null,GW/leesburg.png,GW/boulder.png,,,,,,,,,,,,,,,,,,
null,,black_cross(without_color),1283179,,blue,,,,null,GW/leesburg.png,GW/boulder.png,,,,,,,,,,,,,,,,,,
null,,rt_plussign_withcolor,1283680,,blue,,,,null,GW/leesburg.png,GW/boulder.png,,,,,,,,,,,,,,,,,,
1446.1000000014901,,rt_thecrossant_black,1284893,,black_plus_sign,,,,49,,,1,0.9759036144578314,,,,,,,,,,,,,,,,
null,,color_black,1284994,,black_plus_sign,,,,null,,,,,,,,,,,,,,,,,,,,
null,,learn_phase(without_color),1287996,,black_plus_sign,,,,null,GW/carmel.png,GW/huntsville.png,,,,,,,,,,,,,,,,,,
null,,black_cross(without_color),1289063,,yellow,,,,null,GW/carmel.png,GW/huntsville.png,,,,,,,,,,,,,,,,,,
null,,rt_plussign_withcolor,1289564,,yellow,,,,null,GW/carmel.png,GW/huntsville.png,,,,,,,,,,,,,,,,,,
1504.2000000029802,,rt_thecrossant_black,1290508,,black_plus_sign,,,,50,,,1,0.9761904761904762,,,,,,,,,,,,,,,,
null,,color_black,1290610,,black_plus_sign,,,,null,,,,,,,,,,,,,,,,,,,,
null,,learn_phase(without_color),1293612,,black_plus_sign,,,,null,GW/hanover.png,GW/huntsville.png,,,,,,,,,,,,,,,,,,
null,,black_cross(without_color),1294489,,yellow,,,,null,GW/hanover.png,GW/huntsville.png,,,,,,,,,,,,,,,,,,
null,,rt_plussign_withcolor,1294990,,yellow,,,,null,GW/hanover.png,GW/huntsville.png,,,,,,,,,,,,,,,,,,
1556.7000000029802,,rt_thecrossant_black,1296120,,black_plus_sign,,,,50,,,1,0.9764705882352941,,,,,,,,,,,,,,,,
null,,color_black,1296221,,black_plus_sign,,,,null,,,,,,,,,,,,,,,,,,,,
null,,learn_phase(without_color),1299222,,black_plus_sign,,,,null,GW/newhope.png,GW/boulder.png,,,,,,,,,,,,,,,,,,
null,,black_cross(without_color),1299907,,blue,,,,null,GW/newhope.png,GW/boulder.png,,,,,,,,,,,,,,,,,,
null,,rt_plussign_withcolor,1300408,,blue,,,,null,GW/newhope.png,GW/boulder.png,,,,,,,,,,,,,,,,,,
1490.7999999970198,,rt_thecrossant_black,1301726,,black_plus_sign,,,,49,,,1,0.9767441860465116,,,,,,,,,,,,,,,,
null,,color_black,1301828,,black_plus_sign,,,,null,,,,,,,,,,,,,,,,,,,,
null,,learn_phase(without_color),1304829,,black_plus_sign,,,,null,GW/leesburg.png,GW/shreveport.png,,,,,,,,,,,,,,,,,,
null,,black_cross(without_color),1305445,,blue,,,,null,GW/leesburg.png,GW/shreveport.png,,,,,,,,,,,,,,,,,,
null,,rt_plussign_withcolor,1305946,,blue,,,,null,GW/leesburg.png,GW/shreveport.png,,,,,,,,,,,,,,,,,,
1283.3999999985099,,rt_thecrossant_black,1307333,,black_plus_sign,,,,49,,,1,0.9770114942528736,,,,,,,,,,,,,,,,
null,,color_black,1307435,,black_plus_sign,,,,null,,,,,,,,,,,,,,,,,,,,
null,,learn_phase(without_color),1310436,,black_plus_sign,,,,null,GW/hotsprings.png,GW/huntsville.png,,,,,,,,,,,,,,,,,,
null,,black_cross(without_color),1311262,,yellow,,,,null,GW/hotsprings.png,GW/huntsville.png,,,,,,,,,,,,,,,,,,
null,,rt_plussign_withcolor,1311762,,yellow,,,,null,GW/hotsprings.png,GW/huntsville.png,,,,,,,,,,,,,,,,,,
1078.1000000014901,,rt_thecrossant_black,1312941,,black_plus_sign,,,,50,,,1,0.9772727272727273,,,,,,,,,,,,,,,,
null,,color_black,1313042,,black_plus_sign,,,,null,,,,,,,,,,,,,,,,,,,,
null,,learn_phase(without_color),1316043,,black_plus_sign,,,,null,GW/huntsville.png,GW/carmel.png,,,,,,,,,,,,,,,,,,
null,,black_cross(without_color),1316676,,yellow,,,,null,GW/huntsville.png,GW/carmel.png,,,,,,,,,,,,,,,,,,
null,,rt_plussign_withcolor,1317177,,yellow,,,,null,GW/huntsville.png,GW/carmel.png,,,,,,,,,,,,,,,,,,
1338.8000000044703,,rt_thecrossant_black,1318548,,black_plus_sign,,,,50,,,1,0.9775280898876404,,,,,,,,,,,,,,,,
null,,color_black,1318650,,black_plus_sign,,,,null,,,,,,,,,,,,,,,,,,,,
null,,learn_phase(without_color),1321652,,black_plus_sign,,,,null,GW/newhope.png,GW/boulder.png,,,,,,,,,,,,,,,,,,
null,,black_cross(without_color),1322709,,blue,,,,null,GW/newhope.png,GW/boulder.png,,,,,,,,,,,,,,,,,,
null,,rt_plussign_withcolor,1323210,,blue,,,,null,GW/newhope.png,GW/boulder.png,,,,,,,,,,,,,,,,,,
1145.1000000014901,,rt_thecrossant_black,1324156,,black_plus_sign,,,,49,,,1,0.9777777777777777,,,,,,,,,,,,,,,,
null,,color_black,1324272,,black_plus_sign,,,,null,,,,,,,,,,,,,,,,,,,,
null,,learn_phase(without_color),1327274,,black_plus_sign,,,,null,GW/leesburg.png,GW/racine.png,,,,,,,,,,,,,,,,,,
null,,black_cross(without_color),1327721,,blue,,,,null,GW/leesburg.png,GW/racine.png,,,,,,,,,,,,,,,,,,
null,,rt_plussign_withcolor,1328222,,blue,,,,null,GW/leesburg.png,GW/racine.png,,,,,,,,,,,,,,,,,,
1614.6000000014901,,rt_thecrossant_black,1329777,,black_plus_sign,,,,49,,,1,0.978021978021978,,,,,,,,,,,,,,,,
null,,color_black,1329880,,black_plus_sign,,,,null,,,,,,,,,,,,,,,,,,,,
null,,learn_phase(without_color),1332882,,black_plus_sign,,,,null,GW/newhope.png,GW/hotsprings.png,,,,,,,,,,,,,,,,,,
null,,black_cross(without_color),1333823,,yellow,,,,null,GW/newhope.png,GW/hotsprings.png,,,,,,,,,,,,,,,,,,
null,,rt_plussign_withcolor,1334325,,yellow,,,,null,GW/newhope.png,GW/hotsprings.png,,,,,,,,,,,,,,,,,,
990.1000000014901,,rt_thecrossant_black,1335387,,black_plus_sign,,,,50,,,1,0.9782608695652174,,,,,,,,,,,,,,,,
null,,color_black,1335490,,black_plus_sign,,,,null,,,,,,,,,,,,,,,,,,,,
null,,learn_phase(without_color),1338491,,black_plus_sign,,,,null,GW/peoria.png,GW/hotsprings.png,,,,,,,,,,,,,,,,,,
null,,black_cross(without_color),1338895,,blue,,,,null,GW/peoria.png,GW/hotsprings.png,,,,,,,,,,,,,,,,,,
null,,rt_plussign_withcolor,1339396,,blue,,,,null,GW/peoria.png,GW/hotsprings.png,,,,,,,,,,,,,,,,,,
1518.1000000014901,,rt_thecrossant_black,1340995,,black_plus_sign,,,,49,,,1,0.978494623655914,,,,,,,,,,,,,,,,
null,,color_black,1341097,,black_plus_sign,,,,null,,,,,,,,,,,,,,,,,,,,
null,,learn_phase(without_color),1344098,,black_plus_sign,,,,null,GW/hotsprings.png,GW/huntsville.png,,,,,,,,,,,,,,,,,,
null,,black_cross(without_color),1344888,,yellow,,,,null,GW/hotsprings.png,GW/huntsville.png,,,,,,,,,,,,,,,,,,
null,,rt_plussign_withcolor,1345389,,yellow,,,,null,GW/hotsprings.png,GW/huntsville.png,,,,,,,,,,,,,,,,,,
845.2000000029802,,rt_thecrossant_black,1346602,,black_plus_sign,,,,50,,,1,0.9787234042553191,,,,,,,,,,,,,,,,
null,,color_black,1346703,,black_plus_sign,,,,null,,,,,,,,,,,,,,,,,,,,
null,,learn_phase(without_color),1349704,,black_plus_sign,,,,null,GW/peoria.png,GW/hotsprings.png,,,,,,,,,,,,,,,,,,
null,,black_cross(without_color),1350675,,yellow,,,,null,GW/peoria.png,GW/hotsprings.png,,,,,,,,,,,,,,,,,,
null,,rt_plussign_withcolor,1351176,,yellow,,,,null,GW/peoria.png,GW/hotsprings.png,,,,,,,,,,,,,,,,,,
1307.2000000029802,,rt_thecrossant_black,1352210,,black_plus_sign,,,,50,,,1,0.9789473684210527,,,,,,,,,,,,,,,,
null,,color_black,1352311,,black_plus_sign,,,,null,,,,,,,,,,,,,,,,,,,,
null,,learn_phase(without_color),1355312,,black_plus_sign,,,,null,GW/westpalmbeach.png,GW/newhope.png,,,,,,,,,,,,,,,,,,
null,,black_cross(without_color),1355725,,blue,,,,null,GW/westpalmbeach.png,GW/newhope.png,,,,,,,,,,,,,,,,,,
null,,rt_plussign_withcolor,1356227,,blue,,,,null,GW/westpalmbeach.png,GW/newhope.png,,,,,,,,,,,,,,,,,,
1518.5,,rt_thecrossant_black,1357817,,black_plus_sign,,,,49,,,1,0.9791666666666666,,,,,,,,,,,,,,,,
null,,color_black,1357918,,black_plus_sign,,,,null,,,,,,,,,,,,,,,,,,,,
null,,learn_phase(without_color),1360920,,black_plus_sign,,,,null,GW/westpalmbeach.png,GW/newhope.png,,,,,,,,,,,,,,,,,,
null,,black_cross(without_color),1361428,,yellow,,,,null,GW/westpalmbeach.png,GW/newhope.png,,,,,,,,,,,,,,,,,,
null,,rt_plussign_withcolor,1361931,,yellow,,,,null,GW/westpalmbeach.png,GW/newhope.png,,,,,,,,,,,,,,,,,,
1042,,rt_thecrossant_black,1363425,,black_plus_sign,,,,50,,,1,0.979381443298969,,,,,,,,,,,,,,,,
null,,color_black,1363527,,black_plus_sign,,,,null,,,,,,,,,,,,,,,,,,,,
null,,learn_phase(without_color),1366528,,black_plus_sign,,,,null,GW/hotsprings.png,GW/huntsville.png,,,,,,,,,,,,,,,,,,
null,,black_cross(without_color),1367586,,blue,,,,null,GW/hotsprings.png,GW/huntsville.png,,,,,,,,,,,,,,,,,,
null,,rt_plussign_withcolor,1368088,,blue,,,,null,GW/hotsprings.png,GW/huntsville.png,,,,,,,,,,,,,,,,,,
837.1000000014901,,rt_thecrossant_black,1369034,,black_plus_sign,,,,49,,,1,0.9795918367346939,,,,,,,,,,,,,,,,
null,,color_black,1369135,,black_plus_sign,,,,null,,,,,,,,,,,,,,,,,,,,
null,,learn_phase(without_color),1372135,,black_plus_sign,,,,null,GW/racine.png,GW/westpalmbeach.png,,,,,,,,,,,,,,,,,,
null,,black_cross(without_color),1373178,,yellow,,,,null,GW/racine.png,GW/westpalmbeach.png,,,,,,,,,,,,,,,,,,
null,,rt_plussign_withcolor,1373680,,yellow,,,,null,GW/racine.png,GW/westpalmbeach.png,,,,,,,,,,,,,,,,,,
1394.1000000014901,,rt_thecrossant_black,1374647,,black_plus_sign,,,,50,,,1,0.9797979797979798,,,,,,,,,,,,,,,,
null,,color_black,1374748,,black_plus_sign,,,,null,,,,,,,,,,,,,,,,,,,,
null,,learn_phase(without_color),1377750,,black_plus_sign,,,,null,GW/westpalmbeach.png,GW/racine.png,,,,,,,,,,,,,,,,,,
null,,black_cross(without_color),1378459,,blue,,,,null,GW/westpalmbeach.png,GW/racine.png,,,,,,,,,,,,,,,,,,
null,,rt_plussign_withcolor,1378960,,blue,,,,null,GW/westpalmbeach.png,GW/racine.png,,,,,,,,,,,,,,,,,,
1300.3999999985099,,rt_thecrossant_black,1380254,,black_plus_sign,,,,49,,,1,0.98,,,,,,,,,,,,,,,,
null,,color_black,1380356,,black_plus_sign,,,,null,,,,,,,,,,,,,,,,,,,,
null,,learn_phase(without_color),1383358,,black_plus_sign,,,,null,GW/hotsprings.png,GW/peoria.png,,,,,,,,,,,,,,,,,,
null,,black_cross(without_color),1383838,,blue,,,,null,GW/hotsprings.png,GW/peoria.png,,,,,,,,,,,,,,,,,,
null,,rt_plussign_withcolor,1384339,,blue,,,,null,GW/hotsprings.png,GW/peoria.png,,,,,,,,,,,,,,,,,,
987.6000000014901,,rt_thecrossant_black,1385862,,black_plus_sign,,,,49,,,1,0.9801980198019802,,,,,,,,,,,,,,,,
null,,color_black,1385963,,black_plus_sign,,,,null,,,,,,,,,,,,,,,,,,,,
null,,learn_phase(without_color),1388965,,black_plus_sign,,,,null,GW/leesburg.png,GW/shreveport.png,,,,,,,,,,,,,,,,,,
null,,black_cross(without_color),1389641,,yellow,,,,null,GW/leesburg.png,GW/shreveport.png,,,,,,,,,,,,,,,,,,
null,,rt_plussign_withcolor,1390143,,yellow,,,,null,GW/leesburg.png,GW/shreveport.png,,,,,,,,,,,,,,,,,,
1059.1999999955297,,rt_thecrossant_black,1391469,,black_plus_sign,,,,50,,,1,0.9803921568627451,,,,,,,,,,,,,,,,
null,,color_black,1391571,,black_plus_sign,,,,null,,,,,,,,,,,,,,,,,,,,
null,,learn_phase(without_color),1394572,,black_plus_sign,,,,null,GW/cornwall.png,GW/racine.png,,,,,,,,,,,,,,,,,,
null,,black_cross(without_color),1395482,,yellow,,,,null,GW/cornwall.png,GW/racine.png,,,,,,,,,,,,,,,,,,
null,,rt_plussign_withcolor,1395983,,yellow,,,,null,GW/cornwall.png,GW/racine.png,,,,,,,,,,,,,,,,,,
1170.2999999970198,,rt_thecrossant_black,1397076,,black_plus_sign,,,,50,,,1,0.9805825242718447,,,,,,,,,,,,,,,,
null,,color_black,1397177,,black_plus_sign,,,,null,,,,,,,,,,,,,,,,,,,,
null,,learn_phase(without_color),1400178,,black_plus_sign,,,,null,GW/huntsville.png,GW/hotsprings.png,,,,,,,,,,,,,,,,,,
null,,black_cross(without_color),1400652,,blue,,,,null,GW/huntsville.png,GW/hotsprings.png,,,,,,,,,,,,,,,,,,
null,,rt_plussign_withcolor,1401154,,blue,,,,null,GW/huntsville.png,GW/hotsprings.png,,,,,,,,,,,,,,,,,,
1303.6000000014901,,rt_thecrossant_black,1402682,,black_plus_sign,,,,49,,,1,0.9807692307692307,,,,,,,,,,,,,,,,
null,,color_black,1402784,,black_plus_sign,,,,null,,,,,,,,,,,,,,,,,,,,
null,,learn_phase(without_color),1405785,,black_plus_sign,,,,null,GW/racine.png,GW/westpalmbeach.png,,,,,,,,,,,,,,,,,,
null,,black_cross(without_color),1406206,,yellow,,,,null,GW/racine.png,GW/westpalmbeach.png,,,,,,,,,,,,,,,,,,
null,,rt_plussign_withcolor,1406707,,yellow,,,,null,GW/racine.png,GW/westpalmbeach.png,,,,,,,,,,,,,,,,,,
1037.1000000014901,,rt_thecrossant_black,1408289,,black_plus_sign,,,,50,,,1,0.9809523809523809,,,,,,,,,,,,,,,,
null,,color_black,1408391,,black_plus_sign,,,,null,,,,,,,,,,,,,,,,,,,,
null,,learn_phase(without_color),1411392,,black_plus_sign,,,,null,GW/hanover.png,GW/gatlinburg.png,,,,,,,,,,,,,,,,,,
null,,black_cross(without_color),1412451,,yellow,,,,null,GW/hanover.png,GW/gatlinburg.png,,,,,,,,,,,,,,,,,,
null,,rt_plussign_withcolor,1412952,,yellow,,,,null,GW/hanover.png,GW/gatlinburg.png,,,,,,,,,,,,,,,,,,
1065.6000000014901,,rt_thecrossant_black,1413909,,black_plus_sign,,,,50,,,1,0.9811320754716981,,,,,,,,,,,,,,,,
null,,color_black,1414011,,black_plus_sign,,,,null,,,,,,,,,,,,,,,,,,,,
null,,learn_phase(without_color),1417012,,black_plus_sign,,,,null,GW/racine.png,GW/cornwall.png,,,,,,,,,,,,,,,,,,
null,,black_cross(without_color),1417426,,yellow,,,,null,GW/racine.png,GW/cornwall.png,,,,,,,,,,,,,,,,,,
null,,rt_plussign_withcolor,1417927,,yellow,,,,null,GW/racine.png,GW/cornwall.png,,,,,,,,,,,,,,,,,,
1730.7999999970198,,rt_thecrossant_black,1419516,,black_plus_sign,,,,50,,,1,0.9813084112149533,,,,,,,,,,,,,,,,
null,,color_black,1419617,,black_plus_sign,,,,null,,,,,,,,,,,,,,,,,,,,
null,,learn_phase(without_color),1422619,,black_plus_sign,,,,null,GW/peoria.png,GW/hotsprings.png,,,,,,,,,,,,,,,,,,
null,,black_cross(without_color),1423440,,blue,,,,null,GW/peoria.png,GW/hotsprings.png,,,,,,,,,,,,,,,,,,
null,,rt_plussign_withcolor,1423941,,blue,,,,null,GW/peoria.png,GW/hotsprings.png,,,,,,,,,,,,,,,,,,
951.2000000029802,,rt_thecrossant_black,1425123,,black_plus_sign,,,,49,,,1,0.9814814814814815,,,,,,,,,,,,,,,,
null,,color_black,1425224,,black_plus_sign,,,,null,,,,,,,,,,,,,,,,,,,,
null,,learn_phase(without_color),1428226,,black_plus_sign,,,,null,GW/boulder.png,GW/leesburg.png,,,,,,,,,,,,,,,,,,
null,,black_cross(without_color),1429134,,blue,,,,null,GW/boulder.png,GW/leesburg.png,,,,,,,,,,,,,,,,,,
null,,rt_plussign_withcolor,1429635,,blue,,,,null,GW/boulder.png,GW/leesburg.png,,,,,,,,,,,,,,,,,,
1569.3000000044703,,rt_thecrossant_black,1430731,,black_plus_sign,,,,49,,,1,0.981651376146789,,,,,,,,,,,,,,,,
null,,color_black,1430833,,black_plus_sign,,,,null,,,,,,,,,,,,,,,,,,,,
null,,learn_phase(without_color),1433835,,black_plus_sign,,,,null,GW/hotsprings.png,GW/hanover.png,,,,,,,,,,,,,,,,,,
null,,black_cross(without_color),1434351,,blue,,,,null,GW/hotsprings.png,GW/hanover.png,,,,,,,,,,,,,,,,,,
null,,rt_plussign_withcolor,1434852,,blue,,,,null,GW/hotsprings.png,GW/hanover.png,,,,,,,,,,,,,,,,,,
1679.8999999985099,,rt_thecrossant_black,1436341,,black_plus_sign,,,,49,,,1,0.9818181818181818,,,,,,,,,,,,,,,,
null,,color_black,1436443,,black_plus_sign,,,,null,,,,,,,,,,,,,,,,,,,,
null,,learn_phase(without_color),1439444,,black_plus_sign,,,,null,GW/carmel.png,GW/huntsville.png,,,,,,,,,,,,,,,,,,
null,,black_cross(without_color),1440420,,blue,,,,null,GW/carmel.png,GW/huntsville.png,,,,,,,,,,,,,,,,,,
null,,rt_plussign_withcolor,1440921,,blue,,,,null,GW/carmel.png,GW/huntsville.png,,,,,,,,,,,,,,,,,,
1017.8999999985099,,rt_thecrossant_black,1441948,,black_plus_sign,,,,49,,,1,0.9819819819819819,,,,,,,,,,,,,,,,
null,,color_black,1442050,,black_plus_sign,,,,null,,,,,,,,,,,,,,,,,,,,
null,,learn_phase(without_color),1445051,,black_plus_sign,,,,null,GW/newhope.png,GW/westpalmbeach.png,,,,,,,,,,,,,,,,,,
null,,black_cross(without_color),1445967,,yellow,,,,null,GW/newhope.png,GW/westpalmbeach.png,,,,,,,,,,,,,,,,,,
null,,rt_plussign_withcolor,1446468,,yellow,,,,null,GW/newhope.png,GW/westpalmbeach.png,,,,,,,,,,,,,,,,,,
1436.1000000014901,,rt_thecrossant_black,1447555,,black_plus_sign,,,,50,,,1,0.9821428571428571,,,,,,,,,,,,,,,,
null,,color_black,1447657,,black_plus_sign,,,,null,,,,,,,,,,,,,,,,,,,,
null,,learn_phase(without_color),1450658,,black_plus_sign,,,,null,GW/hanover.png,GW/hotsprings.png,,,,,,,,,,,,,,,,,,
null,,black_cross(without_color),1451401,,blue,,,,null,GW/hanover.png,GW/hotsprings.png,,,,,,,,,,,,,,,,,,
null,,rt_plussign_withcolor,1451902,,blue,,,,null,GW/hanover.png,GW/hotsprings.png,,,,,,,,,,,,,,,,,,
1247.5,,rt_thecrossant_black,1453163,,black_plus_sign,,,,49,,,1,0.9823008849557522,,,,,,,,,,,,,,,,
null,,color_black,1453265,,black_plus_sign,,,,null,,,,,,,,,,,,,,,,,,,,
null,,learn_phase(without_color),1456267,,black_plus_sign,,,,null,GW/hotsprings.png,GW/newhope.png,,,,,,,,,,,,,,,,,,
null,,black_cross(without_color),1456725,,blue,,,,null,GW/hotsprings.png,GW/newhope.png,,,,,,,,,,,,,,,,,,
null,,rt_plussign_withcolor,1457227,,blue,,,,null,GW/hotsprings.png,GW/newhope.png,,,,,,,,,,,,,,,,,,
1303.2000000029802,,rt_thecrossant_black,1458771,,black_plus_sign,,,,49,,,1,0.9824561403508771,,,,,,,,,,,,,,,,
null,,color_black,1458873,,black_plus_sign,,,,null,,,,,,,,,,,,,,,,,,,,
null,,learn_phase(without_color),1461874,,black_plus_sign,,,,null,GW/hotsprings.png,GW/newhope.png,,,,,,,,,,,,,,,,,,
null,,black_cross(without_color),1462345,,blue,,,,null,GW/hotsprings.png,GW/newhope.png,,,,,,,,,,,,,,,,,,
null,,rt_plussign_withcolor,1462846,,blue,,,,null,GW/hotsprings.png,GW/newhope.png,,,,,,,,,,,,,,,,,,
871.9000000059605,,rt_thecrossant_black,1464377,,black_plus_sign,,,,49,,,1,0.9826086956521739,,,,,,,,,,,,,,,,
null,,color_black,1464492,,black_plus_sign,,,,null,,,,,,,,,,,,,,,,,,,,
null,,learn_phase(without_color),1467494,,black_plus_sign,,,,null,GW/peoria.png,GW/hotsprings.png,,,,,,,,,,,,,,,,,,
null,,black_cross(without_color),1468425,,yellow,,,,null,GW/peoria.png,GW/hotsprings.png,,,,,,,,,,,,,,,,,,
null,,rt_plussign_withcolor,1468927,,yellow,,,,null,GW/peoria.png,GW/hotsprings.png,,,,,,,,,,,,,,,,,,
788.7000000029802,,rt_thecrossant_black,1469998,,black_plus_sign,,,,50,,,1,0.9827586206896551,,,,,,,,,,,,,,,,
null,,color_black,1470100,,black_plus_sign,,,,null,,,,,,,,,,,,,,,,,,,,
null,,learn_phase(without_color),1473102,,black_plus_sign,,,,null,GW/shreveport.png,GW/leesburg.png,,,,,,,,,,,,,,,,,,
null,,black_cross(without_color),1473943,,blue,,,,null,GW/shreveport.png,GW/leesburg.png,,,,,,,,,,,,,,,,,,
null,,rt_plussign_withcolor,1474450,,blue,,,,null,GW/shreveport.png,GW/leesburg.png,,,,,,,,,,,,,,,,,,
null,,rt_thecrossant_black,1475611,,black_plus_sign,,,,null,,,,0.9827586206896551,,,,,,,,,,,,,,,,
null,,color_black,1475712,,black_plus_sign,,,,null,,,,,,,,,,,,,,,,,,,,
null,,learn_phase(without_color),1478715,,black_plus_sign,,,,null,GW/gatlinburg.png,GW/hanover.png,,,,,,,,,,,,,,,,,,
null,,black_cross(without_color),1479396,,yellow,,,,null,GW/gatlinburg.png,GW/hanover.png,,,,,,,,,,,,,,,,,,
null,,rt_plussign_withcolor,1479897,,yellow,,,,null,GW/gatlinburg.png,GW/hanover.png,,,,,,,,,,,,,,,,,,
1334.2000000029802,,rt_thecrossant_black,1481219,,black_plus_sign,,,,50,,,1,0.9829059829059829,,,,,,,,,,,,,,,,
null,,color_black,1481320,,black_plus_sign,,,,null,,,,,,,,,,,,,,,,,,,,
null,,learn_phase(without_color),1484333,,black_plus_sign,,,,null,GW/carmel.png,GW/huntsville.png,,,,,,,,,,,,,,,,,,
null,,black_cross(without_color),1485098,,blue,,,,null,GW/carmel.png,GW/huntsville.png,,,,,,,,,,,,,,,,,,
null,,rt_plussign_withcolor,1485599,,blue,,,,null,GW/carmel.png,GW/huntsville.png,,,,,,,,,,,,,,,,,,
920.1999999955297,,rt_thecrossant_black,1486842,,black_plus_sign,,,,49,,,1,0.9830508474576272,,,,,,,,,,,,,,,,
null,,color_black,1486943,,black_plus_sign,,,,null,,,,,,,,,,,,,,,,,,,,
null,,learn_phase(without_color),1489946,,black_plus_sign,,,,null,GW/newhope.png,GW/hotsprings.png,,,,,,,,,,,,,,,,,,
null,,black_cross(without_color),1490967,,yellow,,,,null,GW/newhope.png,GW/hotsprings.png,,,,,,,,,,,,,,,,,,
null,,rt_plussign_withcolor,1491469,,yellow,,,,null,GW/newhope.png,GW/hotsprings.png,,,,,,,,,,,,,,,,,,
1523.1000000014901,,rt_thecrossant_black,1492450,,black_plus_sign,,,,50,,,1,0.9831932773109243,,,,,,,,,,,,,,,,
null,,color_black,1492552,,black_plus_sign,,,,null,,,,,,,,,,,,,,,,,,,,
null,,learn_phase(without_color),1495553,,black_plus_sign,,,,null,GW/hotsprings.png,GW/huntsville.png,,,,,,,,,,,,,,,,,,
null,,black_cross(without_color),1496260,,yellow,,,,null,GW/hotsprings.png,GW/huntsville.png,,,,,,,,,,,,,,,,,,
null,,rt_plussign_withcolor,1496762,,yellow,,,,null,GW/hotsprings.png,GW/huntsville.png,,,,,,,,,,,,,,,,,,
1403.7000000029802,,rt_thecrossant_black,1498057,,black_plus_sign,,,,50,,,1,0.9833333333333333,,,,,,,,,,,,,,,,
null,,color_black,1498157,,black_plus_sign,,,,null,,,,,,,,,,,,,,,,,,,,
null,,learn_phase(without_color),1501159,,black_plus_sign,,,,null,GW/westpalmbeach.png,GW/newhope.png,,,,,,,,,,,,,,,,,,
null,,black_cross(without_color),1501676,,blue,,,,null,GW/westpalmbeach.png,GW/newhope.png,,,,,,,,,,,,,,,,,,
null,,rt_plussign_withcolor,1502178,,blue,,,,null,GW/westpalmbeach.png,GW/newhope.png,,,,,,,,,,,,,,,,,,
1177.6999999955297,,rt_thecrossant_black,1503663,,black_plus_sign,,,,49,,,1,0.9834710743801653,,,,,,,,,,,,,,,,
null,,color_black,1503764,,black_plus_sign,,,,null,,,,,,,,,,,,,,,,,,,,
null,,learn_phase(without_color),1506766,,black_plus_sign,,,,null,GW/leesburg.png,GW/racine.png,,,,,,,,,,,,,,,,,,
null,,black_cross(without_color),1507418,,yellow,,,,null,GW/leesburg.png,GW/racine.png,,,,,,,,,,,,,,,,,,
null,,rt_plussign_withcolor,1507924,,yellow,,,,null,GW/leesburg.png,GW/racine.png,,,,,,,,,,,,,,,,,,
1146.4000000059605,,rt_thecrossant_black,1509275,,black_plus_sign,,,,50,,,1,0.9836065573770492,,,,,,,,,,,,,,,,
null,,color_black,1509376,,black_plus_sign,,,,null,,,,,,,,,,,,,,,,,,,,
null,,learn_phase(without_color),1512378,,black_plus_sign,,,,null,GW/huntsville.png,GW/hanover.png,,,,,,,,,,,,,,,,,,
null,,black_cross(without_color),1512825,,blue,,,,null,GW/huntsville.png,GW/hanover.png,,,,,,,,,,,,,,,,,,
null,,rt_plussign_withcolor,1513326,,blue,,,,null,GW/huntsville.png,GW/hanover.png,,,,,,,,,,,,,,,,,,
926.8999999985099,,rt_thecrossant_black,1514881,,black_plus_sign,,,,49,,,1,0.983739837398374,,,,,,,,,,,,,,,,
null,,color_black,1514982,,black_plus_sign,,,,null,,,,,,,,,,,,,,,,,,,,
null,,learn_phase(without_color),1517984,,black_plus_sign,,,,null,GW/hotsprings.png,GW/huntsville.png,,,,,,,,,,,,,,,,,,
null,,black_cross(without_color),1518554,,blue,,,,null,GW/hotsprings.png,GW/huntsville.png,,,,,,,,,,,,,,,,,,
null,,rt_plussign_withcolor,1519055,,blue,,,,null,GW/hotsprings.png,GW/huntsville.png,,,,,,,,,,,,,,,,,,
826.5999999940395,,rt_thecrossant_black,1520489,,black_plus_sign,,,,49,,,1,0.9838709677419355,,,,,,,,,,,,,,,,
null,,color_black,1520591,,black_plus_sign,,,,null,,,,,,,,,,,,,,,,,,,,
null,,learn_break,1580607,,learn_break,,,,null,,,,,,,,,,,,,,,,,,,,
31167.30000000447,,intro_1,1611775,,instruct,,0,Start,,,,,,,,,,,,,,,,,,,,,
6379.69999999553,,directmemory_phase,1618156,,GW/huntsville.png,,,,50,,,1,1,GW/newhope.png,GW/hotsprings.png,GW/boulder.png,GW/hotsprings.png,GW/newhope.png,GW/boulder.png,1,,,,,,,,,
null,,html-keyboard-response,1619157,,<p></p>,,,,null,,,,,,,,,,,,,,,,,,,,
2078.9000000059605,,directmemory_phase,1621237,,GW/leesburg.png,,,,49,,,1,1,GW/shreveport.png,GW/hotsprings.png,GW/peoria.png,GW/shreveport.png,GW/peoria.png,GW/hotsprings.png,1,,,,,,,,,
null,,html-keyboard-response,1622238,,<p></p>,,,,null,,,,,,,,,,,,,,,,,,,,
2437.6999999955297,,directmemory_phase,1624677,,GW/huntsville.png,,,,51,,,1,1,GW/leesburg.png,GW/peoria.png,GW/carmel.png,GW/carmel.png,GW/peoria.png,GW/leesburg.png,1,,,,,,,,,
null,,html-keyboard-response,1625678,,<p></p>,,,,null,,,,,,,,,,,,,,,,,,,,
1862.1000000014901,,directmemory_phase,1627541,,GW/peoria.png,,,,49,,,1,1,GW/hotsprings.png,GW/cornwall.png,GW/huntsville.png,GW/hotsprings.png,GW/huntsville.png,GW/cornwall.png,1,,,,,,,,,
null,,html-keyboard-response,1628543,,<p></p>,,,,null,,,,,,,,,,,,,,,,,,,,
6039.20000000298,,directmemory_phase,1634582,,GW/hanover.png,,,,50,,,0,0.8,GW/huntsville.png,GW/racine.png,GW/newhope.png,GW/huntsville.png,GW/newhope.png,GW/racine.png,0.5,closer,,,,,,,,
null,,html-keyboard-response,1635584,,<p></p>,,,,null,,,,,,,,,,,,,,,,,,,,
5341.5,,directmemory_phase,1640927,,GW/peoria.png,,,,49,,,1,0.8333333333333334,GW/boulder.png,GW/carmel.png,GW/huntsville.png,GW/boulder.png,GW/huntsville.png,GW/carmel.png,1,,,,,,,,,
null,,html-keyboard-response,1641928,,<p></p>,,,,null,,,,,,,,,,,,,,,,,,,,
1430.7000000029802,,directmemory_phase,1643359,,GW/gatlinburg.png,,,,49,,,1,0.8571428571428571,GW/hanover.png,GW/westpalmbeach.png,GW/hotsprings.png,GW/hanover.png,GW/hotsprings.png,GW/westpalmbeach.png,1,,,,,,,,,
null,,html-keyboard-response,1644361,,<p></p>,,,,null,,,,,,,,,,,,,,,,,,,,
1509.5,,directmemory_phase,1645871,,GW/hotsprings.png,,,,51,,,1,0.875,GW/leesburg.png,GW/westpalmbeach.png,GW/peoria.png,GW/peoria.png,GW/westpalmbeach.png,GW/leesburg.png,1,,,,,,,,,
null,,html-keyboard-response,1646873,,<p></p>,,,,null,,,,,,,,,,,,,,,,,,,,
1797.7999999970198,,directmemory_phase,1648672,,GW/leesburg.png,,,,51,,,1,0.8888888888888888,GW/hotsprings.png,GW/newhope.png,GW/boulder.png,GW/boulder.png,GW/newhope.png,GW/hotsprings.png,1,,,,,,,,,
null,,html-keyboard-response,1649673,,<p></p>,,,,null,,,,,,,,,,,,,,,,,,,,
1518.7999999970198,,directmemory_phase,1651192,,GW/westpalmbeach.png,,,,50,,,1,0.9,GW/cornwall.png,GW/racine.png,GW/shreveport.png,GW/racine.png,GW/cornwall.png,GW/shreveport.png,1,,,,,,,,,
null,,html-keyboard-response,1652193,,<p></p>,,,,null,,,,,,,,,,,,,,,,,,,,
1550,,directmemory_phase,1653744,,GW/boulder.png,,,,50,,,0,0.8181818181818182,GW/cornwall.png,GW/westpalmbeach.png,GW/peoria.png,GW/peoria.png,GW/westpalmbeach.png,GW/cornwall.png,0.5,closer,,,,,,,,
null,,html-keyboard-response,1654749,,<p></p>,,,,null,,,,,,,,,,,,,,,,,,,,
2235.2999999970198,,directmemory_phase,1656985,,GW/carmel.png,,,,51,,,1,0.8333333333333334,GW/gatlinburg.png,GW/hotsprings.png,GW/huntsville.png,GW/huntsville.png,GW/hotsprings.png,GW/gatlinburg.png,1,,,,,,,,,
null,,html-keyboard-response,1657986,,<p></p>,,,,null,,,,,,,,,,,,,,,,,,,,
null,,directmemory_phase,1664488,,GW/peoria.png,,,,null,,,0,0.7692307692307693,GW/racine.png,GW/newhope.png,GW/hanover.png,GW/hanover.png,GW/newhope.png,GW/racine.png,0,,,,,,,,,
null,,warning_page,1667491,,warning,,,,null,,,,,,,,,,,,,,,,,,,,
null,,html-keyboard-response,1668493,,<p></p>,,,,null,,,,,,,,,,,,,,,,,,,,
1789.5,,directmemory_phase,1670283,,GW/newhope.png,,,,50,,,1,0.7857142857142857,GW/racine.png,GW/hotsprings.png,GW/shreveport.png,GW/hotsprings.png,GW/racine.png,GW/shreveport.png,1,,,,,,,,,
null,,html-keyboard-response,1671284,,<p></p>,,,,null,,,,,,,,,,,,,,,,,,,,
2277.6999999955297,,directmemory_phase,1673562,,GW/huntsville.png,,,,50,,,0,0.7333333333333333,GW/hanover.png,GW/westpalmbeach.png,GW/gatlinburg.png,GW/hanover.png,GW/gatlinburg.png,GW/westpalmbeach.png,0.5,closer,,,,,,,,
null,,html-keyboard-response,1674564,,<p></p>,,,,null,,,,,,,,,,,,,,,,,,,,
1493.8999999985099,,directmemory_phase,1676059,,GW/shreveport.png,,,,51,,,1,0.75,GW/hanover.png,GW/racine.png,GW/leesburg.png,GW/leesburg.png,GW/racine.png,GW/hanover.png,1,,,,,,,,,
null,,html-keyboard-response,1677060,,<p></p>,,,,null,,,,,,,,,,,,,,,,,,,,
1614.2000000029802,,directmemory_phase,1678675,,GW/hotsprings.png,,,,49,,,1,0.7647058823529411,GW/newhope.png,GW/racine.png,GW/westpalmbeach.png,GW/newhope.png,GW/westpalmbeach.png,GW/racine.png,1,,,,,,,,,
null,,html-keyboard-response,1679677,,<p></p>,,,,null,,,,,,,,,,,,,,,,,,,,
2238.89999999851,,directmemory_phase,1681916,,GW/racine.png,,,,51,,,1,0.7777777777777778,GW/hotsprings.png,GW/shreveport.png,GW/cornwall.png,GW/cornwall.png,GW/shreveport.png,GW/hotsprings.png,1,,,,,,,,,
null,,html-keyboard-response,1682917,,<p></p>,,,,null,,,,,,,,,,,,,,,,,,,,
1678.2999999970198,,directmemory_phase,1684596,,GW/hotsprings.png,,,,51,,,1,0.7894736842105263,GW/leesburg.png,GW/westpalmbeach.png,GW/huntsville.png,GW/huntsville.png,GW/westpalmbeach.png,GW/leesburg.png,1,,,,,,,,,
null,,html-keyboard-response,1685598,,<p></p>,,,,null,,,,,,,,,,,,,,,,,,,,
1046,,directmemory_phase,1686644,,GW/cornwall.png,,,,51,,,1,0.8,GW/shreveport.png,GW/leesburg.png,GW/racine.png,GW/racine.png,GW/leesburg.png,GW/shreveport.png,1,,,,,,,,,
null,,html-keyboard-response,1687646,,<p></p>,,,,null,,,,,,,,,,,,,,,,,,,,
1493.7000000029802,,directmemory_phase,1689140,,GW/hotsprings.png,,,,51,,,1,0.8095238095238095,GW/shreveport.png,GW/carmel.png,GW/hanover.png,GW/hanover.png,GW/carmel.png,GW/shreveport.png,1,,,,,,,,,
null,,html-keyboard-response,1690142,,<p></p>,,,,null,,,,,,,,,,,,,,,,,,,,
1926.3999999985099,,directmemory_phase,1692069,,GW/racine.png,,,,49,,,1,0.8181818181818182,GW/leesburg.png,GW/peoria.png,GW/newhope.png,GW/leesburg.png,GW/newhope.png,GW/peoria.png,1,,,,,,,,,
null,,html-keyboard-response,1693084,,<p></p>,,,,null,,,,,,,,,,,,,,,,,,,,
2128.7999999970198,,directmemory_phase,1695214,,GW/newhope.png,,,,51,,,0,0.782608695652174,GW/westpalmbeach.png,GW/carmel.png,GW/leesburg.png,GW/westpalmbeach.png,GW/leesburg.png,GW/carmel.png,0.5,closer,,,,,,,,
null,,html-keyboard-response,1696215,,<p></p>,,,,null,,,,,,,,,,,,,,,,,,,,
2126.2999999970198,,directmemory_phase,1698342,,GW/boulder.png,,,,49,,,1,0.7916666666666666,GW/leesburg.png,GW/cornwall.png,GW/hotsprings.png,GW/leesburg.png,GW/hotsprings.png,GW/cornwall.png,1,,,,,,,,,
null,,html-keyboard-response,1699343,,<p></p>,,,,null,,,,,,,,,,,,,,,,,,,,
2486.6999999955297,,directmemory_phase,1701830,,GW/westpalmbeach.png,,,,50,,,0,0.76,GW/gatlinburg.png,GW/boulder.png,GW/newhope.png,GW/newhope.png,GW/boulder.png,GW/gatlinburg.png,0.5,closer,,,,,,,,
null,,html-keyboard-response,1702832,,<p></p>,,,,null,,,,,,,,,,,,,,,,,,,,
2197.5,,directmemory_phase,1705030,,GW/leesburg.png,,,,49,,,1,0.7692307692307693,GW/racine.png,GW/hotsprings.png,GW/cornwall.png,GW/racine.png,GW/cornwall.png,GW/hotsprings.png,1,,,,,,,,,
null,,html-keyboard-response,1706031,,<p></p>,,,,null,,,,,,,,,,,,,,,,,,,,
1487.1999999955297,,directmemory_phase,1707519,,GW/hanover.png,,,,51,,,1,0.7777777777777778,GW/racine.png,GW/newhope.png,GW/gatlinburg.png,GW/gatlinburg.png,GW/newhope.png,GW/racine.png,1,,,,,,,,,
null,,html-keyboard-response,1708520,,<p></p>,,,,null,,,,,,,,,,,,,,,,,,,,
1093.7000000029802,,directmemory_phase,1709615,,GW/racine.png,,,,49,,,1,0.7857142857142857,GW/westpalmbeach.png,GW/huntsville.png,GW/newhope.png,GW/westpalmbeach.png,GW/newhope.png,GW/huntsville.png,1,,,,,,,,,
null,,html-keyboard-response,1710617,,<p></p>,,,,null,,,,,,,,,,,,,,,,,,,,
1942.1999999955297,,directmemory_phase,1712560,,GW/hanover.png,,,,51,,,0,0.7586206896551724,GW/peoria.png,GW/shreveport.png,GW/boulder.png,GW/peoria.png,GW/boulder.png,GW/shreveport.png,0.5,closer,,,,,,,,
null,,html-keyboard-response,1713560,,<p></p>,,,,null,,,,,,,,,,,,,,,,,,,,
1743.1000000014901,,directmemory_phase,1715304,,GW/newhope.png,,,,50,,,0,0.7333333333333333,GW/carmel.png,GW/hanover.png,GW/boulder.png,GW/boulder.png,GW/hanover.png,GW/carmel.png,0.5,closer,,,,,,,,
null,,html-keyboard-response,1716306,,<p></p>,,,,null,,,,,,,,,,,,,,,,,,,,
2326.2999999970198,,directmemory_phase,1718632,,GW/hanover.png,,,,50,,,0,0.7096774193548387,GW/shreveport.png,GW/boulder.png,GW/hotsprings.png,GW/hotsprings.png,GW/boulder.png,GW/shreveport.png,0.5,closer,,,,,,,,
null,,html-keyboard-response,1719634,,<p></p>,,,,null,,,,,,,,,,,,,,,,,,,,
1733.2999999970198,,directmemory_phase,1721368,,GW/boulder.png,,,,50,,,0,0.6875,GW/huntsville.png,GW/racine.png,GW/newhope.png,GW/newhope.png,GW/racine.png,GW/huntsville.png,0.5,closer,,,,,,,,
null,,html-keyboard-response,1722371,,<p></p>,,,,null,,,,,,,,,,,,,,,,,,,,
33449.5,,intro_1,1755821,,instruct,,0,,,,,,,,,,,,,,,,,,,,,,
7324.4000000059605,,intro_2,1763146,,instruct,,1,Next,,,,,,,,,,,,,,,,,,,,,
7835.79999999702,,intro_3,1770983,,instruct,,1,Next,,,,,,,,,,,,,,,,,,,,,
7780.19999999553,,intro_4,1778764,,instruct,,1,Next,,,,,,,,,,,,,,,,,,,,,
11584.40000000596,,intro_5,1790349,,instruct,,1,Next,,,,,,,,,,,,,,,,,,,,,
34127.20000000298,,intro_6,1824477,,instruct,,1,Next,,,,,,,,,,,,,,,,,,,,,
17029.5,,intro_7,1841507,,instruct,,1,Next,,,,,,,,,,,,,,,,,,,,,
46032.29999999702,,intro_8,1887541,,instruct,,1,Next,,,,,,,,,,,,,,,,,,,,,
5663.9000000059605,,shortestpath_phase,1893205,,GW/carmel.png,,,,50,GW/leesburg.png,GW/shreveport.png,0,0,,,,GW/leesburg.png,,,,,One Edge Diff,Five Edge Six Edge,,,,,,
null,,html-keyboard-response,1894207,,<p></p>,,,,null,,,,,,,,,,,,,,,,,,,,
3293.60000000149,,shortestpath_phase,1897502,,GW/gatlinburg.png,,,,49,GW/hotsprings.png,GW/boulder.png,1,0.5,,,,GW/hotsprings.png,,,,,One Edge Diff,Two Edge Three Edge,,,,,,
null,,html-keyboard-response,1898504,,<p></p>,,,,null,,,,,,,,,,,,,,,,,,,,
3381.9000000059605,,shortestpath_phase,1901886,,GW/carmel.png,,,,49,GW/hanover.png,GW/cornwall.png,1,0.6666666666666666,,,,GW/hanover.png,,,,,Four Edge Diff,Two Edge Six Edge,,,,,,
null,,html-keyboard-response,1902888,,<p></p>,,,,null,,,,,,,,,,,,,,,,,,,,
4101.69999999553,,shortestpath_phase,1906991,,GW/cornwall.png,,,,49,GW/carmel.png,GW/westpalmbeach.png,0,0.5,,,,GW/westpalmbeach.png,,,,,Four Edge Diff,Two Edge Six Edge,,,,,,
null,,html-keyboard-response,1907993,,<p></p>,,,,null,,,,,,,,,,,,,,,,,,,,
7247,,shortestpath_phase,1915240,,GW/carmel.png,,,,50,GW/cornwall.png,GW/boulder.png,1,0.6,,,,GW/boulder.png,,,,,Two Edge Diff,Four Edge Six Edge,,,,,,
null,,html-keyboard-response,1916242,,<p></p>,,,,null,,,,,,,,,,,,,,,,,,,,
5390,,shortestpath_phase,1921633,,GW/cornwall.png,,,,49,GW/huntsville.png,GW/westpalmbeach.png,0,0.5,,,,GW/westpalmbeach.png,,,,,Three Edge Diff,Three Edge Six Edge,,,,,,
null,,html-keyboard-response,1922634,,<p></p>,,,,null,,,,,,,,,,,,,,,,,,,,
5431,,shortestpath_phase,1928066,,GW/shreveport.png,,,,50,GW/gatlinburg.png,GW/boulder.png,1,0.5714285714285714,,,,GW/boulder.png,,,,,Three Edge Diff,Three Edge Six Edge,,,,,,
null,,html-keyboard-response,1929067,,<p></p>,,,,null,,,,,,,,,,,,,,,,,,,,
4759.0999999940395,,shortestpath_phase,1933827,,GW/cornwall.png,,,,50,GW/leesburg.png,GW/carmel.png,0,0.5,,,,GW/leesburg.png,,,,,Four Edge Diff,Two Edge Six Edge,,,,,,
null,,html-keyboard-response,1934830,,<p></p>,,,,null,,,,,,,,,,,,,,,,,,,,
3228.3000000044703,,shortestpath_phase,1938059,,GW/shreveport.png,,,,50,GW/racine.png,GW/carmel.png,0,0.4444444444444444,,,,GW/racine.png,,,,,Four Edge Diff,Two Edge Six Edge,,,,,,
null,,html-keyboard-response,1939060,,<p></p>,,,,null,,,,,,,,,,,,,,,,,,,,
2630.1999999955297,,shortestpath_phase,1941691,,GW/hotsprings.png,,,,49,GW/shreveport.png,GW/boulder.png,0,0.4,,,,GW/boulder.png,,,,,Two Edge Diff,Two Edge Four Edge,,,,,,
null,,html-keyboard-response,1942692,,<p></p>,,,,null,,,,,,,,,,,,,,,,,,,,
1551,,shortestpath_phase,1944244,,GW/carmel.png,,,,50,GW/racine.png,GW/hanover.png,1,0.45454545454545453,,,,GW/hanover.png,,,,,Three Edge Diff,Two Edge Five Edge,,,,,,
null,,html-keyboard-response,1945246,,<p></p>,,,,null,,,,,,,,,,,,,,,,,,,,
1845,,shortestpath_phase,1947091,,GW/gatlinburg.png,,,,49,GW/leesburg.png,GW/boulder.png,0,0.4166666666666667,,,,GW/boulder.png,,,,,One Edge Diff,Three Edge Four Edge,,,,,,
null,,html-keyboard-response,1948093,,<p></p>,,,,null,,,,,,,,,,,,,,,,,,,,
2198.89999999851,,shortestpath_phase,1950292,,GW/carmel.png,,,,49,GW/hotsprings.png,GW/shreveport.png,1,0.46153846153846156,,,,GW/hotsprings.png,,,,,Four Edge Diff,Two Edge Six Edge,,,,,,
null,,html-keyboard-response,1951293,,<p></p>,,,,null,,,,,,,,,,,,,,,,,,,,
2150.60000000149,,shortestpath_phase,1953445,,GW/cornwall.png,,,,50,GW/peoria.png,GW/huntsville.png,0,0.42857142857142855,,,,GW/peoria.png,,,,,One Edge Diff,Four Edge Five Edge,,,,,,
null,,html-keyboard-response,1954446,,<p></p>,,,,null,,,,,,,,,,,,,,,,,,,,
2614.2999999970198,,shortestpath_phase,1957061,,GW/shreveport.png,,,,49,GW/boulder.png,GW/huntsville.png,1,0.4666666666666667,,,,GW/boulder.png,,,,,Three Edge Diff,Three Edge Six Edge,,,,,,
null,,html-keyboard-response,1958062,,<p></p>,,,,null,,,,,,,,,,,,,,,,,,,,
2278,,shortestpath_phase,1960341,,GW/cornwall.png,,,,49,GW/gatlinburg.png,GW/peoria.png,0,0.4375,,,,GW/peoria.png,,,,,Two Edge Diff,Four Edge Six Edge,,,,,,
null,,html-keyboard-response,1961342,,<p></p>,,,,null,,,,,,,,,,,,,,,,,,,,
2503,,shortestpath_phase,1963846,,GW/leesburg.png,,,,50,GW/hotsprings.png,GW/carmel.png,0,0.4117647058823529,,,,GW/hotsprings.png,,,,,Two Edge Diff,Three Edge Five Edge,,,,,,
null,,html-keyboard-response,1964849,,<p></p>,,,,null,,,,,,,,,,,,,,,,,,,,
2812.4000000059605,,shortestpath_phase,1967662,,GW/cornwall.png,,,,50,GW/boulder.png,GW/hanover.png,0,0.3888888888888889,,,,GW/boulder.png,,,,,Two Edge Diff,Three Edge Five Edge,,,,,,
null,,html-keyboard-response,1968665,,<p></p>,,,,null,,,,,,,,,,,,,,,,,,,,
3061.60000000149,,shortestpath_phase,1971727,,GW/racine.png,,,,50,GW/huntsville.png,GW/hotsprings.png,1,0.42105263157894735,,,,GW/hotsprings.png,,,,,One Edge Diff,Three Edge Four Edge,,,,,,
null,,html-keyboard-response,1972728,,<p></p>,,,,null,,,,,,,,,,,,,,,,,,,,
4470.39999999851,,shortestpath_phase,1977199,,GW/cornwall.png,,,,50,GW/huntsville.png,GW/gatlinburg.png,0,0.4,,,,GW/huntsville.png,,,,,One Edge Diff,Five Edge Six Edge,,,,,,
null,,html-keyboard-response,1978201,,<p></p>,,,,null,,,,,,,,,,,,,,,,,,,,
5222.5,,shortestpath_phase,1983424,,GW/carmel.png,,,,50,GW/cornwall.png,GW/hotsprings.png,1,0.42857142857142855,,,,GW/hotsprings.png,,,,,Four Edge Diff,Two Edge Six Edge,,,,,,
null,,html-keyboard-response,1984425,,<p></p>,,,,null,,,,,,,,,,,,,,,,,,,,
4582.70000000298,,shortestpath_phase,1989009,,GW/hanover.png,,,,49,GW/boulder.png,GW/cornwall.png,1,0.45454545454545453,,,,GW/boulder.png,,,,,Three Edge Diff,Two Edge Five Edge,,,,,,
null,,html-keyboard-response,1990010,,<p></p>,,,,null,,,,,,,,,,,,,,,,,,,,
4943.10000000149,,shortestpath_phase,1994954,,GW/shreveport.png,,,,50,GW/hanover.png,GW/racine.png,1,0.4782608695652174,,,,GW/racine.png,,,,,Two Edge Diff,Two Edge Four Edge,,,,,,
null,,html-keyboard-response,1995955,,<p></p>,,,,null,,,,,,,,,,,,,,,,,,,,
1998.7000000029802,,shortestpath_phase,1997954,,GW/cornwall.png,,,,49,GW/carmel.png,GW/huntsville.png,0,0.4583333333333333,,,,GW/huntsville.png,,,,,One Edge Diff,Five Edge Six Edge,,,,,,
null,,html-keyboard-response,1998957,,<p></p>,,,,null,,,,,,,,,,,,,,,,,,,,
3397.2000000029802,,shortestpath_phase,2002355,,GW/shreveport.png,,,,50,GW/huntsville.png,GW/newhope.png,1,0.48,,,,GW/newhope.png,,,,,Two Edge Diff,Three Edge Five Edge,,,,,,
null,,html-keyboard-response,2003356,,<p></p>,,,,null,,,,,,,,,,,,,,,,,,,,
4062,,shortestpath_phase,2007419,,GW/carmel.png,,,,50,GW/leesburg.png,GW/cornwall.png,0,0.46153846153846156,,,,GW/leesburg.png,,,,,One Edge Diff,Five Edge Six Edge,,,,,,
null,,html-keyboard-response,2008421,,<p></p>,,,,null,,,,,,,,,,,,,,,,,,,,
4326.5,,shortestpath_phase,2012748,,GW/cornwall.png,,,,50,GW/hotsprings.png,GW/hanover.png,0,0.4444444444444444,,,,GW/hotsprings.png,,,,,One Edge Diff,Four Edge Five Edge,,,,,,
null,,html-keyboard-response,2013750,,<p></p>,,,,null,,,,,,,,,,,,,,,,,,,,
1453.8999999985099,,shortestpath_phase,2015204,,GW/hanover.png,,,,49,GW/cornwall.png,GW/carmel.png,0,0.42857142857142855,,,,GW/carmel.png,,,,,Three Edge Diff,Two Edge Five Edge,,,,,,
null,,html-keyboard-response,2016206,,<p></p>,,,,null,,,,,,,,,,,,,,,,,,,,
3406.1999999955297,,shortestpath_phase,2019613,,GW/hotsprings.png,,,,50,GW/westpalmbeach.png,GW/cornwall.png,0,0.41379310344827586,,,,GW/westpalmbeach.png,,,,,Two Edge Diff,Two Edge Four Edge,,,,,,
null,,html-keyboard-response,2020614,,<p></p>,,,,null,,,,,,,,,,,,,,,,,,,,
2126.2000000029802,,shortestpath_phase,2022741,,GW/shreveport.png,,,,50,GW/boulder.png,GW/carmel.png,0,0.4,,,,GW/boulder.png,,,,,Four Edge Diff,Two Edge Six Edge,,,,,,
null,,html-keyboard-response,2023742,,<p></p>,,,,null,,,,,,,,,,,,,,,,,,,,
3430.8000000044703,,shortestpath_phase,2027173,,GW/leesburg.png,,,,49,GW/gatlinburg.png,GW/peoria.png,0,0.3870967741935484,,,,GW/peoria.png,,,,,Two Edge Diff,Two Edge Four Edge,,,,,,
null,,html-keyboard-response,2028175,,<p></p>,,,,null,,,,,,,,,,,,,,,,,,,,
2814.1999999955297,,shortestpath_phase,2030990,,GW/racine.png,,,,50,GW/carmel.png,GW/hanover.png,1,0.40625,,,,GW/hanover.png,,,,,One Edge Diff,Four Edge Five Edge,,,,,,
null,,html-keyboard-response,2031991,,<p></p>,,,,null,,,,,,,,,,,,,,,,,,,,
1958.3999999985099,,shortestpath_phase,2033950,,GW/leesburg.png,,,,49,GW/carmel.png,GW/peoria.png,0,0.3939393939393939,,,,GW/peoria.png,,,,,Three Edge Diff,Three Edge Six Edge,,,,,,
null,,html-keyboard-response,2034951,,<p></p>,,,,null,,,,,,,,,,,,,,,,,,,,
1822.8999999985099,,shortestpath_phase,2036775,,GW/cornwall.png,,,,50,GW/peoria.png,GW/boulder.png,1,0.4117647058823529,,,,GW/boulder.png,,,,,One Edge Diff,Three Edge Four Edge,,,,,,
null,,html-keyboard-response,2037776,,<p></p>,,,,null,,,,,,,,,,,,,,,,,,,,
1982.1000000014901,,shortestpath_phase,2039759,,GW/gatlinburg.png,,,,50,GW/peoria.png,GW/boulder.png,0,0.4,,,,GW/peoria.png,,,,,One Edge Diff,Two Edge Three Edge,,,,,,
null,,html-keyboard-response,2040761,,<p></p>,,,,null,,,,,,,,,,,,,,,,,,,,
2726.0999999940395,,shortestpath_phase,2043488,,GW/shreveport.png,,,,50,GW/hotsprings.png,GW/boulder.png,1,0.4166666666666667,,,,GW/boulder.png,,,,,Two Edge Diff,Two Edge Four Edge,,,,,,
null,,html-keyboard-response,2044490,,<p></p>,,,,null,,,,,,,,,,,,,,,,,,,,
4933.89999999851,,shortestpath_phase,2049424,,GW/leesburg.png,,,,50,GW/carmel.png,GW/cornwall.png,1,0.43243243243243246,,,,GW/cornwall.png,,,,,Three Edge Diff,Three Edge Six Edge,,,,,,
null,,html-keyboard-response,2050426,,<p></p>,,,,null,,,,,,,,,,,,,,,,,,,,
1334.6000000014901,,shortestpath_phase,2051761,,GW/gatlinburg.png,,,,50,GW/hotsprings.png,GW/cornwall.png,0,0.42105263157894735,,,,GW/hotsprings.png,,,,,Four Edge Diff,Two Edge Six Edge,,,,,,
null,,html-keyboard-response,2052763,,<p></p>,,,,null,,,,,,,,,,,,,,,,,,,,
3653.10000000149,,shortestpath_phase,2056417,,GW/shreveport.png,,,,50,GW/huntsville.png,GW/cornwall.png,1,0.4358974358974359,,,,GW/cornwall.png,,,,,Two Edge Diff,Three Edge Five Edge,,,,,,
null,,html-keyboard-response,2057419,,<p></p>,,,,null,,,,,,,,,,,,,,,,,,,,
917.3999999985099,,shortestpath_phase,2058337,,GW/gatlinburg.png,,,,49,GW/cornwall.png,GW/leesburg.png,0,0.425,,,,GW/leesburg.png,,,,,Two Edge Diff,Four Edge Six Edge,,,,,,
null,,html-keyboard-response,2059339,,<p></p>,,,,null,,,,,,,,,,,,,,,,,,,,
1101.6999999955297,,shortestpath_phase,2060441,,GW/cornwall.png,,,,49,GW/westpalmbeach.png,GW/huntsville.png,1,0.43902439024390244,,,,GW/westpalmbeach.png,,,,,Three Edge Diff,Two Edge Five Edge,,,,,,
null,,html-keyboard-response,2061442,,<p></p>,,,,null,,,,,,,,,,,,,,,,,,,,
4623.5,,shortestpath_phase,2066066,,GW/racine.png,,,,49,GW/shreveport.png,GW/carmel.png,1,0.4523809523809524,,,,GW/shreveport.png,,,,,Three Edge Diff,Three Edge Six Edge,,,,,,
null,,html-keyboard-response,2067069,,<p></p>,,,,null,,,,,,,,,,,,,,,,,,,,
1197.2999999970198,,shortestpath_phase,2068267,,GW/cornwall.png,,,,49,GW/gatlinburg.png,GW/leesburg.png,0,0.4418604651162791,,,,GW/leesburg.png,,,,,Four Edge Diff,Two Edge Six Edge,,,,,,
null,,html-keyboard-response,2069268,,<p></p>,,,,null,,,,,,,,,,,,,,,,,,,,
3950.60000000149,,shortestpath_phase,2073219,,GW/huntsville.png,,,,50,GW/shreveport.png,GW/gatlinburg.png,1,0.45454545454545453,,,,GW/gatlinburg.png,,,,,Three Edge Diff,Two Edge Five Edge,,,,,,
null,,html-keyboard-response,2074221,,<p></p>,,,,null,,,,,,,,,,,,,,,,,,,,
2013.8000000044703,,shortestpath_phase,2076235,,GW/westpalmbeach.png,,,,50,GW/gatlinburg.png,GW/cornwall.png,1,0.4666666666666667,,,,GW/cornwall.png,,,,,Two Edge Diff,Two Edge Four Edge,,,,,,
null,,html-keyboard-response,2077237,,<p></p>,,,,null,,,,,,,,,,,,,,,,,,,,
2062,,shortestpath_phase,2079300,,GW/racine.png,,,,49,GW/carmel.png,GW/huntsville.png,0,0.45652173913043476,,,,GW/huntsville.png,,,,,One Edge Diff,Four Edge Five Edge,,,,,,
null,,html-keyboard-response,2080301,,<p></p>,,,,null,,,,,,,,,,,,,,,,,,,,
1694.1999999955297,,shortestpath_phase,2081996,,GW/cornwall.png,,,,50,GW/westpalmbeach.png,GW/gatlinburg.png,0,0.44680851063829785,,,,GW/westpalmbeach.png,,,,,Four Edge Diff,Two Edge Six Edge,,,,,,
null,,html-keyboard-response,2082998,,<p></p>,,,,null,,,,,,,,,,,,,,,,,,,,
1957.8000000044703,,shortestpath_phase,2084956,,GW/shreveport.png,,,,50,GW/hanover.png,GW/carmel.png,0,0.4375,,,,GW/hanover.png,,,,,Two Edge Diff,Four Edge Six Edge,,,,,,
null,,html-keyboard-response,2085958,,<p></p>,,,,null,,,,,,,,,,,,,,,,,,,,
1133.9000000059605,,shortestpath_phase,2087092,,GW/gatlinburg.png,,,,49,GW/cornwall.png,GW/peoria.png,0,0.42857142857142855,,,,GW/peoria.png,,,,,Four Edge Diff,Two Edge Six Edge,,,,,,
null,,html-keyboard-response,2088094,,<p></p>,,,,null,,,,,,,,,,,,,,,,,,,,
2166.10000000149,,shortestpath_phase,2090261,,GW/carmel.png,,,,49,GW/racine.png,GW/hotsprings.png,0,0.42,,,,GW/hotsprings.png,,,,,Three Edge Diff,Three Edge Six Edge,,,,,,
null,,html-keyboard-response,2091263,,<p></p>,,,,null,,,,,,,,,,,,,,,,,,,,
1261.3999999985099,,shortestpath_phase,2092525,,GW/newhope.png,,,,49,GW/peoria.png,GW/cornwall.png,1,0.43137254901960786,,,,GW/peoria.png,,,,,One Edge Diff,Two Edge Three Edge,,,,,,
null,,html-keyboard-response,2093527,,<p></p>,,,,null,,,,,,,,,,,,,,,,,,,,
1309.6000000014901,,shortestpath_phase,2094838,,GW/cornwall.png,,,,49,GW/gatlinburg.png,GW/hotsprings.png,0,0.4230769230769231,,,,GW/hotsprings.png,,,,,Two Edge Diff,Four Edge Six Edge,,,,,,
null,,html-keyboard-response,2095840,,<p></p>,,,,null,,,,,,,,,,,,,,,,,,,,
2845.9000000059605,,shortestpath_phase,2098686,,GW/carmel.png,,,,50,GW/hanover.png,GW/leesburg.png,0,0.41509433962264153,,,,GW/hanover.png,,,,,Three Edge Diff,Three Edge Six Edge,,,,,,
null,,html-keyboard-response,2099688,,<p></p>,,,,null,,,,,,,,,,,,,,,,,,,,
1341.6000000014901,,shortestpath_phase,2101030,,GW/shreveport.png,,,,50,GW/huntsville.png,GW/carmel.png,0,0.4074074074074074,,,,GW/huntsville.png,,,,,One Edge Diff,Five Edge Six Edge,,,,,,
null,,html-keyboard-response,2102032,,<p></p>,,,,null,,,,,,,,,,,,,,,,,,,,
2246.5,,shortestpath_phase,2104279,,GW/hanover.png,,,,50,GW/cornwall.png,GW/racine.png,1,0.41818181818181815,,,,GW/racine.png,,,,,One Edge Diff,Four Edge Five Edge,,,,,,
null,,html-keyboard-response,2105281,,<p></p>,,,,null,,,,,,,,,,,,,,,,,,,,
4158.20000000298,,shortestpath_phase,2109439,,GW/carmel.png,,,,49,GW/racine.png,GW/westpalmbeach.png,0,0.4107142857142857,,,,GW/westpalmbeach.png,,,,,One Edge Diff,Four Edge Five Edge,,,,,,
null,,html-keyboard-response,2110442,,<p></p>,,,,null,,,,,,,,,,,,,,,,,,,,
2029.5,,shortestpath_phase,2112472,,GW/shreveport.png,,,,50,GW/gatlinburg.png,GW/boulder.png,1,0.42105263157894735,,,,GW/boulder.png,,,,,Three Edge Diff,Two Edge Five Edge,,,,,,
null,,html-keyboard-response,2113473,,<p></p>,,,,null,,,,,,,,,,,,,,,,,,,,
3278.5,,shortestpath_phase,2116752,,GW/hanover.png,,,,50,GW/newhope.png,GW/cornwall.png,0,0.41379310344827586,,,,GW/newhope.png,,,,,Three Edge Diff,Two Edge Five Edge,,,,,,
null,,html-keyboard-response,2117754,,<p></p>,,,,null,,,,,,,,,,,,,,,,,,,,
1805.2000000029802,,shortestpath_phase,2119560,,GW/huntsville.png,,,,50,GW/shreveport.png,GW/peoria.png,1,0.423728813559322,,,,GW/peoria.png,,,,,Three Edge Diff,Three Edge Six Edge,,,,,,
null,,html-keyboard-response,2120561,,<p></p>,,,,null,,,,,,,,,,,,,,,,,,,,
3870.7000000029802,,shortestpath_phase,2124433,,GW/cornwall.png,,,,50,GW/newhope.png,GW/huntsville.png,0,0.4166666666666667,,,,GW/newhope.png,,,,,Two Edge Diff,Three Edge Five Edge,,,,,,
null,,html-keyboard-response,2125434,,<p></p>,,,,null,,,,,,,,,,,,,,,,,,,,
1735.2999999970198,,shortestpath_phase,2127170,,GW/racine.png,,,,49,GW/carmel.png,GW/boulder.png,0,0.4098360655737705,,,,GW/boulder.png,,,,,Three Edge Diff,Three Edge Six Edge,,,,,,
null,,html-keyboard-response,2128172,,<p></p>,,,,null,,,,,,,,,,,,,,,,,,,,
1837.5,,shortestpath_phase,2130010,,GW/gatlinburg.png,,,,50,GW/newhope.png,GW/racine.png,0,0.4032258064516129,,,,GW/newhope.png,,,,,Two Edge Diff,Three Edge Five Edge,,,,,,
null,,html-keyboard-response,2131011,,<p></p>,,,,null,,,,,,,,,,,,,,,,,,,,
3367.2999999970198,,shortestpath_phase,2134379,,GW/carmel.png,,,,50,GW/leesburg.png,GW/peoria.png,1,0.4126984126984127,,,,GW/peoria.png,,,,,Two Edge Diff,Three Edge Five Edge,,,,,,
null,,html-keyboard-response,2135380,,<p></p>,,,,null,,,,,,,,,,,,,,,,,,,,
1605.8000000044703,,shortestpath_phase,2136987,,GW/gatlinburg.png,,,,50,GW/huntsville.png,GW/cornwall.png,0,0.40625,,,,GW/huntsville.png,,,,,Four Edge Diff,Two Edge Six Edge,,,,,,
null,,html-keyboard-response,2137989,,<p></p>,,,,null,,,,,,,,,,,,,,,,,,,,
2589.2000000029802,,shortestpath_phase,2140579,,GW/leesburg.png,,,,49,GW/hotsprings.png,GW/huntsville.png,1,0.4153846153846154,,,,GW/hotsprings.png,,,,,One Edge Diff,Three Edge Four Edge,,,,,,
null,,html-keyboard-response,2141580,,<p></p>,,,,null,,,,,,,,,,,,,,,,,,,,
1854.2999999970198,,shortestpath_phase,2143435,,GW/gatlinburg.png,,,,49,GW/racine.png,GW/peoria.png,0,0.4090909090909091,,,,GW/peoria.png,,,,,Three Edge Diff,Two Edge Five Edge,,,,,,
null,,html-keyboard-response,2144438,,<p></p>,,,,null,,,,,,,,,,,,,,,,,,,,
2517.2000000029802,,shortestpath_phase,2146955,,GW/racine.png,,,,50,GW/newhope.png,GW/gatlinburg.png,0,0.40298507462686567,,,,GW/newhope.png,,,,,Three Edge Diff,Three Edge Six Edge,,,,,,
null,,html-keyboard-response,2147957,,<p></p>,,,,null,,,,,,,,,,,,,,,,,,,,
1765.8000000044703,,shortestpath_phase,2149724,,GW/gatlinburg.png,,,,49,GW/cornwall.png,GW/westpalmbeach.png,0,0.39705882352941174,,,,GW/westpalmbeach.png,,,,,Two Edge Diff,Four Edge Six Edge,,,,,,
null,,html-keyboard-response,2150725,,<p></p>,,,,null,,,,,,,,,,,,,,,,,,,,
1686.5,,shortestpath_phase,2152413,,GW/shreveport.png,,,,49,GW/westpalmbeach.png,GW/boulder.png,0,0.391304347826087,,,,GW/boulder.png,,,,,One Edge Diff,Two Edge Three Edge,,,,,,
null,,html-keyboard-response,2153416,,<p></p>,,,,null,,,,,,,,,,,,,,,,,,,,
3484.60000000149,,shortestpath_phase,2156901,,GW/leesburg.png,,,,49,GW/gatlinburg.png,GW/westpalmbeach.png,0,0.38571428571428573,,,,GW/westpalmbeach.png,,,,,Two Edge Diff,Two Edge Four Edge,,,,,,
null,,html-keyboard-response,2157902,,<p></p>,,,,null,,,,,,,,,,,,,,,,,,,,
3214.5,,shortestpath_phase,2161118,,GW/gatlinburg.png,,,,50,GW/shreveport.png,GW/hotsprings.png,1,0.39436619718309857,,,,GW/hotsprings.png,,,,,Three Edge Diff,Two Edge Five Edge,,,,,,
null,,html-keyboard-response,2162120,,<p></p>,,,,null,,,,,,,,,,,,,,,,,,,,
2925.6999999955297,,shortestpath_phase,2165046,,GW/racine.png,,,,49,GW/gatlinburg.png,GW/boulder.png,0,0.3888888888888889,,,,GW/boulder.png,,,,,Three Edge Diff,Two Edge Five Edge,,,,,,
null,,html-keyboard-response,2166047,,<p></p>,,,,null,,,,,,,,,,,,,,,,,,,,
3630.7000000029802,,shortestpath_phase,2169679,,GW/westpalmbeach.png,,,,50,GW/shreveport.png,GW/carmel.png,0,0.3835616438356164,,,,GW/shreveport.png,,,,,One Edge Diff,Three Edge Four Edge,,,,,,
null,,html-keyboard-response,2170680,,<p></p>,,,,null,,,,,,,,,,,,,,,,,,,,
2414.5,,shortestpath_phase,2173095,,GW/newhope.png,,,,50,GW/racine.png,GW/shreveport.png,0,0.3783783783783784,,,,GW/racine.png,,,,,One Edge Diff,Two Edge Three Edge,,,,,,
null,,html-keyboard-response,2174097,,<p></p>,,,,null,,,,,,,,,,,,,,,,,,,,
2182.2999999970198,,shortestpath_phase,2176280,,GW/peoria.png,,,,50,GW/gatlinburg.png,GW/shreveport.png,0,0.37333333333333335,,,,GW/gatlinburg.png,,,,,One Edge Diff,Two Edge Three Edge,,,,,,
null,,html-keyboard-response,2177281,,<p></p>,,,,null,,,,,,,,,,,,,,,,,,,,
2918,,shortestpath_phase,2180200,,GW/shreveport.png,,,,50,GW/racine.png,GW/gatlinburg.png,0,0.3684210526315789,,,,GW/racine.png,,,,,Three Edge Diff,Two Edge Five Edge,,,,,,
null,,html-keyboard-response,2181202,,<p></p>,,,,null,,,,,,,,,,,,,,,,,,,,
1349,,shortestpath_phase,2182552,,GW/huntsville.png,,,,49,GW/newhope.png,GW/racine.png,1,0.37662337662337664,,,,GW/newhope.png,,,,,Two Edge Diff,Two Edge Four Edge,,,,,,
null,,html-keyboard-response,2183553,,<p></p>,,,,null,,,,,,,,,,,,,,,,,,,,
1406.5,,shortestpath_phase,2184960,,GW/cornwall.png,,,,50,GW/peoria.png,GW/carmel.png,0,0.3717948717948718,,,,GW/peoria.png,,,,,Two Edge Diff,Four Edge Six Edge,,,,,,
null,,html-keyboard-response,2185962,,<p></p>,,,,null,,,,,,,,,,,,,,,,,,,,
1174.6000000014901,,shortestpath_phase,2187137,,GW/shreveport.png,,,,49,GW/gatlinburg.png,GW/newhope.png,0,0.3670886075949367,,,,GW/newhope.png,,,,,Two Edge Diff,Three Edge Five Edge,,,,,,
null,,html-keyboard-response,2188139,,<p></p>,,,,null,,,,,,,,,,,,,,,,,,,,
885.3999999985099,,shortestpath_phase,2189025,,GW/cornwall.png,,,,49,GW/gatlinburg.png,GW/hanover.png,0,0.3625,,,,GW/hanover.png,,,,,One Edge Diff,Five Edge Six Edge,,,,,,
null,,html-keyboard-response,2190027,,<p></p>,,,,null,,,,,,,,,,,,,,,,,,,,
1325.2000000029802,,shortestpath_phase,2191353,,GW/huntsville.png,,,,50,GW/cornwall.png,GW/peoria.png,1,0.37037037037037035,,,,GW/peoria.png,,,,,Three Edge Diff,Two Edge Five Edge,,,,,,
null,,html-keyboard-response,2192354,,<p></p>,,,,null,,,,,,,,,,,,,,,,,,,,
1438.7000000029802,,shortestpath_phase,2193794,,GW/carmel.png,,,,49,GW/westpalmbeach.png,GW/newhope.png,0,0.36585365853658536,,,,GW/newhope.png,,,,,One Edge Diff,Three Edge Four Edge,,,,,,
null,,html-keyboard-response,2194796,,<p></p>,,,,null,,,,,,,,,,,,,,,,,,,,
1149,,shortestpath_phase,2195946,,GW/gatlinburg.png,,,,50,GW/peoria.png,GW/racine.png,0,0.3614457831325301,,,,GW/peoria.png,,,,,Three Edge Diff,Three Edge Six Edge,,,,,,
null,,html-keyboard-response,2196947,,<p></p>,,,,null,,,,,,,,,,,,,,,,,,,,
