rt,responses,trial_type,time_elapsed,sequence,stimulus,graphorder,button_pressed,response,key_press,stimulus_left,stimulus_right,accuracy,cumulative_accuracy,stimulus_down_left,stimulus_down_mid,stimulus_down_right,stimulus_correct,stimulus_short,stimulus_far,weighted_accuracy,missedtrial,condition,specific_pairs,imgL_ID,imgR_ID,linedress,linedressed,linedressed_detor,detour_trial
6491.299999982119,{worker_id:5fc50bb38378c80ac88354ef},id_enter,6496,blocked,replication,GW/newhope.png; GW/peoria.png; GW/hotsprings.png; GW/boulder.png; GW/westpalmbeach.png; GW/shreveport.png; GW/cornwall.png; GW/carmel.png; GW/gatlinburg.png; GW/racine.png; GW/huntsville.png; GW/hanover.png; GW/leesburg.png,,,,,,,,,,,,,,,,,,,,,,,
21221.90000000596,,fullscreen,27725,,fullscreen,,0,,,,,,,,,,,,,,,,,,,,,,
25158.70000001788,,intro_1,52892,,instruct,,0,,,,,,,,,,,,,,,,,,,,,,
30201.70000001788,,intro_2,83096,,instruct,,1,Next,,,,,,,,,,,,,,,,,,,,,
28897.40000000596,,intro_3,111995,,instruct,,1,Next,,,,,,,,,,,,,,,,,,,,,
null,,learn_prac_1,114997,,lean_prac_1,,,,null,,,,,,,,,,,,,,,,,,,,
null,,html-keyboard-response,116002,,<p></p>,,,,null,,,,,,,,,,,,,,,,,,,,
4990.4000000059605,,intro_1,120995,,instruct,,0,,,,,,,,,,,,,,,,,,,,,,
11160.299999982119,,intro_2,132162,,instruct,,1,Next,,,,,,,,,,,,,,,,,,,,,
null,,learn_prac_2,135164,,lean_prac_2,,,,null,,,,,,,,,,,,,,,,,,,,
null,,html-keyboard-response,136167,,<p></p>,,,,null,,,,,,,,,,,,,,,,,,,,
4267.300000011921,,intro_1,140435,,instruct,,0,,,,,,,,,,,,,,,,,,,,,,
8412.299999982119,,intro_2,148849,,instruct,,1,Next,,,,,,,,,,,,,,,,,,,,,
82664.89999997616,,intro_3,231516,,instruct,,1,Next,,,,,,,,,,,,,,,,,,,,,
null,,prac_atten_color_black,231915,,black_plus_sign,,,,null,,,,,,,,,,,,,,,,,,,,
null,,prac_atten_color,232921,,prac_stop_color,,,,null,,,,,,,,,,,,,,,,,,,,
427.80000001192093,,prac_atten_color_black,234924,,black_plus_sign,,,,49,,,,,,,,,,,,,,,,,,,,
null,,prac_atten_color_black,235324,,black_plus_sign,,,,null,,,,,,,,,,,,,,,,,,,,
null,,prac_atten_color,235919,,prac_stop_color,,,,null,,,,,,,,,,,,,,,,,,,,
420.5,,prac_atten_color_black,237922,,black_plus_sign,,,,50,,,,,,,,,,,,,,,,,,,,
null,,prac_atten_color_black,238736,,black_plus_sign,,,,null,,,,,,,,,,,,,,,,,,,,
null,,prac_atten_color,239180,,prac_stop_color,,,,null,,,,,,,,,,,,,,,,,,,,
320.2999999821186,,prac_atten_color_black,241182,,black_plus_sign,,,,50,,,,,,,,,,,,,,,,,,,,
null,,prac_atten_color_black,242160,,black_plus_sign,,,,null,,,,,,,,,,,,,,,,,,,,
731.9000000059605,,prac_atten_color,243178,,prac_stop_color,,,,49,,,,,,,,,,,,,,,,,,,,
null,,prac_atten_color_black,245179,,black_plus_sign,,,,null,,,,,,,,,,,,,,,,,,,,
null,,prac_atten_color_black,245567,,black_plus_sign,,,,null,,,,,,,,,,,,,,,,,,,,
739.9000000059605,,prac_atten_color,246376,,prac_stop_color,,,,50,,,,,,,,,,,,,,,,,,,,
null,,prac_atten_color_black,248379,,black_plus_sign,,,,null,,,,,,,,,,,,,,,,,,,,
null,,prac_atten_color_black,248975,,black_plus_sign,,,,null,,,,,,,,,,,,,,,,,,,,
null,,prac_atten_color,249512,,prac_stop_color,,,,null,,,,,,,,,,,,,,,,,,,,
113.39999997615814,,prac_atten_color_black,251516,,black_plus_sign,,,,50,,,,,,,,,,,,,,,,,,,,
null,,prac_atten_color_black,252386,,black_plus_sign,,,,null,,,,,,,,,,,,,,,,,,,,
null,,prac_atten_color,252882,,prac_stop_color,,,,null,,,,,,,,,,,,,,,,,,,,
65.59999999403954,,prac_atten_color_black,254884,,black_plus_sign,,,,49,,,,,,,,,,,,,,,,,,,,
null,,prac_atten_color_black,255794,,black_plus_sign,,,,null,,,,,,,,,,,,,,,,,,,,
599.3999999761581,,prac_atten_color,256700,,prac_stop_color,,,,50,,,,,,,,,,,,,,,,,,,,
null,,prac_atten_color_black,258702,,black_plus_sign,,,,null,,,,,,,,,,,,,,,,,,,,
null,,prac_atten_color_black,259201,,black_plus_sign,,,,null,,,,,,,,,,,,,,,,,,,,
691.3000000119209,,prac_atten_color,260085,,prac_stop_color,,,,49,,,,,,,,,,,,,,,,,,,,
null,,prac_atten_color_black,262098,,black_plus_sign,,,,null,,,,,,,,,,,,,,,,,,,,
null,,prac_atten_color_black,262620,,black_plus_sign,,,,null,,,,,,,,,,,,,,,,,,,,
735.5,,prac_atten_color,263494,,prac_stop_color,,,,49,,,,,,,,,,,,,,,,,,,,
null,,prac_atten_color_black,265498,,black_plus_sign,,,,null,,,,,,,,,,,,,,,,,,,,
15054.300000011921,,attentioncheck_feedback,280556,,cross_check_feedback,,0,,,,,,,,,,,,,,,,,,,,,,
29111,,last_instruct,309668,,instruct,,,,32,,,,,,,,,,,,,,,,,,,,
null,,learn_phase(without_color),312670,,black_plus_sign,,,,null,GW/racine.png,GW/carmel.png,,,,,,,,,,,,,,,,,,
null,,black_cross(without_color),313739,,yellow,,,,null,GW/racine.png,GW/carmel.png,,,,,,,,,,,,,,,,,,
null,,rt_plussign_withcolor,314241,,yellow,,,,null,GW/racine.png,GW/carmel.png,,,,,,,,,,,,,,,,,,
1478.5999999940395,,rt_thecrossant_black,315180,,black_plus_sign,,,,50,,,1,1,,,,,,,,,,,,,,,,
null,,color_black,315285,,black_plus_sign,,,,null,,,,,,,,,,,,,,,,,,,,
null,,learn_phase(without_color),318290,,black_plus_sign,,,,null,GW/newhope.png,GW/peoria.png,,,,,,,,,,,,,,,,,,
null,,black_cross(without_color),319022,,blue,,,,null,GW/newhope.png,GW/peoria.png,,,,,,,,,,,,,,,,,,
null,,rt_plussign_withcolor,319524,,blue,,,,null,GW/newhope.png,GW/peoria.png,,,,,,,,,,,,,,,,,,
968.6999999880791,,rt_thecrossant_black,320797,,black_plus_sign,,,,49,,,1,1,,,,,,,,,,,,,,,,
null,,color_black,320900,,black_plus_sign,,,,null,,,,,,,,,,,,,,,,,,,,
null,,learn_phase(without_color),323902,,black_plus_sign,,,,null,GW/carmel.png,GW/racine.png,,,,,,,,,,,,,,,,,,
null,,black_cross(without_color),324734,,yellow,,,,null,GW/carmel.png,GW/racine.png,,,,,,,,,,,,,,,,,,
null,,rt_plussign_withcolor,325236,,yellow,,,,null,GW/carmel.png,GW/racine.png,,,,,,,,,,,,,,,,,,
1195.5,,rt_thecrossant_black,326411,,black_plus_sign,,,,50,,,1,1,,,,,,,,,,,,,,,,
null,,color_black,326516,,black_plus_sign,,,,null,,,,,,,,,,,,,,,,,,,,
null,,learn_phase(without_color),329519,,black_plus_sign,,,,null,GW/shreveport.png,GW/cornwall.png,,,,,,,,,,,,,,,,,,
null,,black_cross(without_color),330310,,yellow,,,,null,GW/shreveport.png,GW/cornwall.png,,,,,,,,,,,,,,,,,,
null,,rt_plussign_withcolor,330819,,yellow,,,,null,GW/shreveport.png,GW/cornwall.png,,,,,,,,,,,,,,,,,,
1369.699999988079,,rt_thecrossant_black,332034,,black_plus_sign,,,,50,,,1,1,,,,,,,,,,,,,,,,
null,,color_black,332138,,black_plus_sign,,,,null,,,,,,,,,,,,,,,,,,,,
null,,learn_phase(without_color),335142,,black_plus_sign,,,,null,GW/carmel.png,GW/racine.png,,,,,,,,,,,,,,,,,,
null,,black_cross(without_color),335604,,yellow,,,,null,GW/carmel.png,GW/racine.png,,,,,,,,,,,,,,,,,,
null,,rt_plussign_withcolor,336107,,yellow,,,,null,GW/carmel.png,GW/racine.png,,,,,,,,,,,,,,,,,,
1344.5999999940395,,rt_thecrossant_black,337652,,black_plus_sign,,,,50,,,1,1,,,,,,,,,,,,,,,,
null,,color_black,337757,,black_plus_sign,,,,null,,,,,,,,,,,,,,,,,,,,
null,,learn_phase(without_color),340762,,black_plus_sign,,,,null,GW/newhope.png,GW/peoria.png,,,,,,,,,,,,,,,,,,
null,,black_cross(without_color),341782,,blue,,,,null,GW/newhope.png,GW/peoria.png,,,,,,,,,,,,,,,,,,
437.2999999821186,,rt_plussign_withcolor,342285,,blue,,,,49,GW/newhope.png,GW/peoria.png,,,,,,,,,,,,,,,,,,
null,,rt_thecrossant_black,343272,,black_plus_sign,,,,49,,,1,1,,,,,,,,,,,,,,,,
null,,color_black,343375,,black_plus_sign,,,,null,,,,,,,,,,,,,,,,,,,,
null,,learn_phase(without_color),346379,,black_plus_sign,,,,null,GW/racine.png,GW/carmel.png,,,,,,,,,,,,,,,,,,
null,,black_cross(without_color),347182,,blue,,,,null,GW/racine.png,GW/carmel.png,,,,,,,,,,,,,,,,,,
null,,rt_plussign_withcolor,347686,,blue,,,,null,GW/racine.png,GW/carmel.png,,,,,,,,,,,,,,,,,,
1407.5999999940395,,rt_thecrossant_black,348890,,black_plus_sign,,,,49,,,1,1,,,,,,,,,,,,,,,,
null,,color_black,348992,,black_plus_sign,,,,null,,,,,,,,,,,,,,,,,,,,
null,,learn_phase(without_color),351995,,black_plus_sign,,,,null,GW/cornwall.png,GW/shreveport.png,,,,,,,,,,,,,,,,,,
null,,black_cross(without_color),352646,,yellow,,,,null,GW/cornwall.png,GW/shreveport.png,,,,,,,,,,,,,,,,,,
null,,rt_plussign_withcolor,353148,,yellow,,,,null,GW/cornwall.png,GW/shreveport.png,,,,,,,,,,,,,,,,,,
1211.300000011921,,rt_thecrossant_black,354507,,black_plus_sign,,,,50,,,1,1,,,,,,,,,,,,,,,,
null,,color_black,354609,,black_plus_sign,,,,null,,,,,,,,,,,,,,,,,,,,
null,,learn_phase(without_color),357614,,black_plus_sign,,,,null,GW/racine.png,GW/carmel.png,,,,,,,,,,,,,,,,,,
null,,black_cross(without_color),358406,,yellow,,,,null,GW/racine.png,GW/carmel.png,,,,,,,,,,,,,,,,,,
null,,rt_plussign_withcolor,358909,,yellow,,,,null,GW/racine.png,GW/carmel.png,,,,,,,,,,,,,,,,,,
788.0999999940395,,rt_thecrossant_black,360125,,black_plus_sign,,,,50,,,1,1,,,,,,,,,,,,,,,,
null,,color_black,360229,,black_plus_sign,,,,null,,,,,,,,,,,,,,,,,,,,
null,,learn_phase(without_color),363239,,black_plus_sign,,,,null,GW/gatlinburg.png,GW/huntsville.png,,,,,,,,,,,,,,,,,,
null,,black_cross(without_color),363968,,blue,,,,null,GW/gatlinburg.png,GW/huntsville.png,,,,,,,,,,,,,,,,,,
null,,rt_plussign_withcolor,364472,,blue,,,,null,GW/gatlinburg.png,GW/huntsville.png,,,,,,,,,,,,,,,,,,
1178.4000000059605,,rt_thecrossant_black,365749,,black_plus_sign,,,,49,,,1,1,,,,,,,,,,,,,,,,
null,,color_black,365852,,black_plus_sign,,,,null,,,,,,,,,,,,,,,,,,,,
null,,learn_phase(without_color),368858,,black_plus_sign,,,,null,GW/shreveport.png,GW/cornwall.png,,,,,,,,,,,,,,,,,,
null,,black_cross(without_color),369901,,blue,,,,null,GW/shreveport.png,GW/cornwall.png,,,,,,,,,,,,,,,,,,
null,,rt_plussign_withcolor,370404,,blue,,,,null,GW/shreveport.png,GW/cornwall.png,,,,,,,,,,,,,,,,,,
1089.5,,rt_thecrossant_black,371366,,black_plus_sign,,,,49,,,1,1,,,,,,,,,,,,,,,,
null,,color_black,371469,,black_plus_sign,,,,null,,,,,,,,,,,,,,,,,,,,
null,,learn_phase(without_color),374474,,black_plus_sign,,,,null,GW/carmel.png,GW/racine.png,,,,,,,,,,,,,,,,,,
null,,black_cross(without_color),375441,,blue,,,,null,GW/carmel.png,GW/racine.png,,,,,,,,,,,,,,,,,,
null,,rt_plussign_withcolor,375944,,blue,,,,null,GW/carmel.png,GW/racine.png,,,,,,,,,,,,,,,,,,
1330.4000000059605,,rt_thecrossant_black,376981,,black_plus_sign,,,,50,,,0,0.9166666666666666,,,,,,,,,,,,,,,,
null,,color_black,377086,,black_plus_sign,,,,null,,,,,,,,,,,,,,,,,,,,
null,,learn_phase(without_color),380089,,black_plus_sign,,,,null,GW/cornwall.png,GW/shreveport.png,,,,,,,,,,,,,,,,,,
null,,black_cross(without_color),380647,,yellow,,,,null,GW/cornwall.png,GW/shreveport.png,,,,,,,,,,,,,,,,,,
null,,rt_plussign_withcolor,381149,,yellow,,,,null,GW/cornwall.png,GW/shreveport.png,,,,,,,,,,,,,,,,,,
1399.5,,rt_thecrossant_black,382596,,black_plus_sign,,,,50,,,1,0.9230769230769231,,,,,,,,,,,,,,,,
null,,color_black,382699,,black_plus_sign,,,,null,,,,,,,,,,,,,,,,,,,,
null,,learn_phase(without_color),385702,,black_plus_sign,,,,null,GW/newhope.png,GW/peoria.png,,,,,,,,,,,,,,,,,,
null,,black_cross(without_color),386133,,blue,,,,null,GW/newhope.png,GW/peoria.png,,,,,,,,,,,,,,,,,,
null,,rt_plussign_withcolor,386636,,blue,,,,null,GW/newhope.png,GW/peoria.png,,,,,,,,,,,,,,,,,,
1039.5,,rt_thecrossant_black,388213,,black_plus_sign,,,,49,,,1,0.9285714285714286,,,,,,,,,,,,,,,,
null,,color_black,388316,,black_plus_sign,,,,null,,,,,,,,,,,,,,,,,,,,
null,,learn_phase(without_color),391321,,black_plus_sign,,,,null,GW/racine.png,GW/carmel.png,,,,,,,,,,,,,,,,,,
null,,black_cross(without_color),392145,,blue,,,,null,GW/racine.png,GW/carmel.png,,,,,,,,,,,,,,,,,,
null,,rt_plussign_withcolor,392651,,blue,,,,null,GW/racine.png,GW/carmel.png,,,,,,,,,,,,,,,,,,
820.5999999940395,,rt_thecrossant_black,393836,,black_plus_sign,,,,49,,,1,0.9333333333333333,,,,,,,,,,,,,,,,
null,,color_black,393938,,black_plus_sign,,,,null,,,,,,,,,,,,,,,,,,,,
null,,learn_phase(without_color),396941,,black_plus_sign,,,,null,GW/shreveport.png,GW/cornwall.png,,,,,,,,,,,,,,,,,,
null,,black_cross(without_color),398036,,yellow,,,,null,GW/shreveport.png,GW/cornwall.png,,,,,,,,,,,,,,,,,,
null,,rt_plussign_withcolor,398539,,yellow,,,,null,GW/shreveport.png,GW/cornwall.png,,,,,,,,,,,,,,,,,,
1161.5999999940395,,rt_thecrossant_black,399449,,black_plus_sign,,,,50,,,1,0.9375,,,,,,,,,,,,,,,,
null,,color_black,399552,,black_plus_sign,,,,null,,,,,,,,,,,,,,,,,,,,
null,,learn_phase(without_color),402556,,black_plus_sign,,,,null,GW/gatlinburg.png,GW/huntsville.png,,,,,,,,,,,,,,,,,,
null,,black_cross(without_color),403446,,yellow,,,,null,GW/gatlinburg.png,GW/huntsville.png,,,,,,,,,,,,,,,,,,
null,,rt_plussign_withcolor,403949,,yellow,,,,null,GW/gatlinburg.png,GW/huntsville.png,,,,,,,,,,,,,,,,,,
1463,,rt_thecrossant_black,405064,,black_plus_sign,,,,50,,,1,0.9411764705882353,,,,,,,,,,,,,,,,
null,,color_black,405167,,black_plus_sign,,,,null,,,,,,,,,,,,,,,,,,,,
null,,learn_phase(without_color),408169,,black_plus_sign,,,,null,GW/cornwall.png,GW/shreveport.png,,,,,,,,,,,,,,,,,,
null,,black_cross(without_color),408838,,blue,,,,null,GW/cornwall.png,GW/shreveport.png,,,,,,,,,,,,,,,,,,
null,,rt_plussign_withcolor,409341,,blue,,,,null,GW/cornwall.png,GW/shreveport.png,,,,,,,,,,,,,,,,,,
1440.699999988079,,rt_thecrossant_black,410687,,black_plus_sign,,,,49,,,1,0.9444444444444444,,,,,,,,,,,,,,,,
null,,color_black,410790,,black_plus_sign,,,,null,,,,,,,,,,,,,,,,,,,,
null,,learn_phase(without_color),413795,,black_plus_sign,,,,null,GW/newhope.png,GW/peoria.png,,,,,,,,,,,,,,,,,,
null,,black_cross(without_color),414723,,blue,,,,null,GW/newhope.png,GW/peoria.png,,,,,,,,,,,,,,,,,,
null,,rt_plussign_withcolor,415227,,blue,,,,null,GW/newhope.png,GW/peoria.png,,,,,,,,,,,,,,,,,,
1002.0999999940395,,rt_thecrossant_black,416304,,black_plus_sign,,,,49,,,1,0.9473684210526315,,,,,,,,,,,,,,,,
null,,color_black,416409,,black_plus_sign,,,,null,,,,,,,,,,,,,,,,,,,,
null,,learn_phase(without_color),419414,,black_plus_sign,,,,null,GW/gatlinburg.png,GW/huntsville.png,,,,,,,,,,,,,,,,,,
null,,black_cross(without_color),420155,,yellow,,,,null,GW/gatlinburg.png,GW/huntsville.png,,,,,,,,,,,,,,,,,,
null,,rt_plussign_withcolor,420657,,yellow,,,,null,GW/gatlinburg.png,GW/huntsville.png,,,,,,,,,,,,,,,,,,
1156.0999999940395,,rt_thecrossant_black,421922,,black_plus_sign,,,,50,,,1,0.95,,,,,,,,,,,,,,,,
null,,color_black,422026,,black_plus_sign,,,,null,,,,,,,,,,,,,,,,,,,,
null,,learn_phase(without_color),425028,,black_plus_sign,,,,null,GW/cornwall.png,GW/shreveport.png,,,,,,,,,,,,,,,,,,
null,,black_cross(without_color),425439,,yellow,,,,null,GW/cornwall.png,GW/shreveport.png,,,,,,,,,,,,,,,,,,
null,,rt_plussign_withcolor,425942,,yellow,,,,null,GW/cornwall.png,GW/shreveport.png,,,,,,,,,,,,,,,,,,
1140,,rt_thecrossant_black,427535,,black_plus_sign,,,,50,,,1,0.9523809523809523,,,,,,,,,,,,,,,,
null,,color_black,427640,,black_plus_sign,,,,null,,,,,,,,,,,,,,,,,,,,
null,,learn_phase(without_color),430644,,black_plus_sign,,,,null,GW/huntsville.png,GW/gatlinburg.png,,,,,,,,,,,,,,,,,,
null,,black_cross(without_color),431574,,yellow,,,,null,GW/huntsville.png,GW/gatlinburg.png,,,,,,,,,,,,,,,,,,
null,,rt_plussign_withcolor,432076,,yellow,,,,null,GW/huntsville.png,GW/gatlinburg.png,,,,,,,,,,,,,,,,,,
652.2999999821186,,rt_thecrossant_black,433151,,black_plus_sign,,,,50,,,1,0.9545454545454546,,,,,,,,,,,,,,,,
null,,color_black,433253,,black_plus_sign,,,,null,,,,,,,,,,,,,,,,,,,,
null,,learn_phase(without_color),436257,,black_plus_sign,,,,null,GW/newhope.png,GW/peoria.png,,,,,,,,,,,,,,,,,,
null,,black_cross(without_color),436949,,blue,,,,null,GW/newhope.png,GW/peoria.png,,,,,,,,,,,,,,,,,,
null,,rt_plussign_withcolor,437452,,blue,,,,null,GW/newhope.png,GW/peoria.png,,,,,,,,,,,,,,,,,,
1249.2999999821186,,rt_thecrossant_black,438776,,black_plus_sign,,,,49,,,1,0.9565217391304348,,,,,,,,,,,,,,,,
null,,color_black,438880,,black_plus_sign,,,,null,,,,,,,,,,,,,,,,,,,,
null,,learn_phase(without_color),441885,,black_plus_sign,,,,null,GW/huntsville.png,GW/gatlinburg.png,,,,,,,,,,,,,,,,,,
null,,black_cross(without_color),442625,,blue,,,,null,GW/huntsville.png,GW/gatlinburg.png,,,,,,,,,,,,,,,,,,
null,,rt_plussign_withcolor,443127,,blue,,,,null,GW/huntsville.png,GW/gatlinburg.png,,,,,,,,,,,,,,,,,,
1065,,rt_thecrossant_black,444393,,black_plus_sign,,,,49,,,1,0.9583333333333334,,,,,,,,,,,,,,,,
null,,color_black,444497,,black_plus_sign,,,,null,,,,,,,,,,,,,,,,,,,,
null,,learn_phase(without_color),447502,,black_plus_sign,,,,null,GW/racine.png,GW/carmel.png,,,,,,,,,,,,,,,,,,
null,,black_cross(without_color),448075,,yellow,,,,null,GW/racine.png,GW/carmel.png,,,,,,,,,,,,,,,,,,
null,,rt_plussign_withcolor,448579,,yellow,,,,null,GW/racine.png,GW/carmel.png,,,,,,,,,,,,,,,,,,
1115.7999999821186,,rt_thecrossant_black,450015,,black_plus_sign,,,,50,,,1,0.96,,,,,,,,,,,,,,,,
null,,color_black,450119,,black_plus_sign,,,,null,,,,,,,,,,,,,,,,,,,,
null,,learn_phase(without_color),453121,,black_plus_sign,,,,null,GW/gatlinburg.png,GW/huntsville.png,,,,,,,,,,,,,,,,,,
null,,black_cross(without_color),453909,,yellow,,,,null,GW/gatlinburg.png,GW/huntsville.png,,,,,,,,,,,,,,,,,,
null,,rt_plussign_withcolor,454411,,yellow,,,,null,GW/gatlinburg.png,GW/huntsville.png,,,,,,,,,,,,,,,,,,
940.2000000178814,,rt_thecrossant_black,455631,,black_plus_sign,,,,50,,,1,0.9615384615384616,,,,,,,,,,,,,,,,
null,,color_black,455746,,black_plus_sign,,,,null,,,,,,,,,,,,,,,,,,,,
null,,learn_phase(without_color),458751,,black_plus_sign,,,,null,GW/cornwall.png,GW/shreveport.png,,,,,,,,,,,,,,,,,,
null,,black_cross(without_color),459627,,yellow,,,,null,GW/cornwall.png,GW/shreveport.png,,,,,,,,,,,,,,,,,,
null,,rt_plussign_withcolor,460130,,yellow,,,,null,GW/cornwall.png,GW/shreveport.png,,,,,,,,,,,,,,,,,,
1029.7000000178814,,rt_thecrossant_black,461261,,black_plus_sign,,,,50,,,1,0.9629629629629629,,,,,,,,,,,,,,,,
null,,color_black,461364,,black_plus_sign,,,,null,,,,,,,,,,,,,,,,,,,,
null,,learn_phase(without_color),464369,,black_plus_sign,,,,null,GW/huntsville.png,GW/gatlinburg.png,,,,,,,,,,,,,,,,,,
null,,black_cross(without_color),464966,,yellow,,,,null,GW/huntsville.png,GW/gatlinburg.png,,,,,,,,,,,,,,,,,,
null,,rt_plussign_withcolor,465469,,yellow,,,,null,GW/huntsville.png,GW/gatlinburg.png,,,,,,,,,,,,,,,,,,
1170.8999999761581,,rt_thecrossant_black,466879,,black_plus_sign,,,,50,,,1,0.9642857142857143,,,,,,,,,,,,,,,,
null,,color_black,466983,,black_plus_sign,,,,null,,,,,,,,,,,,,,,,,,,,
null,,learn_phase(without_color),469987,,black_plus_sign,,,,null,GW/newhope.png,GW/peoria.png,,,,,,,,,,,,,,,,,,
null,,black_cross(without_color),470792,,blue,,,,null,GW/newhope.png,GW/peoria.png,,,,,,,,,,,,,,,,,,
null,,rt_plussign_withcolor,471296,,blue,,,,null,GW/newhope.png,GW/peoria.png,,,,,,,,,,,,,,,,,,
1120.2999999821186,,rt_thecrossant_black,472513,,black_plus_sign,,,,49,,,1,0.9655172413793104,,,,,,,,,,,,,,,,
null,,color_black,472616,,black_plus_sign,,,,null,,,,,,,,,,,,,,,,,,,,
null,,learn_phase(without_color),475621,,black_plus_sign,,,,null,GW/peoria.png,GW/newhope.png,,,,,,,,,,,,,,,,,,
null,,black_cross(without_color),476624,,yellow,,,,null,GW/peoria.png,GW/newhope.png,,,,,,,,,,,,,,,,,,
null,,rt_plussign_withcolor,477127,,yellow,,,,null,GW/peoria.png,GW/newhope.png,,,,,,,,,,,,,,,,,,
1035.6000000238419,,rt_thecrossant_black,478131,,black_plus_sign,,,,50,,,1,0.9666666666666667,,,,,,,,,,,,,,,,
null,,color_black,478237,,black_plus_sign,,,,null,,,,,,,,,,,,,,,,,,,,
null,,learn_phase(without_color),481240,,black_plus_sign,,,,null,GW/gatlinburg.png,GW/huntsville.png,,,,,,,,,,,,,,,,,,
null,,black_cross(without_color),481902,,yellow,,,,null,GW/gatlinburg.png,GW/huntsville.png,,,,,,,,,,,,,,,,,,
null,,rt_plussign_withcolor,482405,,yellow,,,,null,GW/gatlinburg.png,GW/huntsville.png,,,,,,,,,,,,,,,,,,
1346.0999999940395,,rt_thecrossant_black,483748,,black_plus_sign,,,,50,,,1,0.967741935483871,,,,,,,,,,,,,,,,
null,,color_black,483851,,black_plus_sign,,,,null,,,,,,,,,,,,,,,,,,,,
null,,learn_phase(without_color),486856,,black_plus_sign,,,,null,GW/newhope.png,GW/peoria.png,,,,,,,,,,,,,,,,,,
null,,black_cross(without_color),487569,,blue,,,,null,GW/newhope.png,GW/peoria.png,,,,,,,,,,,,,,,,,,
null,,rt_plussign_withcolor,488072,,blue,,,,null,GW/newhope.png,GW/peoria.png,,,,,,,,,,,,,,,,,,
1156.2000000178814,,rt_thecrossant_black,489366,,black_plus_sign,,,,49,,,1,0.96875,,,,,,,,,,,,,,,,
null,,color_black,489470,,black_plus_sign,,,,null,,,,,,,,,,,,,,,,,,,,
null,,learn_phase(without_color),492474,,black_plus_sign,,,,null,GW/peoria.png,GW/hotsprings.png,,,,,,,,,,,,,,,,,,
null,,black_cross(without_color),493415,,blue,,,,null,GW/peoria.png,GW/hotsprings.png,,,,,,,,,,,,,,,,,,
null,,rt_plussign_withcolor,493918,,blue,,,,null,GW/peoria.png,GW/hotsprings.png,,,,,,,,,,,,,,,,,,
1190,,rt_thecrossant_black,494986,,black_plus_sign,,,,49,,,1,0.9696969696969697,,,,,,,,,,,,,,,,
null,,color_black,495088,,black_plus_sign,,,,null,,,,,,,,,,,,,,,,,,,,
null,,learn_phase(without_color),498091,,black_plus_sign,,,,null,GW/huntsville.png,GW/hanover.png,,,,,,,,,,,,,,,,,,
null,,black_cross(without_color),498925,,blue,,,,null,GW/huntsville.png,GW/hanover.png,,,,,,,,,,,,,,,,,,
null,,rt_plussign_withcolor,499439,,blue,,,,null,GW/huntsville.png,GW/hanover.png,,,,,,,,,,,,,,,,,,
1243.4000000059605,,rt_thecrossant_black,500612,,black_plus_sign,,,,49,,,1,0.9705882352941176,,,,,,,,,,,,,,,,
null,,color_black,500716,,black_plus_sign,,,,null,,,,,,,,,,,,,,,,,,,,
null,,learn_phase(without_color),503718,,black_plus_sign,,,,null,GW/boulder.png,GW/westpalmbeach.png,,,,,,,,,,,,,,,,,,
null,,black_cross(without_color),504802,,blue,,,,null,GW/boulder.png,GW/westpalmbeach.png,,,,,,,,,,,,,,,,,,
null,,rt_plussign_withcolor,505305,,blue,,,,null,GW/boulder.png,GW/westpalmbeach.png,,,,,,,,,,,,,,,,,,
1164.4000000059605,,rt_thecrossant_black,506226,,black_plus_sign,,,,49,,,1,0.9714285714285714,,,,,,,,,,,,,,,,
null,,color_black,506331,,black_plus_sign,,,,null,,,,,,,,,,,,,,,,,,,,
null,,learn_phase(without_color),509335,,black_plus_sign,,,,null,GW/gatlinburg.png,GW/cornwall.png,,,,,,,,,,,,,,,,,,
null,,black_cross(without_color),509787,,yellow,,,,null,GW/gatlinburg.png,GW/cornwall.png,,,,,,,,,,,,,,,,,,
null,,rt_plussign_withcolor,510289,,yellow,,,,null,GW/gatlinburg.png,GW/cornwall.png,,,,,,,,,,,,,,,,,,
1464.4000000059605,,rt_thecrossant_black,511844,,black_plus_sign,,,,50,,,1,0.9722222222222222,,,,,,,,,,,,,,,,
null,,color_black,511947,,black_plus_sign,,,,null,,,,,,,,,,,,,,,,,,,,
null,,learn_phase(without_color),514952,,black_plus_sign,,,,null,GW/hotsprings.png,GW/peoria.png,,,,,,,,,,,,,,,,,,
null,,black_cross(without_color),515925,,yellow,,,,null,GW/hotsprings.png,GW/peoria.png,,,,,,,,,,,,,,,,,,
null,,rt_plussign_withcolor,516430,,yellow,,,,null,GW/hotsprings.png,GW/peoria.png,,,,,,,,,,,,,,,,,,
739.2000000178814,,rt_thecrossant_black,517465,,black_plus_sign,,,,50,,,1,0.972972972972973,,,,,,,,,,,,,,,,
null,,color_black,517569,,black_plus_sign,,,,null,,,,,,,,,,,,,,,,,,,,
null,,learn_phase(without_color),520571,,black_plus_sign,,,,null,GW/boulder.png,GW/westpalmbeach.png,,,,,,,,,,,,,,,,,,
null,,black_cross(without_color),521515,,blue,,,,null,GW/boulder.png,GW/westpalmbeach.png,,,,,,,,,,,,,,,,,,
null,,rt_plussign_withcolor,522016,,blue,,,,null,GW/boulder.png,GW/westpalmbeach.png,,,,,,,,,,,,,,,,,,
1249.6000000238419,,rt_thecrossant_black,523078,,black_plus_sign,,,,49,,,1,0.9736842105263158,,,,,,,,,,,,,,,,
null,,color_black,523180,,black_plus_sign,,,,null,,,,,,,,,,,,,,,,,,,,
null,,learn_phase(without_color),526181,,black_plus_sign,,,,null,GW/gatlinburg.png,GW/cornwall.png,,,,,,,,,,,,,,,,,,
null,,black_cross(without_color),527245,,blue,,,,null,GW/gatlinburg.png,GW/cornwall.png,,,,,,,,,,,,,,,,,,
null,,rt_plussign_withcolor,527748,,blue,,,,null,GW/gatlinburg.png,GW/cornwall.png,,,,,,,,,,,,,,,,,,
1230,,rt_thecrossant_black,528690,,black_plus_sign,,,,49,,,1,0.9743589743589743,,,,,,,,,,,,,,,,
null,,color_black,528798,,black_plus_sign,,,,null,,,,,,,,,,,,,,,,,,,,
null,,learn_phase(without_color),531802,,black_plus_sign,,,,null,GW/hanover.png,GW/huntsville.png,,,,,,,,,,,,,,,,,,
null,,black_cross(without_color),532241,,blue,,,,null,GW/hanover.png,GW/huntsville.png,,,,,,,,,,,,,,,,,,
null,,rt_plussign_withcolor,532744,,blue,,,,null,GW/hanover.png,GW/huntsville.png,,,,,,,,,,,,,,,,,,
1459,,rt_thecrossant_black,534312,,black_plus_sign,,,,49,,,1,0.975,,,,,,,,,,,,,,,,
null,,color_black,534417,,black_plus_sign,,,,null,,,,,,,,,,,,,,,,,,,,
null,,learn_phase(without_color),537422,,black_plus_sign,,,,null,GW/gatlinburg.png,GW/cornwall.png,,,,,,,,,,,,,,,,,,
null,,black_cross(without_color),538189,,yellow,,,,null,GW/gatlinburg.png,GW/cornwall.png,,,,,,,,,,,,,,,,,,
null,,rt_plussign_withcolor,538705,,yellow,,,,null,GW/gatlinburg.png,GW/cornwall.png,,,,,,,,,,,,,,,,,,
594.4000000059605,,rt_thecrossant_black,539944,,black_plus_sign,,,,50,,,1,0.975609756097561,,,,,,,,,,,,,,,,
null,,color_black,540048,,black_plus_sign,,,,null,,,,,,,,,,,,,,,,,,,,
null,,learn_phase(without_color),543053,,black_plus_sign,,,,null,GW/peoria.png,GW/hotsprings.png,,,,,,,,,,,,,,,,,,
null,,black_cross(without_color),543598,,yellow,,,,null,GW/peoria.png,GW/hotsprings.png,,,,,,,,,,,,,,,,,,
null,,rt_plussign_withcolor,544100,,yellow,,,,null,GW/peoria.png,GW/hotsprings.png,,,,,,,,,,,,,,,,,,
1013.8000000119209,,rt_thecrossant_black,545563,,black_plus_sign,,,,50,,,1,0.9761904761904762,,,,,,,,,,,,,,,,
null,,color_black,545666,,black_plus_sign,,,,null,,,,,,,,,,,,,,,,,,,,
null,,learn_phase(without_color),548669,,black_plus_sign,,,,null,GW/huntsville.png,GW/hanover.png,,,,,,,,,,,,,,,,,,
null,,black_cross(without_color),549192,,yellow,,,,null,GW/huntsville.png,GW/hanover.png,,,,,,,,,,,,,,,,,,
null,,rt_plussign_withcolor,549695,,yellow,,,,null,GW/huntsville.png,GW/hanover.png,,,,,,,,,,,,,,,,,,
844.7000000178814,,rt_thecrossant_black,551186,,black_plus_sign,,,,50,,,1,0.9767441860465116,,,,,,,,,,,,,,,,
null,,color_black,551290,,black_plus_sign,,,,null,,,,,,,,,,,,,,,,,,,,
null,,learn_phase(without_color),554293,,black_plus_sign,,,,null,GW/westpalmbeach.png,GW/boulder.png,,,,,,,,,,,,,,,,,,
null,,black_cross(without_color),554864,,blue,,,,null,GW/westpalmbeach.png,GW/boulder.png,,,,,,,,,,,,,,,,,,
null,,rt_plussign_withcolor,555367,,blue,,,,null,GW/westpalmbeach.png,GW/boulder.png,,,,,,,,,,,,,,,,,,
864.3999999761581,,rt_thecrossant_black,556802,,black_plus_sign,,,,49,,,1,0.9772727272727273,,,,,,,,,,,,,,,,
null,,color_black,556904,,black_plus_sign,,,,null,,,,,,,,,,,,,,,,,,,,
null,,learn_phase(without_color),559908,,black_plus_sign,,,,null,GW/peoria.png,GW/hotsprings.png,,,,,,,,,,,,,,,,,,
null,,black_cross(without_color),560926,,yellow,,,,null,GW/peoria.png,GW/hotsprings.png,,,,,,,,,,,,,,,,,,
null,,rt_plussign_withcolor,561430,,yellow,,,,null,GW/peoria.png,GW/hotsprings.png,,,,,,,,,,,,,,,,,,
745,,rt_thecrossant_black,562421,,black_plus_sign,,,,50,,,1,0.9777777777777777,,,,,,,,,,,,,,,,
null,,color_black,562524,,black_plus_sign,,,,null,,,,,,,,,,,,,,,,,,,,
null,,learn_phase(without_color),565530,,black_plus_sign,,,,null,GW/hanover.png,GW/huntsville.png,,,,,,,,,,,,,,,,,,
null,,black_cross(without_color),565991,,blue,,,,null,GW/hanover.png,GW/huntsville.png,,,,,,,,,,,,,,,,,,
null,,rt_plussign_withcolor,566494,,blue,,,,null,GW/hanover.png,GW/huntsville.png,,,,,,,,,,,,,,,,,,
1198,,rt_thecrossant_black,568038,,black_plus_sign,,,,49,,,1,0.9782608695652174,,,,,,,,,,,,,,,,
null,,color_black,568142,,black_plus_sign,,,,null,,,,,,,,,,,,,,,,,,,,
null,,learn_phase(without_color),571146,,black_plus_sign,,,,null,GW/gatlinburg.png,GW/cornwall.png,,,,,,,,,,,,,,,,,,
null,,black_cross(without_color),571906,,blue,,,,null,GW/gatlinburg.png,GW/cornwall.png,,,,,,,,,,,,,,,,,,
null,,rt_plussign_withcolor,572408,,blue,,,,null,GW/gatlinburg.png,GW/cornwall.png,,,,,,,,,,,,,,,,,,
777.3000000119209,,rt_thecrossant_black,573655,,black_plus_sign,,,,49,,,1,0.9787234042553191,,,,,,,,,,,,,,,,
null,,color_black,573759,,black_plus_sign,,,,null,,,,,,,,,,,,,,,,,,,,
null,,learn_phase(without_color),576762,,black_plus_sign,,,,null,GW/peoria.png,GW/hotsprings.png,,,,,,,,,,,,,,,,,,
null,,black_cross(without_color),577810,,yellow,,,,null,GW/peoria.png,GW/hotsprings.png,,,,,,,,,,,,,,,,,,
null,,rt_plussign_withcolor,578313,,yellow,,,,null,GW/peoria.png,GW/hotsprings.png,,,,,,,,,,,,,,,,,,
889.9000000059605,,rt_thecrossant_black,579271,,black_plus_sign,,,,50,,,1,0.9791666666666666,,,,,,,,,,,,,,,,
null,,color_black,579373,,black_plus_sign,,,,null,,,,,,,,,,,,,,,,,,,,
null,,learn_phase(without_color),582376,,black_plus_sign,,,,null,GW/hanover.png,GW/huntsville.png,,,,,,,,,,,,,,,,,,
null,,black_cross(without_color),582812,,yellow,,,,null,GW/hanover.png,GW/huntsville.png,,,,,,,,,,,,,,,,,,
null,,rt_plussign_withcolor,583315,,yellow,,,,null,GW/hanover.png,GW/huntsville.png,,,,,,,,,,,,,,,,,,
1432.0999999940395,,rt_thecrossant_black,584885,,black_plus_sign,,,,50,,,1,0.9795918367346939,,,,,,,,,,,,,,,,
null,,color_black,584987,,black_plus_sign,,,,null,,,,,,,,,,,,,,,,,,,,
null,,learn_phase(without_color),587991,,black_plus_sign,,,,null,GW/cornwall.png,GW/gatlinburg.png,,,,,,,,,,,,,,,,,,
null,,black_cross(without_color),588574,,blue,,,,null,GW/cornwall.png,GW/gatlinburg.png,,,,,,,,,,,,,,,,,,
null,,rt_plussign_withcolor,589077,,blue,,,,null,GW/cornwall.png,GW/gatlinburg.png,,,,,,,,,,,,,,,,,,
570.9000000059605,,rt_thecrossant_black,590502,,black_plus_sign,,,,49,,,1,0.98,,,,,,,,,,,,,,,,
null,,color_black,590606,,black_plus_sign,,,,null,,,,,,,,,,,,,,,,,,,,
null,,learn_phase(without_color),593612,,black_plus_sign,,,,null,GW/hanover.png,GW/huntsville.png,,,,,,,,,,,,,,,,,,
null,,black_cross(without_color),594246,,yellow,,,,null,GW/hanover.png,GW/huntsville.png,,,,,,,,,,,,,,,,,,
null,,rt_plussign_withcolor,594749,,yellow,,,,null,GW/hanover.png,GW/huntsville.png,,,,,,,,,,,,,,,,,,
782.5,,rt_thecrossant_black,596121,,black_plus_sign,,,,50,,,1,0.9803921568627451,,,,,,,,,,,,,,,,
null,,color_black,596224,,black_plus_sign,,,,null,,,,,,,,,,,,,,,,,,,,
null,,learn_phase(without_color),599229,,black_plus_sign,,,,null,GW/gatlinburg.png,GW/cornwall.png,,,,,,,,,,,,,,,,,,
null,,black_cross(without_color),600041,,blue,,,,null,GW/gatlinburg.png,GW/cornwall.png,,,,,,,,,,,,,,,,,,
null,,rt_plussign_withcolor,600544,,blue,,,,null,GW/gatlinburg.png,GW/cornwall.png,,,,,,,,,,,,,,,,,,
787.5,,rt_thecrossant_black,601740,,black_plus_sign,,,,49,,,1,0.9807692307692307,,,,,,,,,,,,,,,,
null,,color_black,601855,,black_plus_sign,,,,null,,,,,,,,,,,,,,,,,,,,
null,,learn_phase(without_color),604858,,black_plus_sign,,,,null,GW/huntsville.png,GW/hanover.png,,,,,,,,,,,,,,,,,,
null,,black_cross(without_color),605299,,blue,,,,null,GW/huntsville.png,GW/hanover.png,,,,,,,,,,,,,,,,,,
null,,rt_plussign_withcolor,605802,,blue,,,,null,GW/huntsville.png,GW/hanover.png,,,,,,,,,,,,,,,,,,
1030.5999999940395,,rt_thecrossant_black,607381,,black_plus_sign,,,,49,,,1,0.9811320754716981,,,,,,,,,,,,,,,,
null,,color_black,607486,,black_plus_sign,,,,null,,,,,,,,,,,,,,,,,,,,
null,,learn_phase(without_color),610488,,black_plus_sign,,,,null,GW/gatlinburg.png,GW/cornwall.png,,,,,,,,,,,,,,,,,,
null,,black_cross(without_color),611537,,yellow,,,,null,GW/gatlinburg.png,GW/cornwall.png,,,,,,,,,,,,,,,,,,
null,,rt_plussign_withcolor,612040,,yellow,,,,null,GW/gatlinburg.png,GW/cornwall.png,,,,,,,,,,,,,,,,,,
528.7999999821186,,rt_thecrossant_black,612996,,black_plus_sign,,,,50,,,1,0.9814814814814815,,,,,,,,,,,,,,,,
null,,color_black,613099,,black_plus_sign,,,,null,,,,,,,,,,,,,,,,,,,,
null,,learn_phase(without_color),616104,,black_plus_sign,,,,null,GW/westpalmbeach.png,GW/boulder.png,,,,,,,,,,,,,,,,,,
null,,black_cross(without_color),616999,,yellow,,,,null,GW/westpalmbeach.png,GW/boulder.png,,,,,,,,,,,,,,,,,,
null,,rt_plussign_withcolor,617502,,yellow,,,,null,GW/westpalmbeach.png,GW/boulder.png,,,,,,,,,,,,,,,,,,
1213.2999999821186,,rt_thecrossant_black,618614,,black_plus_sign,,,,50,,,1,0.9818181818181818,,,,,,,,,,,,,,,,
null,,color_black,618717,,black_plus_sign,,,,null,,,,,,,,,,,,,,,,,,,,
null,,learn_phase(without_color),621720,,black_plus_sign,,,,null,GW/peoria.png,GW/hotsprings.png,,,,,,,,,,,,,,,,,,
null,,black_cross(without_color),622294,,yellow,,,,null,GW/peoria.png,GW/hotsprings.png,,,,,,,,,,,,,,,,,,
null,,rt_plussign_withcolor,622796,,yellow,,,,null,GW/peoria.png,GW/hotsprings.png,,,,,,,,,,,,,,,,,,
1095.300000011921,,rt_thecrossant_black,624229,,black_plus_sign,,,,50,,,1,0.9821428571428571,,,,,,,,,,,,,,,,
null,,color_black,624332,,black_plus_sign,,,,null,,,,,,,,,,,,,,,,,,,,
null,,learn_phase(without_color),627336,,black_plus_sign,,,,null,GW/boulder.png,GW/westpalmbeach.png,,,,,,,,,,,,,,,,,,
null,,black_cross(without_color),627917,,blue,,,,null,GW/boulder.png,GW/westpalmbeach.png,,,,,,,,,,,,,,,,,,
null,,rt_plussign_withcolor,628420,,blue,,,,null,GW/boulder.png,GW/westpalmbeach.png,,,,,,,,,,,,,,,,,,
788.7000000178814,,rt_thecrossant_black,629845,,black_plus_sign,,,,49,,,1,0.9824561403508771,,,,,,,,,,,,,,,,
null,,color_black,629948,,black_plus_sign,,,,null,,,,,,,,,,,,,,,,,,,,
null,,learn_phase(without_color),632953,,black_plus_sign,,,,null,GW/peoria.png,GW/hotsprings.png,,,,,,,,,,,,,,,,,,
null,,black_cross(without_color),633769,,yellow,,,,null,GW/peoria.png,GW/hotsprings.png,,,,,,,,,,,,,,,,,,
null,,rt_plussign_withcolor,634273,,yellow,,,,null,GW/peoria.png,GW/hotsprings.png,,,,,,,,,,,,,,,,,,
728.7999999821186,,rt_thecrossant_black,635465,,black_plus_sign,,,,50,,,1,0.9827586206896551,,,,,,,,,,,,,,,,
null,,color_black,635568,,black_plus_sign,,,,null,,,,,,,,,,,,,,,,,,,,
null,,learn_phase(without_color),638574,,black_plus_sign,,,,null,GW/hanover.png,GW/huntsville.png,,,,,,,,,,,,,,,,,,
null,,black_cross(without_color),639155,,blue,,,,null,GW/hanover.png,GW/huntsville.png,,,,,,,,,,,,,,,,,,
null,,rt_plussign_withcolor,639658,,blue,,,,null,GW/hanover.png,GW/huntsville.png,,,,,,,,,,,,,,,,,,
1322.6000000238419,,rt_thecrossant_black,641088,,black_plus_sign,,,,49,,,1,0.9830508474576272,,,,,,,,,,,,,,,,
null,,color_black,641192,,black_plus_sign,,,,null,,,,,,,,,,,,,,,,,,,,
null,,learn_phase(without_color),644197,,black_plus_sign,,,,null,GW/westpalmbeach.png,GW/boulder.png,,,,,,,,,,,,,,,,,,
null,,black_cross(without_color),644791,,blue,,,,null,GW/westpalmbeach.png,GW/boulder.png,,,,,,,,,,,,,,,,,,
null,,rt_plussign_withcolor,645295,,blue,,,,null,GW/westpalmbeach.png,GW/boulder.png,,,,,,,,,,,,,,,,,,
940.1000000238419,,rt_thecrossant_black,646707,,black_plus_sign,,,,49,,,1,0.9833333333333333,,,,,,,,,,,,,,,,
null,,color_black,646811,,black_plus_sign,,,,null,,,,,,,,,,,,,,,,,,,,
null,,learn_phase(without_color),649821,,black_plus_sign,,,,null,GW/peoria.png,GW/hotsprings.png,,,,,,,,,,,,,,,,,,
null,,black_cross(without_color),650816,,yellow,,,,null,GW/peoria.png,GW/hotsprings.png,,,,,,,,,,,,,,,,,,
null,,rt_plussign_withcolor,651319,,yellow,,,,null,GW/peoria.png,GW/hotsprings.png,,,,,,,,,,,,,,,,,,
718,,rt_thecrossant_black,652331,,black_plus_sign,,,,50,,,1,0.9836065573770492,,,,,,,,,,,,,,,,
null,,color_black,652434,,black_plus_sign,,,,null,,,,,,,,,,,,,,,,,,,,
null,,learn_phase(without_color),655436,,black_plus_sign,,,,null,GW/westpalmbeach.png,GW/boulder.png,,,,,,,,,,,,,,,,,,
null,,black_cross(without_color),656339,,blue,,,,null,GW/westpalmbeach.png,GW/boulder.png,,,,,,,,,,,,,,,,,,
null,,rt_plussign_withcolor,656842,,blue,,,,null,GW/westpalmbeach.png,GW/boulder.png,,,,,,,,,,,,,,,,,,
1238.6000000238419,,rt_thecrossant_black,657954,,black_plus_sign,,,,49,,,1,0.9838709677419355,,,,,,,,,,,,,,,,
null,,color_black,658056,,black_plus_sign,,,,null,,,,,,,,,,,,,,,,,,,,
null,,learn_phase(without_color),661061,,black_plus_sign,,,,null,GW/cornwall.png,GW/gatlinburg.png,,,,,,,,,,,,,,,,,,
null,,black_cross(without_color),661736,,yellow,,,,null,GW/cornwall.png,GW/gatlinburg.png,,,,,,,,,,,,,,,,,,
null,,rt_plussign_withcolor,662239,,yellow,,,,null,GW/cornwall.png,GW/gatlinburg.png,,,,,,,,,,,,,,,,,,
1130.5999999940395,,rt_thecrossant_black,663570,,black_plus_sign,,,,50,,,1,0.9841269841269841,,,,,,,,,,,,,,,,
null,,color_black,663673,,black_plus_sign,,,,null,,,,,,,,,,,,,,,,,,,,
null,,learn_phase(without_color),666676,,black_plus_sign,,,,null,GW/westpalmbeach.png,GW/boulder.png,,,,,,,,,,,,,,,,,,
null,,black_cross(without_color),667607,,blue,,,,null,GW/westpalmbeach.png,GW/boulder.png,,,,,,,,,,,,,,,,,,
null,,rt_plussign_withcolor,668110,,blue,,,,null,GW/westpalmbeach.png,GW/boulder.png,,,,,,,,,,,,,,,,,,
895.8000000119209,,rt_thecrossant_black,669186,,black_plus_sign,,,,49,,,1,0.984375,,,,,,,,,,,,,,,,
null,,color_black,669288,,black_plus_sign,,,,null,,,,,,,,,,,,,,,,,,,,
null,,learn_break,729292,,learn_break,,,,null,,,,,,,,,,,,,,,,,,,,
null,,html-keyboard-response,730296,,<p></p>,,,,null,,,,,,,,,,,,,,,,,,,,
null,,learn_phase(without_color),733298,,black_plus_sign,,,,null,GW/hotsprings.png,GW/huntsville.png,,,,,,,,,,,,,,,,,,
null,,black_cross(without_color),734056,,blue,,,,null,GW/hotsprings.png,GW/huntsville.png,,,,,,,,,,,,,,,,,,
null,,rt_plussign_withcolor,734557,,blue,,,,null,GW/hotsprings.png,GW/huntsville.png,,,,,,,,,,,,,,,,,,
1243.8999999761581,,rt_thecrossant_black,735803,,black_plus_sign,,,,49,,,1,0.9846153846153847,,,,,,,,,,,,,,,,
null,,color_black,735906,,black_plus_sign,,,,null,,,,,,,,,,,,,,,,,,,,
null,,learn_phase(without_color),738910,,black_plus_sign,,,,null,GW/carmel.png,GW/cornwall.png,,,,,,,,,,,,,,,,,,
null,,black_cross(without_color),739789,,yellow,,,,null,GW/carmel.png,GW/cornwall.png,,,,,,,,,,,,,,,,,,
null,,rt_plussign_withcolor,740292,,yellow,,,,null,GW/carmel.png,GW/cornwall.png,,,,,,,,,,,,,,,,,,
934.5999999940395,,rt_thecrossant_black,741421,,black_plus_sign,,,,50,,,1,0.9848484848484849,,,,,,,,,,,,,,,,
null,,color_black,741524,,black_plus_sign,,,,null,,,,,,,,,,,,,,,,,,,,
null,,learn_phase(without_color),744529,,black_plus_sign,,,,null,GW/gatlinburg.png,GW/shreveport.png,,,,,,,,,,,,,,,,,,
null,,black_cross(without_color),745199,,blue,,,,null,GW/gatlinburg.png,GW/shreveport.png,,,,,,,,,,,,,,,,,,
null,,rt_plussign_withcolor,745701,,blue,,,,null,GW/gatlinburg.png,GW/shreveport.png,,,,,,,,,,,,,,,,,,
1304.0999999940395,,rt_thecrossant_black,747047,,black_plus_sign,,,,49,,,1,0.9850746268656716,,,,,,,,,,,,,,,,
null,,color_black,747156,,black_plus_sign,,,,null,,,,,,,,,,,,,,,,,,,,
null,,learn_phase(without_color),750159,,black_plus_sign,,,,null,GW/hotsprings.png,GW/huntsville.png,,,,,,,,,,,,,,,,,,
null,,black_cross(without_color),750909,,yellow,,,,null,GW/hotsprings.png,GW/huntsville.png,,,,,,,,,,,,,,,,,,
null,,rt_plussign_withcolor,751412,,yellow,,,,null,GW/hotsprings.png,GW/huntsville.png,,,,,,,,,,,,,,,,,,
1460.7000000178814,,rt_thecrossant_black,752670,,black_plus_sign,,,,50,,,1,0.9852941176470589,,,,,,,,,,,,,,,,
null,,color_black,752773,,black_plus_sign,,,,null,,,,,,,,,,,,,,,,,,,,
null,,learn_phase(without_color),755778,,black_plus_sign,,,,null,GW/shreveport.png,GW/gatlinburg.png,,,,,,,,,,,,,,,,,,
null,,black_cross(without_color),756446,,yellow,,,,null,GW/shreveport.png,GW/gatlinburg.png,,,,,,,,,,,,,,,,,,
null,,rt_plussign_withcolor,756948,,yellow,,,,null,GW/shreveport.png,GW/gatlinburg.png,,,,,,,,,,,,,,,,,,
1030.800000011921,,rt_thecrossant_black,758286,,black_plus_sign,,,,50,,,1,0.9855072463768116,,,,,,,,,,,,,,,,
null,,color_black,758390,,black_plus_sign,,,,null,,,,,,,,,,,,,,,,,,,,
null,,learn_phase(without_color),761393,,black_plus_sign,,,,null,GW/boulder.png,GW/hanover.png,,,,,,,,,,,,,,,,,,
null,,black_cross(without_color),762381,,yellow,,,,null,GW/boulder.png,GW/hanover.png,,,,,,,,,,,,,,,,,,
null,,rt_plussign_withcolor,762884,,yellow,,,,null,GW/boulder.png,GW/hanover.png,,,,,,,,,,,,,,,,,,
996.1999999880791,,rt_thecrossant_black,763901,,black_plus_sign,,,,50,,,1,0.9857142857142858,,,,,,,,,,,,,,,,
null,,color_black,764004,,black_plus_sign,,,,null,,,,,,,,,,,,,,,,,,,,
null,,learn_phase(without_color),767006,,black_plus_sign,,,,null,GW/carmel.png,GW/cornwall.png,,,,,,,,,,,,,,,,,,
null,,black_cross(without_color),767861,,yellow,,,,null,GW/carmel.png,GW/cornwall.png,,,,,,,,,,,,,,,,,,
null,,rt_plussign_withcolor,768366,,yellow,,,,null,GW/carmel.png,GW/cornwall.png,,,,,,,,,,,,,,,,,,
1338.3999999761581,,rt_thecrossant_black,769518,,black_plus_sign,,,,50,,,1,0.9859154929577465,,,,,,,,,,,,,,,,
null,,color_black,769621,,black_plus_sign,,,,null,,,,,,,,,,,,,,,,,,,,
null,,learn_phase(without_color),772624,,black_plus_sign,,,,null,GW/hotsprings.png,GW/huntsville.png,,,,,,,,,,,,,,,,,,
null,,black_cross(without_color),773562,,yellow,,,,null,GW/hotsprings.png,GW/huntsville.png,,,,,,,,,,,,,,,,,,
null,,rt_plussign_withcolor,774065,,yellow,,,,null,GW/hotsprings.png,GW/huntsville.png,,,,,,,,,,,,,,,,,,
1234.2000000178814,,rt_thecrossant_black,775134,,black_plus_sign,,,,50,,,1,0.9861111111111112,,,,,,,,,,,,,,,,
null,,color_black,775239,,black_plus_sign,,,,null,,,,,,,,,,,,,,,,,,,,
null,,learn_phase(without_color),778244,,black_plus_sign,,,,null,GW/cornwall.png,GW/carmel.png,,,,,,,,,,,,,,,,,,
null,,black_cross(without_color),778757,,yellow,,,,null,GW/cornwall.png,GW/carmel.png,,,,,,,,,,,,,,,,,,
null,,rt_plussign_withcolor,779259,,yellow,,,,null,GW/cornwall.png,GW/carmel.png,,,,,,,,,,,,,,,,,,
1179,,rt_thecrossant_black,780753,,black_plus_sign,,,,50,,,1,0.9863013698630136,,,,,,,,,,,,,,,,
null,,color_black,780857,,black_plus_sign,,,,null,,,,,,,,,,,,,,,,,,,,
null,,learn_phase(without_color),783861,,black_plus_sign,,,,null,GW/huntsville.png,GW/hotsprings.png,,,,,,,,,,,,,,,,,,
null,,black_cross(without_color),784337,,yellow,,,,null,GW/huntsville.png,GW/hotsprings.png,,,,,,,,,,,,,,,,,,
null,,rt_plussign_withcolor,784847,,yellow,,,,null,GW/huntsville.png,GW/hotsprings.png,,,,,,,,,,,,,,,,,,
859.7999999821186,,rt_thecrossant_black,786376,,black_plus_sign,,,,50,,,1,0.9864864864864865,,,,,,,,,,,,,,,,
null,,color_black,786479,,black_plus_sign,,,,null,,,,,,,,,,,,,,,,,,,,
null,,learn_phase(without_color),789482,,black_plus_sign,,,,null,GW/cornwall.png,GW/carmel.png,,,,,,,,,,,,,,,,,,
null,,black_cross(without_color),789929,,yellow,,,,null,GW/cornwall.png,GW/carmel.png,,,,,,,,,,,,,,,,,,
null,,rt_plussign_withcolor,790432,,yellow,,,,null,GW/cornwall.png,GW/carmel.png,,,,,,,,,,,,,,,,,,
936.3000000119209,,rt_thecrossant_black,791993,,black_plus_sign,,,,50,,,1,0.9866666666666667,,,,,,,,,,,,,,,,
null,,color_black,792097,,black_plus_sign,,,,null,,,,,,,,,,,,,,,,,,,,
null,,learn_phase(without_color),795102,,black_plus_sign,,,,null,GW/boulder.png,GW/hanover.png,,,,,,,,,,,,,,,,,,
null,,black_cross(without_color),795571,,blue,,,,null,GW/boulder.png,GW/hanover.png,,,,,,,,,,,,,,,,,,
null,,rt_plussign_withcolor,796074,,blue,,,,null,GW/boulder.png,GW/hanover.png,,,,,,,,,,,,,,,,,,
1010.5,,rt_thecrossant_black,797608,,black_plus_sign,,,,49,,,1,0.9868421052631579,,,,,,,,,,,,,,,,
null,,color_black,797711,,black_plus_sign,,,,null,,,,,,,,,,,,,,,,,,,,
null,,learn_phase(without_color),800716,,black_plus_sign,,,,null,GW/huntsville.png,GW/hotsprings.png,,,,,,,,,,,,,,,,,,
null,,black_cross(without_color),801284,,blue,,,,null,GW/huntsville.png,GW/hotsprings.png,,,,,,,,,,,,,,,,,,
null,,rt_plussign_withcolor,801788,,blue,,,,null,GW/huntsville.png,GW/hotsprings.png,,,,,,,,,,,,,,,,,,
750.3000000119209,,rt_thecrossant_black,803228,,black_plus_sign,,,,49,,,1,0.987012987012987,,,,,,,,,,,,,,,,
null,,color_black,803331,,black_plus_sign,,,,null,,,,,,,,,,,,,,,,,,,,
null,,learn_phase(without_color),806334,,black_plus_sign,,,,null,GW/gatlinburg.png,GW/shreveport.png,,,,,,,,,,,,,,,,,,
null,,black_cross(without_color),806884,,blue,,,,null,GW/gatlinburg.png,GW/shreveport.png,,,,,,,,,,,,,,,,,,
null,,rt_plussign_withcolor,807387,,blue,,,,null,GW/gatlinburg.png,GW/shreveport.png,,,,,,,,,,,,,,,,,,
702.5,,rt_thecrossant_black,808844,,black_plus_sign,,,,50,,,0,0.9743589743589743,,,,,,,,,,,,,,,,
null,,color_black,808949,,black_plus_sign,,,,null,,,,,,,,,,,,,,,,,,,,
null,,learn_phase(without_color),811954,,black_plus_sign,,,,null,GW/huntsville.png,GW/hotsprings.png,,,,,,,,,,,,,,,,,,
null,,black_cross(without_color),812683,,blue,,,,null,GW/huntsville.png,GW/hotsprings.png,,,,,,,,,,,,,,,,,,
null,,rt_plussign_withcolor,813186,,blue,,,,null,GW/huntsville.png,GW/hotsprings.png,,,,,,,,,,,,,,,,,,
960.5999999940395,,rt_thecrossant_black,814464,,black_plus_sign,,,,49,,,1,0.9746835443037974,,,,,,,,,,,,,,,,
null,,color_black,814566,,black_plus_sign,,,,null,,,,,,,,,,,,,,,,,,,,
null,,learn_phase(without_color),817569,,black_plus_sign,,,,null,GW/cornwall.png,GW/carmel.png,,,,,,,,,,,,,,,,,,
null,,black_cross(without_color),818577,,yellow,,,,null,GW/cornwall.png,GW/carmel.png,,,,,,,,,,,,,,,,,,
null,,rt_plussign_withcolor,819079,,yellow,,,,null,GW/cornwall.png,GW/carmel.png,,,,,,,,,,,,,,,,,,
1014,,rt_thecrossant_black,820074,,black_plus_sign,,,,50,,,1,0.975,,,,,,,,,,,,,,,,
null,,color_black,820177,,black_plus_sign,,,,null,,,,,,,,,,,,,,,,,,,,
null,,learn_phase(without_color),823182,,black_plus_sign,,,,null,GW/gatlinburg.png,GW/shreveport.png,,,,,,,,,,,,,,,,,,
null,,black_cross(without_color),824064,,yellow,,,,null,GW/gatlinburg.png,GW/shreveport.png,,,,,,,,,,,,,,,,,,
null,,rt_plussign_withcolor,824567,,yellow,,,,null,GW/gatlinburg.png,GW/shreveport.png,,,,,,,,,,,,,,,,,,
1296.7000000178814,,rt_thecrossant_black,825691,,black_plus_sign,,,,50,,,1,0.9753086419753086,,,,,,,,,,,,,,,,
null,,color_black,825796,,black_plus_sign,,,,null,,,,,,,,,,,,,,,,,,,,
null,,learn_phase(without_color),828801,,black_plus_sign,,,,null,GW/huntsville.png,GW/hotsprings.png,,,,,,,,,,,,,,,,,,
null,,black_cross(without_color),829471,,blue,,,,null,GW/huntsville.png,GW/hotsprings.png,,,,,,,,,,,,,,,,,,
null,,rt_plussign_withcolor,829973,,blue,,,,null,GW/huntsville.png,GW/hotsprings.png,,,,,,,,,,,,,,,,,,
1280.7000000178814,,rt_thecrossant_black,831309,,black_plus_sign,,,,50,,,0,0.9634146341463414,,,,,,,,,,,,,,,,
null,,color_black,831414,,black_plus_sign,,,,null,,,,,,,,,,,,,,,,,,,,
null,,learn_phase(without_color),834418,,black_plus_sign,,,,null,GW/carmel.png,GW/cornwall.png,,,,,,,,,,,,,,,,,,
null,,black_cross(without_color),835386,,blue,,,,null,GW/carmel.png,GW/cornwall.png,,,,,,,,,,,,,,,,,,
null,,rt_plussign_withcolor,835887,,blue,,,,null,GW/carmel.png,GW/cornwall.png,,,,,,,,,,,,,,,,,,
923.4000000059605,,rt_thecrossant_black,836924,,black_plus_sign,,,,49,,,1,0.963855421686747,,,,,,,,,,,,,,,,
null,,color_black,837027,,black_plus_sign,,,,null,,,,,,,,,,,,,,,,,,,,
null,,learn_phase(without_color),840032,,black_plus_sign,,,,null,GW/boulder.png,GW/hanover.png,,,,,,,,,,,,,,,,,,
null,,black_cross(without_color),840628,,blue,,,,null,GW/boulder.png,GW/hanover.png,,,,,,,,,,,,,,,,,,
null,,rt_plussign_withcolor,841130,,blue,,,,null,GW/boulder.png,GW/hanover.png,,,,,,,,,,,,,,,,,,
1179.5,,rt_thecrossant_black,842538,,black_plus_sign,,,,49,,,1,0.9642857142857143,,,,,,,,,,,,,,,,
null,,color_black,842644,,black_plus_sign,,,,null,,,,,,,,,,,,,,,,,,,,
null,,learn_phase(without_color),845647,,black_plus_sign,,,,null,GW/hotsprings.png,GW/huntsville.png,,,,,,,,,,,,,,,,,,
null,,black_cross(without_color),846398,,yellow,,,,null,GW/hotsprings.png,GW/huntsville.png,,,,,,,,,,,,,,,,,,
null,,rt_plussign_withcolor,846900,,yellow,,,,null,GW/hotsprings.png,GW/huntsville.png,,,,,,,,,,,,,,,,,,
800.0999999940395,,rt_thecrossant_black,848152,,black_plus_sign,,,,50,,,1,0.9647058823529412,,,,,,,,,,,,,,,,
null,,color_black,848255,,black_plus_sign,,,,null,,,,,,,,,,,,,,,,,,,,
null,,learn_phase(without_color),851259,,black_plus_sign,,,,null,GW/cornwall.png,GW/carmel.png,,,,,,,,,,,,,,,,,,
null,,black_cross(without_color),852011,,blue,,,,null,GW/cornwall.png,GW/carmel.png,,,,,,,,,,,,,,,,,,
null,,rt_plussign_withcolor,852513,,blue,,,,null,GW/cornwall.png,GW/carmel.png,,,,,,,,,,,,,,,,,,
987.7000000178814,,rt_thecrossant_black,853765,,black_plus_sign,,,,49,,,1,0.9651162790697675,,,,,,,,,,,,,,,,
null,,color_black,853867,,black_plus_sign,,,,null,,,,,,,,,,,,,,,,,,,,
null,,learn_phase(without_color),856872,,black_plus_sign,,,,null,GW/boulder.png,GW/hanover.png,,,,,,,,,,,,,,,,,,
null,,black_cross(without_color),857949,,yellow,,,,null,GW/boulder.png,GW/hanover.png,,,,,,,,,,,,,,,,,,
null,,rt_plussign_withcolor,858451,,yellow,,,,null,GW/boulder.png,GW/hanover.png,,,,,,,,,,,,,,,,,,
1068,,rt_thecrossant_black,859382,,black_plus_sign,,,,50,,,1,0.9655172413793104,,,,,,,,,,,,,,,,
null,,color_black,859491,,black_plus_sign,,,,null,,,,,,,,,,,,,,,,,,,,
null,,learn_phase(without_color),862498,,black_plus_sign,,,,null,GW/shreveport.png,GW/gatlinburg.png,,,,,,,,,,,,,,,,,,
null,,black_cross(without_color),863518,,yellow,,,,null,GW/shreveport.png,GW/gatlinburg.png,,,,,,,,,,,,,,,,,,
null,,rt_plussign_withcolor,864021,,yellow,,,,null,GW/shreveport.png,GW/gatlinburg.png,,,,,,,,,,,,,,,,,,
1249.300000011921,,rt_thecrossant_black,865008,,black_plus_sign,,,,50,,,1,0.9659090909090909,,,,,,,,,,,,,,,,
null,,color_black,865111,,black_plus_sign,,,,null,,,,,,,,,,,,,,,,,,,,
null,,learn_phase(without_color),868116,,black_plus_sign,,,,null,GW/hanover.png,GW/boulder.png,,,,,,,,,,,,,,,,,,
null,,black_cross(without_color),868919,,yellow,,,,null,GW/hanover.png,GW/boulder.png,,,,,,,,,,,,,,,,,,
null,,rt_plussign_withcolor,869422,,yellow,,,,null,GW/hanover.png,GW/boulder.png,,,,,,,,,,,,,,,,,,
1266.300000011921,,rt_thecrossant_black,870626,,black_plus_sign,,,,50,,,1,0.9662921348314607,,,,,,,,,,,,,,,,
null,,color_black,870728,,black_plus_sign,,,,null,,,,,,,,,,,,,,,,,,,,
null,,learn_phase(without_color),873731,,black_plus_sign,,,,null,GW/cornwall.png,GW/carmel.png,,,,,,,,,,,,,,,,,,
null,,black_cross(without_color),874187,,blue,,,,null,GW/cornwall.png,GW/carmel.png,,,,,,,,,,,,,,,,,,
null,,rt_plussign_withcolor,874688,,blue,,,,null,GW/cornwall.png,GW/carmel.png,,,,,,,,,,,,,,,,,,
1276.6000000238419,,rt_thecrossant_black,876244,,black_plus_sign,,,,49,,,1,0.9666666666666667,,,,,,,,,,,,,,,,
null,,color_black,876349,,black_plus_sign,,,,null,,,,,,,,,,,,,,,,,,,,
null,,learn_phase(without_color),879354,,black_plus_sign,,,,null,GW/gatlinburg.png,GW/shreveport.png,,,,,,,,,,,,,,,,,,
null,,black_cross(without_color),879823,,yellow,,,,null,GW/gatlinburg.png,GW/shreveport.png,,,,,,,,,,,,,,,,,,
null,,rt_plussign_withcolor,880325,,yellow,,,,null,GW/gatlinburg.png,GW/shreveport.png,,,,,,,,,,,,,,,,,,
669.9000000059605,,rt_thecrossant_black,881862,,black_plus_sign,,,,50,,,1,0.967032967032967,,,,,,,,,,,,,,,,
null,,color_black,881967,,black_plus_sign,,,,null,,,,,,,,,,,,,,,,,,,,
null,,learn_phase(without_color),884972,,black_plus_sign,,,,null,GW/boulder.png,GW/hanover.png,,,,,,,,,,,,,,,,,,
null,,black_cross(without_color),885943,,yellow,,,,null,GW/boulder.png,GW/hanover.png,,,,,,,,,,,,,,,,,,
null,,rt_plussign_withcolor,886447,,yellow,,,,null,GW/boulder.png,GW/hanover.png,,,,,,,,,,,,,,,,,,
1107.9000000059605,,rt_thecrossant_black,887482,,black_plus_sign,,,,50,,,1,0.967391304347826,,,,,,,,,,,,,,,,
null,,color_black,887589,,black_plus_sign,,,,null,,,,,,,,,,,,,,,,,,,,
null,,learn_phase(without_color),890592,,black_plus_sign,,,,null,GW/boulder.png,GW/hanover.png,,,,,,,,,,,,,,,,,,
null,,black_cross(without_color),891498,,blue,,,,null,GW/boulder.png,GW/hanover.png,,,,,,,,,,,,,,,,,,
null,,rt_plussign_withcolor,892002,,blue,,,,null,GW/boulder.png,GW/hanover.png,,,,,,,,,,,,,,,,,,
1139.5,,rt_thecrossant_black,893105,,black_plus_sign,,,,49,,,1,0.967741935483871,,,,,,,,,,,,,,,,
null,,color_black,893208,,black_plus_sign,,,,null,,,,,,,,,,,,,,,,,,,,
null,,learn_phase(without_color),896213,,black_plus_sign,,,,null,GW/shreveport.png,GW/gatlinburg.png,,,,,,,,,,,,,,,,,,
null,,black_cross(without_color),897244,,blue,,,,null,GW/shreveport.png,GW/gatlinburg.png,,,,,,,,,,,,,,,,,,
null,,rt_plussign_withcolor,897757,,blue,,,,null,GW/shreveport.png,GW/gatlinburg.png,,,,,,,,,,,,,,,,,,
1262.699999988079,,rt_thecrossant_black,898735,,black_plus_sign,,,,50,,,0,0.9574468085106383,,,,,,,,,,,,,,,,
null,,color_black,898838,,black_plus_sign,,,,null,,,,,,,,,,,,,,,,,,,,
null,,learn_phase(without_color),901844,,black_plus_sign,,,,null,GW/hanover.png,GW/boulder.png,,,,,,,,,,,,,,,,,,
null,,black_cross(without_color),902572,,blue,,,,null,GW/hanover.png,GW/boulder.png,,,,,,,,,,,,,,,,,,
null,,rt_plussign_withcolor,903076,,blue,,,,null,GW/hanover.png,GW/boulder.png,,,,,,,,,,,,,,,,,,
1245,,rt_thecrossant_black,904355,,black_plus_sign,,,,49,,,1,0.9578947368421052,,,,,,,,,,,,,,,,
null,,color_black,904459,,black_plus_sign,,,,null,,,,,,,,,,,,,,,,,,,,
null,,learn_phase(without_color),907465,,black_plus_sign,,,,null,GW/shreveport.png,GW/gatlinburg.png,,,,,,,,,,,,,,,,,,
null,,black_cross(without_color),908272,,blue,,,,null,GW/shreveport.png,GW/gatlinburg.png,,,,,,,,,,,,,,,,,,
null,,rt_plussign_withcolor,908774,,blue,,,,null,GW/shreveport.png,GW/gatlinburg.png,,,,,,,,,,,,,,,,,,
988.7000000178814,,rt_thecrossant_black,909974,,black_plus_sign,,,,49,,,1,0.9583333333333334,,,,,,,,,,,,,,,,
null,,color_black,910079,,black_plus_sign,,,,null,,,,,,,,,,,,,,,,,,,,
null,,learn_phase(without_color),913084,,black_plus_sign,,,,null,GW/gatlinburg.png,GW/carmel.png,,,,,,,,,,,,,,,,,,
null,,black_cross(without_color),913722,,yellow,,,,null,GW/gatlinburg.png,GW/carmel.png,,,,,,,,,,,,,,,,,,
null,,rt_plussign_withcolor,914224,,yellow,,,,null,GW/gatlinburg.png,GW/carmel.png,,,,,,,,,,,,,,,,,,
971.1999999880791,,rt_thecrossant_black,915593,,black_plus_sign,,,,50,,,1,0.9587628865979382,,,,,,,,,,,,,,,,
null,,color_black,915696,,black_plus_sign,,,,null,,,,,,,,,,,,,,,,,,,,
null,,learn_phase(without_color),918699,,black_plus_sign,,,,null,GW/leesburg.png,GW/cornwall.png,,,,,,,,,,,,,,,,,,
null,,black_cross(without_color),919214,,yellow,,,,null,GW/leesburg.png,GW/cornwall.png,,,,,,,,,,,,,,,,,,
null,,rt_plussign_withcolor,919715,,yellow,,,,null,GW/leesburg.png,GW/cornwall.png,,,,,,,,,,,,,,,,,,
974.5999999940395,,rt_thecrossant_black,921206,,black_plus_sign,,,,50,,,1,0.9591836734693877,,,,,,,,,,,,,,,,
null,,color_black,921308,,black_plus_sign,,,,null,,,,,,,,,,,,,,,,,,,,
null,,learn_phase(without_color),924313,,black_plus_sign,,,,null,GW/gatlinburg.png,GW/carmel.png,,,,,,,,,,,,,,,,,,
null,,black_cross(without_color),925244,,blue,,,,null,GW/gatlinburg.png,GW/carmel.png,,,,,,,,,,,,,,,,,,
null,,rt_plussign_withcolor,925746,,blue,,,,null,GW/gatlinburg.png,GW/carmel.png,,,,,,,,,,,,,,,,,,
790.3000000119209,,rt_thecrossant_black,926820,,black_plus_sign,,,,49,,,1,0.9595959595959596,,,,,,,,,,,,,,,,
null,,color_black,926924,,black_plus_sign,,,,null,,,,,,,,,,,,,,,,,,,,
null,,learn_phase(without_color),929926,,black_plus_sign,,,,null,GW/boulder.png,GW/peoria.png,,,,,,,,,,,,,,,,,,
null,,black_cross(without_color),930399,,blue,,,,null,GW/boulder.png,GW/peoria.png,,,,,,,,,,,,,,,,,,
null,,rt_plussign_withcolor,930903,,blue,,,,null,GW/boulder.png,GW/peoria.png,,,,,,,,,,,,,,,,,,
1432.300000011921,,rt_thecrossant_black,932439,,black_plus_sign,,,,49,,,1,0.96,,,,,,,,,,,,,,,,
null,,color_black,932542,,black_plus_sign,,,,null,,,,,,,,,,,,,,,,,,,,
null,,learn_phase(without_color),935546,,black_plus_sign,,,,null,GW/cornwall.png,GW/leesburg.png,,,,,,,,,,,,,,,,,,
null,,black_cross(without_color),936017,,blue,,,,null,GW/cornwall.png,GW/leesburg.png,,,,,,,,,,,,,,,,,,
null,,rt_plussign_withcolor,936519,,blue,,,,null,GW/cornwall.png,GW/leesburg.png,,,,,,,,,,,,,,,,,,
781.2999999821186,,rt_thecrossant_black,938053,,black_plus_sign,,,,49,,,1,0.9603960396039604,,,,,,,,,,,,,,,,
null,,color_black,938156,,black_plus_sign,,,,null,,,,,,,,,,,,,,,,,,,,
null,,learn_phase(without_color),941162,,black_plus_sign,,,,null,GW/shreveport.png,GW/hotsprings.png,,,,,,,,,,,,,,,,,,
null,,black_cross(without_color),942026,,yellow,,,,null,GW/shreveport.png,GW/hotsprings.png,,,,,,,,,,,,,,,,,,
null,,rt_plussign_withcolor,942531,,yellow,,,,null,GW/shreveport.png,GW/hotsprings.png,,,,,,,,,,,,,,,,,,
736.9000000059605,,rt_thecrossant_black,943676,,black_plus_sign,,,,50,,,1,0.9607843137254902,,,,,,,,,,,,,,,,
null,,color_black,943779,,black_plus_sign,,,,null,,,,,,,,,,,,,,,,,,,,
null,,learn_phase(without_color),946782,,black_plus_sign,,,,null,GW/leesburg.png,GW/cornwall.png,,,,,,,,,,,,,,,,,,
null,,black_cross(without_color),947448,,blue,,,,null,GW/leesburg.png,GW/cornwall.png,,,,,,,,,,,,,,,,,,
null,,rt_plussign_withcolor,947951,,blue,,,,null,GW/leesburg.png,GW/cornwall.png,,,,,,,,,,,,,,,,,,
1234.0999999940395,,rt_thecrossant_black,949294,,black_plus_sign,,,,49,,,1,0.9611650485436893,,,,,,,,,,,,,,,,
null,,color_black,949400,,black_plus_sign,,,,null,,,,,,,,,,,,,,,,,,,,
null,,learn_phase(without_color),952404,,black_plus_sign,,,,null,GW/gatlinburg.png,GW/carmel.png,,,,,,,,,,,,,,,,,,
null,,black_cross(without_color),952818,,blue,,,,null,GW/gatlinburg.png,GW/carmel.png,,,,,,,,,,,,,,,,,,
null,,rt_plussign_withcolor,953323,,blue,,,,null,GW/gatlinburg.png,GW/carmel.png,,,,,,,,,,,,,,,,,,
833,,rt_thecrossant_black,954919,,black_plus_sign,,,,49,,,1,0.9615384615384616,,,,,,,,,,,,,,,,
null,,color_black,955023,,black_plus_sign,,,,null,,,,,,,,,,,,,,,,,,,,
null,,learn_phase(without_color),958027,,black_plus_sign,,,,null,GW/peoria.png,GW/boulder.png,,,,,,,,,,,,,,,,,,
null,,black_cross(without_color),959091,,yellow,,,,null,GW/peoria.png,GW/boulder.png,,,,,,,,,,,,,,,,,,
null,,rt_plussign_withcolor,959593,,yellow,,,,null,GW/peoria.png,GW/boulder.png,,,,,,,,,,,,,,,,,,
737.2999999821186,,rt_thecrossant_black,960551,,black_plus_sign,,,,50,,,1,0.9619047619047619,,,,,,,,,,,,,,,,
null,,color_black,960656,,black_plus_sign,,,,null,,,,,,,,,,,,,,,,,,,,
null,,learn_phase(without_color),963661,,black_plus_sign,,,,null,GW/gatlinburg.png,GW/carmel.png,,,,,,,,,,,,,,,,,,
null,,black_cross(without_color),964271,,blue,,,,null,GW/gatlinburg.png,GW/carmel.png,,,,,,,,,,,,,,,,,,
null,,rt_plussign_withcolor,964774,,blue,,,,null,GW/gatlinburg.png,GW/carmel.png,,,,,,,,,,,,,,,,,,
1826.7999999821186,,rt_thecrossant_black,966176,,black_plus_sign,,,,49,,,1,0.9622641509433962,,,,,,,,,,,,,,,,
null,,color_black,966280,,black_plus_sign,,,,null,,,,,,,,,,,,,,,,,,,,
null,,learn_phase(without_color),969286,,black_plus_sign,,,,null,GW/cornwall.png,GW/leesburg.png,,,,,,,,,,,,,,,,,,
null,,black_cross(without_color),970327,,blue,,,,null,GW/cornwall.png,GW/leesburg.png,,,,,,,,,,,,,,,,,,
null,,rt_plussign_withcolor,970830,,blue,,,,null,GW/cornwall.png,GW/leesburg.png,,,,,,,,,,,,,,,,,,
831.2000000178814,,rt_thecrossant_black,971798,,black_plus_sign,,,,49,,,1,0.9626168224299065,,,,,,,,,,,,,,,,
null,,color_black,971900,,black_plus_sign,,,,null,,,,,,,,,,,,,,,,,,,,
null,,learn_phase(without_color),974904,,black_plus_sign,,,,null,GW/peoria.png,GW/boulder.png,,,,,,,,,,,,,,,,,,
null,,black_cross(without_color),975667,,blue,,,,null,GW/peoria.png,GW/boulder.png,,,,,,,,,,,,,,,,,,
null,,rt_plussign_withcolor,976169,,blue,,,,null,GW/peoria.png,GW/boulder.png,,,,,,,,,,,,,,,,,,
1314.800000011921,,rt_thecrossant_black,977411,,black_plus_sign,,,,49,,,1,0.9629629629629629,,,,,,,,,,,,,,,,
null,,color_black,977512,,black_plus_sign,,,,null,,,,,,,,,,,,,,,,,,,,
null,,learn_phase(without_color),980515,,black_plus_sign,,,,null,GW/hotsprings.png,GW/shreveport.png,,,,,,,,,,,,,,,,,,
null,,black_cross(without_color),981164,,blue,,,,null,GW/hotsprings.png,GW/shreveport.png,,,,,,,,,,,,,,,,,,
null,,rt_plussign_withcolor,981667,,blue,,,,null,GW/hotsprings.png,GW/shreveport.png,,,,,,,,,,,,,,,,,,
994.6000000238419,,rt_thecrossant_black,983024,,black_plus_sign,,,,49,,,1,0.963302752293578,,,,,,,,,,,,,,,,
null,,color_black,983128,,black_plus_sign,,,,null,,,,,,,,,,,,,,,,,,,,
null,,learn_phase(without_color),986134,,black_plus_sign,,,,null,GW/peoria.png,GW/boulder.png,,,,,,,,,,,,,,,,,,
null,,black_cross(without_color),986661,,yellow,,,,null,GW/peoria.png,GW/boulder.png,,,,,,,,,,,,,,,,,,
null,,rt_plussign_withcolor,987163,,yellow,,,,null,GW/peoria.png,GW/boulder.png,,,,,,,,,,,,,,,,,,
930.1999999880791,,rt_thecrossant_black,988642,,black_plus_sign,,,,50,,,1,0.9636363636363636,,,,,,,,,,,,,,,,
null,,color_black,988746,,black_plus_sign,,,,null,,,,,,,,,,,,,,,,,,,,
null,,learn_phase(without_color),991752,,black_plus_sign,,,,null,GW/shreveport.png,GW/hotsprings.png,,,,,,,,,,,,,,,,,,
null,,black_cross(without_color),992477,,yellow,,,,null,GW/shreveport.png,GW/hotsprings.png,,,,,,,,,,,,,,,,,,
null,,rt_plussign_withcolor,992979,,yellow,,,,null,GW/shreveport.png,GW/hotsprings.png,,,,,,,,,,,,,,,,,,
720.9000000059605,,rt_thecrossant_black,994260,,black_plus_sign,,,,50,,,1,0.963963963963964,,,,,,,,,,,,,,,,
null,,color_black,994362,,black_plus_sign,,,,null,,,,,,,,,,,,,,,,,,,,
null,,learn_phase(without_color),997366,,black_plus_sign,,,,null,GW/peoria.png,GW/boulder.png,,,,,,,,,,,,,,,,,,
null,,black_cross(without_color),998405,,yellow,,,,null,GW/peoria.png,GW/boulder.png,,,,,,,,,,,,,,,,,,
null,,rt_plussign_withcolor,998908,,yellow,,,,null,GW/peoria.png,GW/boulder.png,,,,,,,,,,,,,,,,,,
956.5,,rt_thecrossant_black,999878,,black_plus_sign,,,,50,,,1,0.9642857142857143,,,,,,,,,,,,,,,,
null,,color_black,999981,,black_plus_sign,,,,null,,,,,,,,,,,,,,,,,,,,
null,,learn_phase(without_color),1002984,,black_plus_sign,,,,null,GW/hotsprings.png,GW/shreveport.png,,,,,,,,,,,,,,,,,,
null,,black_cross(without_color),1004010,,blue,,,,null,GW/hotsprings.png,GW/shreveport.png,,,,,,,,,,,,,,,,,,
null,,rt_plussign_withcolor,1004514,,blue,,,,null,GW/hotsprings.png,GW/shreveport.png,,,,,,,,,,,,,,,,,,
1383.0999999940395,,rt_thecrossant_black,1005494,,black_plus_sign,,,,49,,,1,0.9646017699115044,,,,,,,,,,,,,,,,
null,,color_black,1005595,,black_plus_sign,,,,null,,,,,,,,,,,,,,,,,,,,
null,,learn_phase(without_color),1008600,,black_plus_sign,,,,null,GW/carmel.png,GW/gatlinburg.png,,,,,,,,,,,,,,,,,,
null,,black_cross(without_color),1009465,,blue,,,,null,GW/carmel.png,GW/gatlinburg.png,,,,,,,,,,,,,,,,,,
null,,rt_plussign_withcolor,1009969,,blue,,,,null,GW/carmel.png,GW/gatlinburg.png,,,,,,,,,,,,,,,,,,
1812.7999999821186,,rt_thecrossant_black,1011112,,black_plus_sign,,,,50,,,0,0.956140350877193,,,,,,,,,,,,,,,,
null,,color_black,1011217,,black_plus_sign,,,,null,,,,,,,,,,,,,,,,,,,,
null,,learn_phase(without_color),1014223,,black_plus_sign,,,,null,GW/peoria.png,GW/boulder.png,,,,,,,,,,,,,,,,,,
null,,black_cross(without_color),1014818,,yellow,,,,null,GW/peoria.png,GW/boulder.png,,,,,,,,,,,,,,,,,,
null,,rt_plussign_withcolor,1015320,,yellow,,,,null,GW/peoria.png,GW/boulder.png,,,,,,,,,,,,,,,,,,
1195.5999999940395,,rt_thecrossant_black,1016733,,black_plus_sign,,,,50,,,1,0.9565217391304348,,,,,,,,,,,,,,,,
null,,color_black,1016838,,black_plus_sign,,,,null,,,,,,,,,,,,,,,,,,,,
null,,learn_phase(without_color),1019841,,black_plus_sign,,,,null,GW/shreveport.png,GW/hotsprings.png,,,,,,,,,,,,,,,,,,
null,,black_cross(without_color),1020468,,blue,,,,null,GW/shreveport.png,GW/hotsprings.png,,,,,,,,,,,,,,,,,,
null,,rt_plussign_withcolor,1020970,,blue,,,,null,GW/shreveport.png,GW/hotsprings.png,,,,,,,,,,,,,,,,,,
1259.9000000059605,,rt_thecrossant_black,1022349,,black_plus_sign,,,,49,,,1,0.9568965517241379,,,,,,,,,,,,,,,,
null,,color_black,1022452,,black_plus_sign,,,,null,,,,,,,,,,,,,,,,,,,,
null,,learn_phase(without_color),1025456,,black_plus_sign,,,,null,GW/gatlinburg.png,GW/carmel.png,,,,,,,,,,,,,,,,,,
null,,black_cross(without_color),1026332,,blue,,,,null,GW/gatlinburg.png,GW/carmel.png,,,,,,,,,,,,,,,,,,
null,,rt_plussign_withcolor,1026836,,blue,,,,null,GW/gatlinburg.png,GW/carmel.png,,,,,,,,,,,,,,,,,,
1190.300000011921,,rt_thecrossant_black,1027966,,black_plus_sign,,,,49,,,1,0.9572649572649573,,,,,,,,,,,,,,,,
null,,color_black,1028070,,black_plus_sign,,,,null,,,,,,,,,,,,,,,,,,,,
null,,learn_phase(without_color),1031076,,black_plus_sign,,,,null,GW/leesburg.png,GW/cornwall.png,,,,,,,,,,,,,,,,,,
null,,black_cross(without_color),1031578,,yellow,,,,null,GW/leesburg.png,GW/cornwall.png,,,,,,,,,,,,,,,,,,
null,,rt_plussign_withcolor,1032080,,yellow,,,,null,GW/leesburg.png,GW/cornwall.png,,,,,,,,,,,,,,,,,,
1262.5,,rt_thecrossant_black,1033586,,black_plus_sign,,,,50,,,1,0.9576271186440678,,,,,,,,,,,,,,,,
null,,color_black,1033689,,black_plus_sign,,,,null,,,,,,,,,,,,,,,,,,,,
null,,learn_phase(without_color),1036692,,black_plus_sign,,,,null,GW/hotsprings.png,GW/shreveport.png,,,,,,,,,,,,,,,,,,
null,,black_cross(without_color),1037427,,yellow,,,,null,GW/hotsprings.png,GW/shreveport.png,,,,,,,,,,,,,,,,,,
null,,rt_plussign_withcolor,1037931,,yellow,,,,null,GW/hotsprings.png,GW/shreveport.png,,,,,,,,,,,,,,,,,,
686,,rt_thecrossant_black,1039206,,black_plus_sign,,,,50,,,1,0.957983193277311,,,,,,,,,,,,,,,,
null,,color_black,1039310,,black_plus_sign,,,,null,,,,,,,,,,,,,,,,,,,,
null,,learn_phase(without_color),1042315,,black_plus_sign,,,,null,GW/peoria.png,GW/boulder.png,,,,,,,,,,,,,,,,,,
null,,black_cross(without_color),1042762,,blue,,,,null,GW/peoria.png,GW/boulder.png,,,,,,,,,,,,,,,,,,
null,,rt_plussign_withcolor,1043266,,blue,,,,null,GW/peoria.png,GW/boulder.png,,,,,,,,,,,,,,,,,,
885.2999999821186,,rt_thecrossant_black,1044827,,black_plus_sign,,,,50,,,0,0.95,,,,,,,,,,,,,,,,
null,,color_black,1044930,,black_plus_sign,,,,null,,,,,,,,,,,,,,,,,,,,
null,,learn_phase(without_color),1047936,,black_plus_sign,,,,null,GW/leesburg.png,GW/cornwall.png,,,,,,,,,,,,,,,,,,
null,,black_cross(without_color),1048399,,yellow,,,,null,GW/leesburg.png,GW/cornwall.png,,,,,,,,,,,,,,,,,,
null,,rt_plussign_withcolor,1048900,,yellow,,,,null,GW/leesburg.png,GW/cornwall.png,,,,,,,,,,,,,,,,,,
855,,rt_thecrossant_black,1050443,,black_plus_sign,,,,50,,,1,0.9504132231404959,,,,,,,,,,,,,,,,
null,,color_black,1050547,,black_plus_sign,,,,null,,,,,,,,,,,,,,,,,,,,
null,,learn_phase(without_color),1053552,,black_plus_sign,,,,null,GW/shreveport.png,GW/hotsprings.png,,,,,,,,,,,,,,,,,,
null,,black_cross(without_color),1054239,,yellow,,,,null,GW/shreveport.png,GW/hotsprings.png,,,,,,,,,,,,,,,,,,
null,,rt_plussign_withcolor,1054742,,yellow,,,,null,GW/shreveport.png,GW/hotsprings.png,,,,,,,,,,,,,,,,,,
821.5999999940395,,rt_thecrossant_black,1056063,,black_plus_sign,,,,50,,,1,0.9508196721311475,,,,,,,,,,,,,,,,
null,,color_black,1056169,,black_plus_sign,,,,null,,,,,,,,,,,,,,,,,,,,
null,,learn_phase(without_color),1059173,,black_plus_sign,,,,null,GW/peoria.png,GW/boulder.png,,,,,,,,,,,,,,,,,,
null,,black_cross(without_color),1060184,,blue,,,,null,GW/peoria.png,GW/boulder.png,,,,,,,,,,,,,,,,,,
null,,rt_plussign_withcolor,1060688,,blue,,,,null,GW/peoria.png,GW/boulder.png,,,,,,,,,,,,,,,,,,
1143.5,,rt_thecrossant_black,1061688,,black_plus_sign,,,,49,,,1,0.9512195121951219,,,,,,,,,,,,,,,,
null,,color_black,1061793,,black_plus_sign,,,,null,,,,,,,,,,,,,,,,,,,,
null,,learn_phase(without_color),1064799,,black_plus_sign,,,,null,GW/cornwall.png,GW/leesburg.png,,,,,,,,,,,,,,,,,,
null,,black_cross(without_color),1065219,,yellow,,,,null,GW/cornwall.png,GW/leesburg.png,,,,,,,,,,,,,,,,,,
null,,rt_plussign_withcolor,1065721,,yellow,,,,null,GW/cornwall.png,GW/leesburg.png,,,,,,,,,,,,,,,,,,
1246.2999999821186,,rt_thecrossant_black,1067306,,black_plus_sign,,,,50,,,1,0.9516129032258065,,,,,,,,,,,,,,,,
null,,color_black,1067411,,black_plus_sign,,,,null,,,,,,,,,,,,,,,,,,,,
null,,learn_phase(without_color),1070417,,black_plus_sign,,,,null,GW/shreveport.png,GW/hotsprings.png,,,,,,,,,,,,,,,,,,
null,,black_cross(without_color),1070842,,yellow,,,,null,GW/shreveport.png,GW/hotsprings.png,,,,,,,,,,,,,,,,,,
null,,rt_plussign_withcolor,1071346,,yellow,,,,null,GW/shreveport.png,GW/hotsprings.png,,,,,,,,,,,,,,,,,,
669.7999999821186,,rt_thecrossant_black,1072928,,black_plus_sign,,,,50,,,1,0.952,,,,,,,,,,,,,,,,
null,,color_black,1073031,,black_plus_sign,,,,null,,,,,,,,,,,,,,,,,,,,
null,,learn_phase(without_color),1076038,,black_plus_sign,,,,null,GW/gatlinburg.png,GW/carmel.png,,,,,,,,,,,,,,,,,,
null,,black_cross(without_color),1076651,,blue,,,,null,GW/gatlinburg.png,GW/carmel.png,,,,,,,,,,,,,,,,,,
null,,rt_plussign_withcolor,1077155,,blue,,,,null,GW/gatlinburg.png,GW/carmel.png,,,,,,,,,,,,,,,,,,
1159.9000000059605,,rt_thecrossant_black,1078555,,black_plus_sign,,,,49,,,1,0.9523809523809523,,,,,,,,,,,,,,,,
null,,color_black,1078658,,black_plus_sign,,,,null,,,,,,,,,,,,,,,,,,,,
null,,learn_phase(without_color),1081664,,black_plus_sign,,,,null,GW/gatlinburg.png,GW/carmel.png,,,,,,,,,,,,,,,,,,
null,,black_cross(without_color),1082378,,blue,,,,null,GW/gatlinburg.png,GW/carmel.png,,,,,,,,,,,,,,,,,,
null,,rt_plussign_withcolor,1082882,,blue,,,,null,GW/gatlinburg.png,GW/carmel.png,,,,,,,,,,,,,,,,,,
790.9000000059605,,rt_thecrossant_black,1084176,,black_plus_sign,,,,49,,,1,0.952755905511811,,,,,,,,,,,,,,,,
null,,color_black,1084281,,black_plus_sign,,,,null,,,,,,,,,,,,,,,,,,,,
null,,learn_phase(without_color),1087286,,black_plus_sign,,,,null,GW/leesburg.png,GW/cornwall.png,,,,,,,,,,,,,,,,,,
null,,black_cross(without_color),1087961,,blue,,,,null,GW/leesburg.png,GW/cornwall.png,,,,,,,,,,,,,,,,,,
null,,rt_plussign_withcolor,1088466,,blue,,,,null,GW/leesburg.png,GW/cornwall.png,,,,,,,,,,,,,,,,,,
1098.300000011921,,rt_thecrossant_black,1089799,,black_plus_sign,,,,49,,,1,0.953125,,,,,,,,,,,,,,,,
null,,color_black,1089903,,black_plus_sign,,,,null,,,,,,,,,,,,,,,,,,,,
null,,learn_break,1149906,,learn_break,,,,null,,,,,,,,,,,,,,,,,,,,
25257,,intro_1,1175165,,instruct,,0,Start,,,,,,,,,,,,,,,,,,,,,
null,,directmemory_phase,1181669,,GW/boulder.png,,,,null,,,0,0,GW/huntsville.png,GW/hanover.png,GW/cornwall.png,GW/hanover.png,GW/huntsville.png,GW/cornwall.png,0,,,,,,,,,
null,,warning_page,1184675,,warning,,,,null,,,,,,,,,,,,,,,,,,,,
null,,html-keyboard-response,1185677,,<p></p>,,,,null,,,,,,,,,,,,,,,,,,,,
2094.4000000059605,,directmemory_phase,1187772,,GW/huntsville.png,,,,49,,,1,0.5,GW/hotsprings.png,GW/racine.png,GW/cornwall.png,GW/hotsprings.png,GW/cornwall.png,GW/racine.png,1,,,,,,,,,
null,,html-keyboard-response,1188776,,<p></p>,,,,null,,,,,,,,,,,,,,,,,,,,
2450.100000023842,,directmemory_phase,1191228,,GW/boulder.png,,,,50,,,0,0.3333333333333333,GW/shreveport.png,GW/newhope.png,GW/westpalmbeach.png,GW/westpalmbeach.png,GW/newhope.png,GW/shreveport.png,0.5,closer,,,,,,,,
null,,html-keyboard-response,1192231,,<p></p>,,,,null,,,,,,,,,,,,,,,,,,,,
2835.5,,directmemory_phase,1195068,,GW/peoria.png,,,,50,,,1,0.5,GW/hanover.png,GW/newhope.png,GW/cornwall.png,GW/newhope.png,GW/hanover.png,GW/cornwall.png,1,,,,,,,,,
null,,html-keyboard-response,1196071,,<p></p>,,,,null,,,,,,,,,,,,,,,,,,,,
4458.9000000059605,,directmemory_phase,1200534,,GW/hotsprings.png,,,,51,,,0,0.4,GW/shreveport.png,GW/leesburg.png,GW/hanover.png,GW/shreveport.png,GW/hanover.png,GW/leesburg.png,0.5,closer,,,,,,,,
null,,html-keyboard-response,1201539,,<p></p>,,,,null,,,,,,,,,,,,,,,,,,,,
2718.800000011921,,directmemory_phase,1204260,,GW/gatlinburg.png,,,,49,,,0,0.3333333333333333,GW/leesburg.png,GW/carmel.png,GW/boulder.png,GW/carmel.png,GW/leesburg.png,GW/boulder.png,0.5,closer,,,,,,,,
null,,html-keyboard-response,1205262,,<p></p>,,,,null,,,,,,,,,,,,,,,,,,,,
2798.5,,directmemory_phase,1208063,,GW/peoria.png,,,,49,,,0,0.2857142857142857,GW/leesburg.png,GW/westpalmbeach.png,GW/hotsprings.png,GW/hotsprings.png,GW/westpalmbeach.png,GW/leesburg.png,0.5,closer,,,,,,,,
null,,html-keyboard-response,1209065,,<p></p>,,,,null,,,,,,,,,,,,,,,,,,,,
2616.7999999821186,,directmemory_phase,1211683,,GW/cornwall.png,,,,50,,,1,0.375,GW/racine.png,GW/gatlinburg.png,GW/newhope.png,GW/gatlinburg.png,GW/racine.png,GW/newhope.png,1,,,,,,,,,
null,,html-keyboard-response,1212686,,<p></p>,,,,null,,,,,,,,,,,,,,,,,,,,
2885.5,,directmemory_phase,1215574,,GW/hotsprings.png,,,,50,,,0,0.3333333333333333,GW/carmel.png,GW/boulder.png,GW/peoria.png,GW/peoria.png,GW/boulder.png,GW/carmel.png,0.5,closer,,,,,,,,
null,,html-keyboard-response,1216578,,<p></p>,,,,null,,,,,,,,,,,,,,,,,,,,
2609.699999988079,,directmemory_phase,1219190,,GW/huntsville.png,,,,51,,,0,0.3,GW/boulder.png,GW/hanover.png,GW/newhope.png,GW/hanover.png,GW/boulder.png,GW/newhope.png,0.5,closer,,,,,,,,
null,,html-keyboard-response,1220195,,<p></p>,,,,null,,,,,,,,,,,,,,,,,,,,
4127.0999999940395,,directmemory_phase,1224325,,GW/gatlinburg.png,,,,51,,,0,0.2727272727272727,GW/leesburg.png,GW/cornwall.png,GW/boulder.png,GW/cornwall.png,GW/leesburg.png,GW/boulder.png,0.5,closer,,,,,,,,
null,,html-keyboard-response,1225329,,<p></p>,,,,null,,,,,,,,,,,,,,,,,,,,
2193.899999976158,,directmemory_phase,1227525,,GW/newhope.png,,,,49,,,0,0.25,GW/huntsville.png,GW/boulder.png,GW/peoria.png,GW/peoria.png,GW/boulder.png,GW/huntsville.png,0.5,closer,,,,,,,,
null,,html-keyboard-response,1228528,,<p></p>,,,,null,,,,,,,,,,,,,,,,,,,,
2450.699999988079,,directmemory_phase,1230982,,GW/shreveport.png,,,,49,,,0,0.23076923076923078,GW/hanover.png,GW/carmel.png,GW/gatlinburg.png,GW/gatlinburg.png,GW/carmel.png,GW/hanover.png,0.5,closer,,,,,,,,
null,,html-keyboard-response,1231988,,<p></p>,,,,null,,,,,,,,,,,,,,,,,,,,
2423.5,,directmemory_phase,1234415,,GW/cornwall.png,,,,50,,,1,0.2857142857142857,GW/huntsville.png,GW/carmel.png,GW/hanover.png,GW/carmel.png,GW/huntsville.png,GW/hanover.png,1,,,,,,,,,
null,,html-keyboard-response,1235420,,<p></p>,,,,null,,,,,,,,,,,,,,,,,,,,
3207.199999988079,,directmemory_phase,1238628,,GW/hanover.png,,,,51,,,1,0.3333333333333333,GW/cornwall.png,GW/hotsprings.png,GW/huntsville.png,GW/huntsville.png,GW/hotsprings.png,GW/cornwall.png,1,,,,,,,,,
null,,html-keyboard-response,1239632,,<p></p>,,,,null,,,,,,,,,,,,,,,,,,,,
2017.9000000059605,,directmemory_phase,1241653,,GW/shreveport.png,,,,49,,,1,0.375,GW/cornwall.png,GW/westpalmbeach.png,GW/leesburg.png,GW/cornwall.png,GW/leesburg.png,GW/westpalmbeach.png,1,,,,,,,,,
null,,html-keyboard-response,1242655,,<p></p>,,,,null,,,,,,,,,,,,,,,,,,,,
2258.9000000059605,,directmemory_phase,1244916,,GW/carmel.png,,,,49,,,0,0.35294117647058826,GW/huntsville.png,GW/gatlinburg.png,GW/hotsprings.png,GW/gatlinburg.png,GW/huntsville.png,GW/hotsprings.png,0.5,closer,,,,,,,,
null,,html-keyboard-response,1245919,,<p></p>,,,,null,,,,,,,,,,,,,,,,,,,,
2316.300000011921,,directmemory_phase,1248237,,GW/cornwall.png,,,,50,,,0,0.3333333333333333,GW/shreveport.png,GW/peoria.png,GW/hotsprings.png,GW/shreveport.png,GW/hotsprings.png,GW/peoria.png,0.5,closer,,,,,,,,
null,,html-keyboard-response,1249241,,<p></p>,,,,null,,,,,,,,,,,,,,,,,,,,
2439.7999999821186,,directmemory_phase,1251685,,GW/huntsville.png,,,,51,,,0,0.3157894736842105,GW/gatlinburg.png,GW/westpalmbeach.png,GW/peoria.png,GW/gatlinburg.png,GW/peoria.png,GW/westpalmbeach.png,0.5,closer,,,,,,,,
null,,html-keyboard-response,1252688,,<p></p>,,,,null,,,,,,,,,,,,,,,,,,,,
2265.5999999940395,,directmemory_phase,1254956,,GW/carmel.png,,,,51,,,0,0.3,GW/huntsville.png,GW/cornwall.png,GW/hotsprings.png,GW/cornwall.png,GW/huntsville.png,GW/hotsprings.png,0.5,closer,,,,,,,,
null,,html-keyboard-response,1255958,,<p></p>,,,,null,,,,,,,,,,,,,,,,,,,,
2437.9000000059605,,directmemory_phase,1258399,,GW/gatlinburg.png,,,,49,,,0,0.2857142857142857,GW/newhope.png,GW/racine.png,GW/shreveport.png,GW/shreveport.png,GW/racine.png,GW/newhope.png,0.5,closer,,,,,,,,
null,,html-keyboard-response,1259404,,<p></p>,,,,null,,,,,,,,,,,,,,,,,,,,
1998.5,,directmemory_phase,1261406,,GW/hotsprings.png,,,,49,,,1,0.3181818181818182,GW/huntsville.png,GW/westpalmbeach.png,GW/boulder.png,GW/huntsville.png,GW/boulder.png,GW/westpalmbeach.png,1,,,,,,,,,
null,,html-keyboard-response,1262416,,<p></p>,,,,null,,,,,,,,,,,,,,,,,,,,
1907,,directmemory_phase,1264327,,GW/peoria.png,,,,50,,,0,0.30434782608695654,GW/carmel.png,GW/westpalmbeach.png,GW/boulder.png,GW/boulder.png,GW/westpalmbeach.png,GW/carmel.png,0.5,closer,,,,,,,,
null,,html-keyboard-response,1265332,,<p></p>,,,,null,,,,,,,,,,,,,,,,,,,,
2031.5,,directmemory_phase,1267367,,GW/gatlinburg.png,,,,49,,,0,0.2916666666666667,GW/hanover.png,GW/huntsville.png,GW/boulder.png,GW/huntsville.png,GW/hanover.png,GW/boulder.png,0.5,closer,,,,,,,,
null,,html-keyboard-response,1268371,,<p></p>,,,,null,,,,,,,,,,,,,,,,,,,,
1941.9000000059605,,directmemory_phase,1270318,,GW/racine.png,,,,51,,,0,0.28,GW/carmel.png,GW/shreveport.png,GW/cornwall.png,GW/carmel.png,GW/cornwall.png,GW/shreveport.png,0.5,closer,,,,,,,,
null,,html-keyboard-response,1271321,,<p></p>,,,,null,,,,,,,,,,,,,,,,,,,,
2346.4000000059605,,directmemory_phase,1273670,,GW/boulder.png,,,,50,,,1,0.3076923076923077,GW/hotsprings.png,GW/peoria.png,GW/shreveport.png,GW/peoria.png,GW/hotsprings.png,GW/shreveport.png,1,,,,,,,,,
null,,html-keyboard-response,1274676,,<p></p>,,,,null,,,,,,,,,,,,,,,,,,,,
2285.100000023842,,directmemory_phase,1276964,,GW/carmel.png,,,,51,,,0,0.2962962962962963,GW/racine.png,GW/hotsprings.png,GW/huntsville.png,GW/racine.png,GW/huntsville.png,GW/hotsprings.png,0.5,closer,,,,,,,,
null,,html-keyboard-response,1277967,,<p></p>,,,,null,,,,,,,,,,,,,,,,,,,,
1971.9000000059605,,directmemory_phase,1279940,,GW/leesburg.png,,,,49,,,1,0.32142857142857145,GW/cornwall.png,GW/hanover.png,GW/shreveport.png,GW/cornwall.png,GW/shreveport.png,GW/hanover.png,1,,,,,,,,,
null,,html-keyboard-response,1280942,,<p></p>,,,,null,,,,,,,,,,,,,,,,,,,,
2215.699999988079,,directmemory_phase,1283159,,GW/westpalmbeach.png,,,,49,,,0,0.3103448275862069,GW/hotsprings.png,GW/hanover.png,GW/boulder.png,GW/boulder.png,GW/hanover.png,GW/hotsprings.png,0.5,closer,,,,,,,,
null,,html-keyboard-response,1284164,,<p></p>,,,,null,,,,,,,,,,,,,,,,,,,,
2574.699999988079,,directmemory_phase,1286742,,GW/cornwall.png,,,,50,,,0,0.3,GW/leesburg.png,GW/peoria.png,GW/racine.png,GW/leesburg.png,GW/racine.png,GW/peoria.png,0.5,closer,,,,,,,,
null,,html-keyboard-response,1287748,,<p></p>,,,,null,,,,,,,,,,,,,,,,,,,,
1958.5,,directmemory_phase,1289710,,GW/hanover.png,,,,49,,,0,0.2903225806451613,GW/gatlinburg.png,GW/boulder.png,GW/cornwall.png,GW/boulder.png,GW/gatlinburg.png,GW/cornwall.png,0.5,closer,,,,,,,,
null,,html-keyboard-response,1290716,,<p></p>,,,,null,,,,,,,,,,,,,,,,,,,,
1799.7999999821186,,directmemory_phase,1292519,,GW/shreveport.png,,,,51,,,1,0.3125,GW/boulder.png,GW/peoria.png,GW/hotsprings.png,GW/hotsprings.png,GW/peoria.png,GW/boulder.png,1,,,,,,,,,
null,,html-keyboard-response,1293523,,<p></p>,,,,null,,,,,,,,,,,,,,,,,,,,
40379.59999999404,,intro_1,1333905,,instruct,,0,,,,,,,,,,,,,,,,,,,,,,
18176.20000001788,,intro_2,1352085,,instruct,,1,Next,,,,,,,,,,,,,,,,,,,,,
9064.90000000596,,intro_3,1361152,,instruct,,1,Next,,,,,,,,,,,,,,,,,,,,,
9573.40000000596,,intro_4,1370730,,instruct,,1,Next,,,,,,,,,,,,,,,,,,,,,
21543.5,,intro_5,1392278,,instruct,,1,Next,,,,,,,,,,,,,,,,,,,,,
19880.30000001192,,intro_6,1412161,,instruct,,1,Next,,,,,,,,,,,,,,,,,,,,,
21866.59999999404,,intro_7,1434031,,instruct,,1,Next,,,,,,,,,,,,,,,,,,,,,
31392.59999999404,,intro_8,1465426,,instruct,,1,Next,,,,,,,,,,,,,,,,,,,,,
2951.9000000059605,,shortestpath_phase,1468381,,GW/peoria.png,,,,49,GW/racine.png,GW/shreveport.png,0,0,,,,GW/shreveport.png,,,,,Three Edge Diff,Two Edge Five Edge,,,,,,
null,,html-keyboard-response,1469388,,<p></p>,,,,null,,,,,,,,,,,,,,,,,,,,
2071.4000000059605,,shortestpath_phase,1471463,,GW/newhope.png,,,,49,GW/leesburg.png,GW/hotsprings.png,0,0,,,,GW/hotsprings.png,,,,,Three Edge Diff,Three Edge Six Edge,,,,,,
null,,html-keyboard-response,1472467,,<p></p>,,,,null,,,,,,,,,,,,,,,,,,,,
3056.5999999940395,,shortestpath_phase,1475528,,GW/shreveport.png,,,,50,GW/westpalmbeach.png,GW/huntsville.png,1,0.3333333333333333,,,,GW/huntsville.png,,,,,Two Edge Diff,Two Edge Four Edge,,,,,,
null,,html-keyboard-response,1476533,,<p></p>,,,,null,,,,,,,,,,,,,,,,,,,,
2878,,shortestpath_phase,1479415,,GW/racine.png,,,,50,GW/cornwall.png,GW/newhope.png,0,0.25,,,,GW/cornwall.png,,,,,Four Edge Diff,Two Edge Six Edge,,,,,,
null,,html-keyboard-response,1480421,,<p></p>,,,,null,,,,,,,,,,,,,,,,,,,,
2565.899999976158,,shortestpath_phase,1482991,,GW/boulder.png,,,,49,GW/leesburg.png,GW/carmel.png,0,0.2,,,,GW/carmel.png,,,,,One Edge Diff,Four Edge Five Edge,,,,,,
null,,html-keyboard-response,1483997,,<p></p>,,,,null,,,,,,,,,,,,,,,,,,,,
2454.5,,shortestpath_phase,1486455,,GW/shreveport.png,,,,49,GW/westpalmbeach.png,GW/hanover.png,0,0.16666666666666666,,,,GW/hanover.png,,,,,One Edge Diff,Three Edge Four Edge,,,,,,
null,,html-keyboard-response,1487474,,<p></p>,,,,null,,,,,,,,,,,,,,,,,,,,
2858.0999999940395,,shortestpath_phase,1490334,,GW/newhope.png,,,,49,GW/boulder.png,GW/leesburg.png,1,0.2857142857142857,,,,GW/boulder.png,,,,,Three Edge Diff,Three Edge Six Edge,,,,,,
null,,html-keyboard-response,1491341,,<p></p>,,,,null,,,,,,,,,,,,,,,,,,,,
2932.4000000059605,,shortestpath_phase,1494278,,GW/carmel.png,,,,50,GW/boulder.png,GW/leesburg.png,1,0.375,,,,GW/leesburg.png,,,,,Two Edge Diff,Two Edge Four Edge,,,,,,
null,,html-keyboard-response,1495285,,<p></p>,,,,null,,,,,,,,,,,,,,,,,,,,
2422,,shortestpath_phase,1497710,,GW/newhope.png,,,,50,GW/gatlinburg.png,GW/carmel.png,0,0.3333333333333333,,,,GW/gatlinburg.png,,,,,One Edge Diff,Four Edge Five Edge,,,,,,
null,,html-keyboard-response,1498715,,<p></p>,,,,null,,,,,,,,,,,,,,,,,,,,
2653.2000000178814,,shortestpath_phase,1501372,,GW/carmel.png,,,,49,GW/shreveport.png,GW/boulder.png,1,0.4,,,,GW/shreveport.png,,,,,Two Edge Diff,Two Edge Four Edge,,,,,,
null,,html-keyboard-response,1502375,,<p></p>,,,,null,,,,,,,,,,,,,,,,,,,,
2725,,shortestpath_phase,1505103,,GW/boulder.png,,,,50,GW/leesburg.png,GW/gatlinburg.png,1,0.45454545454545453,,,,GW/gatlinburg.png,,,,,Two Edge Diff,Three Edge Five Edge,,,,,,
null,,html-keyboard-response,1506108,,<p></p>,,,,null,,,,,,,,,,,,,,,,,,,,
1895.9000000059605,,shortestpath_phase,1508007,,GW/carmel.png,,,,50,GW/shreveport.png,GW/peoria.png,0,0.4166666666666667,,,,GW/shreveport.png,,,,,Two Edge Diff,Two Edge Four Edge,,,,,,
null,,html-keyboard-response,1509013,,<p></p>,,,,null,,,,,,,,,,,,,,,,,,,,
2148.0999999940395,,shortestpath_phase,1511164,,GW/leesburg.png,,,,49,GW/hanover.png,GW/westpalmbeach.png,1,0.46153846153846156,,,,GW/hanover.png,,,,,Two Edge Diff,Four Edge Six Edge,,,,,,
null,,html-keyboard-response,1512166,,<p></p>,,,,null,,,,,,,,,,,,,,,,,,,,
2750.2000000178814,,shortestpath_phase,1514919,,GW/peoria.png,,,,50,GW/racine.png,GW/huntsville.png,1,0.5,,,,GW/huntsville.png,,,,,Three Edge Diff,Three Edge Six Edge,,,,,,
null,,html-keyboard-response,1515923,,<p></p>,,,,null,,,,,,,,,,,,,,,,,,,,
1855.800000011921,,shortestpath_phase,1517780,,GW/racine.png,,,,49,GW/shreveport.png,GW/hotsprings.png,1,0.5333333333333333,,,,GW/shreveport.png,,,,,One Edge Diff,Three Edge Four Edge,,,,,,
null,,html-keyboard-response,1518794,,<p></p>,,,,null,,,,,,,,,,,,,,,,,,,,
2130.5,,shortestpath_phase,1520928,,GW/newhope.png,,,,49,GW/carmel.png,GW/boulder.png,0,0.5,,,,GW/boulder.png,,,,,Three Edge Diff,Two Edge Five Edge,,,,,,
null,,html-keyboard-response,1521932,,<p></p>,,,,null,,,,,,,,,,,,,,,,,,,,
1948.2999999821186,,shortestpath_phase,1523884,,GW/racine.png,,,,50,GW/peoria.png,GW/westpalmbeach.png,0,0.47058823529411764,,,,GW/peoria.png,,,,,One Edge Diff,Five Edge Six Edge,,,,,,
null,,html-keyboard-response,1524895,,<p></p>,,,,null,,,,,,,,,,,,,,,,,,,,
2052.2999999821186,,shortestpath_phase,1526951,,GW/cornwall.png,,,,49,GW/boulder.png,GW/westpalmbeach.png,1,0.5,,,,GW/boulder.png,,,,,One Edge Diff,Four Edge Five Edge,,,,,,
null,,html-keyboard-response,1527956,,<p></p>,,,,null,,,,,,,,,,,,,,,,,,,,
2094.9000000059605,,shortestpath_phase,1530054,,GW/westpalmbeach.png,,,,50,GW/racine.png,GW/carmel.png,1,0.5263157894736842,,,,GW/carmel.png,,,,,One Edge Diff,Five Edge Six Edge,,,,,,
null,,html-keyboard-response,1531072,,<p></p>,,,,null,,,,,,,,,,,,,,,,,,,,
2299.5999999940395,,shortestpath_phase,1533375,,GW/racine.png,,,,49,GW/newhope.png,GW/hanover.png,0,0.5,,,,GW/hanover.png,,,,,Two Edge Diff,Four Edge Six Edge,,,,,,
null,,html-keyboard-response,1534381,,<p></p>,,,,null,,,,,,,,,,,,,,,,,,,,
2612.899999976158,,shortestpath_phase,1537000,,GW/peoria.png,,,,50,GW/cornwall.png,GW/racine.png,0,0.47619047619047616,,,,GW/cornwall.png,,,,,Two Edge Diff,Three Edge Five Edge,,,,,,
null,,html-keyboard-response,1538005,,<p></p>,,,,null,,,,,,,,,,,,,,,,,,,,
2011.699999988079,,shortestpath_phase,1540022,,GW/newhope.png,,,,50,GW/hotsprings.png,GW/gatlinburg.png,0,0.45454545454545453,,,,GW/hotsprings.png,,,,,Two Edge Diff,Two Edge Four Edge,,,,,,
null,,html-keyboard-response,1541025,,<p></p>,,,,null,,,,,,,,,,,,,,,,,,,,
1848.9000000059605,,shortestpath_phase,1542878,,GW/westpalmbeach.png,,,,49,GW/gatlinburg.png,GW/racine.png,1,0.4782608695652174,,,,GW/gatlinburg.png,,,,,Two Edge Diff,Four Edge Six Edge,,,,,,
null,,html-keyboard-response,1543884,,<p></p>,,,,null,,,,,,,,,,,,,,,,,,,,
2000.8999999761581,,shortestpath_phase,1545888,,GW/racine.png,,,,50,GW/hanover.png,GW/westpalmbeach.png,0,0.4583333333333333,,,,GW/hanover.png,,,,,Two Edge Diff,Four Edge Six Edge,,,,,,
null,,html-keyboard-response,1546898,,<p></p>,,,,null,,,,,,,,,,,,,,,,,,,,
1768.7000000178814,,shortestpath_phase,1548670,,GW/leesburg.png,,,,50,GW/peoria.png,GW/westpalmbeach.png,0,0.44,,,,GW/peoria.png,,,,,Two Edge Diff,Four Edge Six Edge,,,,,,
null,,html-keyboard-response,1549676,,<p></p>,,,,null,,,,,,,,,,,,,,,,,,,,
1494.0999999940395,,shortestpath_phase,1551174,,GW/racine.png,,,,50,GW/peoria.png,GW/gatlinburg.png,1,0.46153846153846156,,,,GW/gatlinburg.png,,,,,Three Edge Diff,Two Edge Five Edge,,,,,,
null,,html-keyboard-response,1552177,,<p></p>,,,,null,,,,,,,,,,,,,,,,,,,,
1426,,shortestpath_phase,1553607,,GW/huntsville.png,,,,50,GW/leesburg.png,GW/carmel.png,1,0.48148148148148145,,,,GW/carmel.png,,,,,One Edge Diff,Two Edge Three Edge,,,,,,
null,,html-keyboard-response,1554621,,<p></p>,,,,null,,,,,,,,,,,,,,,,,,,,
1567.5,,shortestpath_phase,1556191,,GW/racine.png,,,,49,GW/hotsprings.png,GW/newhope.png,1,0.5,,,,GW/hotsprings.png,,,,,Two Edge Diff,Four Edge Six Edge,,,,,,
null,,html-keyboard-response,1557195,,<p></p>,,,,null,,,,,,,,,,,,,,,,,,,,
1471.0999999940395,,shortestpath_phase,1558669,,GW/leesburg.png,,,,49,GW/shreveport.png,GW/westpalmbeach.png,1,0.5172413793103449,,,,GW/shreveport.png,,,,,Four Edge Diff,Two Edge Six Edge,,,,,,
null,,html-keyboard-response,1559672,,<p></p>,,,,null,,,,,,,,,,,,,,,,,,,,
2186.5,,shortestpath_phase,1561863,,GW/racine.png,,,,50,GW/peoria.png,GW/newhope.png,0,0.5,,,,GW/peoria.png,,,,,One Edge Diff,Five Edge Six Edge,,,,,,
null,,html-keyboard-response,1562869,,<p></p>,,,,null,,,,,,,,,,,,,,,,,,,,
1350.7000000178814,,shortestpath_phase,1564223,,GW/cornwall.png,,,,50,GW/newhope.png,GW/hanover.png,1,0.5161290322580645,,,,GW/hanover.png,,,,,One Edge Diff,Three Edge Four Edge,,,,,,
null,,html-keyboard-response,1565236,,<p></p>,,,,null,,,,,,,,,,,,,,,,,,,,
3176.4000000059605,,shortestpath_phase,1568415,,GW/westpalmbeach.png,,,,49,GW/peoria.png,GW/carmel.png,1,0.53125,,,,GW/peoria.png,,,,,Three Edge Diff,Two Edge Five Edge,,,,,,
null,,html-keyboard-response,1569418,,<p></p>,,,,null,,,,,,,,,,,,,,,,,,,,
1721.9000000059605,,shortestpath_phase,1571143,,GW/boulder.png,,,,50,GW/huntsville.png,GW/racine.png,0,0.5151515151515151,,,,GW/huntsville.png,,,,,Three Edge Diff,Three Edge Six Edge,,,,,,
null,,html-keyboard-response,1572156,,<p></p>,,,,null,,,,,,,,,,,,,,,,,,,,
1382.7000000178814,,shortestpath_phase,1573540,,GW/westpalmbeach.png,,,,50,GW/carmel.png,GW/gatlinburg.png,1,0.5294117647058824,,,,GW/gatlinburg.png,,,,,One Edge Diff,Four Edge Five Edge,,,,,,
null,,html-keyboard-response,1574543,,<p></p>,,,,null,,,,,,,,,,,,,,,,,,,,
1365.199999988079,,shortestpath_phase,1575910,,GW/racine.png,,,,49,GW/cornwall.png,GW/peoria.png,1,0.5428571428571428,,,,GW/cornwall.png,,,,,Three Edge Diff,Two Edge Five Edge,,,,,,
null,,html-keyboard-response,1576912,,<p></p>,,,,null,,,,,,,,,,,,,,,,,,,,
1579.0999999940395,,shortestpath_phase,1578494,,GW/westpalmbeach.png,,,,49,GW/huntsville.png,GW/cornwall.png,1,0.5555555555555556,,,,GW/huntsville.png,,,,,Two Edge Diff,Three Edge Five Edge,,,,,,
null,,html-keyboard-response,1579498,,<p></p>,,,,null,,,,,,,,,,,,,,,,,,,,
1839.699999988079,,shortestpath_phase,1581341,,GW/racine.png,,,,50,GW/newhope.png,GW/gatlinburg.png,1,0.5675675675675675,,,,GW/gatlinburg.png,,,,,Four Edge Diff,Two Edge Six Edge,,,,,,
null,,html-keyboard-response,1582345,,<p></p>,,,,null,,,,,,,,,,,,,,,,,,,,
1729.699999988079,,shortestpath_phase,1584078,,GW/westpalmbeach.png,,,,50,GW/shreveport.png,GW/peoria.png,1,0.5789473684210527,,,,GW/peoria.png,,,,,Two Edge Diff,Two Edge Four Edge,,,,,,
null,,html-keyboard-response,1585083,,<p></p>,,,,null,,,,,,,,,,,,,,,,,,,,
1622,,shortestpath_phase,1586708,,GW/racine.png,,,,50,GW/cornwall.png,GW/huntsville.png,0,0.5641025641025641,,,,GW/cornwall.png,,,,,One Edge Diff,Two Edge Three Edge,,,,,,
null,,html-keyboard-response,1587711,,<p></p>,,,,null,,,,,,,,,,,,,,,,,,,,
1486.7999999821186,,shortestpath_phase,1589199,,GW/newhope.png,,,,49,GW/cornwall.png,GW/hanover.png,0,0.55,,,,GW/hanover.png,,,,,One Edge Diff,Three Edge Four Edge,,,,,,
null,,html-keyboard-response,1590205,,<p></p>,,,,null,,,,,,,,,,,,,,,,,,,,
1510,,shortestpath_phase,1591719,,GW/westpalmbeach.png,,,,49,GW/leesburg.png,GW/cornwall.png,0,0.5365853658536586,,,,GW/cornwall.png,,,,,One Edge Diff,Five Edge Six Edge,,,,,,
null,,html-keyboard-response,1592723,,<p></p>,,,,null,,,,,,,,,,,,,,,,,,,,
1535.699999988079,,shortestpath_phase,1594261,,GW/racine.png,,,,49,GW/westpalmbeach.png,GW/gatlinburg.png,0,0.5238095238095238,,,,GW/gatlinburg.png,,,,,Four Edge Diff,Two Edge Six Edge,,,,,,
null,,html-keyboard-response,1595264,,<p></p>,,,,null,,,,,,,,,,,,,,,,,,,,
1497.9000000059605,,shortestpath_phase,1596764,,GW/cornwall.png,,,,50,GW/hanover.png,GW/westpalmbeach.png,0,0.5116279069767442,,,,GW/hanover.png,,,,,Two Edge Diff,Three Edge Five Edge,,,,,,
null,,html-keyboard-response,1597774,,<p></p>,,,,null,,,,,,,,,,,,,,,,,,,,
1782.7999999821186,,shortestpath_phase,1599560,,GW/leesburg.png,,,,49,GW/newhope.png,GW/westpalmbeach.png,1,0.5227272727272727,,,,GW/newhope.png,,,,,One Edge Diff,Five Edge Six Edge,,,,,,
null,,html-keyboard-response,1600564,,<p></p>,,,,null,,,,,,,,,,,,,,,,,,,,
1645.5,,shortestpath_phase,1602212,,GW/huntsville.png,,,,50,GW/racine.png,GW/boulder.png,1,0.5333333333333333,,,,GW/boulder.png,,,,,One Edge Diff,Two Edge Three Edge,,,,,,
null,,html-keyboard-response,1603215,,<p></p>,,,,null,,,,,,,,,,,,,,,,,,,,
1548,,shortestpath_phase,1604766,,GW/leesburg.png,,,,50,GW/boulder.png,GW/shreveport.png,1,0.5434782608695652,,,,GW/shreveport.png,,,,,Three Edge Diff,Two Edge Five Edge,,,,,,
null,,html-keyboard-response,1605781,,<p></p>,,,,null,,,,,,,,,,,,,,,,,,,,
1694.5,,shortestpath_phase,1607479,,GW/westpalmbeach.png,,,,49,GW/racine.png,GW/peoria.png,0,0.5319148936170213,,,,GW/peoria.png,,,,,Four Edge Diff,Two Edge Six Edge,,,,,,
null,,html-keyboard-response,1608485,,<p></p>,,,,null,,,,,,,,,,,,,,,,,,,,
1319.800000011921,,shortestpath_phase,1609806,,GW/racine.png,,,,50,GW/cornwall.png,GW/westpalmbeach.png,0,0.5208333333333334,,,,GW/cornwall.png,,,,,Four Edge Diff,Two Edge Six Edge,,,,,,
null,,html-keyboard-response,1610810,,<p></p>,,,,null,,,,,,,,,,,,,,,,,,,,
1607.8999999761581,,shortestpath_phase,1612420,,GW/huntsville.png,,,,50,GW/carmel.png,GW/newhope.png,0,0.5102040816326531,,,,GW/carmel.png,,,,,One Edge Diff,Two Edge Three Edge,,,,,,
null,,html-keyboard-response,1613422,,<p></p>,,,,null,,,,,,,,,,,,,,,,,,,,
1501.7000000178814,,shortestpath_phase,1614926,,GW/westpalmbeach.png,,,,49,GW/leesburg.png,GW/gatlinburg.png,0,0.5,,,,GW/gatlinburg.png,,,,,Two Edge Diff,Four Edge Six Edge,,,,,,
null,,html-keyboard-response,1615931,,<p></p>,,,,null,,,,,,,,,,,,,,,,,,,,
1343.800000011921,,shortestpath_phase,1617278,,GW/cornwall.png,,,,49,GW/westpalmbeach.png,GW/huntsville.png,0,0.49019607843137253,,,,GW/huntsville.png,,,,,Three Edge Diff,Three Edge Six Edge,,,,,,
null,,html-keyboard-response,1618282,,<p></p>,,,,null,,,,,,,,,,,,,,,,,,,,
1713.3999999761581,,shortestpath_phase,1619998,,GW/leesburg.png,,,,49,GW/newhope.png,GW/carmel.png,0,0.4807692307692308,,,,GW/carmel.png,,,,,Three Edge Diff,Three Edge Six Edge,,,,,,
null,,html-keyboard-response,1621002,,<p></p>,,,,null,,,,,,,,,,,,,,,,,,,,
1578.199999988079,,shortestpath_phase,1622582,,GW/newhope.png,,,,50,GW/racine.png,GW/cornwall.png,1,0.49056603773584906,,,,GW/cornwall.png,,,,,Two Edge Diff,Four Edge Six Edge,,,,,,
null,,html-keyboard-response,1623584,,<p></p>,,,,null,,,,,,,,,,,,,,,,,,,,
1468.0999999940395,,shortestpath_phase,1625055,,GW/westpalmbeach.png,,,,49,GW/peoria.png,GW/leesburg.png,1,0.5,,,,GW/peoria.png,,,,,Four Edge Diff,Two Edge Six Edge,,,,,,
null,,html-keyboard-response,1626060,,<p></p>,,,,null,,,,,,,,,,,,,,,,,,,,
1902.800000011921,,shortestpath_phase,1627966,,GW/leesburg.png,,,,50,GW/gatlinburg.png,GW/newhope.png,0,0.4909090909090909,,,,GW/gatlinburg.png,,,,,Three Edge Diff,Three Edge Six Edge,,,,,,
null,,html-keyboard-response,1628972,,<p></p>,,,,null,,,,,,,,,,,,,,,,,,,,
1542.5999999940395,,shortestpath_phase,1630518,,GW/carmel.png,,,,50,GW/huntsville.png,GW/newhope.png,0,0.48214285714285715,,,,GW/huntsville.png,,,,,Three Edge Diff,Two Edge Five Edge,,,,,,
null,,html-keyboard-response,1631522,,<p></p>,,,,null,,,,,,,,,,,,,,,,,,,,
1526.5999999940395,,shortestpath_phase,1633052,,GW/newhope.png,,,,49,GW/boulder.png,GW/racine.png,1,0.49122807017543857,,,,GW/boulder.png,,,,,Four Edge Diff,Two Edge Six Edge,,,,,,
null,,html-keyboard-response,1634055,,<p></p>,,,,null,,,,,,,,,,,,,,,,,,,,
1403.0999999940395,,shortestpath_phase,1635461,,GW/carmel.png,,,,49,GW/westpalmbeach.png,GW/leesburg.png,0,0.4827586206896552,,,,GW/leesburg.png,,,,,Three Edge Diff,Three Edge Six Edge,,,,,,
null,,html-keyboard-response,1636464,,<p></p>,,,,null,,,,,,,,,,,,,,,,,,,,
1554.2000000178814,,shortestpath_phase,1638022,,GW/newhope.png,,,,50,GW/boulder.png,GW/gatlinburg.png,0,0.4745762711864407,,,,GW/boulder.png,,,,,Two Edge Diff,Two Edge Four Edge,,,,,,
null,,html-keyboard-response,1639027,,<p></p>,,,,null,,,,,,,,,,,,,,,,,,,,
1909.5999999940395,,shortestpath_phase,1640940,,GW/leesburg.png,,,,49,GW/carmel.png,GW/westpalmbeach.png,1,0.48333333333333334,,,,GW/carmel.png,,,,,Four Edge Diff,Two Edge Six Edge,,,,,,
null,,html-keyboard-response,1641942,,<p></p>,,,,null,,,,,,,,,,,,,,,,,,,,
1486.300000011921,,shortestpath_phase,1643432,,GW/peoria.png,,,,50,GW/westpalmbeach.png,GW/racine.png,0,0.47540983606557374,,,,GW/westpalmbeach.png,,,,,Three Edge Diff,Two Edge Five Edge,,,,,,
null,,html-keyboard-response,1644437,,<p></p>,,,,null,,,,,,,,,,,,,,,,,,,,
1455.2999999821186,,shortestpath_phase,1645895,,GW/leesburg.png,,,,50,GW/westpalmbeach.png,GW/gatlinburg.png,1,0.4838709677419355,,,,GW/gatlinburg.png,,,,,Four Edge Diff,Two Edge Six Edge,,,,,,
null,,html-keyboard-response,1646900,,<p></p>,,,,null,,,,,,,,,,,,,,,,,,,,
1511.1000000238419,,shortestpath_phase,1648414,,GW/carmel.png,,,,49,GW/westpalmbeach.png,GW/huntsville.png,0,0.47619047619047616,,,,GW/huntsville.png,,,,,Three Edge Diff,Three Edge Six Edge,,,,,,
null,,html-keyboard-response,1649418,,<p></p>,,,,null,,,,,,,,,,,,,,,,,,,,
1545,,shortestpath_phase,1650966,,GW/racine.png,,,,49,GW/gatlinburg.png,GW/peoria.png,1,0.484375,,,,GW/gatlinburg.png,,,,,Three Edge Diff,Three Edge Six Edge,,,,,,
null,,html-keyboard-response,1651969,,<p></p>,,,,null,,,,,,,,,,,,,,,,,,,,
1306.300000011921,,shortestpath_phase,1653277,,GW/carmel.png,,,,50,GW/hotsprings.png,GW/westpalmbeach.png,0,0.47692307692307695,,,,GW/hotsprings.png,,,,,Two Edge Diff,Three Edge Five Edge,,,,,,
null,,html-keyboard-response,1654282,,<p></p>,,,,null,,,,,,,,,,,,,,,,,,,,
1496.4000000059605,,shortestpath_phase,1655780,,GW/leesburg.png,,,,50,GW/racine.png,GW/boulder.png,0,0.4696969696969697,,,,GW/racine.png,,,,,Two Edge Diff,Three Edge Five Edge,,,,,,
null,,html-keyboard-response,1656783,,<p></p>,,,,null,,,,,,,,,,,,,,,,,,,,
1548.2999999821186,,shortestpath_phase,1658333,,GW/westpalmbeach.png,,,,49,GW/gatlinburg.png,GW/cornwall.png,1,0.47761194029850745,,,,GW/gatlinburg.png,,,,,One Edge Diff,Four Edge Five Edge,,,,,,
null,,html-keyboard-response,1659337,,<p></p>,,,,null,,,,,,,,,,,,,,,,,,,,
1481.5,,shortestpath_phase,1660820,,GW/racine.png,,,,49,GW/peoria.png,GW/cornwall.png,0,0.47058823529411764,,,,GW/cornwall.png,,,,,Three Edge Diff,Three Edge Six Edge,,,,,,
null,,html-keyboard-response,1661824,,<p></p>,,,,null,,,,,,,,,,,,,,,,,,,,
1762.5999999940395,,shortestpath_phase,1663589,,GW/newhope.png,,,,50,GW/westpalmbeach.png,GW/leesburg.png,0,0.463768115942029,,,,GW/westpalmbeach.png,,,,,Two Edge Diff,Three Edge Five Edge,,,,,,
null,,html-keyboard-response,1664593,,<p></p>,,,,null,,,,,,,,,,,,,,,,,,,,
1657.199999988079,,shortestpath_phase,1666252,,GW/leesburg.png,,,,50,GW/gatlinburg.png,GW/hanover.png,0,0.45714285714285713,,,,GW/gatlinburg.png,,,,,Two Edge Diff,Two Edge Four Edge,,,,,,
null,,html-keyboard-response,1667256,,<p></p>,,,,null,,,,,,,,,,,,,,,,,,,,
1994.699999988079,,shortestpath_phase,1669255,,GW/westpalmbeach.png,,,,50,GW/hanover.png,GW/racine.png,0,0.4507042253521127,,,,GW/hanover.png,,,,,Four Edge Diff,Two Edge Six Edge,,,,,,
null,,html-keyboard-response,1670273,,<p></p>,,,,null,,,,,,,,,,,,,,,,,,,,
2242.300000011921,,shortestpath_phase,1672519,,GW/boulder.png,,,,49,GW/leesburg.png,GW/newhope.png,0,0.4444444444444444,,,,GW/newhope.png,,,,,Three Edge Diff,Two Edge Five Edge,,,,,,
null,,html-keyboard-response,1673521,,<p></p>,,,,null,,,,,,,,,,,,,,,,,,,,
1601,,shortestpath_phase,1675124,,GW/westpalmbeach.png,,,,49,GW/carmel.png,GW/leesburg.png,1,0.4520547945205479,,,,GW/carmel.png,,,,,One Edge Diff,Five Edge Six Edge,,,,,,
null,,html-keyboard-response,1676131,,<p></p>,,,,null,,,,,,,,,,,,,,,,,,,,
1840.7999999821186,,shortestpath_phase,1677975,,GW/newhope.png,,,,50,GW/hotsprings.png,GW/leesburg.png,0,0.44594594594594594,,,,GW/hotsprings.png,,,,,Three Edge Diff,Two Edge Five Edge,,,,,,
null,,html-keyboard-response,1678980,,<p></p>,,,,null,,,,,,,,,,,,,,,,,,,,
2079.0999999940395,,shortestpath_phase,1681064,,GW/leesburg.png,,,,50,GW/newhope.png,GW/hanover.png,1,0.4533333333333333,,,,GW/hanover.png,,,,,One Edge Diff,Four Edge Five Edge,,,,,,
null,,html-keyboard-response,1682070,,<p></p>,,,,null,,,,,,,,,,,,,,,,,,,,
1749,,shortestpath_phase,1683823,,GW/newhope.png,,,,50,GW/shreveport.png,GW/gatlinburg.png,0,0.4473684210526316,,,,GW/shreveport.png,,,,,One Edge Diff,Three Edge Four Edge,,,,,,
null,,html-keyboard-response,1684828,,<p></p>,,,,null,,,,,,,,,,,,,,,,,,,,
1454.5,,shortestpath_phase,1686286,,GW/gatlinburg.png,,,,49,GW/leesburg.png,GW/peoria.png,1,0.45454545454545453,,,,GW/leesburg.png,,,,,One Edge Diff,Two Edge Three Edge,,,,,,
null,,html-keyboard-response,1687290,,<p></p>,,,,null,,,,,,,,,,,,,,,,,,,,
1889.1000000238419,,shortestpath_phase,1689181,,GW/boulder.png,,,,49,GW/racine.png,GW/newhope.png,0,0.44871794871794873,,,,GW/newhope.png,,,,,Three Edge Diff,Two Edge Five Edge,,,,,,
null,,html-keyboard-response,1690185,,<p></p>,,,,null,,,,,,,,,,,,,,,,,,,,
1362,,shortestpath_phase,1691550,,GW/cornwall.png,,,,50,GW/westpalmbeach.png,GW/racine.png,1,0.45569620253164556,,,,GW/racine.png,,,,,Three Edge Diff,Two Edge Five Edge,,,,,,
null,,html-keyboard-response,1692557,,<p></p>,,,,null,,,,,,,,,,,,,,,,,,,,
1109,,shortestpath_phase,1693669,,GW/shreveport.png,,,,50,GW/leesburg.png,GW/racine.png,0,0.45,,,,GW/leesburg.png,,,,,One Edge Diff,Two Edge Three Edge,,,,,,
null,,html-keyboard-response,1694672,,<p></p>,,,,null,,,,,,,,,,,,,,,,,,,,
1660.699999988079,,shortestpath_phase,1696335,,GW/gatlinburg.png,,,,49,GW/boulder.png,GW/newhope.png,1,0.4567901234567901,,,,GW/boulder.png,,,,,One Edge Diff,Three Edge Four Edge,,,,,,
null,,html-keyboard-response,1697351,,<p></p>,,,,null,,,,,,,,,,,,,,,,,,,,
1372.5999999940395,,shortestpath_phase,1698726,,GW/newhope.png,,,,50,GW/racine.png,GW/hotsprings.png,1,0.4634146341463415,,,,GW/hotsprings.png,,,,,Four Edge Diff,Two Edge Six Edge,,,,,,
null,,html-keyboard-response,1699730,,<p></p>,,,,null,,,,,,,,,,,,,,,,,,,,
1447.8999999761581,,shortestpath_phase,1701181,,GW/westpalmbeach.png,,,,50,GW/huntsville.png,GW/carmel.png,0,0.4578313253012048,,,,GW/huntsville.png,,,,,Two Edge Diff,Three Edge Five Edge,,,,,,
null,,html-keyboard-response,1702184,,<p></p>,,,,null,,,,,,,,,,,,,,,,,,,,
1548.199999988079,,shortestpath_phase,1703736,,GW/cornwall.png,,,,49,GW/westpalmbeach.png,GW/racine.png,0,0.4523809523809524,,,,GW/racine.png,,,,,Three Edge Diff,Three Edge Six Edge,,,,,,
null,,html-keyboard-response,1704739,,<p></p>,,,,null,,,,,,,,,,,,,,,,,,,,
7371.0999999940395,,intro_1,1712113,,instruct,,0,,,,,,,,,,,,,,,,,,,,,,
6753.0999999940395,,intro_2,1718870,,instruct,,1,Next,,,,,,,,,,,,,,,,,,,,,
