rt,responses,trial_type,time_elapsed,sequence,stimulus,graphorder,button_pressed,response,key_press,stimulus_left,stimulus_right,accuracy,cumulative_accuracy,stimulus_down_left,stimulus_down_mid,stimulus_down_right,stimulus_correct,stimulus_short,stimulus_far,weighted_accuracy,condition,specific_pairs,imgL_ID,imgR_ID,linedress,linedressed,detour_trial,linedressed_detor
23186.099999904633,{worker_id:5f7be1818da8861e3c3fcae8},id_enter,23187,interleaved,replication,GW/leesburg.png; GW/newhope.png; GW/hotsprings.png; GW/carmel.png; GW/racine.png; GW/shreveport.png; GW/cornwall.png; GW/hanover.png; GW/gatlinburg.png; GW/huntsville.png; GW/peoria.png; GW/boulder.png; GW/westpalmbeach.png,,,,,,,,,,,,,,,,,,,,,,
30697.799999952316,,fullscreen,53887,,fullscreen,,0,,,,,,,,,,,,,,,,,,,,,
34351.300000071526,,intro_1,88239,,instruct,,0,,,,,,,,,,,,,,,,,,,,,
45841.09999990463,,intro_2,134082,,instruct,,1,Next,,,,,,,,,,,,,,,,,,,,
14824,,intro_3,148906,,instruct,,1,Next,,,,,,,,,,,,,,,,,,,,
null,,learn_prac_1,151909,,lean_prac_1,,,,null,,,,,,,,,,,,,,,,,,,
null,,html-keyboard-response,152910,,<p></p>,,,,null,,,,,,,,,,,,,,,,,,,
6364,,intro_1,159275,,instruct,,0,,,,,,,,,,,,,,,,,,,,,
14041.399999976158,,intro_2,173317,,instruct,,1,Next,,,,,,,,,,,,,,,,,,,,
null,,learn_prac_2,176318,,lean_prac_2,,,,null,,,,,,,,,,,,,,,,,,,
null,,html-keyboard-response,177320,,<p></p>,,,,null,,,,,,,,,,,,,,,,,,,
8362.699999928474,,intro_1,185683,,instruct,,0,,,,,,,,,,,,,,,,,,,,,
13229.5,,intro_2,198914,,instruct,,1,Next,,,,,,,,,,,,,,,,,,,,
61733.89999997616,,intro_3,260648,,instruct,,1,Next,,,,,,,,,,,,,,,,,,,,
null,,prac_atten_color_black,261479,,black_plus_sign,,,,null,,,,,,,,,,,,,,,,,,,
null,,prac_atten_color,262052,,prac_stop_color,,,,null,,,,,,,,,,,,,,,,,,,
14.399999976158142,,prac_atten_color_black,264054,,black_plus_sign,,,,49,,,,,,,,,,,,,,,,,,,
null,,prac_atten_color_black,264885,,black_plus_sign,,,,null,,,,,,,,,,,,,,,,,,,
567.2000000476837,,prac_atten_color,265801,,prac_stop_color,,,,50,,,,,,,,,,,,,,,,,,,
null,,prac_atten_color_black,267802,,black_plus_sign,,,,null,,,,,,,,,,,,,,,,,,,
null,,prac_atten_color_black,268289,,black_plus_sign,,,,null,,,,,,,,,,,,,,,,,,,
null,,prac_atten_color,268743,,prac_stop_color,,,,null,,,,,,,,,,,,,,,,,,,
163,,prac_atten_color_black,270744,,black_plus_sign,,,,50,,,,,,,,,,,,,,,,,,,
null,,prac_atten_color_black,271696,,black_plus_sign,,,,null,,,,,,,,,,,,,,,,,,,
661.2000000476837,,prac_atten_color,272404,,prac_stop_color,,,,49,,,,,,,,,,,,,,,,,,,
null,,prac_atten_color_black,274406,,black_plus_sign,,,,null,,,,,,,,,,,,,,,,,,,
null,,prac_atten_color_black,275100,,black_plus_sign,,,,null,,,,,,,,,,,,,,,,,,,
null,,prac_atten_color,275561,,prac_stop_color,,,,null,,,,,,,,,,,,,,,,,,,
0.30000007152557373,,prac_atten_color_black,277561,,black_plus_sign,,,,50,,,,,,,,,,,,,,,,,,,
null,,prac_atten_color_black,278503,,black_plus_sign,,,,null,,,,,,,,,,,,,,,,,,,
640.3000000715256,,prac_atten_color,279359,,prac_stop_color,,,,50,,,,,,,,,,,,,,,,,,,
null,,prac_atten_color_black,281360,,black_plus_sign,,,,null,,,,,,,,,,,,,,,,,,,
null,,prac_atten_color_black,281907,,black_plus_sign,,,,null,,,,,,,,,,,,,,,,,,,
null,,prac_atten_color,282516,,prac_stop_color,,,,null,,,,,,,,,,,,,,,,,,,
44.5,,prac_atten_color_black,284517,,black_plus_sign,,,,49,,,,,,,,,,,,,,,,,,,
null,,prac_atten_color_black,285310,,black_plus_sign,,,,null,,,,,,,,,,,,,,,,,,,
464.89999997615814,,prac_atten_color,286002,,prac_stop_color,,,,50,,,,,,,,,,,,,,,,,,,
null,,prac_atten_color_black,288003,,black_plus_sign,,,,null,,,,,,,,,,,,,,,,,,,
null,,prac_atten_color_black,288715,,black_plus_sign,,,,null,,,,,,,,,,,,,,,,,,,
433.7999999523163,,prac_atten_color,289415,,prac_stop_color,,,,49,,,,,,,,,,,,,,,,,,,
null,,prac_atten_color_black,291417,,black_plus_sign,,,,null,,,,,,,,,,,,,,,,,,,
null,,prac_atten_color_black,292119,,black_plus_sign,,,,null,,,,,,,,,,,,,,,,,,,
484,,prac_atten_color,292663,,prac_stop_color,,,,49,,,,,,,,,,,,,,,,,,,
null,,prac_atten_color_black,294664,,black_plus_sign,,,,null,,,,,,,,,,,,,,,,,,,
15210,,attentioncheck_feedback,309875,,cross_check_feedback,,0,,,,,,,,,,,,,,,,,,,,,
37260.40000009537,,last_instruct,347136,,instruct,,,,32,,,,,,,,,,,,,,,,,,,
null,,learn_phase(without_color),350137,,black_plus_sign,,,,null,GW/carmel.png,GW/boulder.png,,,,,,,,,,,,,,,,,
null,,black_cross(without_color),351079,,blue,,,,null,GW/carmel.png,GW/boulder.png,,,,,,,,,,,,,,,,,
null,,rt_plussign_withcolor,351580,,blue,,,,null,GW/carmel.png,GW/boulder.png,,,,,,,,,,,,,,,,,
1318.2999999523163,,rt_thecrossant_black,352640,,black_plus_sign,,,,49,,,1,1,,,,,,,,,,,,,,,
null,,color_black,352742,,black_plus_sign,,,,null,,,,,,,,,,,,,,,,,,,
null,,learn_phase(without_color),355743,,black_plus_sign,,,,null,GW/newhope.png,GW/hotsprings.png,,,,,,,,,,,,,,,,,
null,,black_cross(without_color),356835,,blue,,,,null,GW/newhope.png,GW/hotsprings.png,,,,,,,,,,,,,,,,,
null,,rt_plussign_withcolor,357336,,blue,,,,null,GW/newhope.png,GW/hotsprings.png,,,,,,,,,,,,,,,,,
null,,rt_thecrossant_black,358256,,black_plus_sign,,,,null,,,,1,,,,,,,,,,,,,,,
null,,color_black,358358,,black_plus_sign,,,,null,,,,,,,,,,,,,,,,,,,
null,,learn_phase(without_color),361360,,black_plus_sign,,,,null,GW/racine.png,GW/carmel.png,,,,,,,,,,,,,,,,,
null,,black_cross(without_color),362253,,yellow,,,,null,GW/racine.png,GW/carmel.png,,,,,,,,,,,,,,,,,
506.2000000476837,,rt_plussign_withcolor,362759,,yellow,,,,50,GW/racine.png,GW/carmel.png,,,,,,,,,,,,,,,,,
null,,rt_thecrossant_black,363870,,black_plus_sign,,,,null,,,1,1,,,,,,,,,,,,,,,
null,,color_black,363972,,black_plus_sign,,,,null,,,,,,,,,,,,,,,,,,,
null,,learn_phase(without_color),366975,,black_plus_sign,,,,null,GW/shreveport.png,GW/hotsprings.png,,,,,,,,,,,,,,,,,
null,,black_cross(without_color),367881,,yellow,,,,null,GW/shreveport.png,GW/hotsprings.png,,,,,,,,,,,,,,,,,
499.10000002384186,,rt_plussign_withcolor,368382,,yellow,,,,50,GW/shreveport.png,GW/hotsprings.png,,,,,,,,,,,,,,,,,
null,,rt_thecrossant_black,369478,,black_plus_sign,,,,null,,,1,1,,,,,,,,,,,,,,,
null,,color_black,369580,,black_plus_sign,,,,null,,,,,,,,,,,,,,,,,,,
null,,learn_phase(without_color),372581,,black_plus_sign,,,,null,GW/racine.png,GW/carmel.png,,,,,,,,,,,,,,,,,
null,,black_cross(without_color),373563,,blue,,,,null,GW/racine.png,GW/carmel.png,,,,,,,,,,,,,,,,,
null,,rt_plussign_withcolor,374063,,blue,,,,null,GW/racine.png,GW/carmel.png,,,,,,,,,,,,,,,,,
1219.6000000238419,,rt_thecrossant_black,375085,,black_plus_sign,,,,49,,,1,1,,,,,,,,,,,,,,,
null,,color_black,375186,,black_plus_sign,,,,null,,,,,,,,,,,,,,,,,,,
null,,learn_phase(without_color),378188,,black_plus_sign,,,,null,GW/gatlinburg.png,GW/shreveport.png,,,,,,,,,,,,,,,,,
null,,black_cross(without_color),379244,,blue,,,,null,GW/gatlinburg.png,GW/shreveport.png,,,,,,,,,,,,,,,,,
null,,rt_plussign_withcolor,379745,,blue,,,,null,GW/gatlinburg.png,GW/shreveport.png,,,,,,,,,,,,,,,,,
1087.7999999523163,,rt_thecrossant_black,380693,,black_plus_sign,,,,49,,,1,1,,,,,,,,,,,,,,,
null,,color_black,380794,,black_plus_sign,,,,null,,,,,,,,,,,,,,,,,,,
null,,learn_phase(without_color),383797,,black_plus_sign,,,,null,GW/shreveport.png,GW/hotsprings.png,,,,,,,,,,,,,,,,,
null,,black_cross(without_color),384433,,yellow,,,,null,GW/shreveport.png,GW/hotsprings.png,,,,,,,,,,,,,,,,,
null,,rt_plussign_withcolor,384935,,yellow,,,,null,GW/shreveport.png,GW/hotsprings.png,,,,,,,,,,,,,,,,,
1582.7000000476837,,rt_thecrossant_black,386301,,black_plus_sign,,,,50,,,1,1,,,,,,,,,,,,,,,
null,,color_black,386402,,black_plus_sign,,,,null,,,,,,,,,,,,,,,,,,,
null,,learn_phase(without_color),389403,,black_plus_sign,,,,null,GW/hotsprings.png,GW/newhope.png,,,,,,,,,,,,,,,,,
null,,black_cross(without_color),389859,,yellow,,,,null,GW/hotsprings.png,GW/newhope.png,,,,,,,,,,,,,,,,,
null,,rt_plussign_withcolor,390360,,yellow,,,,null,GW/hotsprings.png,GW/newhope.png,,,,,,,,,,,,,,,,,
1410.5,,rt_thecrossant_black,391908,,black_plus_sign,,,,50,,,1,1,,,,,,,,,,,,,,,
null,,color_black,392009,,black_plus_sign,,,,null,,,,,,,,,,,,,,,,,,,
null,,learn_phase(without_color),395011,,black_plus_sign,,,,null,GW/newhope.png,GW/leesburg.png,,,,,,,,,,,,,,,,,
null,,black_cross(without_color),395750,,yellow,,,,null,GW/newhope.png,GW/leesburg.png,,,,,,,,,,,,,,,,,
null,,rt_plussign_withcolor,396252,,yellow,,,,null,GW/newhope.png,GW/leesburg.png,,,,,,,,,,,,,,,,,
1086.6000000238419,,rt_thecrossant_black,397515,,black_plus_sign,,,,50,,,1,1,,,,,,,,,,,,,,,
null,,color_black,397617,,black_plus_sign,,,,null,,,,,,,,,,,,,,,,,,,
null,,learn_phase(without_color),400618,,black_plus_sign,,,,null,GW/carmel.png,GW/racine.png,,,,,,,,,,,,,,,,,
null,,black_cross(without_color),401453,,blue,,,,null,GW/carmel.png,GW/racine.png,,,,,,,,,,,,,,,,,
null,,rt_plussign_withcolor,401954,,blue,,,,null,GW/carmel.png,GW/racine.png,,,,,,,,,,,,,,,,,
968.1000000238419,,rt_thecrossant_black,403123,,black_plus_sign,,,,49,,,1,1,,,,,,,,,,,,,,,
null,,color_black,403224,,black_plus_sign,,,,null,,,,,,,,,,,,,,,,,,,
null,,learn_phase(without_color),406226,,black_plus_sign,,,,null,GW/cornwall.png,GW/gatlinburg.png,,,,,,,,,,,,,,,,,
null,,black_cross(without_color),407327,,blue,,,,null,GW/cornwall.png,GW/gatlinburg.png,,,,,,,,,,,,,,,,,
null,,rt_plussign_withcolor,407828,,blue,,,,null,GW/cornwall.png,GW/gatlinburg.png,,,,,,,,,,,,,,,,,
1354.5,,rt_thecrossant_black,408732,,black_plus_sign,,,,49,,,1,1,,,,,,,,,,,,,,,
null,,color_black,408834,,black_plus_sign,,,,null,,,,,,,,,,,,,,,,,,,
null,,learn_phase(without_color),411836,,black_plus_sign,,,,null,GW/cornwall.png,GW/gatlinburg.png,,,,,,,,,,,,,,,,,
null,,black_cross(without_color),412761,,blue,,,,null,GW/cornwall.png,GW/gatlinburg.png,,,,,,,,,,,,,,,,,
null,,rt_plussign_withcolor,413262,,blue,,,,null,GW/cornwall.png,GW/gatlinburg.png,,,,,,,,,,,,,,,,,
1524.3000000715256,,rt_thecrossant_black,414340,,black_plus_sign,,,,49,,,1,1,,,,,,,,,,,,,,,
null,,color_black,414441,,black_plus_sign,,,,null,,,,,,,,,,,,,,,,,,,
null,,learn_phase(without_color),417442,,black_plus_sign,,,,null,GW/gatlinburg.png,GW/peoria.png,,,,,,,,,,,,,,,,,
null,,black_cross(without_color),418047,,yellow,,,,null,GW/gatlinburg.png,GW/peoria.png,,,,,,,,,,,,,,,,,
null,,rt_plussign_withcolor,418548,,yellow,,,,null,GW/gatlinburg.png,GW/peoria.png,,,,,,,,,,,,,,,,,
1317.3999999761581,,rt_thecrossant_black,419947,,black_plus_sign,,,,50,,,1,1,,,,,,,,,,,,,,,
null,,color_black,420048,,black_plus_sign,,,,null,,,,,,,,,,,,,,,,,,,
null,,learn_phase(without_color),423050,,black_plus_sign,,,,null,GW/gatlinburg.png,GW/peoria.png,,,,,,,,,,,,,,,,,
null,,black_cross(without_color),423864,,blue,,,,null,GW/gatlinburg.png,GW/peoria.png,,,,,,,,,,,,,,,,,
null,,rt_plussign_withcolor,424365,,blue,,,,null,GW/gatlinburg.png,GW/peoria.png,,,,,,,,,,,,,,,,,
1006.7000000476837,,rt_thecrossant_black,425554,,black_plus_sign,,,,49,,,1,1,,,,,,,,,,,,,,,
null,,color_black,425655,,black_plus_sign,,,,null,,,,,,,,,,,,,,,,,,,
null,,learn_phase(without_color),428657,,black_plus_sign,,,,null,GW/carmel.png,GW/newhope.png,,,,,,,,,,,,,,,,,
null,,black_cross(without_color),429255,,blue,,,,null,GW/carmel.png,GW/newhope.png,,,,,,,,,,,,,,,,,
null,,rt_plussign_withcolor,429757,,blue,,,,null,GW/carmel.png,GW/newhope.png,,,,,,,,,,,,,,,,,
1413.2999999523163,,rt_thecrossant_black,431163,,black_plus_sign,,,,49,,,1,1,,,,,,,,,,,,,,,
null,,color_black,431264,,black_plus_sign,,,,null,,,,,,,,,,,,,,,,,,,
null,,learn_phase(without_color),434265,,black_plus_sign,,,,null,GW/newhope.png,GW/leesburg.png,,,,,,,,,,,,,,,,,
null,,black_cross(without_color),435151,,blue,,,,null,GW/newhope.png,GW/leesburg.png,,,,,,,,,,,,,,,,,
465.5,,rt_plussign_withcolor,435652,,blue,,,,49,GW/newhope.png,GW/leesburg.png,,,,,,,,,,,,,,,,,
null,,rt_thecrossant_black,436769,,black_plus_sign,,,,null,,,1,1,,,,,,,,,,,,,,,
null,,color_black,436870,,black_plus_sign,,,,null,,,,,,,,,,,,,,,,,,,
null,,learn_phase(without_color),439872,,black_plus_sign,,,,null,GW/leesburg.png,GW/newhope.png,,,,,,,,,,,,,,,,,
null,,black_cross(without_color),440284,,blue,,,,null,GW/leesburg.png,GW/newhope.png,,,,,,,,,,,,,,,,,
null,,rt_plussign_withcolor,440785,,blue,,,,null,GW/leesburg.png,GW/newhope.png,,,,,,,,,,,,,,,,,
1082,,rt_thecrossant_black,442376,,black_plus_sign,,,,49,,,1,1,,,,,,,,,,,,,,,
null,,color_black,442478,,black_plus_sign,,,,null,,,,,,,,,,,,,,,,,,,
null,,learn_phase(without_color),445480,,black_plus_sign,,,,null,GW/shreveport.png,GW/gatlinburg.png,,,,,,,,,,,,,,,,,
null,,black_cross(without_color),446112,,yellow,,,,null,GW/shreveport.png,GW/gatlinburg.png,,,,,,,,,,,,,,,,,
null,,rt_plussign_withcolor,446613,,yellow,,,,null,GW/shreveport.png,GW/gatlinburg.png,,,,,,,,,,,,,,,,,
681.4000000953674,,rt_thecrossant_black,447983,,black_plus_sign,,,,50,,,1,1,,,,,,,,,,,,,,,
null,,color_black,448085,,black_plus_sign,,,,null,,,,,,,,,,,,,,,,,,,
null,,learn_phase(without_color),451086,,black_plus_sign,,,,null,GW/huntsville.png,GW/hanover.png,,,,,,,,,,,,,,,,,
null,,black_cross(without_color),452126,,yellow,,,,null,GW/huntsville.png,GW/hanover.png,,,,,,,,,,,,,,,,,
null,,rt_plussign_withcolor,452627,,yellow,,,,null,GW/huntsville.png,GW/hanover.png,,,,,,,,,,,,,,,,,
1584.5,,rt_thecrossant_black,453591,,black_plus_sign,,,,50,,,1,1,,,,,,,,,,,,,,,
null,,color_black,453693,,black_plus_sign,,,,null,,,,,,,,,,,,,,,,,,,
null,,learn_phase(without_color),456694,,black_plus_sign,,,,null,GW/shreveport.png,GW/hotsprings.png,,,,,,,,,,,,,,,,,
null,,black_cross(without_color),457639,,yellow,,,,null,GW/shreveport.png,GW/hotsprings.png,,,,,,,,,,,,,,,,,
null,,rt_plussign_withcolor,458140,,yellow,,,,null,GW/shreveport.png,GW/hotsprings.png,,,,,,,,,,,,,,,,,
1272,,rt_thecrossant_black,459198,,black_plus_sign,,,,50,,,1,1,,,,,,,,,,,,,,,
null,,color_black,459300,,black_plus_sign,,,,null,,,,,,,,,,,,,,,,,,,
null,,learn_phase(without_color),462302,,black_plus_sign,,,,null,GW/gatlinburg.png,GW/hanover.png,,,,,,,,,,,,,,,,,
null,,black_cross(without_color),462769,,yellow,,,,null,GW/gatlinburg.png,GW/hanover.png,,,,,,,,,,,,,,,,,
null,,rt_plussign_withcolor,463285,,yellow,,,,null,GW/gatlinburg.png,GW/hanover.png,,,,,,,,,,,,,,,,,
1314.2999999523163,,rt_thecrossant_black,464821,,black_plus_sign,,,,50,,,1,1,,,,,,,,,,,,,,,
null,,color_black,464923,,black_plus_sign,,,,null,,,,,,,,,,,,,,,,,,,
null,,learn_phase(without_color),467925,,black_plus_sign,,,,null,GW/cornwall.png,GW/shreveport.png,,,,,,,,,,,,,,,,,
null,,black_cross(without_color),468769,,blue,,,,null,GW/cornwall.png,GW/shreveport.png,,,,,,,,,,,,,,,,,
null,,rt_plussign_withcolor,469271,,blue,,,,null,GW/cornwall.png,GW/shreveport.png,,,,,,,,,,,,,,,,,
688.3999999761581,,rt_thecrossant_black,470429,,black_plus_sign,,,,49,,,1,1,,,,,,,,,,,,,,,
null,,color_black,470531,,black_plus_sign,,,,null,,,,,,,,,,,,,,,,,,,
null,,learn_phase(without_color),473532,,black_plus_sign,,,,null,GW/boulder.png,GW/peoria.png,,,,,,,,,,,,,,,,,
null,,black_cross(without_color),474543,,yellow,,,,null,GW/boulder.png,GW/peoria.png,,,,,,,,,,,,,,,,,
null,,rt_plussign_withcolor,475045,,yellow,,,,null,GW/boulder.png,GW/peoria.png,,,,,,,,,,,,,,,,,
1271.7000000476837,,rt_thecrossant_black,476037,,black_plus_sign,,,,50,,,1,1,,,,,,,,,,,,,,,
null,,color_black,476138,,black_plus_sign,,,,null,,,,,,,,,,,,,,,,,,,
null,,learn_phase(without_color),479139,,black_plus_sign,,,,null,GW/carmel.png,GW/racine.png,,,,,,,,,,,,,,,,,
null,,black_cross(without_color),479719,,yellow,,,,null,GW/carmel.png,GW/racine.png,,,,,,,,,,,,,,,,,
null,,rt_plussign_withcolor,480221,,yellow,,,,null,GW/carmel.png,GW/racine.png,,,,,,,,,,,,,,,,,
1519.8000000715256,,rt_thecrossant_black,481647,,black_plus_sign,,,,50,,,1,1,,,,,,,,,,,,,,,
null,,color_black,481749,,black_plus_sign,,,,null,,,,,,,,,,,,,,,,,,,
null,,learn_phase(without_color),484751,,black_plus_sign,,,,null,GW/hotsprings.png,GW/peoria.png,,,,,,,,,,,,,,,,,
null,,black_cross(without_color),485609,,blue,,,,null,GW/hotsprings.png,GW/peoria.png,,,,,,,,,,,,,,,,,
null,,rt_plussign_withcolor,486111,,blue,,,,null,GW/hotsprings.png,GW/peoria.png,,,,,,,,,,,,,,,,,
1015.7000000476837,,rt_thecrossant_black,487256,,black_plus_sign,,,,49,,,1,1,,,,,,,,,,,,,,,
null,,color_black,487358,,black_plus_sign,,,,null,,,,,,,,,,,,,,,,,,,
null,,learn_phase(without_color),490359,,black_plus_sign,,,,null,GW/carmel.png,GW/newhope.png,,,,,,,,,,,,,,,,,
null,,black_cross(without_color),491311,,yellow,,,,null,GW/carmel.png,GW/newhope.png,,,,,,,,,,,,,,,,,
null,,rt_plussign_withcolor,491813,,yellow,,,,null,GW/carmel.png,GW/newhope.png,,,,,,,,,,,,,,,,,
1003.9000000953674,,rt_thecrossant_black,492864,,black_plus_sign,,,,50,,,1,1,,,,,,,,,,,,,,,
null,,color_black,492975,,black_plus_sign,,,,null,,,,,,,,,,,,,,,,,,,
null,,learn_phase(without_color),495977,,black_plus_sign,,,,null,GW/hanover.png,GW/cornwall.png,,,,,,,,,,,,,,,,,
null,,black_cross(without_color),496943,,blue,,,,null,GW/hanover.png,GW/cornwall.png,,,,,,,,,,,,,,,,,
null,,rt_plussign_withcolor,497444,,blue,,,,null,GW/hanover.png,GW/cornwall.png,,,,,,,,,,,,,,,,,
1387,,rt_thecrossant_black,498493,,black_plus_sign,,,,49,,,1,1,,,,,,,,,,,,,,,
null,,color_black,498594,,black_plus_sign,,,,null,,,,,,,,,,,,,,,,,,,
null,,learn_phase(without_color),501595,,black_plus_sign,,,,null,GW/gatlinburg.png,GW/peoria.png,,,,,,,,,,,,,,,,,
null,,black_cross(without_color),502451,,blue,,,,null,GW/gatlinburg.png,GW/peoria.png,,,,,,,,,,,,,,,,,
null,,rt_plussign_withcolor,502952,,blue,,,,null,GW/gatlinburg.png,GW/peoria.png,,,,,,,,,,,,,,,,,
1260.7999999523163,,rt_thecrossant_black,504099,,black_plus_sign,,,,49,,,1,1,,,,,,,,,,,,,,,
null,,color_black,504201,,black_plus_sign,,,,null,,,,,,,,,,,,,,,,,,,
null,,learn_phase(without_color),507202,,black_plus_sign,,,,null,GW/hotsprings.png,GW/shreveport.png,,,,,,,,,,,,,,,,,
null,,black_cross(without_color),507852,,blue,,,,null,GW/hotsprings.png,GW/shreveport.png,,,,,,,,,,,,,,,,,
null,,rt_plussign_withcolor,508353,,blue,,,,null,GW/hotsprings.png,GW/shreveport.png,,,,,,,,,,,,,,,,,
1253.5,,rt_thecrossant_black,509707,,black_plus_sign,,,,49,,,1,1,,,,,,,,,,,,,,,
null,,color_black,509808,,black_plus_sign,,,,null,,,,,,,,,,,,,,,,,,,
null,,learn_phase(without_color),512809,,black_plus_sign,,,,null,GW/shreveport.png,GW/gatlinburg.png,,,,,,,,,,,,,,,,,
null,,black_cross(without_color),513255,,yellow,,,,null,GW/shreveport.png,GW/gatlinburg.png,,,,,,,,,,,,,,,,,
null,,rt_plussign_withcolor,513757,,yellow,,,,null,GW/shreveport.png,GW/gatlinburg.png,,,,,,,,,,,,,,,,,
801.1000000238419,,rt_thecrossant_black,515314,,black_plus_sign,,,,50,,,1,1,,,,,,,,,,,,,,,
null,,color_black,515416,,black_plus_sign,,,,null,,,,,,,,,,,,,,,,,,,
null,,learn_phase(without_color),518418,,black_plus_sign,,,,null,GW/carmel.png,GW/racine.png,,,,,,,,,,,,,,,,,
null,,black_cross(without_color),519042,,yellow,,,,null,GW/carmel.png,GW/racine.png,,,,,,,,,,,,,,,,,
null,,rt_plussign_withcolor,519543,,yellow,,,,null,GW/carmel.png,GW/racine.png,,,,,,,,,,,,,,,,,
883.3999999761581,,rt_thecrossant_black,520923,,black_plus_sign,,,,50,,,1,1,,,,,,,,,,,,,,,
null,,color_black,521025,,black_plus_sign,,,,null,,,,,,,,,,,,,,,,,,,
null,,learn_phase(without_color),524027,,black_plus_sign,,,,null,GW/cornwall.png,GW/hanover.png,,,,,,,,,,,,,,,,,
null,,black_cross(without_color),524722,,blue,,,,null,GW/cornwall.png,GW/hanover.png,,,,,,,,,,,,,,,,,
null,,rt_plussign_withcolor,525224,,blue,,,,null,GW/cornwall.png,GW/hanover.png,,,,,,,,,,,,,,,,,
964.1999999284744,,rt_thecrossant_black,526532,,black_plus_sign,,,,49,,,1,1,,,,,,,,,,,,,,,
null,,color_black,526633,,black_plus_sign,,,,null,,,,,,,,,,,,,,,,,,,
null,,learn_phase(without_color),529635,,black_plus_sign,,,,null,GW/peoria.png,GW/boulder.png,,,,,,,,,,,,,,,,,
null,,black_cross(without_color),530292,,blue,,,,null,GW/peoria.png,GW/boulder.png,,,,,,,,,,,,,,,,,
null,,rt_plussign_withcolor,530794,,blue,,,,null,GW/peoria.png,GW/boulder.png,,,,,,,,,,,,,,,,,
1042.5,,rt_thecrossant_black,532139,,black_plus_sign,,,,49,,,1,1,,,,,,,,,,,,,,,
null,,color_black,532240,,black_plus_sign,,,,null,,,,,,,,,,,,,,,,,,,
null,,learn_phase(without_color),535242,,black_plus_sign,,,,null,GW/gatlinburg.png,GW/hanover.png,,,,,,,,,,,,,,,,,
null,,black_cross(without_color),536017,,yellow,,,,null,GW/gatlinburg.png,GW/hanover.png,,,,,,,,,,,,,,,,,
null,,rt_plussign_withcolor,536519,,yellow,,,,null,GW/gatlinburg.png,GW/hanover.png,,,,,,,,,,,,,,,,,
1413.7000000476837,,rt_thecrossant_black,537747,,black_plus_sign,,,,50,,,1,1,,,,,,,,,,,,,,,
null,,color_black,537850,,black_plus_sign,,,,null,,,,,,,,,,,,,,,,,,,
null,,learn_phase(without_color),540851,,black_plus_sign,,,,null,GW/gatlinburg.png,GW/hanover.png,,,,,,,,,,,,,,,,,
null,,black_cross(without_color),541301,,yellow,,,,null,GW/gatlinburg.png,GW/hanover.png,,,,,,,,,,,,,,,,,
null,,rt_plussign_withcolor,541803,,yellow,,,,null,GW/gatlinburg.png,GW/hanover.png,,,,,,,,,,,,,,,,,
883.8000000715256,,rt_thecrossant_black,543357,,black_plus_sign,,,,50,,,1,1,,,,,,,,,,,,,,,
null,,color_black,543458,,black_plus_sign,,,,null,,,,,,,,,,,,,,,,,,,
null,,learn_phase(without_color),546460,,black_plus_sign,,,,null,GW/leesburg.png,GW/newhope.png,,,,,,,,,,,,,,,,,
null,,black_cross(without_color),547083,,yellow,,,,null,GW/leesburg.png,GW/newhope.png,,,,,,,,,,,,,,,,,
null,,rt_plussign_withcolor,547584,,yellow,,,,null,GW/leesburg.png,GW/newhope.png,,,,,,,,,,,,,,,,,
750.1000000238419,,rt_thecrossant_black,548965,,black_plus_sign,,,,50,,,1,1,,,,,,,,,,,,,,,
null,,color_black,549067,,black_plus_sign,,,,null,,,,,,,,,,,,,,,,,,,
null,,learn_phase(without_color),552068,,black_plus_sign,,,,null,GW/cornwall.png,GW/shreveport.png,,,,,,,,,,,,,,,,,
null,,black_cross(without_color),552580,,blue,,,,null,GW/cornwall.png,GW/shreveport.png,,,,,,,,,,,,,,,,,
null,,rt_plussign_withcolor,553083,,blue,,,,null,GW/cornwall.png,GW/shreveport.png,,,,,,,,,,,,,,,,,
914,,rt_thecrossant_black,554573,,black_plus_sign,,,,49,,,1,1,,,,,,,,,,,,,,,
null,,color_black,554675,,black_plus_sign,,,,null,,,,,,,,,,,,,,,,,,,
null,,learn_phase(without_color),557677,,black_plus_sign,,,,null,GW/hotsprings.png,GW/newhope.png,,,,,,,,,,,,,,,,,
null,,black_cross(without_color),558290,,blue,,,,null,GW/hotsprings.png,GW/newhope.png,,,,,,,,,,,,,,,,,
null,,rt_plussign_withcolor,558790,,blue,,,,null,GW/hotsprings.png,GW/newhope.png,,,,,,,,,,,,,,,,,
860.4000000953674,,rt_thecrossant_black,560187,,black_plus_sign,,,,49,,,1,1,,,,,,,,,,,,,,,
null,,color_black,560289,,black_plus_sign,,,,null,,,,,,,,,,,,,,,,,,,
null,,learn_phase(without_color),563289,,black_plus_sign,,,,null,GW/westpalmbeach.png,GW/cornwall.png,,,,,,,,,,,,,,,,,
null,,black_cross(without_color),564371,,blue,,,,null,GW/westpalmbeach.png,GW/cornwall.png,,,,,,,,,,,,,,,,,
null,,rt_plussign_withcolor,564873,,blue,,,,null,GW/westpalmbeach.png,GW/cornwall.png,,,,,,,,,,,,,,,,,
1098.8999999761581,,rt_thecrossant_black,565794,,black_plus_sign,,,,49,,,1,1,,,,,,,,,,,,,,,
null,,color_black,565895,,black_plus_sign,,,,null,,,,,,,,,,,,,,,,,,,
null,,learn_phase(without_color),568896,,black_plus_sign,,,,null,GW/newhope.png,GW/hotsprings.png,,,,,,,,,,,,,,,,,
null,,black_cross(without_color),569431,,yellow,,,,null,GW/newhope.png,GW/hotsprings.png,,,,,,,,,,,,,,,,,
null,,rt_plussign_withcolor,569933,,yellow,,,,null,GW/newhope.png,GW/hotsprings.png,,,,,,,,,,,,,,,,,
1545.5,,rt_thecrossant_black,571401,,black_plus_sign,,,,49,,,0,0.9743589743589743,,,,,,,,,,,,,,,
null,,color_black,571503,,black_plus_sign,,,,null,,,,,,,,,,,,,,,,,,,
null,,learn_phase(without_color),574505,,black_plus_sign,,,,null,GW/hanover.png,GW/gatlinburg.png,,,,,,,,,,,,,,,,,
null,,black_cross(without_color),575308,,yellow,,,,null,GW/hanover.png,GW/gatlinburg.png,,,,,,,,,,,,,,,,,
null,,rt_plussign_withcolor,575809,,yellow,,,,null,GW/hanover.png,GW/gatlinburg.png,,,,,,,,,,,,,,,,,
884.2999999523163,,rt_thecrossant_black,577009,,black_plus_sign,,,,50,,,1,0.975,,,,,,,,,,,,,,,
null,,color_black,577110,,black_plus_sign,,,,null,,,,,,,,,,,,,,,,,,,
null,,learn_phase(without_color),580112,,black_plus_sign,,,,null,GW/gatlinburg.png,GW/cornwall.png,,,,,,,,,,,,,,,,,
null,,black_cross(without_color),580918,,blue,,,,null,GW/gatlinburg.png,GW/cornwall.png,,,,,,,,,,,,,,,,,
null,,rt_plussign_withcolor,581419,,blue,,,,null,GW/gatlinburg.png,GW/cornwall.png,,,,,,,,,,,,,,,,,
1166.6999999284744,,rt_thecrossant_black,582629,,black_plus_sign,,,,49,,,1,0.975609756097561,,,,,,,,,,,,,,,
null,,color_black,582731,,black_plus_sign,,,,null,,,,,,,,,,,,,,,,,,,
null,,learn_phase(without_color),585733,,black_plus_sign,,,,null,GW/shreveport.png,GW/gatlinburg.png,,,,,,,,,,,,,,,,,
null,,black_cross(without_color),586378,,blue,,,,null,GW/shreveport.png,GW/gatlinburg.png,,,,,,,,,,,,,,,,,
null,,rt_plussign_withcolor,586879,,blue,,,,null,GW/shreveport.png,GW/gatlinburg.png,,,,,,,,,,,,,,,,,
1289.1999999284744,,rt_thecrossant_black,588237,,black_plus_sign,,,,49,,,1,0.9761904761904762,,,,,,,,,,,,,,,
null,,color_black,588339,,black_plus_sign,,,,null,,,,,,,,,,,,,,,,,,,
null,,learn_phase(without_color),591340,,black_plus_sign,,,,null,GW/newhope.png,GW/carmel.png,,,,,,,,,,,,,,,,,
null,,black_cross(without_color),592028,,yellow,,,,null,GW/newhope.png,GW/carmel.png,,,,,,,,,,,,,,,,,
null,,rt_plussign_withcolor,592545,,yellow,,,,null,GW/newhope.png,GW/carmel.png,,,,,,,,,,,,,,,,,
939.7000000476837,,rt_thecrossant_black,593859,,black_plus_sign,,,,50,,,1,0.9767441860465116,,,,,,,,,,,,,,,
null,,color_black,593961,,black_plus_sign,,,,null,,,,,,,,,,,,,,,,,,,
null,,learn_phase(without_color),596963,,black_plus_sign,,,,null,GW/cornwall.png,GW/westpalmbeach.png,,,,,,,,,,,,,,,,,
null,,black_cross(without_color),597515,,yellow,,,,null,GW/cornwall.png,GW/westpalmbeach.png,,,,,,,,,,,,,,,,,
null,,rt_plussign_withcolor,598016,,yellow,,,,null,GW/cornwall.png,GW/westpalmbeach.png,,,,,,,,,,,,,,,,,
1076.8999999761581,,rt_thecrossant_black,599467,,black_plus_sign,,,,50,,,1,0.9772727272727273,,,,,,,,,,,,,,,
null,,color_black,599568,,black_plus_sign,,,,null,,,,,,,,,,,,,,,,,,,
null,,learn_phase(without_color),602569,,black_plus_sign,,,,null,GW/peoria.png,GW/boulder.png,,,,,,,,,,,,,,,,,
null,,black_cross(without_color),603577,,yellow,,,,null,GW/peoria.png,GW/boulder.png,,,,,,,,,,,,,,,,,
null,,rt_plussign_withcolor,604078,,yellow,,,,null,GW/peoria.png,GW/boulder.png,,,,,,,,,,,,,,,,,
650.2999999523163,,rt_thecrossant_black,605074,,black_plus_sign,,,,50,,,1,0.9777777777777777,,,,,,,,,,,,,,,
null,,color_black,605175,,black_plus_sign,,,,null,,,,,,,,,,,,,,,,,,,
null,,learn_phase(without_color),608177,,black_plus_sign,,,,null,GW/carmel.png,GW/newhope.png,,,,,,,,,,,,,,,,,
null,,black_cross(without_color),608954,,yellow,,,,null,GW/carmel.png,GW/newhope.png,,,,,,,,,,,,,,,,,
null,,rt_plussign_withcolor,609455,,yellow,,,,null,GW/carmel.png,GW/newhope.png,,,,,,,,,,,,,,,,,
1622.5999999046326,,rt_thecrossant_black,610680,,black_plus_sign,,,,50,,,1,0.9782608695652174,,,,,,,,,,,,,,,
null,,color_black,610782,,black_plus_sign,,,,null,,,,,,,,,,,,,,,,,,,
null,,learn_phase(without_color),613783,,black_plus_sign,,,,null,GW/cornwall.png,GW/gatlinburg.png,,,,,,,,,,,,,,,,,
null,,black_cross(without_color),614251,,blue,,,,null,GW/cornwall.png,GW/gatlinburg.png,,,,,,,,,,,,,,,,,
null,,rt_plussign_withcolor,614752,,blue,,,,null,GW/cornwall.png,GW/gatlinburg.png,,,,,,,,,,,,,,,,,
1125.6000000238419,,rt_thecrossant_black,616288,,black_plus_sign,,,,49,,,1,0.9787234042553191,,,,,,,,,,,,,,,
null,,color_black,616389,,black_plus_sign,,,,null,,,,,,,,,,,,,,,,,,,
null,,learn_phase(without_color),619391,,black_plus_sign,,,,null,GW/cornwall.png,GW/gatlinburg.png,,,,,,,,,,,,,,,,,
null,,black_cross(without_color),620077,,yellow,,,,null,GW/cornwall.png,GW/gatlinburg.png,,,,,,,,,,,,,,,,,
null,,rt_plussign_withcolor,620579,,yellow,,,,null,GW/cornwall.png,GW/gatlinburg.png,,,,,,,,,,,,,,,,,
602.8999999761581,,rt_thecrossant_black,621897,,black_plus_sign,,,,50,,,1,0.9791666666666666,,,,,,,,,,,,,,,
null,,color_black,621997,,black_plus_sign,,,,null,,,,,,,,,,,,,,,,,,,
null,,learn_phase(without_color),625000,,black_plus_sign,,,,null,GW/cornwall.png,GW/shreveport.png,,,,,,,,,,,,,,,,,
null,,black_cross(without_color),625500,,blue,,,,null,GW/cornwall.png,GW/shreveport.png,,,,,,,,,,,,,,,,,
null,,rt_plussign_withcolor,626001,,blue,,,,null,GW/cornwall.png,GW/shreveport.png,,,,,,,,,,,,,,,,,
1128.4000000953674,,rt_thecrossant_black,627504,,black_plus_sign,,,,49,,,1,0.9795918367346939,,,,,,,,,,,,,,,
null,,color_black,627606,,black_plus_sign,,,,null,,,,,,,,,,,,,,,,,,,
null,,learn_phase(without_color),630608,,black_plus_sign,,,,null,GW/gatlinburg.png,GW/hanover.png,,,,,,,,,,,,,,,,,
null,,black_cross(without_color),631527,,blue,,,,null,GW/gatlinburg.png,GW/hanover.png,,,,,,,,,,,,,,,,,
null,,rt_plussign_withcolor,632028,,blue,,,,null,GW/gatlinburg.png,GW/hanover.png,,,,,,,,,,,,,,,,,
788.7999999523163,,rt_thecrossant_black,633114,,black_plus_sign,,,,49,,,1,0.98,,,,,,,,,,,,,,,
null,,color_black,633216,,black_plus_sign,,,,null,,,,,,,,,,,,,,,,,,,
null,,learn_phase(without_color),636217,,black_plus_sign,,,,null,GW/peoria.png,GW/gatlinburg.png,,,,,,,,,,,,,,,,,
null,,black_cross(without_color),637064,,blue,,,,null,GW/peoria.png,GW/gatlinburg.png,,,,,,,,,,,,,,,,,
null,,rt_plussign_withcolor,637567,,blue,,,,null,GW/peoria.png,GW/gatlinburg.png,,,,,,,,,,,,,,,,,
1173.1000000238419,,rt_thecrossant_black,638722,,black_plus_sign,,,,49,,,1,0.9803921568627451,,,,,,,,,,,,,,,
null,,color_black,638823,,black_plus_sign,,,,null,,,,,,,,,,,,,,,,,,,
null,,learn_phase(without_color),641824,,black_plus_sign,,,,null,GW/newhope.png,GW/leesburg.png,,,,,,,,,,,,,,,,,
null,,black_cross(without_color),642529,,blue,,,,null,GW/newhope.png,GW/leesburg.png,,,,,,,,,,,,,,,,,
null,,rt_plussign_withcolor,643031,,blue,,,,null,GW/newhope.png,GW/leesburg.png,,,,,,,,,,,,,,,,,
1329.3000000715256,,rt_thecrossant_black,644338,,black_plus_sign,,,,49,,,1,0.9807692307692307,,,,,,,,,,,,,,,
null,,color_black,644439,,black_plus_sign,,,,null,,,,,,,,,,,,,,,,,,,
null,,learn_phase(without_color),647440,,black_plus_sign,,,,null,GW/westpalmbeach.png,GW/cornwall.png,,,,,,,,,,,,,,,,,
null,,black_cross(without_color),648059,,blue,,,,null,GW/westpalmbeach.png,GW/cornwall.png,,,,,,,,,,,,,,,,,
null,,rt_plussign_withcolor,648560,,blue,,,,null,GW/westpalmbeach.png,GW/cornwall.png,,,,,,,,,,,,,,,,,
1091.0999999046326,,rt_thecrossant_black,649945,,black_plus_sign,,,,49,,,1,0.9811320754716981,,,,,,,,,,,,,,,
null,,color_black,650047,,black_plus_sign,,,,null,,,,,,,,,,,,,,,,,,,
null,,learn_phase(without_color),653048,,black_plus_sign,,,,null,GW/hanover.png,GW/cornwall.png,,,,,,,,,,,,,,,,,
null,,black_cross(without_color),653620,,blue,,,,null,GW/hanover.png,GW/cornwall.png,,,,,,,,,,,,,,,,,
null,,rt_plussign_withcolor,654121,,blue,,,,null,GW/hanover.png,GW/cornwall.png,,,,,,,,,,,,,,,,,
1114.4000000953674,,rt_thecrossant_black,655553,,black_plus_sign,,,,49,,,1,0.9814814814814815,,,,,,,,,,,,,,,
null,,color_black,655654,,black_plus_sign,,,,null,,,,,,,,,,,,,,,,,,,
null,,learn_phase(without_color),658655,,black_plus_sign,,,,null,GW/hotsprings.png,GW/shreveport.png,,,,,,,,,,,,,,,,,
null,,black_cross(without_color),659272,,yellow,,,,null,GW/hotsprings.png,GW/shreveport.png,,,,,,,,,,,,,,,,,
null,,rt_plussign_withcolor,659773,,yellow,,,,null,GW/hotsprings.png,GW/shreveport.png,,,,,,,,,,,,,,,,,
897.5,,rt_thecrossant_black,661159,,black_plus_sign,,,,50,,,1,0.9818181818181818,,,,,,,,,,,,,,,
null,,color_black,661261,,black_plus_sign,,,,null,,,,,,,,,,,,,,,,,,,
null,,learn_phase(without_color),664263,,black_plus_sign,,,,null,GW/shreveport.png,GW/cornwall.png,,,,,,,,,,,,,,,,,
null,,black_cross(without_color),664938,,yellow,,,,null,GW/shreveport.png,GW/cornwall.png,,,,,,,,,,,,,,,,,
null,,rt_plussign_withcolor,665439,,yellow,,,,null,GW/shreveport.png,GW/cornwall.png,,,,,,,,,,,,,,,,,
1007.3999999761581,,rt_thecrossant_black,666768,,black_plus_sign,,,,50,,,1,0.9821428571428571,,,,,,,,,,,,,,,
null,,color_black,666870,,black_plus_sign,,,,null,,,,,,,,,,,,,,,,,,,
null,,learn_phase(without_color),669872,,black_plus_sign,,,,null,GW/gatlinburg.png,GW/peoria.png,,,,,,,,,,,,,,,,,
null,,black_cross(without_color),670431,,blue,,,,null,GW/gatlinburg.png,GW/peoria.png,,,,,,,,,,,,,,,,,
null,,rt_plussign_withcolor,670932,,blue,,,,null,GW/gatlinburg.png,GW/peoria.png,,,,,,,,,,,,,,,,,
1030.6999999284744,,rt_thecrossant_black,672377,,black_plus_sign,,,,49,,,1,0.9824561403508771,,,,,,,,,,,,,,,
null,,color_black,672478,,black_plus_sign,,,,null,,,,,,,,,,,,,,,,,,,
null,,learn_phase(without_color),675480,,black_plus_sign,,,,null,GW/huntsville.png,GW/hanover.png,,,,,,,,,,,,,,,,,
null,,black_cross(without_color),676322,,blue,,,,null,GW/huntsville.png,GW/hanover.png,,,,,,,,,,,,,,,,,
null,,rt_plussign_withcolor,676824,,blue,,,,null,GW/huntsville.png,GW/hanover.png,,,,,,,,,,,,,,,,,
1032.2999999523163,,rt_thecrossant_black,677984,,black_plus_sign,,,,49,,,1,0.9827586206896551,,,,,,,,,,,,,,,
null,,color_black,678086,,black_plus_sign,,,,null,,,,,,,,,,,,,,,,,,,
null,,learn_phase(without_color),681088,,black_plus_sign,,,,null,GW/newhope.png,GW/hotsprings.png,,,,,,,,,,,,,,,,,
null,,black_cross(without_color),681831,,blue,,,,null,GW/newhope.png,GW/hotsprings.png,,,,,,,,,,,,,,,,,
null,,rt_plussign_withcolor,682331,,blue,,,,null,GW/newhope.png,GW/hotsprings.png,,,,,,,,,,,,,,,,,
1107.3999999761581,,rt_thecrossant_black,683592,,black_plus_sign,,,,49,,,1,0.9830508474576272,,,,,,,,,,,,,,,
null,,color_black,683693,,black_plus_sign,,,,null,,,,,,,,,,,,,,,,,,,
null,,learn_phase(without_color),686695,,black_plus_sign,,,,null,GW/gatlinburg.png,GW/shreveport.png,,,,,,,,,,,,,,,,,
null,,black_cross(without_color),687383,,blue,,,,null,GW/gatlinburg.png,GW/shreveport.png,,,,,,,,,,,,,,,,,
null,,rt_plussign_withcolor,687884,,blue,,,,null,GW/gatlinburg.png,GW/shreveport.png,,,,,,,,,,,,,,,,,
1129.1000000238419,,rt_thecrossant_black,689200,,black_plus_sign,,,,49,,,1,0.9833333333333333,,,,,,,,,,,,,,,
null,,color_black,689302,,black_plus_sign,,,,null,,,,,,,,,,,,,,,,,,,
null,,learn_phase(without_color),692305,,black_plus_sign,,,,null,GW/carmel.png,GW/boulder.png,,,,,,,,,,,,,,,,,
null,,black_cross(without_color),692878,,blue,,,,null,GW/carmel.png,GW/boulder.png,,,,,,,,,,,,,,,,,
null,,rt_plussign_withcolor,693379,,blue,,,,null,GW/carmel.png,GW/boulder.png,,,,,,,,,,,,,,,,,
1079.3999999761581,,rt_thecrossant_black,694809,,black_plus_sign,,,,49,,,1,0.9836065573770492,,,,,,,,,,,,,,,
null,,color_black,694910,,black_plus_sign,,,,null,,,,,,,,,,,,,,,,,,,
null,,learn_phase(without_color),697926,,black_plus_sign,,,,null,GW/boulder.png,GW/carmel.png,,,,,,,,,,,,,,,,,
null,,black_cross(without_color),698977,,yellow,,,,null,GW/boulder.png,GW/carmel.png,,,,,,,,,,,,,,,,,
null,,rt_plussign_withcolor,699478,,yellow,,,,null,GW/boulder.png,GW/carmel.png,,,,,,,,,,,,,,,,,
739.8999999761581,,rt_thecrossant_black,700430,,black_plus_sign,,,,50,,,1,0.9838709677419355,,,,,,,,,,,,,,,
null,,color_black,700531,,black_plus_sign,,,,null,,,,,,,,,,,,,,,,,,,
null,,learn_phase(without_color),703532,,black_plus_sign,,,,null,GW/gatlinburg.png,GW/hanover.png,,,,,,,,,,,,,,,,,
null,,black_cross(without_color),704528,,yellow,,,,null,GW/gatlinburg.png,GW/hanover.png,,,,,,,,,,,,,,,,,
486.7000000476837,,rt_plussign_withcolor,705029,,yellow,,,,50,GW/gatlinburg.png,GW/hanover.png,,,,,,,,,,,,,,,,,
null,,rt_thecrossant_black,706037,,black_plus_sign,,,,null,,,1,0.9841269841269841,,,,,,,,,,,,,,,
null,,color_black,706138,,black_plus_sign,,,,null,,,,,,,,,,,,,,,,,,,
32079.399999976158,,learn_break,738218,,learn_break,,,,32,,,,,,,,,,,,,,,,,,,
null,,html-keyboard-response,739219,,<p></p>,,,,null,,,,,,,,,,,,,,,,,,,
null,,learn_phase(without_color),742221,,black_plus_sign,,,,null,GW/carmel.png,GW/newhope.png,,,,,,,,,,,,,,,,,
null,,black_cross(without_color),743038,,blue,,,,null,GW/carmel.png,GW/newhope.png,,,,,,,,,,,,,,,,,
498.5,,rt_plussign_withcolor,743540,,blue,,,,49,GW/carmel.png,GW/newhope.png,,,,,,,,,,,,,,,,,
null,,rt_thecrossant_black,744730,,black_plus_sign,,,,null,,,1,0.984375,,,,,,,,,,,,,,,
null,,color_black,744831,,black_plus_sign,,,,null,,,,,,,,,,,,,,,,,,,
null,,learn_phase(without_color),747832,,black_plus_sign,,,,null,GW/peoria.png,GW/hotsprings.png,,,,,,,,,,,,,,,,,
null,,black_cross(without_color),748355,,yellow,,,,null,GW/peoria.png,GW/hotsprings.png,,,,,,,,,,,,,,,,,
null,,rt_plussign_withcolor,748867,,yellow,,,,null,GW/peoria.png,GW/hotsprings.png,,,,,,,,,,,,,,,,,
1367.8999999761581,,rt_thecrossant_black,750347,,black_plus_sign,,,,50,,,1,0.9846153846153847,,,,,,,,,,,,,,,
null,,color_black,750449,,black_plus_sign,,,,null,,,,,,,,,,,,,,,,,,,
null,,learn_phase(without_color),753451,,black_plus_sign,,,,null,GW/boulder.png,GW/carmel.png,,,,,,,,,,,,,,,,,
null,,black_cross(without_color),754452,,blue,,,,null,GW/boulder.png,GW/carmel.png,,,,,,,,,,,,,,,,,
null,,rt_plussign_withcolor,754954,,blue,,,,null,GW/boulder.png,GW/carmel.png,,,,,,,,,,,,,,,,,
929.8999999761581,,rt_thecrossant_black,755957,,black_plus_sign,,,,49,,,1,0.9848484848484849,,,,,,,,,,,,,,,
null,,color_black,756069,,black_plus_sign,,,,null,,,,,,,,,,,,,,,,,,,
null,,learn_phase(without_color),759070,,black_plus_sign,,,,null,GW/boulder.png,GW/carmel.png,,,,,,,,,,,,,,,,,
null,,black_cross(without_color),759770,,yellow,,,,null,GW/boulder.png,GW/carmel.png,,,,,,,,,,,,,,,,,
null,,rt_plussign_withcolor,760271,,yellow,,,,null,GW/boulder.png,GW/carmel.png,,,,,,,,,,,,,,,,,
1867.1999999284744,,rt_thecrossant_black,761573,,black_plus_sign,,,,50,,,1,0.9850746268656716,,,,,,,,,,,,,,,
null,,color_black,761676,,black_plus_sign,,,,null,,,,,,,,,,,,,,,,,,,
null,,learn_phase(without_color),764678,,black_plus_sign,,,,null,GW/hanover.png,GW/huntsville.png,,,,,,,,,,,,,,,,,
null,,black_cross(without_color),765448,,blue,,,,null,GW/hanover.png,GW/huntsville.png,,,,,,,,,,,,,,,,,
null,,rt_plussign_withcolor,765949,,blue,,,,null,GW/hanover.png,GW/huntsville.png,,,,,,,,,,,,,,,,,
1069.0999999046326,,rt_thecrossant_black,767182,,black_plus_sign,,,,49,,,1,0.9852941176470589,,,,,,,,,,,,,,,
null,,color_black,767283,,black_plus_sign,,,,null,,,,,,,,,,,,,,,,,,,
null,,learn_phase(without_color),770285,,black_plus_sign,,,,null,GW/hotsprings.png,GW/peoria.png,,,,,,,,,,,,,,,,,
null,,black_cross(without_color),771091,,yellow,,,,null,GW/hotsprings.png,GW/peoria.png,,,,,,,,,,,,,,,,,
null,,rt_plussign_withcolor,771592,,yellow,,,,null,GW/hotsprings.png,GW/peoria.png,,,,,,,,,,,,,,,,,
920.7999999523163,,rt_thecrossant_black,772789,,black_plus_sign,,,,50,,,1,0.9855072463768116,,,,,,,,,,,,,,,
null,,color_black,772891,,black_plus_sign,,,,null,,,,,,,,,,,,,,,,,,,
null,,learn_phase(without_color),775893,,black_plus_sign,,,,null,GW/newhope.png,GW/carmel.png,,,,,,,,,,,,,,,,,
null,,black_cross(without_color),776785,,blue,,,,null,GW/newhope.png,GW/carmel.png,,,,,,,,,,,,,,,,,
null,,rt_plussign_withcolor,777287,,blue,,,,null,GW/newhope.png,GW/carmel.png,,,,,,,,,,,,,,,,,
1090.6000000238419,,rt_thecrossant_black,778400,,black_plus_sign,,,,49,,,1,0.9857142857142858,,,,,,,,,,,,,,,
null,,color_black,778509,,black_plus_sign,,,,null,,,,,,,,,,,,,,,,,,,
null,,learn_phase(without_color),781511,,black_plus_sign,,,,null,GW/hotsprings.png,GW/peoria.png,,,,,,,,,,,,,,,,,
null,,black_cross(without_color),782501,,blue,,,,null,GW/hotsprings.png,GW/peoria.png,,,,,,,,,,,,,,,,,
null,,rt_plussign_withcolor,783003,,blue,,,,null,GW/hotsprings.png,GW/peoria.png,,,,,,,,,,,,,,,,,
1329.1999999284744,,rt_thecrossant_black,784017,,black_plus_sign,,,,49,,,1,0.9859154929577465,,,,,,,,,,,,,,,
null,,color_black,784118,,black_plus_sign,,,,null,,,,,,,,,,,,,,,,,,,
null,,learn_phase(without_color),787120,,black_plus_sign,,,,null,GW/huntsville.png,GW/hanover.png,,,,,,,,,,,,,,,,,
null,,black_cross(without_color),787838,,blue,,,,null,GW/huntsville.png,GW/hanover.png,,,,,,,,,,,,,,,,,
null,,rt_plussign_withcolor,788340,,blue,,,,null,GW/huntsville.png,GW/hanover.png,,,,,,,,,,,,,,,,,
1112.8000000715256,,rt_thecrossant_black,789625,,black_plus_sign,,,,49,,,1,0.9861111111111112,,,,,,,,,,,,,,,
null,,color_black,789727,,black_plus_sign,,,,null,,,,,,,,,,,,,,,,,,,
null,,learn_phase(without_color),792728,,black_plus_sign,,,,null,GW/gatlinburg.png,GW/hanover.png,,,,,,,,,,,,,,,,,
null,,black_cross(without_color),793697,,yellow,,,,null,GW/gatlinburg.png,GW/hanover.png,,,,,,,,,,,,,,,,,
null,,rt_plussign_withcolor,794198,,yellow,,,,null,GW/gatlinburg.png,GW/hanover.png,,,,,,,,,,,,,,,,,
1089.8999999761581,,rt_thecrossant_black,795233,,black_plus_sign,,,,50,,,1,0.9863013698630136,,,,,,,,,,,,,,,
null,,color_black,795335,,black_plus_sign,,,,null,,,,,,,,,,,,,,,,,,,
null,,learn_phase(without_color),798337,,black_plus_sign,,,,null,GW/cornwall.png,GW/westpalmbeach.png,,,,,,,,,,,,,,,,,
null,,black_cross(without_color),798758,,yellow,,,,null,GW/cornwall.png,GW/westpalmbeach.png,,,,,,,,,,,,,,,,,
null,,rt_plussign_withcolor,799259,,yellow,,,,null,GW/cornwall.png,GW/westpalmbeach.png,,,,,,,,,,,,,,,,,
1331.2999999523163,,rt_thecrossant_black,800841,,black_plus_sign,,,,50,,,1,0.9864864864864865,,,,,,,,,,,,,,,
null,,color_black,800943,,black_plus_sign,,,,null,,,,,,,,,,,,,,,,,,,
null,,learn_phase(without_color),803944,,black_plus_sign,,,,null,GW/peoria.png,GW/hotsprings.png,,,,,,,,,,,,,,,,,
null,,black_cross(without_color),804839,,yellow,,,,null,GW/peoria.png,GW/hotsprings.png,,,,,,,,,,,,,,,,,
null,,rt_plussign_withcolor,805341,,yellow,,,,null,GW/peoria.png,GW/hotsprings.png,,,,,,,,,,,,,,,,,
717.9000000953674,,rt_thecrossant_black,806461,,black_plus_sign,,,,50,,,1,0.9866666666666667,,,,,,,,,,,,,,,
null,,color_black,806562,,black_plus_sign,,,,null,,,,,,,,,,,,,,,,,,,
null,,learn_phase(without_color),809564,,black_plus_sign,,,,null,GW/hanover.png,GW/huntsville.png,,,,,,,,,,,,,,,,,
null,,black_cross(without_color),810142,,blue,,,,null,GW/hanover.png,GW/huntsville.png,,,,,,,,,,,,,,,,,
null,,rt_plussign_withcolor,810647,,blue,,,,null,GW/hanover.png,GW/huntsville.png,,,,,,,,,,,,,,,,,
1169.8000000715256,,rt_thecrossant_black,812072,,black_plus_sign,,,,49,,,1,0.9868421052631579,,,,,,,,,,,,,,,
null,,color_black,812173,,black_plus_sign,,,,null,,,,,,,,,,,,,,,,,,,
null,,learn_phase(without_color),815175,,black_plus_sign,,,,null,GW/shreveport.png,GW/cornwall.png,,,,,,,,,,,,,,,,,
null,,black_cross(without_color),815773,,blue,,,,null,GW/shreveport.png,GW/cornwall.png,,,,,,,,,,,,,,,,,
null,,rt_plussign_withcolor,816275,,blue,,,,null,GW/shreveport.png,GW/cornwall.png,,,,,,,,,,,,,,,,,
910,,rt_thecrossant_black,817679,,black_plus_sign,,,,49,,,1,0.987012987012987,,,,,,,,,,,,,,,
null,,color_black,817781,,black_plus_sign,,,,null,,,,,,,,,,,,,,,,,,,
null,,learn_phase(without_color),820783,,black_plus_sign,,,,null,GW/shreveport.png,GW/cornwall.png,,,,,,,,,,,,,,,,,
null,,black_cross(without_color),821384,,yellow,,,,null,GW/shreveport.png,GW/cornwall.png,,,,,,,,,,,,,,,,,
488.10000002384186,,rt_plussign_withcolor,821885,,yellow,,,,50,GW/shreveport.png,GW/cornwall.png,,,,,,,,,,,,,,,,,
null,,rt_thecrossant_black,823301,,black_plus_sign,,,,null,,,1,0.9871794871794872,,,,,,,,,,,,,,,
null,,color_black,823403,,black_plus_sign,,,,null,,,,,,,,,,,,,,,,,,,
null,,learn_phase(without_color),826405,,black_plus_sign,,,,null,GW/westpalmbeach.png,GW/cornwall.png,,,,,,,,,,,,,,,,,
null,,black_cross(without_color),827009,,blue,,,,null,GW/westpalmbeach.png,GW/cornwall.png,,,,,,,,,,,,,,,,,
null,,rt_plussign_withcolor,827510,,blue,,,,null,GW/westpalmbeach.png,GW/cornwall.png,,,,,,,,,,,,,,,,,
867.8000000715256,,rt_thecrossant_black,828909,,black_plus_sign,,,,49,,,1,0.9873417721518988,,,,,,,,,,,,,,,
null,,color_black,829010,,black_plus_sign,,,,null,,,,,,,,,,,,,,,,,,,
null,,learn_phase(without_color),832023,,black_plus_sign,,,,null,GW/cornwall.png,GW/hanover.png,,,,,,,,,,,,,,,,,
null,,black_cross(without_color),832451,,blue,,,,null,GW/cornwall.png,GW/hanover.png,,,,,,,,,,,,,,,,,
null,,rt_plussign_withcolor,832953,,blue,,,,null,GW/cornwall.png,GW/hanover.png,,,,,,,,,,,,,,,,,
1027.3999999761581,,rt_thecrossant_black,834539,,black_plus_sign,,,,49,,,1,0.9875,,,,,,,,,,,,,,,
null,,color_black,834640,,black_plus_sign,,,,null,,,,,,,,,,,,,,,,,,,
null,,learn_phase(without_color),837642,,black_plus_sign,,,,null,GW/boulder.png,GW/carmel.png,,,,,,,,,,,,,,,,,
null,,black_cross(without_color),838450,,blue,,,,null,GW/boulder.png,GW/carmel.png,,,,,,,,,,,,,,,,,
null,,rt_plussign_withcolor,838951,,blue,,,,null,GW/boulder.png,GW/carmel.png,,,,,,,,,,,,,,,,,
953.8999999761581,,rt_thecrossant_black,840145,,black_plus_sign,,,,49,,,1,0.9876543209876543,,,,,,,,,,,,,,,
null,,color_black,840247,,black_plus_sign,,,,null,,,,,,,,,,,,,,,,,,,
null,,learn_phase(without_color),843249,,black_plus_sign,,,,null,GW/westpalmbeach.png,GW/cornwall.png,,,,,,,,,,,,,,,,,
null,,black_cross(without_color),843920,,blue,,,,null,GW/westpalmbeach.png,GW/cornwall.png,,,,,,,,,,,,,,,,,
null,,rt_plussign_withcolor,844422,,blue,,,,null,GW/westpalmbeach.png,GW/cornwall.png,,,,,,,,,,,,,,,,,
913.8999999761581,,rt_thecrossant_black,845754,,black_plus_sign,,,,49,,,1,0.9878048780487805,,,,,,,,,,,,,,,
null,,color_black,845856,,black_plus_sign,,,,null,,,,,,,,,,,,,,,,,,,
null,,learn_phase(without_color),848867,,black_plus_sign,,,,null,GW/peoria.png,GW/boulder.png,,,,,,,,,,,,,,,,,
null,,black_cross(without_color),849627,,yellow,,,,null,GW/peoria.png,GW/boulder.png,,,,,,,,,,,,,,,,,
null,,rt_plussign_withcolor,850127,,yellow,,,,null,GW/peoria.png,GW/boulder.png,,,,,,,,,,,,,,,,,
836.3000000715256,,rt_thecrossant_black,851372,,black_plus_sign,,,,50,,,1,0.9879518072289156,,,,,,,,,,,,,,,
null,,color_black,851473,,black_plus_sign,,,,null,,,,,,,,,,,,,,,,,,,
null,,learn_phase(without_color),854475,,black_plus_sign,,,,null,GW/shreveport.png,GW/hotsprings.png,,,,,,,,,,,,,,,,,
null,,black_cross(without_color),855292,,blue,,,,null,GW/shreveport.png,GW/hotsprings.png,,,,,,,,,,,,,,,,,
null,,rt_plussign_withcolor,855794,,blue,,,,null,GW/shreveport.png,GW/hotsprings.png,,,,,,,,,,,,,,,,,
943.5,,rt_thecrossant_black,856990,,black_plus_sign,,,,49,,,1,0.9880952380952381,,,,,,,,,,,,,,,
null,,color_black,857103,,black_plus_sign,,,,null,,,,,,,,,,,,,,,,,,,
null,,learn_phase(without_color),860105,,black_plus_sign,,,,null,GW/peoria.png,GW/boulder.png,,,,,,,,,,,,,,,,,
null,,black_cross(without_color),860523,,yellow,,,,null,GW/peoria.png,GW/boulder.png,,,,,,,,,,,,,,,,,
null,,rt_plussign_withcolor,861024,,yellow,,,,null,GW/peoria.png,GW/boulder.png,,,,,,,,,,,,,,,,,
1166.1999999284744,,rt_thecrossant_black,862609,,black_plus_sign,,,,50,,,1,0.9882352941176471,,,,,,,,,,,,,,,
null,,color_black,862711,,black_plus_sign,,,,null,,,,,,,,,,,,,,,,,,,
null,,learn_phase(without_color),865713,,black_plus_sign,,,,null,GW/peoria.png,GW/gatlinburg.png,,,,,,,,,,,,,,,,,
null,,black_cross(without_color),866462,,blue,,,,null,GW/peoria.png,GW/gatlinburg.png,,,,,,,,,,,,,,,,,
null,,rt_plussign_withcolor,866963,,blue,,,,null,GW/peoria.png,GW/gatlinburg.png,,,,,,,,,,,,,,,,,
856.0999999046326,,rt_thecrossant_black,868217,,black_plus_sign,,,,49,,,1,0.9883720930232558,,,,,,,,,,,,,,,
null,,color_black,868318,,black_plus_sign,,,,null,,,,,,,,,,,,,,,,,,,
null,,learn_phase(without_color),871320,,black_plus_sign,,,,null,GW/peoria.png,GW/gatlinburg.png,,,,,,,,,,,,,,,,,
null,,black_cross(without_color),871942,,blue,,,,null,GW/peoria.png,GW/gatlinburg.png,,,,,,,,,,,,,,,,,
492,,rt_plussign_withcolor,872443,,blue,,,,49,GW/peoria.png,GW/gatlinburg.png,,,,,,,,,,,,,,,,,
null,,rt_thecrossant_black,873824,,black_plus_sign,,,,null,,,1,0.9885057471264368,,,,,,,,,,,,,,,
null,,color_black,873928,,black_plus_sign,,,,null,,,,,,,,,,,,,,,,,,,
null,,learn_phase(without_color),876943,,black_plus_sign,,,,null,GW/racine.png,GW/carmel.png,,,,,,,,,,,,,,,,,
null,,black_cross(without_color),877976,,yellow,,,,null,GW/racine.png,GW/carmel.png,,,,,,,,,,,,,,,,,
null,,rt_plussign_withcolor,878477,,yellow,,,,null,GW/racine.png,GW/carmel.png,,,,,,,,,,,,,,,,,
971.5,,rt_thecrossant_black,879448,,black_plus_sign,,,,50,,,1,0.9886363636363636,,,,,,,,,,,,,,,
null,,color_black,879550,,black_plus_sign,,,,null,,,,,,,,,,,,,,,,,,,
null,,learn_phase(without_color),882551,,black_plus_sign,,,,null,GW/huntsville.png,GW/hanover.png,,,,,,,,,,,,,,,,,
null,,black_cross(without_color),883425,,blue,,,,null,GW/huntsville.png,GW/hanover.png,,,,,,,,,,,,,,,,,
null,,rt_plussign_withcolor,883926,,blue,,,,null,GW/huntsville.png,GW/hanover.png,,,,,,,,,,,,,,,,,
1515.9000000953674,,rt_thecrossant_black,885055,,black_plus_sign,,,,49,,,1,0.9887640449438202,,,,,,,,,,,,,,,
null,,color_black,885157,,black_plus_sign,,,,null,,,,,,,,,,,,,,,,,,,
null,,learn_phase(without_color),888158,,black_plus_sign,,,,null,GW/carmel.png,GW/racine.png,,,,,,,,,,,,,,,,,
null,,black_cross(without_color),889241,,blue,,,,null,GW/carmel.png,GW/racine.png,,,,,,,,,,,,,,,,,
null,,rt_plussign_withcolor,889743,,blue,,,,null,GW/carmel.png,GW/racine.png,,,,,,,,,,,,,,,,,
1285.1000000238419,,rt_thecrossant_black,890665,,black_plus_sign,,,,49,,,1,0.9888888888888889,,,,,,,,,,,,,,,
null,,color_black,890775,,black_plus_sign,,,,null,,,,,,,,,,,,,,,,,,,
null,,learn_phase(without_color),893776,,black_plus_sign,,,,null,GW/hotsprings.png,GW/newhope.png,,,,,,,,,,,,,,,,,
null,,black_cross(without_color),894703,,yellow,,,,null,GW/hotsprings.png,GW/newhope.png,,,,,,,,,,,,,,,,,
null,,rt_plussign_withcolor,895205,,yellow,,,,null,GW/hotsprings.png,GW/newhope.png,,,,,,,,,,,,,,,,,
1416.3999999761581,,rt_thecrossant_black,896281,,black_plus_sign,,,,50,,,1,0.989010989010989,,,,,,,,,,,,,,,
null,,color_black,896382,,black_plus_sign,,,,null,,,,,,,,,,,,,,,,,,,
null,,learn_phase(without_color),899384,,black_plus_sign,,,,null,GW/hanover.png,GW/cornwall.png,,,,,,,,,,,,,,,,,
null,,black_cross(without_color),900104,,blue,,,,null,GW/hanover.png,GW/cornwall.png,,,,,,,,,,,,,,,,,
null,,rt_plussign_withcolor,900607,,blue,,,,null,GW/hanover.png,GW/cornwall.png,,,,,,,,,,,,,,,,,
1314.6999999284744,,rt_thecrossant_black,901889,,black_plus_sign,,,,49,,,1,0.9891304347826086,,,,,,,,,,,,,,,
null,,color_black,901991,,black_plus_sign,,,,null,,,,,,,,,,,,,,,,,,,
null,,learn_phase(without_color),904993,,black_plus_sign,,,,null,GW/hotsprings.png,GW/peoria.png,,,,,,,,,,,,,,,,,
null,,black_cross(without_color),905963,,yellow,,,,null,GW/hotsprings.png,GW/peoria.png,,,,,,,,,,,,,,,,,
null,,rt_plussign_withcolor,906465,,yellow,,,,null,GW/hotsprings.png,GW/peoria.png,,,,,,,,,,,,,,,,,
1089.3999999761581,,rt_thecrossant_black,907497,,black_plus_sign,,,,50,,,1,0.989247311827957,,,,,,,,,,,,,,,
null,,color_black,907599,,black_plus_sign,,,,null,,,,,,,,,,,,,,,,,,,
null,,learn_phase(without_color),910601,,black_plus_sign,,,,null,GW/gatlinburg.png,GW/cornwall.png,,,,,,,,,,,,,,,,,
null,,black_cross(without_color),911145,,blue,,,,null,GW/gatlinburg.png,GW/cornwall.png,,,,,,,,,,,,,,,,,
null,,rt_plussign_withcolor,911647,,blue,,,,null,GW/gatlinburg.png,GW/cornwall.png,,,,,,,,,,,,,,,,,
1319.5,,rt_thecrossant_black,913107,,black_plus_sign,,,,49,,,1,0.9893617021276596,,,,,,,,,,,,,,,
null,,color_black,913223,,black_plus_sign,,,,null,,,,,,,,,,,,,,,,,,,
null,,learn_phase(without_color),916225,,black_plus_sign,,,,null,GW/hotsprings.png,GW/newhope.png,,,,,,,,,,,,,,,,,
null,,black_cross(without_color),916991,,blue,,,,null,GW/hotsprings.png,GW/newhope.png,,,,,,,,,,,,,,,,,
null,,rt_plussign_withcolor,917493,,blue,,,,null,GW/hotsprings.png,GW/newhope.png,,,,,,,,,,,,,,,,,
771.1000000238419,,rt_thecrossant_black,918730,,black_plus_sign,,,,49,,,1,0.9894736842105263,,,,,,,,,,,,,,,
null,,color_black,918832,,black_plus_sign,,,,null,,,,,,,,,,,,,,,,,,,
null,,learn_phase(without_color),921833,,black_plus_sign,,,,null,GW/hanover.png,GW/gatlinburg.png,,,,,,,,,,,,,,,,,
null,,black_cross(without_color),922804,,blue,,,,null,GW/hanover.png,GW/gatlinburg.png,,,,,,,,,,,,,,,,,
null,,rt_plussign_withcolor,923304,,blue,,,,null,GW/hanover.png,GW/gatlinburg.png,,,,,,,,,,,,,,,,,
1116.8999999761581,,rt_thecrossant_black,924347,,black_plus_sign,,,,49,,,1,0.9895833333333334,,,,,,,,,,,,,,,
null,,color_black,924448,,black_plus_sign,,,,null,,,,,,,,,,,,,,,,,,,
null,,learn_phase(without_color),927449,,black_plus_sign,,,,null,GW/shreveport.png,GW/hotsprings.png,,,,,,,,,,,,,,,,,
null,,black_cross(without_color),927957,,blue,,,,null,GW/shreveport.png,GW/hotsprings.png,,,,,,,,,,,,,,,,,
null,,rt_plussign_withcolor,928458,,blue,,,,null,GW/shreveport.png,GW/hotsprings.png,,,,,,,,,,,,,,,,,
1151.7999999523163,,rt_thecrossant_black,929953,,black_plus_sign,,,,49,,,1,0.9896907216494846,,,,,,,,,,,,,,,
null,,color_black,930055,,black_plus_sign,,,,null,,,,,,,,,,,,,,,,,,,
null,,learn_phase(without_color),933057,,black_plus_sign,,,,null,GW/shreveport.png,GW/gatlinburg.png,,,,,,,,,,,,,,,,,
null,,black_cross(without_color),933686,,blue,,,,null,GW/shreveport.png,GW/gatlinburg.png,,,,,,,,,,,,,,,,,
null,,rt_plussign_withcolor,934187,,blue,,,,null,GW/shreveport.png,GW/gatlinburg.png,,,,,,,,,,,,,,,,,
782.5999999046326,,rt_thecrossant_black,935560,,black_plus_sign,,,,49,,,1,0.9897959183673469,,,,,,,,,,,,,,,
null,,color_black,935662,,black_plus_sign,,,,null,,,,,,,,,,,,,,,,,,,
null,,learn_phase(without_color),938663,,black_plus_sign,,,,null,GW/shreveport.png,GW/gatlinburg.png,,,,,,,,,,,,,,,,,
null,,black_cross(without_color),939632,,yellow,,,,null,GW/shreveport.png,GW/gatlinburg.png,,,,,,,,,,,,,,,,,
null,,rt_plussign_withcolor,940133,,yellow,,,,null,GW/shreveport.png,GW/gatlinburg.png,,,,,,,,,,,,,,,,,
996.3999999761581,,rt_thecrossant_black,941168,,black_plus_sign,,,,50,,,1,0.98989898989899,,,,,,,,,,,,,,,
null,,color_black,941269,,black_plus_sign,,,,null,,,,,,,,,,,,,,,,,,,
null,,learn_phase(without_color),944271,,black_plus_sign,,,,null,GW/newhope.png,GW/carmel.png,,,,,,,,,,,,,,,,,
null,,black_cross(without_color),944961,,blue,,,,null,GW/newhope.png,GW/carmel.png,,,,,,,,,,,,,,,,,
null,,rt_plussign_withcolor,945463,,blue,,,,null,GW/newhope.png,GW/carmel.png,,,,,,,,,,,,,,,,,
1326,,rt_thecrossant_black,946778,,black_plus_sign,,,,49,,,1,0.99,,,,,,,,,,,,,,,
null,,color_black,946888,,black_plus_sign,,,,null,,,,,,,,,,,,,,,,,,,
null,,learn_phase(without_color),949889,,black_plus_sign,,,,null,GW/huntsville.png,GW/hanover.png,,,,,,,,,,,,,,,,,
null,,black_cross(without_color),950352,,blue,,,,null,GW/huntsville.png,GW/hanover.png,,,,,,,,,,,,,,,,,
null,,rt_plussign_withcolor,950853,,blue,,,,null,GW/huntsville.png,GW/hanover.png,,,,,,,,,,,,,,,,,
991.3999999761581,,rt_thecrossant_black,952400,,black_plus_sign,,,,49,,,1,0.9900990099009901,,,,,,,,,,,,,,,
null,,color_black,952502,,black_plus_sign,,,,null,,,,,,,,,,,,,,,,,,,
null,,learn_phase(without_color),955503,,black_plus_sign,,,,null,GW/westpalmbeach.png,GW/cornwall.png,,,,,,,,,,,,,,,,,
null,,black_cross(without_color),956380,,yellow,,,,null,GW/westpalmbeach.png,GW/cornwall.png,,,,,,,,,,,,,,,,,
null,,rt_plussign_withcolor,956881,,yellow,,,,null,GW/westpalmbeach.png,GW/cornwall.png,,,,,,,,,,,,,,,,,
821.5,,rt_thecrossant_black,958007,,black_plus_sign,,,,50,,,1,0.9901960784313726,,,,,,,,,,,,,,,
null,,color_black,958109,,black_plus_sign,,,,null,,,,,,,,,,,,,,,,,,,
null,,learn_phase(without_color),961110,,black_plus_sign,,,,null,GW/newhope.png,GW/hotsprings.png,,,,,,,,,,,,,,,,,
null,,black_cross(without_color),961579,,yellow,,,,null,GW/newhope.png,GW/hotsprings.png,,,,,,,,,,,,,,,,,
null,,rt_plussign_withcolor,962085,,yellow,,,,null,GW/newhope.png,GW/hotsprings.png,,,,,,,,,,,,,,,,,
1375.8999999761581,,rt_thecrossant_black,963620,,black_plus_sign,,,,49,,,0,0.9805825242718447,,,,,,,,,,,,,,,
null,,color_black,963729,,black_plus_sign,,,,null,,,,,,,,,,,,,,,,,,,
null,,learn_phase(without_color),966730,,black_plus_sign,,,,null,GW/cornwall.png,GW/gatlinburg.png,,,,,,,,,,,,,,,,,
null,,black_cross(without_color),967357,,yellow,,,,null,GW/cornwall.png,GW/gatlinburg.png,,,,,,,,,,,,,,,,,
485.89999997615814,,rt_plussign_withcolor,967859,,yellow,,,,50,GW/cornwall.png,GW/gatlinburg.png,,,,,,,,,,,,,,,,,
null,,rt_thecrossant_black,969235,,black_plus_sign,,,,null,,,1,0.9807692307692307,,,,,,,,,,,,,,,
null,,color_black,969337,,black_plus_sign,,,,null,,,,,,,,,,,,,,,,,,,
null,,learn_phase(without_color),972338,,black_plus_sign,,,,null,GW/gatlinburg.png,GW/shreveport.png,,,,,,,,,,,,,,,,,
null,,black_cross(without_color),972834,,yellow,,,,null,GW/gatlinburg.png,GW/shreveport.png,,,,,,,,,,,,,,,,,
426.2999999523163,,rt_plussign_withcolor,973335,,yellow,,,,50,GW/gatlinburg.png,GW/shreveport.png,,,,,,,,,,,,,,,,,
null,,rt_thecrossant_black,974845,,black_plus_sign,,,,null,,,1,0.9809523809523809,,,,,,,,,,,,,,,
null,,color_black,974947,,black_plus_sign,,,,null,,,,,,,,,,,,,,,,,,,
null,,learn_phase(without_color),977949,,black_plus_sign,,,,null,GW/newhope.png,GW/leesburg.png,,,,,,,,,,,,,,,,,
null,,black_cross(without_color),978726,,yellow,,,,null,GW/newhope.png,GW/leesburg.png,,,,,,,,,,,,,,,,,
null,,rt_plussign_withcolor,979228,,yellow,,,,null,GW/newhope.png,GW/leesburg.png,,,,,,,,,,,,,,,,,
947.5,,rt_thecrossant_black,980468,,black_plus_sign,,,,50,,,1,0.9811320754716981,,,,,,,,,,,,,,,
null,,color_black,980569,,black_plus_sign,,,,null,,,,,,,,,,,,,,,,,,,
null,,learn_phase(without_color),983572,,black_plus_sign,,,,null,GW/cornwall.png,GW/shreveport.png,,,,,,,,,,,,,,,,,
null,,black_cross(without_color),984259,,yellow,,,,null,GW/cornwall.png,GW/shreveport.png,,,,,,,,,,,,,,,,,
null,,rt_plussign_withcolor,984760,,yellow,,,,null,GW/cornwall.png,GW/shreveport.png,,,,,,,,,,,,,,,,,
914.8999999761581,,rt_thecrossant_black,986089,,black_plus_sign,,,,50,,,1,0.9813084112149533,,,,,,,,,,,,,,,
null,,color_black,986191,,black_plus_sign,,,,null,,,,,,,,,,,,,,,,,,,
null,,learn_phase(without_color),989192,,black_plus_sign,,,,null,GW/newhope.png,GW/leesburg.png,,,,,,,,,,,,,,,,,
null,,black_cross(without_color),989946,,yellow,,,,null,GW/newhope.png,GW/leesburg.png,,,,,,,,,,,,,,,,,
458.10000002384186,,rt_plussign_withcolor,990447,,yellow,,,,50,GW/newhope.png,GW/leesburg.png,,,,,,,,,,,,,,,,,
null,,rt_thecrossant_black,991697,,black_plus_sign,,,,null,,,1,0.9814814814814815,,,,,,,,,,,,,,,
null,,color_black,991798,,black_plus_sign,,,,null,,,,,,,,,,,,,,,,,,,
null,,learn_phase(without_color),994799,,black_plus_sign,,,,null,GW/cornwall.png,GW/westpalmbeach.png,,,,,,,,,,,,,,,,,
null,,black_cross(without_color),995762,,blue,,,,null,GW/cornwall.png,GW/westpalmbeach.png,,,,,,,,,,,,,,,,,
null,,rt_plussign_withcolor,996264,,blue,,,,null,GW/cornwall.png,GW/westpalmbeach.png,,,,,,,,,,,,,,,,,
1080.7000000476837,,rt_thecrossant_black,997318,,black_plus_sign,,,,49,,,1,0.981651376146789,,,,,,,,,,,,,,,
null,,color_black,997419,,black_plus_sign,,,,null,,,,,,,,,,,,,,,,,,,
null,,learn_phase(without_color),1000421,,black_plus_sign,,,,null,GW/hotsprings.png,GW/peoria.png,,,,,,,,,,,,,,,,,
null,,black_cross(without_color),1000927,,yellow,,,,null,GW/hotsprings.png,GW/peoria.png,,,,,,,,,,,,,,,,,
null,,rt_plussign_withcolor,1001428,,yellow,,,,null,GW/hotsprings.png,GW/peoria.png,,,,,,,,,,,,,,,,,
1663.3999999761581,,rt_thecrossant_black,1002927,,black_plus_sign,,,,50,,,1,0.9818181818181818,,,,,,,,,,,,,,,
null,,color_black,1003029,,black_plus_sign,,,,null,,,,,,,,,,,,,,,,,,,
null,,learn_phase(without_color),1006031,,black_plus_sign,,,,null,GW/leesburg.png,GW/newhope.png,,,,,,,,,,,,,,,,,
null,,black_cross(without_color),1006983,,blue,,,,null,GW/leesburg.png,GW/newhope.png,,,,,,,,,,,,,,,,,
null,,rt_plussign_withcolor,1007483,,blue,,,,null,GW/leesburg.png,GW/newhope.png,,,,,,,,,,,,,,,,,
833.5,,rt_thecrossant_black,1008535,,black_plus_sign,,,,49,,,1,0.9819819819819819,,,,,,,,,,,,,,,
null,,color_black,1008637,,black_plus_sign,,,,null,,,,,,,,,,,,,,,,,,,
null,,learn_phase(without_color),1011638,,black_plus_sign,,,,null,GW/boulder.png,GW/carmel.png,,,,,,,,,,,,,,,,,
null,,black_cross(without_color),1012690,,blue,,,,null,GW/boulder.png,GW/carmel.png,,,,,,,,,,,,,,,,,
null,,rt_plussign_withcolor,1013192,,blue,,,,null,GW/boulder.png,GW/carmel.png,,,,,,,,,,,,,,,,,
1288.1999999284744,,rt_thecrossant_black,1014142,,black_plus_sign,,,,49,,,1,0.9821428571428571,,,,,,,,,,,,,,,
null,,color_black,1014245,,black_plus_sign,,,,null,,,,,,,,,,,,,,,,,,,
null,,learn_phase(without_color),1017247,,black_plus_sign,,,,null,GW/peoria.png,GW/boulder.png,,,,,,,,,,,,,,,,,
null,,black_cross(without_color),1017675,,yellow,,,,null,GW/peoria.png,GW/boulder.png,,,,,,,,,,,,,,,,,
null,,rt_plussign_withcolor,1018177,,yellow,,,,null,GW/peoria.png,GW/boulder.png,,,,,,,,,,,,,,,,,
1473.3999999761581,,rt_thecrossant_black,1019751,,black_plus_sign,,,,50,,,1,0.9823008849557522,,,,,,,,,,,,,,,
null,,color_black,1019853,,black_plus_sign,,,,null,,,,,,,,,,,,,,,,,,,
null,,learn_phase(without_color),1022865,,black_plus_sign,,,,null,GW/carmel.png,GW/racine.png,,,,,,,,,,,,,,,,,
null,,black_cross(without_color),1023704,,yellow,,,,null,GW/carmel.png,GW/racine.png,,,,,,,,,,,,,,,,,
null,,rt_plussign_withcolor,1024205,,yellow,,,,null,GW/carmel.png,GW/racine.png,,,,,,,,,,,,,,,,,
899.1000000238419,,rt_thecrossant_black,1025370,,black_plus_sign,,,,50,,,1,0.9824561403508771,,,,,,,,,,,,,,,
null,,color_black,1025472,,black_plus_sign,,,,null,,,,,,,,,,,,,,,,,,,
null,,learn_phase(without_color),1028474,,black_plus_sign,,,,null,GW/carmel.png,GW/boulder.png,,,,,,,,,,,,,,,,,
null,,black_cross(without_color),1028918,,yellow,,,,null,GW/carmel.png,GW/boulder.png,,,,,,,,,,,,,,,,,
null,,rt_plussign_withcolor,1029420,,yellow,,,,null,GW/carmel.png,GW/boulder.png,,,,,,,,,,,,,,,,,
1140.3999999761581,,rt_thecrossant_black,1030979,,black_plus_sign,,,,50,,,1,0.9826086956521739,,,,,,,,,,,,,,,
null,,color_black,1031079,,black_plus_sign,,,,null,,,,,,,,,,,,,,,,,,,
null,,learn_phase(without_color),1034081,,black_plus_sign,,,,null,GW/gatlinburg.png,GW/cornwall.png,,,,,,,,,,,,,,,,,
null,,black_cross(without_color),1035025,,yellow,,,,null,GW/gatlinburg.png,GW/cornwall.png,,,,,,,,,,,,,,,,,
null,,rt_plussign_withcolor,1035527,,yellow,,,,null,GW/gatlinburg.png,GW/cornwall.png,,,,,,,,,,,,,,,,,
1029.2999999523163,,rt_thecrossant_black,1036586,,black_plus_sign,,,,50,,,1,0.9827586206896551,,,,,,,,,,,,,,,
null,,color_black,1036687,,black_plus_sign,,,,null,,,,,,,,,,,,,,,,,,,
null,,learn_phase(without_color),1039689,,black_plus_sign,,,,null,GW/carmel.png,GW/newhope.png,,,,,,,,,,,,,,,,,
null,,black_cross(without_color),1040385,,yellow,,,,null,GW/carmel.png,GW/newhope.png,,,,,,,,,,,,,,,,,
null,,rt_plussign_withcolor,1040886,,yellow,,,,null,GW/carmel.png,GW/newhope.png,,,,,,,,,,,,,,,,,
1265.3999999761581,,rt_thecrossant_black,1042207,,black_plus_sign,,,,50,,,1,0.9829059829059829,,,,,,,,,,,,,,,
null,,color_black,1042308,,black_plus_sign,,,,null,,,,,,,,,,,,,,,,,,,
null,,learn_phase(without_color),1045309,,black_plus_sign,,,,null,GW/hanover.png,GW/huntsville.png,,,,,,,,,,,,,,,,,
null,,black_cross(without_color),1046111,,yellow,,,,null,GW/hanover.png,GW/huntsville.png,,,,,,,,,,,,,,,,,
null,,rt_plussign_withcolor,1046612,,yellow,,,,null,GW/hanover.png,GW/huntsville.png,,,,,,,,,,,,,,,,,
1050.5,,rt_thecrossant_black,1047813,,black_plus_sign,,,,50,,,1,0.9830508474576272,,,,,,,,,,,,,,,
null,,color_black,1047923,,black_plus_sign,,,,null,,,,,,,,,,,,,,,,,,,
null,,learn_phase(without_color),1050925,,black_plus_sign,,,,null,GW/peoria.png,GW/hotsprings.png,,,,,,,,,,,,,,,,,
null,,black_cross(without_color),1051919,,yellow,,,,null,GW/peoria.png,GW/hotsprings.png,,,,,,,,,,,,,,,,,
null,,rt_plussign_withcolor,1052420,,yellow,,,,null,GW/peoria.png,GW/hotsprings.png,,,,,,,,,,,,,,,,,
1051.7999999523163,,rt_thecrossant_black,1053429,,black_plus_sign,,,,50,,,1,0.9831932773109243,,,,,,,,,,,,,,,
null,,color_black,1053530,,black_plus_sign,,,,null,,,,,,,,,,,,,,,,,,,
null,,learn_phase(without_color),1056532,,black_plus_sign,,,,null,GW/cornwall.png,GW/hanover.png,,,,,,,,,,,,,,,,,
null,,black_cross(without_color),1057058,,yellow,,,,null,GW/cornwall.png,GW/hanover.png,,,,,,,,,,,,,,,,,
435.7000000476837,,rt_plussign_withcolor,1057559,,yellow,,,,50,GW/cornwall.png,GW/hanover.png,,,,,,,,,,,,,,,,,
null,,rt_thecrossant_black,1059037,,black_plus_sign,,,,null,,,1,0.9833333333333333,,,,,,,,,,,,,,,
null,,color_black,1059138,,black_plus_sign,,,,null,,,,,,,,,,,,,,,,,,,
null,,learn_phase(without_color),1062139,,black_plus_sign,,,,null,GW/cornwall.png,GW/hanover.png,,,,,,,,,,,,,,,,,
null,,black_cross(without_color),1062613,,yellow,,,,null,GW/cornwall.png,GW/hanover.png,,,,,,,,,,,,,,,,,
null,,rt_plussign_withcolor,1063114,,yellow,,,,null,GW/cornwall.png,GW/hanover.png,,,,,,,,,,,,,,,,,
676.2999999523163,,rt_thecrossant_black,1064658,,black_plus_sign,,,,50,,,1,0.9834710743801653,,,,,,,,,,,,,,,
null,,color_black,1064760,,black_plus_sign,,,,null,,,,,,,,,,,,,,,,,,,
null,,learn_phase(without_color),1067762,,black_plus_sign,,,,null,GW/boulder.png,GW/peoria.png,,,,,,,,,,,,,,,,,
null,,black_cross(without_color),1068456,,blue,,,,null,GW/boulder.png,GW/peoria.png,,,,,,,,,,,,,,,,,
null,,rt_plussign_withcolor,1068957,,blue,,,,null,GW/boulder.png,GW/peoria.png,,,,,,,,,,,,,,,,,
648.8999999761581,,rt_thecrossant_black,1070275,,black_plus_sign,,,,49,,,1,0.9836065573770492,,,,,,,,,,,,,,,
null,,color_black,1070377,,black_plus_sign,,,,null,,,,,,,,,,,,,,,,,,,
null,,learn_phase(without_color),1073379,,black_plus_sign,,,,null,GW/shreveport.png,GW/cornwall.png,,,,,,,,,,,,,,,,,
null,,black_cross(without_color),1074445,,yellow,,,,null,GW/shreveport.png,GW/cornwall.png,,,,,,,,,,,,,,,,,
null,,rt_plussign_withcolor,1074947,,yellow,,,,null,GW/shreveport.png,GW/cornwall.png,,,,,,,,,,,,,,,,,
1028.2999999523163,,rt_thecrossant_black,1075883,,black_plus_sign,,,,50,,,1,0.983739837398374,,,,,,,,,,,,,,,
null,,color_black,1075985,,black_plus_sign,,,,null,,,,,,,,,,,,,,,,,,,
null,,learn_phase(without_color),1078987,,black_plus_sign,,,,null,GW/peoria.png,GW/gatlinburg.png,,,,,,,,,,,,,,,,,
null,,black_cross(without_color),1079730,,blue,,,,null,GW/peoria.png,GW/gatlinburg.png,,,,,,,,,,,,,,,,,
null,,rt_plussign_withcolor,1080231,,blue,,,,null,GW/peoria.png,GW/gatlinburg.png,,,,,,,,,,,,,,,,,
1479.8999999761581,,rt_thecrossant_black,1081491,,black_plus_sign,,,,49,,,1,0.9838709677419355,,,,,,,,,,,,,,,
null,,color_black,1081595,,black_plus_sign,,,,null,,,,,,,,,,,,,,,,,,,
null,,learn_phase(without_color),1084596,,black_plus_sign,,,,null,GW/peoria.png,GW/boulder.png,,,,,,,,,,,,,,,,,
null,,black_cross(without_color),1085389,,blue,,,,null,GW/peoria.png,GW/boulder.png,,,,,,,,,,,,,,,,,
null,,rt_plussign_withcolor,1085891,,blue,,,,null,GW/peoria.png,GW/boulder.png,,,,,,,,,,,,,,,,,
1052.3000000715256,,rt_thecrossant_black,1087101,,black_plus_sign,,,,49,,,1,0.984,,,,,,,,,,,,,,,
null,,color_black,1087203,,black_plus_sign,,,,null,,,,,,,,,,,,,,,,,,,
null,,learn_phase(without_color),1090205,,black_plus_sign,,,,null,GW/hotsprings.png,GW/shreveport.png,,,,,,,,,,,,,,,,,
null,,black_cross(without_color),1090821,,blue,,,,null,GW/hotsprings.png,GW/shreveport.png,,,,,,,,,,,,,,,,,
null,,rt_plussign_withcolor,1091323,,blue,,,,null,GW/hotsprings.png,GW/shreveport.png,,,,,,,,,,,,,,,,,
1309.6999999284744,,rt_thecrossant_black,1092711,,black_plus_sign,,,,49,,,1,0.9841269841269841,,,,,,,,,,,,,,,
null,,color_black,1092812,,black_plus_sign,,,,null,,,,,,,,,,,,,,,,,,,
null,,learn_phase(without_color),1095814,,black_plus_sign,,,,null,GW/hanover.png,GW/cornwall.png,,,,,,,,,,,,,,,,,
null,,black_cross(without_color),1096766,,blue,,,,null,GW/hanover.png,GW/cornwall.png,,,,,,,,,,,,,,,,,
null,,rt_plussign_withcolor,1097267,,blue,,,,null,GW/hanover.png,GW/cornwall.png,,,,,,,,,,,,,,,,,
738.6000000238419,,rt_thecrossant_black,1098319,,black_plus_sign,,,,49,,,1,0.984251968503937,,,,,,,,,,,,,,,
null,,color_black,1098420,,black_plus_sign,,,,null,,,,,,,,,,,,,,,,,,,
30721.800000071526,,learn_break,1129142,,learn_break,,,,32,,,,,,,,,,,,,,,,,,,
24628.399999976158,,intro_1,1153771,,instruct,,0,Start,,,,,,,,,,,,,,,,,,,,
3229,,directmemory_phase,1157001,,GW/cornwall.png,,,,50,,,1,1,GW/huntsville.png,GW/shreveport.png,GW/carmel.png,GW/shreveport.png,GW/huntsville.png,GW/carmel.png,1,,,,,,,,
null,,html-keyboard-response,1158004,,<p></p>,,,,null,,,,,,,,,,,,,,,,,,,
2008.3999999761581,,directmemory_phase,1160013,,GW/hotsprings.png,,,,49,,,1,1,GW/peoria.png,GW/hanover.png,GW/cornwall.png,GW/peoria.png,GW/cornwall.png,GW/hanover.png,1,,,,,,,,
null,,html-keyboard-response,1161015,,<p></p>,,,,null,,,,,,,,,,,,,,,,,,,
2314.8000000715256,,directmemory_phase,1163330,,GW/shreveport.png,,,,49,,,1,1,GW/gatlinburg.png,GW/leesburg.png,GW/hanover.png,GW/gatlinburg.png,GW/hanover.png,GW/leesburg.png,1,,,,,,,,
null,,html-keyboard-response,1164332,,<p></p>,,,,null,,,,,,,,,,,,,,,,,,,
1935.6999999284744,,directmemory_phase,1166268,,GW/carmel.png,,,,49,,,1,1,GW/boulder.png,GW/hanover.png,GW/peoria.png,GW/boulder.png,GW/peoria.png,GW/hanover.png,1,,,,,,,,
null,,html-keyboard-response,1167270,,<p></p>,,,,null,,,,,,,,,,,,,,,,,,,
2363,,directmemory_phase,1169633,,GW/hanover.png,,,,50,,,1,1,GW/westpalmbeach.png,GW/gatlinburg.png,GW/carmel.png,GW/gatlinburg.png,GW/westpalmbeach.png,GW/carmel.png,1,,,,,,,,
null,,html-keyboard-response,1170635,,<p></p>,,,,null,,,,,,,,,,,,,,,,,,,
3244.600000023842,,directmemory_phase,1173880,,GW/boulder.png,,,,50,,,1,1,GW/racine.png,GW/carmel.png,GW/hanover.png,GW/carmel.png,GW/racine.png,GW/hanover.png,1,,,,,,,,
null,,html-keyboard-response,1174882,,<p></p>,,,,null,,,,,,,,,,,,,,,,,,,
1997.1000000238419,,directmemory_phase,1176880,,GW/huntsville.png,,,,51,,,1,1,GW/shreveport.png,GW/cornwall.png,GW/hanover.png,GW/hanover.png,GW/cornwall.png,GW/shreveport.png,1,,,,,,,,
null,,html-keyboard-response,1177881,,<p></p>,,,,null,,,,,,,,,,,,,,,,,,,
1636.1999999284744,,directmemory_phase,1179518,,GW/peoria.png,,,,51,,,1,1,GW/leesburg.png,GW/carmel.png,GW/hotsprings.png,GW/hotsprings.png,GW/carmel.png,GW/leesburg.png,1,,,,,,,,
null,,html-keyboard-response,1180520,,<p></p>,,,,null,,,,,,,,,,,,,,,,,,,
1977.8999999761581,,directmemory_phase,1182498,,GW/carmel.png,,,,51,,,1,1,GW/shreveport.png,GW/peoria.png,GW/newhope.png,GW/newhope.png,GW/peoria.png,GW/shreveport.png,1,,,,,,,,
null,,html-keyboard-response,1183500,,<p></p>,,,,null,,,,,,,,,,,,,,,,,,,
1928.5,,directmemory_phase,1185429,,GW/gatlinburg.png,,,,49,,,1,1,GW/peoria.png,GW/racine.png,GW/westpalmbeach.png,GW/peoria.png,GW/westpalmbeach.png,GW/racine.png,1,,,,,,,,
null,,html-keyboard-response,1186431,,<p></p>,,,,null,,,,,,,,,,,,,,,,,,,
1430.1000000238419,,directmemory_phase,1187861,,GW/racine.png,,,,50,,,1,1,GW/boulder.png,GW/carmel.png,GW/shreveport.png,GW/carmel.png,GW/boulder.png,GW/shreveport.png,1,,,,,,,,
null,,html-keyboard-response,1188863,,<p></p>,,,,null,,,,,,,,,,,,,,,,,,,
1565.3000000715256,,directmemory_phase,1190429,,GW/cornwall.png,,,,51,,,1,1,GW/leesburg.png,GW/huntsville.png,GW/hanover.png,GW/hanover.png,GW/huntsville.png,GW/leesburg.png,1,,,,,,,,
null,,html-keyboard-response,1191431,,<p></p>,,,,null,,,,,,,,,,,,,,,,,,,
2104.7000000476837,,directmemory_phase,1193536,,GW/boulder.png,,,,49,,,1,1,GW/peoria.png,GW/huntsville.png,GW/hotsprings.png,GW/peoria.png,GW/hotsprings.png,GW/huntsville.png,1,,,,,,,,
null,,html-keyboard-response,1194539,,<p></p>,,,,null,,,,,,,,,,,,,,,,,,,
1550.8999999761581,,directmemory_phase,1196090,,GW/hanover.png,,,,51,,,1,1,GW/newhope.png,GW/westpalmbeach.png,GW/cornwall.png,GW/cornwall.png,GW/westpalmbeach.png,GW/newhope.png,1,,,,,,,,
null,,html-keyboard-response,1197092,,<p></p>,,,,null,,,,,,,,,,,,,,,,,,,
1506.1999999284744,,directmemory_phase,1198599,,GW/peoria.png,,,,51,,,1,1,GW/racine.png,GW/carmel.png,GW/gatlinburg.png,GW/gatlinburg.png,GW/carmel.png,GW/racine.png,1,,,,,,,,
null,,html-keyboard-response,1199600,,<p></p>,,,,null,,,,,,,,,,,,,,,,,,,
1311.7000000476837,,directmemory_phase,1200913,,GW/carmel.png,,,,50,,,1,1,GW/leesburg.png,GW/racine.png,GW/shreveport.png,GW/racine.png,GW/leesburg.png,GW/shreveport.png,1,,,,,,,,
null,,html-keyboard-response,1201925,,<p></p>,,,,null,,,,,,,,,,,,,,,,,,,
1569.3999999761581,,directmemory_phase,1203495,,GW/gatlinburg.png,,,,51,,,1,1,GW/leesburg.png,GW/huntsville.png,GW/cornwall.png,GW/cornwall.png,GW/huntsville.png,GW/leesburg.png,1,,,,,,,,
null,,html-keyboard-response,1204497,,<p></p>,,,,null,,,,,,,,,,,,,,,,,,,
3547.399999976158,,directmemory_phase,1208045,,GW/peoria.png,,,,50,,,1,1,GW/cornwall.png,GW/boulder.png,GW/huntsville.png,GW/boulder.png,GW/cornwall.png,GW/huntsville.png,1,,,,,,,,
null,,html-keyboard-response,1209046,,<p></p>,,,,null,,,,,,,,,,,,,,,,,,,
1834.8000000715256,,directmemory_phase,1210882,,GW/gatlinburg.png,,,,49,,,1,1,GW/hanover.png,GW/leesburg.png,GW/huntsville.png,GW/hanover.png,GW/huntsville.png,GW/leesburg.png,1,,,,,,,,
null,,html-keyboard-response,1211883,,<p></p>,,,,null,,,,,,,,,,,,,,,,,,,
1642.8999999761581,,directmemory_phase,1213527,,GW/hotsprings.png,,,,49,,,1,1,GW/newhope.png,GW/westpalmbeach.png,GW/cornwall.png,GW/newhope.png,GW/cornwall.png,GW/westpalmbeach.png,1,,,,,,,,
null,,html-keyboard-response,1214529,,<p></p>,,,,null,,,,,,,,,,,,,,,,,,,
1659.3000000715256,,directmemory_phase,1216189,,GW/shreveport.png,,,,51,,,1,1,GW/carmel.png,GW/westpalmbeach.png,GW/cornwall.png,GW/cornwall.png,GW/westpalmbeach.png,GW/carmel.png,1,,,,,,,,
null,,html-keyboard-response,1217191,,<p></p>,,,,null,,,,,,,,,,,,,,,,,,,
1687.2000000476837,,directmemory_phase,1218879,,GW/leesburg.png,,,,50,,,1,1,GW/carmel.png,GW/newhope.png,GW/cornwall.png,GW/newhope.png,GW/carmel.png,GW/cornwall.png,1,,,,,,,,
null,,html-keyboard-response,1219880,,<p></p>,,,,null,,,,,,,,,,,,,,,,,,,
1531.8999999761581,,directmemory_phase,1221413,,GW/cornwall.png,,,,51,,,1,1,GW/newhope.png,GW/huntsville.png,GW/gatlinburg.png,GW/gatlinburg.png,GW/huntsville.png,GW/newhope.png,1,,,,,,,,
null,,html-keyboard-response,1222415,,<p></p>,,,,null,,,,,,,,,,,,,,,,,,,
1930,,directmemory_phase,1224345,,GW/newhope.png,,,,50,,,1,1,GW/racine.png,GW/leesburg.png,GW/gatlinburg.png,GW/leesburg.png,GW/racine.png,GW/gatlinburg.png,1,,,,,,,,
null,,html-keyboard-response,1225347,,<p></p>,,,,null,,,,,,,,,,,,,,,,,,,
1773.1000000238419,,directmemory_phase,1227121,,GW/gatlinburg.png,,,,51,,,1,1,GW/leesburg.png,GW/boulder.png,GW/shreveport.png,GW/shreveport.png,GW/boulder.png,GW/leesburg.png,1,,,,,,,,
null,,html-keyboard-response,1228122,,<p></p>,,,,null,,,,,,,,,,,,,,,,,,,
1962.6000000238419,,directmemory_phase,1230085,,GW/cornwall.png,,,,51,,,1,1,GW/boulder.png,GW/huntsville.png,GW/westpalmbeach.png,GW/westpalmbeach.png,GW/huntsville.png,GW/boulder.png,1,,,,,,,,
null,,html-keyboard-response,1231087,,<p></p>,,,,null,,,,,,,,,,,,,,,,,,,
2286,,directmemory_phase,1233374,,GW/shreveport.png,,,,51,,,1,1,GW/racine.png,GW/newhope.png,GW/hotsprings.png,GW/hotsprings.png,GW/newhope.png,GW/racine.png,1,,,,,,,,
null,,html-keyboard-response,1234379,,<p></p>,,,,null,,,,,,,,,,,,,,,,,,,
1673.4000000953674,,directmemory_phase,1236053,,GW/westpalmbeach.png,,,,50,,,1,1,GW/gatlinburg.png,GW/cornwall.png,GW/huntsville.png,GW/cornwall.png,GW/gatlinburg.png,GW/huntsville.png,1,,,,,,,,
null,,html-keyboard-response,1237054,,<p></p>,,,,null,,,,,,,,,,,,,,,,,,,
1462.7999999523163,,directmemory_phase,1238518,,GW/newhope.png,,,,49,,,1,1,GW/hotsprings.png,GW/westpalmbeach.png,GW/boulder.png,GW/hotsprings.png,GW/boulder.png,GW/westpalmbeach.png,1,,,,,,,,
null,,html-keyboard-response,1239519,,<p></p>,,,,null,,,,,,,,,,,,,,,,,,,
3232.5999999046326,,directmemory_phase,1242753,,GW/hanover.png,,,,51,,,1,1,GW/carmel.png,GW/shreveport.png,GW/huntsville.png,GW/huntsville.png,GW/shreveport.png,GW/carmel.png,1,,,,,,,,
null,,html-keyboard-response,1243755,,<p></p>,,,,null,,,,,,,,,,,,,,,,,,,
1596,,directmemory_phase,1245351,,GW/hotsprings.png,,,,49,,,1,1,GW/shreveport.png,GW/racine.png,GW/boulder.png,GW/shreveport.png,GW/boulder.png,GW/racine.png,1,,,,,,,,
null,,html-keyboard-response,1246353,,<p></p>,,,,null,,,,,,,,,,,,,,,,,,,
2240,,directmemory_phase,1248594,,GW/newhope.png,,,,51,,,1,1,GW/westpalmbeach.png,GW/racine.png,GW/carmel.png,GW/carmel.png,GW/racine.png,GW/westpalmbeach.png,1,,,,,,,,
null,,html-keyboard-response,1249597,,<p></p>,,,,null,,,,,,,,,,,,,,,,,,,
40385.39999997616,,intro_1,1289983,,instruct,,0,,,,,,,,,,,,,,,,,,,,,
10004,,intro_2,1299988,,instruct,,1,Next,,,,,,,,,,,,,,,,,,,,
3559.600000023842,,intro_3,1303548,,instruct,,1,Next,,,,,,,,,,,,,,,,,,,,
11369.800000071526,,intro_4,1314919,,instruct,,1,Next,,,,,,,,,,,,,,,,,,,,
41901.10000002384,,intro_5,1356821,,instruct,,1,Next,,,,,,,,,,,,,,,,,,,,
23011.099999904633,,intro_6,1379833,,instruct,,1,Next,,,,,,,,,,,,,,,,,,,,
20680.899999976158,,intro_7,1400515,,instruct,,0,Previous,,,,,,,,,,,,,,,,,,,,
31786.400000095367,,intro_6,1432303,,instruct,,1,Next,,,,,,,,,,,,,,,,,,,,
4882.199999928474,,intro_7,1437186,,instruct,,1,Next,,,,,,,,,,,,,,,,,,,,
10383.799999952316,,intro_8,1447571,,instruct,,1,Next,,,,,,,,,,,,,,,,,,,,
null,,shortestpath_phase,1455073,,GW/leesburg.png,,,,null,GW/hanover.png,GW/huntsville.png,0,0,,,,GW/hanover.png,,,,One Edge Diff,Five Edge Six Edge,,,,,,
null,,warning_page,1458075,,warning,,,,null,,,,,,,,,,,,,,,,,,,
null,,html-keyboard-response,1459077,,<p></p>,,,,null,,,,,,,,,,,,,,,,,,,
2612.8000000715256,,shortestpath_phase,1461690,,GW/shreveport.png,,,,49,GW/peoria.png,GW/leesburg.png,1,0.5,,,,GW/peoria.png,,,,One Edge Diff,Two Edge Three Edge,,,,,,
null,,html-keyboard-response,1462694,,<p></p>,,,,null,,,,,,,,,,,,,,,,,,,
5315.399999976158,,shortestpath_phase,1468010,,GW/boulder.png,,,,50,GW/huntsville.png,GW/leesburg.png,1,0.6666666666666666,,,,GW/leesburg.png,,,,One Edge Diff,Three Edge Four Edge,,,,,,
null,,html-keyboard-response,1469012,,<p></p>,,,,null,,,,,,,,,,,,,,,,,,,
3477.8000000715256,,shortestpath_phase,1472490,,GW/carmel.png,,,,50,GW/westpalmbeach.png,GW/hanover.png,1,0.75,,,,GW/hanover.png,,,,One Edge Diff,Four Edge Five Edge,,,,,,
null,,html-keyboard-response,1473491,,<p></p>,,,,null,,,,,,,,,,,,,,,,,,,
3679.600000023842,,shortestpath_phase,1477172,,GW/cornwall.png,,,,49,GW/hotsprings.png,GW/leesburg.png,1,0.8,,,,GW/hotsprings.png,,,,Two Edge Diff,Two Edge Four Edge,,,,,,
null,,html-keyboard-response,1478173,,<p></p>,,,,null,,,,,,,,,,,,,,,,,,,
3477.899999976158,,shortestpath_phase,1481652,,GW/hanover.png,,,,49,GW/shreveport.png,GW/racine.png,1,0.8333333333333334,,,,GW/shreveport.png,,,,Three Edge Diff,Three Edge Six Edge,,,,,,
null,,html-keyboard-response,1482653,,<p></p>,,,,null,,,,,,,,,,,,,,,,,,,
3359.2999999523163,,shortestpath_phase,1486013,,GW/huntsville.png,,,,49,GW/carmel.png,GW/racine.png,1,0.8571428571428571,,,,GW/carmel.png,,,,One Edge Diff,Five Edge Six Edge,,,,,,
null,,html-keyboard-response,1487014,,<p></p>,,,,null,,,,,,,,,,,,,,,,,,,
4026.5,,shortestpath_phase,1491041,,GW/racine.png,,,,50,GW/cornwall.png,GW/westpalmbeach.png,0,0.75,,,,GW/cornwall.png,,,,One Edge Diff,Five Edge Six Edge,,,,,,
null,,html-keyboard-response,1492047,,<p></p>,,,,null,,,,,,,,,,,,,,,,,,,
5478.600000023842,,shortestpath_phase,1497526,,GW/shreveport.png,,,,49,GW/hanover.png,GW/boulder.png,1,0.7777777777777778,,,,GW/hanover.png,,,,One Edge Diff,Two Edge Three Edge,,,,,,
null,,html-keyboard-response,1498528,,<p></p>,,,,null,,,,,,,,,,,,,,,,,,,
5953.100000023842,,shortestpath_phase,1504482,,GW/racine.png,,,,49,GW/boulder.png,GW/huntsville.png,1,0.8,,,,GW/boulder.png,,,,Four Edge Diff,Two Edge Six Edge,,,,,,
null,,html-keyboard-response,1505483,,<p></p>,,,,null,,,,,,,,,,,,,,,,,,,
3822,,shortestpath_phase,1509306,,GW/leesburg.png,,,,49,GW/gatlinburg.png,GW/huntsville.png,1,0.8181818181818182,,,,GW/gatlinburg.png,,,,Two Edge Diff,Four Edge Six Edge,,,,,,
null,,html-keyboard-response,1510308,,<p></p>,,,,null,,,,,,,,,,,,,,,,,,,
3345.399999976158,,shortestpath_phase,1513654,,GW/racine.png,,,,50,GW/hanover.png,GW/boulder.png,1,0.8333333333333334,,,,GW/boulder.png,,,,Three Edge Diff,Two Edge Five Edge,,,,,,
null,,html-keyboard-response,1514655,,<p></p>,,,,null,,,,,,,,,,,,,,,,,,,
4558.399999976158,,shortestpath_phase,1519214,,GW/leesburg.png,,,,50,GW/gatlinburg.png,GW/hanover.png,0,0.7692307692307693,,,,GW/gatlinburg.png,,,,One Edge Diff,Four Edge Five Edge,,,,,,
null,,html-keyboard-response,1520216,,<p></p>,,,,null,,,,,,,,,,,,,,,,,,,
4280.200000047684,,shortestpath_phase,1524497,,GW/hanover.png,,,,49,GW/boulder.png,GW/racine.png,1,0.7857142857142857,,,,GW/boulder.png,,,,Two Edge Diff,Three Edge Five Edge,,,,,,
null,,html-keyboard-response,1525499,,<p></p>,,,,null,,,,,,,,,,,,,,,,,,,
2888.2000000476837,,shortestpath_phase,1528387,,GW/westpalmbeach.png,,,,49,GW/newhope.png,GW/racine.png,1,0.8,,,,GW/newhope.png,,,,Two Edge Diff,Four Edge Six Edge,,,,,,
null,,html-keyboard-response,1529389,,<p></p>,,,,null,,,,,,,,,,,,,,,,,,,
4336.299999952316,,shortestpath_phase,1533726,,GW/cornwall.png,,,,50,GW/racine.png,GW/boulder.png,1,0.8125,,,,GW/boulder.png,,,,Two Edge Diff,Three Edge Five Edge,,,,,,
null,,html-keyboard-response,1534727,,<p></p>,,,,null,,,,,,,,,,,,,,,,,,,
5096.700000047684,,shortestpath_phase,1539825,,GW/huntsville.png,,,,50,GW/leesburg.png,GW/gatlinburg.png,1,0.8235294117647058,,,,GW/gatlinburg.png,,,,Four Edge Diff,Two Edge Six Edge,,,,,,
null,,html-keyboard-response,1540827,,<p></p>,,,,null,,,,,,,,,,,,,,,,,,,
5098.399999976158,,shortestpath_phase,1545926,,GW/carmel.png,,,,50,GW/huntsville.png,GW/peoria.png,1,0.8333333333333334,,,,GW/peoria.png,,,,Three Edge Diff,Two Edge Five Edge,,,,,,
null,,html-keyboard-response,1546927,,<p></p>,,,,null,,,,,,,,,,,,,,,,,,,
5717.899999976158,,shortestpath_phase,1552645,,GW/huntsville.png,,,,49,GW/westpalmbeach.png,GW/carmel.png,1,0.8421052631578947,,,,GW/westpalmbeach.png,,,,Two Edge Diff,Three Edge Five Edge,,,,,,
null,,html-keyboard-response,1553647,,<p></p>,,,,null,,,,,,,,,,,,,,,,,,,
5003.5,,shortestpath_phase,1558651,,GW/hotsprings.png,,,,49,GW/carmel.png,GW/westpalmbeach.png,1,0.85,,,,GW/carmel.png,,,,One Edge Diff,Two Edge Three Edge,,,,,,
null,,html-keyboard-response,1559653,,<p></p>,,,,null,,,,,,,,,,,,,,,,,,,
4311.100000023842,,shortestpath_phase,1563965,,GW/hanover.png,,,,49,GW/westpalmbeach.png,GW/racine.png,1,0.8571428571428571,,,,GW/westpalmbeach.png,,,,Three Edge Diff,Two Edge Five Edge,,,,,,
null,,html-keyboard-response,1564967,,<p></p>,,,,null,,,,,,,,,,,,,,,,,,,
5023.099999904633,,shortestpath_phase,1569991,,GW/huntsville.png,,,,49,GW/peoria.png,GW/carmel.png,1,0.8636363636363636,,,,GW/peoria.png,,,,Two Edge Diff,Three Edge Five Edge,,,,,,
null,,html-keyboard-response,1570992,,<p></p>,,,,null,,,,,,,,,,,,,,,,,,,
4124.299999952316,,shortestpath_phase,1575117,,GW/racine.png,,,,50,GW/cornwall.png,GW/boulder.png,1,0.8695652173913043,,,,GW/boulder.png,,,,Three Edge Diff,Three Edge Six Edge,,,,,,
null,,html-keyboard-response,1576119,,<p></p>,,,,null,,,,,,,,,,,,,,,,,,,
4644.600000023842,,shortestpath_phase,1580764,,GW/huntsville.png,,,,50,GW/newhope.png,GW/gatlinburg.png,1,0.875,,,,GW/gatlinburg.png,,,,Three Edge Diff,Three Edge Six Edge,,,,,,
null,,html-keyboard-response,1581766,,<p></p>,,,,null,,,,,,,,,,,,,,,,,,,
4976.299999952316,,shortestpath_phase,1586743,,GW/racine.png,,,,50,GW/huntsville.png,GW/newhope.png,1,0.88,,,,GW/newhope.png,,,,Four Edge Diff,Two Edge Six Edge,,,,,,
null,,html-keyboard-response,1587744,,<p></p>,,,,null,,,,,,,,,,,,,,,,,,,
4446.300000071526,,shortestpath_phase,1592191,,GW/cornwall.png,,,,49,GW/leesburg.png,GW/racine.png,1,0.8846153846153846,,,,GW/leesburg.png,,,,One Edge Diff,Four Edge Five Edge,,,,,,
null,,html-keyboard-response,1593193,,<p></p>,,,,null,,,,,,,,,,,,,,,,,,,
3388.2000000476837,,shortestpath_phase,1596582,,GW/boulder.png,,,,50,GW/westpalmbeach.png,GW/racine.png,1,0.8888888888888888,,,,GW/racine.png,,,,Two Edge Diff,Two Edge Four Edge,,,,,,
null,,html-keyboard-response,1597583,,<p></p>,,,,null,,,,,,,,,,,,,,,,,,,
4071.100000023842,,shortestpath_phase,1601655,,GW/cornwall.png,,,,50,GW/racine.png,GW/newhope.png,1,0.8928571428571429,,,,GW/newhope.png,,,,Two Edge Diff,Three Edge Five Edge,,,,,,
null,,html-keyboard-response,1602657,,<p></p>,,,,null,,,,,,,,,,,,,,,,,,,
3995.2000000476837,,shortestpath_phase,1606653,,GW/racine.png,,,,49,GW/boulder.png,GW/westpalmbeach.png,1,0.896551724137931,,,,GW/boulder.png,,,,Four Edge Diff,Two Edge Six Edge,,,,,,
null,,html-keyboard-response,1607654,,<p></p>,,,,null,,,,,,,,,,,,,,,,,,,
3715.6999999284744,,shortestpath_phase,1611371,,GW/huntsville.png,,,,49,GW/cornwall.png,GW/carmel.png,1,0.9,,,,GW/cornwall.png,,,,Three Edge Diff,Three Edge Six Edge,,,,,,
null,,html-keyboard-response,1612372,,<p></p>,,,,null,,,,,,,,,,,,,,,,,,,
4830.800000071526,,shortestpath_phase,1617204,,GW/racine.png,,,,50,GW/westpalmbeach.png,GW/shreveport.png,1,0.9032258064516129,,,,GW/shreveport.png,,,,Two Edge Diff,Four Edge Six Edge,,,,,,
null,,html-keyboard-response,1618205,,<p></p>,,,,null,,,,,,,,,,,,,,,,,,,
5662.200000047684,,shortestpath_phase,1623868,,GW/huntsville.png,,,,50,GW/hotsprings.png,GW/racine.png,0,0.875,,,,GW/hotsprings.png,,,,Two Edge Diff,Four Edge Six Edge,,,,,,
null,,html-keyboard-response,1624883,,<p></p>,,,,null,,,,,,,,,,,,,,,,,,,
4169.900000095367,,shortestpath_phase,1629054,,GW/carmel.png,,,,49,GW/leesburg.png,GW/westpalmbeach.png,1,0.8787878787878788,,,,GW/leesburg.png,,,,Three Edge Diff,Three Edge Six Edge,,,,,,
null,,html-keyboard-response,1630055,,<p></p>,,,,null,,,,,,,,,,,,,,,,,,,
3603.2000000476837,,shortestpath_phase,1633659,,GW/huntsville.png,,,,50,GW/leesburg.png,GW/cornwall.png,1,0.8823529411764706,,,,GW/cornwall.png,,,,Four Edge Diff,Two Edge Six Edge,,,,,,
null,,html-keyboard-response,1634661,,<p></p>,,,,null,,,,,,,,,,,,,,,,,,,
4470,,shortestpath_phase,1639132,,GW/westpalmbeach.png,,,,49,GW/gatlinburg.png,GW/leesburg.png,1,0.8857142857142857,,,,GW/gatlinburg.png,,,,Three Edge Diff,Two Edge Five Edge,,,,,,
null,,html-keyboard-response,1640134,,<p></p>,,,,null,,,,,,,,,,,,,,,,,,,
5153.100000023842,,shortestpath_phase,1645287,,GW/huntsville.png,,,,49,GW/hotsprings.png,GW/newhope.png,1,0.8888888888888888,,,,GW/hotsprings.png,,,,One Edge Diff,Four Edge Five Edge,,,,,,
null,,html-keyboard-response,1646289,,<p></p>,,,,null,,,,,,,,,,,,,,,,,,,
3917,,shortestpath_phase,1650206,,GW/carmel.png,,,,49,GW/gatlinburg.png,GW/westpalmbeach.png,1,0.8918918918918919,,,,GW/gatlinburg.png,,,,Two Edge Diff,Three Edge Five Edge,,,,,,
null,,html-keyboard-response,1651208,,<p></p>,,,,null,,,,,,,,,,,,,,,,,,,
3526.399999976158,,shortestpath_phase,1654735,,GW/westpalmbeach.png,,,,50,GW/racine.png,GW/shreveport.png,1,0.8947368421052632,,,,GW/shreveport.png,,,,Four Edge Diff,Two Edge Six Edge,,,,,,
null,,html-keyboard-response,1655737,,<p></p>,,,,null,,,,,,,,,,,,,,,,,,,
4875.899999976158,,shortestpath_phase,1660614,,GW/racine.png,,,,49,GW/huntsville.png,GW/gatlinburg.png,0,0.8717948717948718,,,,GW/gatlinburg.png,,,,Two Edge Diff,Four Edge Six Edge,,,,,,
null,,html-keyboard-response,1661615,,<p></p>,,,,null,,,,,,,,,,,,,,,,,,,
4794.600000023842,,shortestpath_phase,1666410,,GW/westpalmbeach.png,,,,49,GW/carmel.png,GW/racine.png,1,0.875,,,,GW/carmel.png,,,,One Edge Diff,Five Edge Six Edge,,,,,,
null,,html-keyboard-response,1667412,,<p></p>,,,,null,,,,,,,,,,,,,,,,,,,
6004.100000023842,,shortestpath_phase,1673416,,GW/leesburg.png,,,,50,GW/westpalmbeach.png,GW/gatlinburg.png,1,0.8780487804878049,,,,GW/gatlinburg.png,,,,One Edge Diff,Four Edge Five Edge,,,,,,
null,,html-keyboard-response,1674418,,<p></p>,,,,null,,,,,,,,,,,,,,,,,,,
5256.100000023842,,shortestpath_phase,1679675,,GW/carmel.png,,,,50,GW/hanover.png,GW/shreveport.png,1,0.8809523809523809,,,,GW/shreveport.png,,,,One Edge Diff,Three Edge Four Edge,,,,,,
null,,html-keyboard-response,1680676,,<p></p>,,,,null,,,,,,,,,,,,,,,,,,,
5021.5,,shortestpath_phase,1685699,,GW/racine.png,,,,49,GW/gatlinburg.png,GW/westpalmbeach.png,1,0.8837209302325582,,,,GW/gatlinburg.png,,,,Two Edge Diff,Four Edge Six Edge,,,,,,
null,,html-keyboard-response,1686701,,<p></p>,,,,null,,,,,,,,,,,,,,,,,,,
5006.399999976158,,shortestpath_phase,1691708,,GW/huntsville.png,,,,50,GW/racine.png,GW/newhope.png,1,0.8863636363636364,,,,GW/newhope.png,,,,One Edge Diff,Five Edge Six Edge,,,,,,
null,,html-keyboard-response,1692715,,<p></p>,,,,null,,,,,,,,,,,,,,,,,,,
5641.800000071526,,shortestpath_phase,1698358,,GW/leesburg.png,,,,50,GW/peoria.png,GW/cornwall.png,0,0.8666666666666667,,,,GW/peoria.png,,,,One Edge Diff,Three Edge Four Edge,,,,,,
null,,html-keyboard-response,1699359,,<p></p>,,,,null,,,,,,,,,,,,,,,,,,,
6404.899999976158,,shortestpath_phase,1705765,,GW/gatlinburg.png,,,,50,GW/newhope.png,GW/leesburg.png,0,0.8478260869565217,,,,GW/newhope.png,,,,One Edge Diff,Three Edge Four Edge,,,,,,
null,,html-keyboard-response,1706769,,<p></p>,,,,null,,,,,,,,,,,,,,,,,,,
6539.800000071526,,shortestpath_phase,1713310,,GW/huntsville.png,,,,50,GW/racine.png,GW/boulder.png,1,0.851063829787234,,,,GW/boulder.png,,,,Two Edge Diff,Four Edge Six Edge,,,,,,
null,,html-keyboard-response,1714312,,<p></p>,,,,null,,,,,,,,,,,,,,,,,,,
6910.599999904633,,shortestpath_phase,1721223,,GW/racine.png,,,,49,GW/newhope.png,GW/gatlinburg.png,1,0.8541666666666666,,,,GW/newhope.png,,,,Two Edge Diff,Two Edge Four Edge,,,,,,
null,,html-keyboard-response,1722225,,<p></p>,,,,null,,,,,,,,,,,,,,,,,,,
6913.100000023842,,shortestpath_phase,1729138,,GW/leesburg.png,,,,49,GW/huntsville.png,GW/westpalmbeach.png,0,0.8367346938775511,,,,GW/westpalmbeach.png,,,,One Edge Diff,Five Edge Six Edge,,,,,,
null,,html-keyboard-response,1730140,,<p></p>,,,,null,,,,,,,,,,,,,,,,,,,
6184.899999976158,,shortestpath_phase,1736325,,GW/racine.png,,,,50,GW/westpalmbeach.png,GW/newhope.png,1,0.84,,,,GW/newhope.png,,,,Four Edge Diff,Two Edge Six Edge,,,,,,
null,,html-keyboard-response,1737327,,<p></p>,,,,null,,,,,,,,,,,,,,,,,,,
6475.200000047684,,shortestpath_phase,1743803,,GW/carmel.png,,,,50,GW/westpalmbeach.png,GW/peoria.png,1,0.8431372549019608,,,,GW/peoria.png,,,,Three Edge Diff,Three Edge Six Edge,,,,,,
null,,html-keyboard-response,1744805,,<p></p>,,,,null,,,,,,,,,,,,,,,,,,,
3392,,shortestpath_phase,1748197,,GW/racine.png,,,,49,GW/boulder.png,GW/hanover.png,1,0.8461538461538461,,,,GW/boulder.png,,,,Three Edge Diff,Three Edge Six Edge,,,,,,
null,,html-keyboard-response,1749199,,<p></p>,,,,null,,,,,,,,,,,,,,,,,,,
4263.800000071526,,shortestpath_phase,1753463,,GW/leesburg.png,,,,49,GW/hotsprings.png,GW/huntsville.png,1,0.8490566037735849,,,,GW/hotsprings.png,,,,Four Edge Diff,Two Edge Six Edge,,,,,,
null,,html-keyboard-response,1754465,,<p></p>,,,,null,,,,,,,,,,,,,,,,,,,
3751.2000000476837,,shortestpath_phase,1758217,,GW/westpalmbeach.png,,,,49,GW/gatlinburg.png,GW/racine.png,1,0.8518518518518519,,,,GW/gatlinburg.png,,,,Four Edge Diff,Two Edge Six Edge,,,,,,
null,,html-keyboard-response,1759218,,<p></p>,,,,null,,,,,,,,,,,,,,,,,,,
4290.300000071526,,shortestpath_phase,1763509,,GW/carmel.png,,,,49,GW/leesburg.png,GW/hanover.png,1,0.8545454545454545,,,,GW/leesburg.png,,,,Two Edge Diff,Two Edge Four Edge,,,,,,
null,,html-keyboard-response,1764510,,<p></p>,,,,null,,,,,,,,,,,,,,,,,,,
3914.7000000476837,,shortestpath_phase,1768426,,GW/cornwall.png,,,,50,GW/racine.png,GW/hotsprings.png,1,0.8571428571428571,,,,GW/hotsprings.png,,,,Three Edge Diff,Two Edge Five Edge,,,,,,
null,,html-keyboard-response,1769428,,<p></p>,,,,null,,,,,,,,,,,,,,,,,,,
5253.800000071526,,shortestpath_phase,1774682,,GW/boulder.png,,,,49,GW/gatlinburg.png,GW/leesburg.png,1,0.8596491228070176,,,,GW/gatlinburg.png,,,,One Edge Diff,Two Edge Three Edge,,,,,,
null,,html-keyboard-response,1775684,,<p></p>,,,,null,,,,,,,,,,,,,,,,,,,
3773.5,,shortestpath_phase,1779458,,GW/leesburg.png,,,,49,GW/hotsprings.png,GW/shreveport.png,1,0.8620689655172413,,,,GW/hotsprings.png,,,,One Edge Diff,Two Edge Three Edge,,,,,,
null,,html-keyboard-response,1780459,,<p></p>,,,,null,,,,,,,,,,,,,,,,,,,
6566.299999952316,,shortestpath_phase,1787026,,GW/newhope.png,,,,49,GW/huntsville.png,GW/peoria.png,0,0.847457627118644,,,,GW/peoria.png,,,,Three Edge Diff,Two Edge Five Edge,,,,,,
null,,html-keyboard-response,1788028,,<p></p>,,,,null,,,,,,,,,,,,,,,,,,,
4815.199999928474,,shortestpath_phase,1792844,,GW/westpalmbeach.png,,,,49,GW/hanover.png,GW/carmel.png,1,0.85,,,,GW/hanover.png,,,,Three Edge Diff,Two Edge Five Edge,,,,,,
null,,html-keyboard-response,1793846,,<p></p>,,,,null,,,,,,,,,,,,,,,,,,,
4266.399999976158,,shortestpath_phase,1798113,,GW/newhope.png,,,,49,GW/racine.png,GW/huntsville.png,1,0.8524590163934426,,,,GW/racine.png,,,,Three Edge Diff,Two Edge Five Edge,,,,,,
null,,html-keyboard-response,1799115,,<p></p>,,,,null,,,,,,,,,,,,,,,,,,,
3200,,shortestpath_phase,1802316,,GW/hanover.png,,,,50,GW/leesburg.png,GW/peoria.png,1,0.8548387096774194,,,,GW/peoria.png,,,,Three Edge Diff,Three Edge Six Edge,,,,,,
null,,html-keyboard-response,1803331,,<p></p>,,,,null,,,,,,,,,,,,,,,,,,,
3281.6999999284744,,shortestpath_phase,1806614,,GW/leesburg.png,,,,50,GW/westpalmbeach.png,GW/hotsprings.png,1,0.8571428571428571,,,,GW/hotsprings.png,,,,Three Edge Diff,Two Edge Five Edge,,,,,,
null,,html-keyboard-response,1807615,,<p></p>,,,,null,,,,,,,,,,,,,,,,,,,
6360.299999952316,,shortestpath_phase,1813976,,GW/huntsville.png,,,,49,GW/racine.png,GW/cornwall.png,0,0.84375,,,,GW/cornwall.png,,,,Four Edge Diff,Two Edge Six Edge,,,,,,
null,,html-keyboard-response,1814978,,<p></p>,,,,null,,,,,,,,,,,,,,,,,,,
5002.399999976158,,shortestpath_phase,1819981,,GW/racine.png,,,,49,GW/hanover.png,GW/newhope.png,0,0.8307692307692308,,,,GW/newhope.png,,,,Three Edge Diff,Three Edge Six Edge,,,,,,
null,,html-keyboard-response,1820982,,<p></p>,,,,null,,,,,,,,,,,,,,,,,,,
5443.199999928474,,shortestpath_phase,1826426,,GW/huntsville.png,,,,49,GW/hotsprings.png,GW/westpalmbeach.png,0,0.8181818181818182,,,,GW/westpalmbeach.png,,,,One Edge Diff,Three Edge Four Edge,,,,,,
null,,html-keyboard-response,1827427,,<p></p>,,,,null,,,,,,,,,,,,,,,,,,,
5820.899999976158,,shortestpath_phase,1833249,,GW/racine.png,,,,49,GW/peoria.png,GW/hanover.png,1,0.8208955223880597,,,,GW/peoria.png,,,,Two Edge Diff,Three Edge Five Edge,,,,,,
null,,html-keyboard-response,1834250,,<p></p>,,,,null,,,,,,,,,,,,,,,,,,,
4226.200000047684,,shortestpath_phase,1838477,,GW/hotsprings.png,,,,50,GW/hanover.png,GW/carmel.png,1,0.8235294117647058,,,,GW/carmel.png,,,,One Edge Diff,Two Edge Three Edge,,,,,,
null,,html-keyboard-response,1839479,,<p></p>,,,,null,,,,,,,,,,,,,,,,,,,
5099,,shortestpath_phase,1844579,,GW/racine.png,,,,50,GW/huntsville.png,GW/shreveport.png,1,0.8260869565217391,,,,GW/shreveport.png,,,,Two Edge Diff,Four Edge Six Edge,,,,,,
null,,html-keyboard-response,1845580,,<p></p>,,,,null,,,,,,,,,,,,,,,,,,,
5588.299999952316,,shortestpath_phase,1851169,,GW/hanover.png,,,,49,GW/westpalmbeach.png,GW/leesburg.png,1,0.8285714285714286,,,,GW/westpalmbeach.png,,,,Three Edge Diff,Three Edge Six Edge,,,,,,
null,,html-keyboard-response,1852171,,<p></p>,,,,null,,,,,,,,,,,,,,,,,,,
3969.5,,shortestpath_phase,1856141,,GW/huntsville.png,,,,50,GW/racine.png,GW/gatlinburg.png,1,0.8309859154929577,,,,GW/gatlinburg.png,,,,Four Edge Diff,Two Edge Six Edge,,,,,,
null,,html-keyboard-response,1857142,,<p></p>,,,,null,,,,,,,,,,,,,,,,,,,
3494,,shortestpath_phase,1860637,,GW/hanover.png,,,,50,GW/leesburg.png,GW/westpalmbeach.png,1,0.8333333333333334,,,,GW/westpalmbeach.png,,,,Three Edge Diff,Two Edge Five Edge,,,,,,
null,,html-keyboard-response,1861639,,<p></p>,,,,null,,,,,,,,,,,,,,,,,,,
4876.800000071526,,shortestpath_phase,1866517,,GW/hotsprings.png,,,,50,GW/huntsville.png,GW/carmel.png,1,0.8356164383561644,,,,GW/carmel.png,,,,Two Edge Diff,Two Edge Four Edge,,,,,,
null,,html-keyboard-response,1867518,,<p></p>,,,,null,,,,,,,,,,,,,,,,,,,
4613.900000095367,,shortestpath_phase,1872133,,GW/newhope.png,,,,49,GW/cornwall.png,GW/westpalmbeach.png,1,0.8378378378378378,,,,GW/cornwall.png,,,,One Edge Diff,Three Edge Four Edge,,,,,,
null,,html-keyboard-response,1873134,,<p></p>,,,,null,,,,,,,,,,,,,,,,,,,
5952.399999976158,,shortestpath_phase,1879087,,GW/leesburg.png,,,,49,GW/huntsville.png,GW/carmel.png,0,0.8266666666666667,,,,GW/carmel.png,,,,Four Edge Diff,Two Edge Six Edge,,,,,,
null,,html-keyboard-response,1880089,,<p></p>,,,,null,,,,,,,,,,,,,,,,,,,
2828.0999999046326,,shortestpath_phase,1882918,,GW/westpalmbeach.png,,,,50,GW/leesburg.png,GW/hanover.png,1,0.8289473684210527,,,,GW/hanover.png,,,,Three Edge Diff,Two Edge Five Edge,,,,,,
null,,html-keyboard-response,1883921,,<p></p>,,,,null,,,,,,,,,,,,,,,,,,,
5790.200000047684,,shortestpath_phase,1889712,,GW/carmel.png,,,,49,GW/leesburg.png,GW/huntsville.png,1,0.8311688311688312,,,,GW/leesburg.png,,,,Three Edge Diff,Three Edge Six Edge,,,,,,
null,,html-keyboard-response,1890714,,<p></p>,,,,null,,,,,,,,,,,,,,,,,,,
4385.5,,shortestpath_phase,1895100,,GW/shreveport.png,,,,50,GW/racine.png,GW/hanover.png,1,0.8333333333333334,,,,GW/hanover.png,,,,Two Edge Diff,Two Edge Four Edge,,,,,,
null,,html-keyboard-response,1896102,,<p></p>,,,,null,,,,,,,,,,,,,,,,,,,
3801.7000000476837,,shortestpath_phase,1899904,,GW/leesburg.png,,,,50,GW/hanover.png,GW/cornwall.png,1,0.8354430379746836,,,,GW/cornwall.png,,,,One Edge Diff,Four Edge Five Edge,,,,,,
null,,html-keyboard-response,1900910,,<p></p>,,,,null,,,,,,,,,,,,,,,,,,,
3654.7999999523163,,shortestpath_phase,1904566,,GW/westpalmbeach.png,,,,50,GW/carmel.png,GW/shreveport.png,1,0.8375,,,,GW/shreveport.png,,,,Three Edge Diff,Three Edge Six Edge,,,,,,
null,,html-keyboard-response,1905567,,<p></p>,,,,null,,,,,,,,,,,,,,,,,,,
4071.600000023842,,shortestpath_phase,1909639,,GW/cornwall.png,,,,49,GW/huntsville.png,GW/leesburg.png,1,0.8395061728395061,,,,GW/huntsville.png,,,,Two Edge Diff,Two Edge Four Edge,,,,,,
null,,html-keyboard-response,1910641,,<p></p>,,,,null,,,,,,,,,,,,,,,,,,,
4017.7000000476837,,shortestpath_phase,1914659,,GW/leesburg.png,,,,50,GW/westpalmbeach.png,GW/carmel.png,1,0.8414634146341463,,,,GW/carmel.png,,,,Three Edge Diff,Two Edge Five Edge,,,,,,
null,,html-keyboard-response,1915661,,<p></p>,,,,null,,,,,,,,,,,,,,,,,,,
4215.5,,shortestpath_phase,1919877,,GW/huntsville.png,,,,49,GW/gatlinburg.png,GW/hotsprings.png,1,0.8433734939759037,,,,GW/gatlinburg.png,,,,Two Edge Diff,Two Edge Four Edge,,,,,,
null,,html-keyboard-response,1920879,,<p></p>,,,,null,,,,,,,,,,,,,,,,,,,
4635.700000047684,,shortestpath_phase,1925515,,GW/leesburg.png,,,,49,GW/peoria.png,GW/westpalmbeach.png,1,0.8452380952380952,,,,GW/peoria.png,,,,Two Edge Diff,Three Edge Five Edge,,,,,,
null,,html-keyboard-response,1926517,,<p></p>,,,,null,,,,,,,,,,,,,,,,,,,
4665,,intro_1,1931183,,instruct,,0,,,,,,,,,,,,,,,,,,,,,
6176.300000071526,,intro_2,1937360,,instruct,,1,Next,,,,,,,,,,,,,,,,,,,,
16944.600000023842,,intro_3,1954306,,instruct,,1,Next,,,,,,,,,,,,,,,,,,,,
8853.700000047684,,intro_4,1963161,,instruct,,1,Next,,,,,,,,,,,,,,,,,,,,
10460.5,,intro_5,1973623,,instruct,,1,Next,,,,,,,,,,,,,,,,,,,,
8612.299999952316,,intro_6,1982236,,instruct,,1,Next,,,,,,,,,,,,,,,,,,,,
,,Goal Directed Planning,2213792,,GDP-0,,,,,,,,,,,,,,,,,,shreveport.png,westpalmbeach.png,,undefineddrag03imgL:[x1:191.5078125 x2:74 y1:218.609375 y2:210]drag03drag11:[x1:191.5078125 x2:359.5078125 y1:218.609375 y2:225.609375]drag11drag09:[x1:359.5078125 x2:520.5078125 y1:225.609375 y2:229.609375]drag09drag07:[x1:520.5078125 x2:943.5078125 y1:229.609375 y2:212.609375]drag07imgR:[x1:943.5078125 x2:1074 y1:212.609375 y2:210],false,
,,Goal Directed Planning,2300999,,GDP-1,,,,,,,,,,,,,,,,,,shreveport.png,boulder.png,,undefinedimgRdrag11:[x1:1074 x2:940.5 y1:210 y2:211.609375]drag09drag11:[x1:769.5 x2:942 y1:212.609375 y2:212]drag09imgL:[x1:769.5 x2:74 y1:212.609375 y2:210],false,
,,Goal Directed Planning,2345803,,GDP-2,,,,,,,,,,,,,,,,,,racine.png,westpalmbeach.png,,undefinedimgLdrag04:[x1:74 x2:222.5 y1:210 y2:198.609375]drag04drag12:[x1:222.5 x2:345.5 y1:198.609375 y2:203.609375]drag12drag11:[x1:345.5 x2:490.5 y1:203.609375 y2:198.609375]drag09drag11:[x1:652.5 x2:491 y1:211.609375 y2:200]drag09drag07:[x1:652.5 x2:800.5 y1:211.609375 y2:201.609375]drag07imgR:[x1:800.5 x2:1074 y1:201.609375 y2:210],false,
,,Goal Directed Planning,2379717,,GDP-3,,,,,,,,,,,,,,,,,,leesburg.png,boulder.png,,undefinedimgLdrag02:[x1:74 x2:235.5 y1:210 y2:209.609375]drag02drag04:[x1:235.5 x2:357.5 y1:209.609375 y2:232.609375]drag04imgR:[x1:357.5 x2:1074 y1:232.609375 y2:210],false,
