rt,responses,trial_type,time_elapsed,sequence,stimulus,graphorder,button_pressed,response,key_press,stimulus_left,stimulus_right,accuracy,cumulative_accuracy,stimulus_down_left,stimulus_down_mid,stimulus_down_right,stimulus_correct,stimulus_short,stimulus_far,weighted_accuracy,missedtrial,condition,specific_pairs,imgL_ID,imgR_ID,linedress,linedressed,detour_trial,linedressed_detor
2386.5,{worker_id:5fd955152dc9172302e1d605},id_enter,2388,interleaved,replication,GW/hanover.png; GW/leesburg.png; GW/racine.png; GW/huntsville.png; GW/newhope.png; GW/gatlinburg.png; GW/hotsprings.png; GW/cornwall.png; GW/boulder.png; GW/peoria.png; GW/carmel.png; GW/shreveport.png; GW/westpalmbeach.png,,,,,,,,,,,,,,,,,,,,,,,
6107.29999999702,,fullscreen,8497,,fullscreen,,0,,,,,,,,,,,,,,,,,,,,,,
7425.600000008941,,intro_1,15926,,instruct,,0,,,,,,,,,,,,,,,,,,,,,,
5859.79999999702,,intro_2,21788,,instruct,,1,Next,,,,,,,,,,,,,,,,,,,,,
5832,,intro_3,27622,,instruct,,1,Next,,,,,,,,,,,,,,,,,,,,,
null,,learn_prac_1,30624,,lean_prac_1,,,,null,,,,,,,,,,,,,,,,,,,,
null,,html-keyboard-response,31628,,<p></p>,,,,null,,,,,,,,,,,,,,,,,,,,
3674.5,,intro_1,35304,,instruct,,0,,,,,,,,,,,,,,,,,,,,,,
4164.9000000059605,,intro_2,39471,,instruct,,1,Next,,,,,,,,,,,,,,,,,,,,,
null,,learn_prac_2,42473,,lean_prac_2,,,,null,,,,,,,,,,,,,,,,,,,,
null,,html-keyboard-response,43476,,<p></p>,,,,null,,,,,,,,,,,,,,,,,,,,
1618.5999999940395,,intro_1,45096,,instruct,,0,,,,,,,,,,,,,,,,,,,,,,
2661.0999999940395,,intro_2,47759,,instruct,,1,Next,,,,,,,,,,,,,,,,,,,,,
10335.79999999702,,intro_3,58096,,instruct,,1,Next,,,,,,,,,,,,,,,,,,,,,
null,,prac_atten_color_black,58613,,black_plus_sign,,,,null,,,,,,,,,,,,,,,,,,,,
null,,prac_atten_color,59502,,prac_stop_color,,,,null,,,,,,,,,,,,,,,,,,,,
734.2999999970198,,prac_atten_color_black,61506,,black_plus_sign,,,,49,,,,,,,,,,,,,,,,,,,,
null,,prac_atten_color_black,62022,,black_plus_sign,,,,null,,,,,,,,,,,,,,,,,,,,
565.7000000029802,,prac_atten_color,62964,,prac_stop_color,,,,50,,,,,,,,,,,,,,,,,,,,
null,,prac_atten_color_black,64967,,black_plus_sign,,,,null,,,,,,,,,,,,,,,,,,,,
null,,prac_atten_color_black,65430,,black_plus_sign,,,,null,,,,,,,,,,,,,,,,,,,,
null,,prac_atten_color,65845,,prac_stop_color,,,,null,,,,,,,,,,,,,,,,,,,,
52.5,,prac_atten_color_black,67848,,black_plus_sign,,,,50,,,,,,,,,,,,,,,,,,,,
null,,prac_atten_color_black,68838,,black_plus_sign,,,,null,,,,,,,,,,,,,,,,,,,,
485.6000000089407,,prac_atten_color,69665,,prac_stop_color,,,,49,,,,,,,,,,,,,,,,,,,,
null,,prac_atten_color_black,71667,,black_plus_sign,,,,null,,,,,,,,,,,,,,,,,,,,
null,,prac_atten_color_black,72246,,black_plus_sign,,,,null,,,,,,,,,,,,,,,,,,,,
381.5,,prac_atten_color,73021,,prac_stop_color,,,,50,,,,,,,,,,,,,,,,,,,,
null,,prac_atten_color_black,75024,,black_plus_sign,,,,null,,,,,,,,,,,,,,,,,,,,
null,,prac_atten_color_black,75655,,black_plus_sign,,,,null,,,,,,,,,,,,,,,,,,,,
490.3999999910593,,prac_atten_color,76157,,prac_stop_color,,,,50,,,,,,,,,,,,,,,,,,,,
null,,prac_atten_color_black,78160,,black_plus_sign,,,,null,,,,,,,,,,,,,,,,,,,,
null,,prac_atten_color_black,79064,,black_plus_sign,,,,null,,,,,,,,,,,,,,,,,,,,
382.19999998807907,,prac_atten_color,79959,,prac_stop_color,,,,49,,,,,,,,,,,,,,,,,,,,
null,,prac_atten_color_black,81961,,black_plus_sign,,,,null,,,,,,,,,,,,,,,,,,,,
null,,prac_atten_color_black,82472,,black_plus_sign,,,,null,,,,,,,,,,,,,,,,,,,,
325.80000001192093,,prac_atten_color,82975,,prac_stop_color,,,,50,,,,,,,,,,,,,,,,,,,,
null,,prac_atten_color_black,84978,,black_plus_sign,,,,null,,,,,,,,,,,,,,,,,,,,
null,,prac_atten_color_black,85882,,black_plus_sign,,,,null,,,,,,,,,,,,,,,,,,,,
null,,prac_atten_color,86346,,prac_stop_color,,,,null,,,,,,,,,,,,,,,,,,,,
35.20000000298023,,prac_atten_color_black,88349,,black_plus_sign,,,,49,,,,,,,,,,,,,,,,,,,,
null,,prac_atten_color_black,89289,,black_plus_sign,,,,null,,,,,,,,,,,,,,,,,,,,
454.40000000596046,,prac_atten_color,89780,,prac_stop_color,,,,49,,,,,,,,,,,,,,,,,,,,
null,,prac_atten_color_black,91782,,black_plus_sign,,,,null,,,,,,,,,,,,,,,,,,,,
3639.8999999910593,,attentioncheck_feedback,95425,,cross_check_feedback,,0,,,,,,,,,,,,,,,,,,,,,,
11070.90000000596,,last_instruct,106497,,instruct,,,,32,,,,,,,,,,,,,,,,,,,,
null,,learn_phase(without_color),109500,,black_plus_sign,,,,null,GW/gatlinburg.png,GW/racine.png,,,,,,,,,,,,,,,,,,
null,,black_cross(without_color),110140,,blue,,,,null,GW/gatlinburg.png,GW/racine.png,,,,,,,,,,,,,,,,,,
null,,rt_plussign_withcolor,110643,,blue,,,,null,GW/gatlinburg.png,GW/racine.png,,,,,,,,,,,,,,,,,,
863.4000000059605,,rt_thecrossant_black,112010,,black_plus_sign,,,,49,,,1,1,,,,,,,,,,,,,,,,
null,,color_black,112113,,black_plus_sign,,,,null,,,,,,,,,,,,,,,,,,,,
null,,learn_phase(without_color),115116,,black_plus_sign,,,,null,GW/boulder.png,GW/gatlinburg.png,,,,,,,,,,,,,,,,,,
null,,black_cross(without_color),115921,,blue,,,,null,GW/boulder.png,GW/gatlinburg.png,,,,,,,,,,,,,,,,,,
476.40000000596046,,rt_plussign_withcolor,116424,,blue,,,,49,GW/boulder.png,GW/gatlinburg.png,,,,,,,,,,,,,,,,,,
null,,rt_thecrossant_black,117625,,black_plus_sign,,,,null,,,1,1,,,,,,,,,,,,,,,,
null,,color_black,117728,,black_plus_sign,,,,null,,,,,,,,,,,,,,,,,,,,
null,,learn_phase(without_color),120731,,black_plus_sign,,,,null,GW/leesburg.png,GW/racine.png,,,,,,,,,,,,,,,,,,
null,,black_cross(without_color),121527,,yellow,,,,null,GW/leesburg.png,GW/racine.png,,,,,,,,,,,,,,,,,,
null,,rt_plussign_withcolor,122029,,yellow,,,,null,GW/leesburg.png,GW/racine.png,,,,,,,,,,,,,,,,,,
1265.0999999940395,,rt_thecrossant_black,123239,,black_plus_sign,,,,50,,,1,1,,,,,,,,,,,,,,,,
null,,color_black,123342,,black_plus_sign,,,,null,,,,,,,,,,,,,,,,,,,,
null,,learn_phase(without_color),126345,,black_plus_sign,,,,null,GW/cornwall.png,GW/peoria.png,,,,,,,,,,,,,,,,,,
null,,black_cross(without_color),127126,,blue,,,,null,GW/cornwall.png,GW/peoria.png,,,,,,,,,,,,,,,,,,
428,,rt_plussign_withcolor,127628,,blue,,,,49,GW/cornwall.png,GW/peoria.png,,,,,,,,,,,,,,,,,,
null,,rt_thecrossant_black,128853,,black_plus_sign,,,,null,,,1,1,,,,,,,,,,,,,,,,
null,,color_black,128957,,black_plus_sign,,,,null,,,,,,,,,,,,,,,,,,,,
null,,learn_phase(without_color),131960,,black_plus_sign,,,,null,GW/huntsville.png,GW/shreveport.png,,,,,,,,,,,,,,,,,,
null,,black_cross(without_color),132634,,blue,,,,null,GW/huntsville.png,GW/shreveport.png,,,,,,,,,,,,,,,,,,
null,,rt_plussign_withcolor,133136,,blue,,,,null,GW/huntsville.png,GW/shreveport.png,,,,,,,,,,,,,,,,,,
1010.3000000119209,,rt_thecrossant_black,134469,,black_plus_sign,,,,49,,,1,1,,,,,,,,,,,,,,,,
null,,color_black,134572,,black_plus_sign,,,,null,,,,,,,,,,,,,,,,,,,,
null,,learn_phase(without_color),137576,,black_plus_sign,,,,null,GW/newhope.png,GW/huntsville.png,,,,,,,,,,,,,,,,,,
null,,black_cross(without_color),138204,,yellow,,,,null,GW/newhope.png,GW/huntsville.png,,,,,,,,,,,,,,,,,,
null,,rt_plussign_withcolor,138707,,yellow,,,,null,GW/newhope.png,GW/huntsville.png,,,,,,,,,,,,,,,,,,
883.5,,rt_thecrossant_black,140084,,black_plus_sign,,,,50,,,1,1,,,,,,,,,,,,,,,,
null,,color_black,140187,,black_plus_sign,,,,null,,,,,,,,,,,,,,,,,,,,
null,,learn_phase(without_color),143191,,black_plus_sign,,,,null,GW/gatlinburg.png,GW/hotsprings.png,,,,,,,,,,,,,,,,,,
null,,black_cross(without_color),144057,,blue,,,,null,GW/gatlinburg.png,GW/hotsprings.png,,,,,,,,,,,,,,,,,,
386.29999999701977,,rt_plussign_withcolor,144559,,blue,,,,49,GW/gatlinburg.png,GW/hotsprings.png,,,,,,,,,,,,,,,,,,
null,,rt_thecrossant_black,145699,,black_plus_sign,,,,null,,,1,1,,,,,,,,,,,,,,,,
null,,color_black,145801,,black_plus_sign,,,,null,,,,,,,,,,,,,,,,,,,,
null,,learn_phase(without_color),148805,,black_plus_sign,,,,null,GW/carmel.png,GW/boulder.png,,,,,,,,,,,,,,,,,,
null,,black_cross(without_color),149211,,blue,,,,null,GW/carmel.png,GW/boulder.png,,,,,,,,,,,,,,,,,,
null,,rt_plussign_withcolor,149714,,blue,,,,null,GW/carmel.png,GW/boulder.png,,,,,,,,,,,,,,,,,,
1177.5,,rt_thecrossant_black,151313,,black_plus_sign,,,,49,,,1,1,,,,,,,,,,,,,,,,
null,,color_black,151416,,black_plus_sign,,,,null,,,,,,,,,,,,,,,,,,,,
null,,learn_phase(without_color),154420,,black_plus_sign,,,,null,GW/cornwall.png,GW/peoria.png,,,,,,,,,,,,,,,,,,
null,,black_cross(without_color),155222,,yellow,,,,null,GW/cornwall.png,GW/peoria.png,,,,,,,,,,,,,,,,,,
null,,rt_plussign_withcolor,155724,,yellow,,,,null,GW/cornwall.png,GW/peoria.png,,,,,,,,,,,,,,,,,,
513.6000000089407,,rt_thecrossant_black,156928,,black_plus_sign,,,,50,,,1,1,,,,,,,,,,,,,,,,
null,,color_black,157031,,black_plus_sign,,,,null,,,,,,,,,,,,,,,,,,,,
null,,learn_phase(without_color),160034,,black_plus_sign,,,,null,GW/newhope.png,GW/huntsville.png,,,,,,,,,,,,,,,,,,
null,,black_cross(without_color),160535,,yellow,,,,null,GW/newhope.png,GW/huntsville.png,,,,,,,,,,,,,,,,,,
365,,rt_plussign_withcolor,161037,,yellow,,,,50,GW/newhope.png,GW/huntsville.png,,,,,,,,,,,,,,,,,,
null,,rt_thecrossant_black,162542,,black_plus_sign,,,,null,,,1,1,,,,,,,,,,,,,,,,
null,,color_black,162646,,black_plus_sign,,,,null,,,,,,,,,,,,,,,,,,,,
null,,learn_phase(without_color),165650,,black_plus_sign,,,,null,GW/peoria.png,GW/cornwall.png,,,,,,,,,,,,,,,,,,
null,,black_cross(without_color),166388,,yellow,,,,null,GW/peoria.png,GW/cornwall.png,,,,,,,,,,,,,,,,,,
439.69999998807907,,rt_plussign_withcolor,166891,,yellow,,,,50,GW/peoria.png,GW/cornwall.png,,,,,,,,,,,,,,,,,,
null,,rt_thecrossant_black,168158,,black_plus_sign,,,,null,,,1,1,,,,,,,,,,,,,,,,
null,,color_black,168262,,black_plus_sign,,,,null,,,,,,,,,,,,,,,,,,,,
null,,learn_phase(without_color),171265,,black_plus_sign,,,,null,GW/huntsville.png,GW/leesburg.png,,,,,,,,,,,,,,,,,,
null,,black_cross(without_color),171858,,yellow,,,,null,GW/huntsville.png,GW/leesburg.png,,,,,,,,,,,,,,,,,,
465.09999999403954,,rt_plussign_withcolor,172360,,yellow,,,,50,GW/huntsville.png,GW/leesburg.png,,,,,,,,,,,,,,,,,,
null,,rt_thecrossant_black,173774,,black_plus_sign,,,,null,,,1,1,,,,,,,,,,,,,,,,
null,,color_black,173877,,black_plus_sign,,,,null,,,,,,,,,,,,,,,,,,,,
null,,learn_phase(without_color),176881,,black_plus_sign,,,,null,GW/shreveport.png,GW/carmel.png,,,,,,,,,,,,,,,,,,
null,,black_cross(without_color),177507,,blue,,,,null,GW/shreveport.png,GW/carmel.png,,,,,,,,,,,,,,,,,,
null,,rt_plussign_withcolor,178010,,blue,,,,null,GW/shreveport.png,GW/carmel.png,,,,,,,,,,,,,,,,,,
1043.0999999940395,,rt_thecrossant_black,179389,,black_plus_sign,,,,49,,,1,1,,,,,,,,,,,,,,,,
null,,color_black,179492,,black_plus_sign,,,,null,,,,,,,,,,,,,,,,,,,,
null,,learn_phase(without_color),182495,,black_plus_sign,,,,null,GW/boulder.png,GW/gatlinburg.png,,,,,,,,,,,,,,,,,,
null,,black_cross(without_color),182956,,yellow,,,,null,GW/boulder.png,GW/gatlinburg.png,,,,,,,,,,,,,,,,,,
436.3999999910593,,rt_plussign_withcolor,183458,,yellow,,,,50,GW/boulder.png,GW/gatlinburg.png,,,,,,,,,,,,,,,,,,
null,,rt_thecrossant_black,185004,,black_plus_sign,,,,null,,,1,1,,,,,,,,,,,,,,,,
null,,color_black,185106,,black_plus_sign,,,,null,,,,,,,,,,,,,,,,,,,,
null,,learn_phase(without_color),188109,,black_plus_sign,,,,null,GW/gatlinburg.png,GW/racine.png,,,,,,,,,,,,,,,,,,
null,,black_cross(without_color),188826,,yellow,,,,null,GW/gatlinburg.png,GW/racine.png,,,,,,,,,,,,,,,,,,
381.30000001192093,,rt_plussign_withcolor,189328,,yellow,,,,50,GW/gatlinburg.png,GW/racine.png,,,,,,,,,,,,,,,,,,
null,,rt_thecrossant_black,190617,,black_plus_sign,,,,null,,,1,1,,,,,,,,,,,,,,,,
null,,color_black,190720,,black_plus_sign,,,,null,,,,,,,,,,,,,,,,,,,,
null,,learn_phase(without_color),193723,,black_plus_sign,,,,null,GW/boulder.png,GW/hotsprings.png,,,,,,,,,,,,,,,,,,
null,,black_cross(without_color),194798,,yellow,,,,null,GW/boulder.png,GW/hotsprings.png,,,,,,,,,,,,,,,,,,
467.5,,rt_plussign_withcolor,195300,,yellow,,,,50,GW/boulder.png,GW/hotsprings.png,,,,,,,,,,,,,,,,,,
null,,rt_thecrossant_black,196232,,black_plus_sign,,,,null,,,1,1,,,,,,,,,,,,,,,,
null,,color_black,196336,,black_plus_sign,,,,null,,,,,,,,,,,,,,,,,,,,
null,,learn_phase(without_color),199339,,black_plus_sign,,,,null,GW/shreveport.png,GW/huntsville.png,,,,,,,,,,,,,,,,,,
null,,black_cross(without_color),200197,,yellow,,,,null,GW/shreveport.png,GW/huntsville.png,,,,,,,,,,,,,,,,,,
379.79999999701977,,rt_plussign_withcolor,200700,,yellow,,,,50,GW/shreveport.png,GW/huntsville.png,,,,,,,,,,,,,,,,,,
null,,rt_thecrossant_black,201847,,black_plus_sign,,,,null,,,1,1,,,,,,,,,,,,,,,,
null,,color_black,201950,,black_plus_sign,,,,null,,,,,,,,,,,,,,,,,,,,
null,,learn_phase(without_color),204953,,black_plus_sign,,,,null,GW/huntsville.png,GW/leesburg.png,,,,,,,,,,,,,,,,,,
null,,black_cross(without_color),205953,,blue,,,,null,GW/huntsville.png,GW/leesburg.png,,,,,,,,,,,,,,,,,,
null,,rt_plussign_withcolor,206456,,blue,,,,null,GW/huntsville.png,GW/leesburg.png,,,,,,,,,,,,,,,,,,
1060.6000000089407,,rt_thecrossant_black,207461,,black_plus_sign,,,,49,,,1,1,,,,,,,,,,,,,,,,
null,,color_black,207563,,black_plus_sign,,,,null,,,,,,,,,,,,,,,,,,,,
null,,learn_phase(without_color),210567,,black_plus_sign,,,,null,GW/racine.png,GW/carmel.png,,,,,,,,,,,,,,,,,,
null,,black_cross(without_color),211218,,yellow,,,,null,GW/racine.png,GW/carmel.png,,,,,,,,,,,,,,,,,,
null,,rt_plussign_withcolor,211720,,yellow,,,,null,GW/racine.png,GW/carmel.png,,,,,,,,,,,,,,,,,,
1144.2000000029802,,rt_thecrossant_black,213076,,black_plus_sign,,,,50,,,1,1,,,,,,,,,,,,,,,,
null,,color_black,213178,,black_plus_sign,,,,null,,,,,,,,,,,,,,,,,,,,
null,,learn_phase(without_color),216181,,black_plus_sign,,,,null,GW/hotsprings.png,GW/cornwall.png,,,,,,,,,,,,,,,,,,
null,,black_cross(without_color),216906,,blue,,,,null,GW/hotsprings.png,GW/cornwall.png,,,,,,,,,,,,,,,,,,
496,,rt_plussign_withcolor,217408,,blue,,,,49,GW/hotsprings.png,GW/cornwall.png,,,,,,,,,,,,,,,,,,
null,,rt_thecrossant_black,218689,,black_plus_sign,,,,null,,,1,1,,,,,,,,,,,,,,,,
null,,color_black,218791,,black_plus_sign,,,,null,,,,,,,,,,,,,,,,,,,,
null,,learn_phase(without_color),221794,,black_plus_sign,,,,null,GW/boulder.png,GW/cornwall.png,,,,,,,,,,,,,,,,,,
null,,black_cross(without_color),222377,,blue,,,,null,GW/boulder.png,GW/cornwall.png,,,,,,,,,,,,,,,,,,
null,,rt_plussign_withcolor,222879,,blue,,,,null,GW/boulder.png,GW/cornwall.png,,,,,,,,,,,,,,,,,,
847,,rt_thecrossant_black,224302,,black_plus_sign,,,,50,,,0,0.9523809523809523,,,,,,,,,,,,,,,,
null,,color_black,224405,,black_plus_sign,,,,null,,,,,,,,,,,,,,,,,,,,
null,,learn_phase(without_color),227408,,black_plus_sign,,,,null,GW/hotsprings.png,GW/westpalmbeach.png,,,,,,,,,,,,,,,,,,
null,,black_cross(without_color),228114,,blue,,,,null,GW/hotsprings.png,GW/westpalmbeach.png,,,,,,,,,,,,,,,,,,
null,,rt_plussign_withcolor,228617,,blue,,,,null,GW/hotsprings.png,GW/westpalmbeach.png,,,,,,,,,,,,,,,,,,
692.8000000119209,,rt_thecrossant_black,229917,,black_plus_sign,,,,49,,,1,0.9545454545454546,,,,,,,,,,,,,,,,
null,,color_black,230019,,black_plus_sign,,,,null,,,,,,,,,,,,,,,,,,,,
null,,learn_phase(without_color),233021,,black_plus_sign,,,,null,GW/leesburg.png,GW/huntsville.png,,,,,,,,,,,,,,,,,,
null,,black_cross(without_color),233633,,blue,,,,null,GW/leesburg.png,GW/huntsville.png,,,,,,,,,,,,,,,,,,
null,,rt_plussign_withcolor,234135,,blue,,,,null,GW/leesburg.png,GW/huntsville.png,,,,,,,,,,,,,,,,,,
911.4000000059605,,rt_thecrossant_black,235530,,black_plus_sign,,,,49,,,1,0.9565217391304348,,,,,,,,,,,,,,,,
null,,color_black,235632,,black_plus_sign,,,,null,,,,,,,,,,,,,,,,,,,,
null,,learn_phase(without_color),238636,,black_plus_sign,,,,null,GW/peoria.png,GW/cornwall.png,,,,,,,,,,,,,,,,,,
null,,black_cross(without_color),239672,,yellow,,,,null,GW/peoria.png,GW/cornwall.png,,,,,,,,,,,,,,,,,,
434.8999999910593,,rt_plussign_withcolor,240175,,yellow,,,,50,GW/peoria.png,GW/cornwall.png,,,,,,,,,,,,,,,,,,
null,,rt_thecrossant_black,241145,,black_plus_sign,,,,null,,,1,0.9583333333333334,,,,,,,,,,,,,,,,
null,,color_black,241248,,black_plus_sign,,,,null,,,,,,,,,,,,,,,,,,,,
null,,learn_phase(without_color),244252,,black_plus_sign,,,,null,GW/leesburg.png,GW/racine.png,,,,,,,,,,,,,,,,,,
null,,black_cross(without_color),244823,,blue,,,,null,GW/leesburg.png,GW/racine.png,,,,,,,,,,,,,,,,,,
492.70000000298023,,rt_plussign_withcolor,245326,,blue,,,,49,GW/leesburg.png,GW/racine.png,,,,,,,,,,,,,,,,,,
null,,rt_thecrossant_black,246759,,black_plus_sign,,,,null,,,1,0.96,,,,,,,,,,,,,,,,
null,,color_black,246862,,black_plus_sign,,,,null,,,,,,,,,,,,,,,,,,,,
null,,learn_phase(without_color),249865,,black_plus_sign,,,,null,GW/cornwall.png,GW/hotsprings.png,,,,,,,,,,,,,,,,,,
null,,black_cross(without_color),250432,,yellow,,,,null,GW/cornwall.png,GW/hotsprings.png,,,,,,,,,,,,,,,,,,
414.5,,rt_plussign_withcolor,250934,,yellow,,,,50,GW/cornwall.png,GW/hotsprings.png,,,,,,,,,,,,,,,,,,
null,,rt_thecrossant_black,252374,,black_plus_sign,,,,null,,,1,0.9615384615384616,,,,,,,,,,,,,,,,
null,,color_black,252477,,black_plus_sign,,,,null,,,,,,,,,,,,,,,,,,,,
null,,learn_phase(without_color),255479,,black_plus_sign,,,,null,GW/cornwall.png,GW/peoria.png,,,,,,,,,,,,,,,,,,
null,,black_cross(without_color),256462,,yellow,,,,null,GW/cornwall.png,GW/peoria.png,,,,,,,,,,,,,,,,,,
379.5,,rt_plussign_withcolor,256964,,yellow,,,,50,GW/cornwall.png,GW/peoria.png,,,,,,,,,,,,,,,,,,
null,,rt_thecrossant_black,257989,,black_plus_sign,,,,null,,,1,0.9629629629629629,,,,,,,,,,,,,,,,
null,,color_black,258092,,black_plus_sign,,,,null,,,,,,,,,,,,,,,,,,,,
null,,learn_phase(without_color),261095,,black_plus_sign,,,,null,GW/carmel.png,GW/shreveport.png,,,,,,,,,,,,,,,,,,
null,,black_cross(without_color),261919,,blue,,,,null,GW/carmel.png,GW/shreveport.png,,,,,,,,,,,,,,,,,,
407.20000000298023,,rt_plussign_withcolor,262421,,blue,,,,49,GW/carmel.png,GW/shreveport.png,,,,,,,,,,,,,,,,,,
null,,rt_thecrossant_black,263604,,black_plus_sign,,,,null,,,1,0.9642857142857143,,,,,,,,,,,,,,,,
null,,color_black,263706,,black_plus_sign,,,,null,,,,,,,,,,,,,,,,,,,,
null,,learn_phase(without_color),266710,,black_plus_sign,,,,null,GW/gatlinburg.png,GW/boulder.png,,,,,,,,,,,,,,,,,,
null,,black_cross(without_color),267741,,yellow,,,,null,GW/gatlinburg.png,GW/boulder.png,,,,,,,,,,,,,,,,,,
381.3999999910593,,rt_plussign_withcolor,268244,,yellow,,,,50,GW/gatlinburg.png,GW/boulder.png,,,,,,,,,,,,,,,,,,
null,,rt_thecrossant_black,269218,,black_plus_sign,,,,null,,,1,0.9655172413793104,,,,,,,,,,,,,,,,
null,,color_black,269321,,black_plus_sign,,,,null,,,,,,,,,,,,,,,,,,,,
null,,learn_phase(without_color),272325,,black_plus_sign,,,,null,GW/gatlinburg.png,GW/racine.png,,,,,,,,,,,,,,,,,,
null,,black_cross(without_color),273184,,yellow,,,,null,GW/gatlinburg.png,GW/racine.png,,,,,,,,,,,,,,,,,,
424.70000000298023,,rt_plussign_withcolor,273687,,yellow,,,,50,GW/gatlinburg.png,GW/racine.png,,,,,,,,,,,,,,,,,,
null,,rt_thecrossant_black,274834,,black_plus_sign,,,,null,,,1,0.9666666666666667,,,,,,,,,,,,,,,,
null,,color_black,274937,,black_plus_sign,,,,null,,,,,,,,,,,,,,,,,,,,
null,,learn_phase(without_color),277941,,black_plus_sign,,,,null,GW/westpalmbeach.png,GW/hotsprings.png,,,,,,,,,,,,,,,,,,
null,,black_cross(without_color),278402,,yellow,,,,null,GW/westpalmbeach.png,GW/hotsprings.png,,,,,,,,,,,,,,,,,,
472.90000000596046,,rt_plussign_withcolor,278905,,yellow,,,,50,GW/westpalmbeach.png,GW/hotsprings.png,,,,,,,,,,,,,,,,,,
null,,rt_thecrossant_black,280448,,black_plus_sign,,,,null,,,1,0.967741935483871,,,,,,,,,,,,,,,,
null,,color_black,280550,,black_plus_sign,,,,null,,,,,,,,,,,,,,,,,,,,
null,,learn_phase(without_color),283554,,black_plus_sign,,,,null,GW/boulder.png,GW/cornwall.png,,,,,,,,,,,,,,,,,,
null,,black_cross(without_color),284147,,blue,,,,null,GW/boulder.png,GW/cornwall.png,,,,,,,,,,,,,,,,,,
476.79999999701977,,rt_plussign_withcolor,284649,,blue,,,,49,GW/boulder.png,GW/cornwall.png,,,,,,,,,,,,,,,,,,
null,,rt_thecrossant_black,286062,,black_plus_sign,,,,null,,,1,0.96875,,,,,,,,,,,,,,,,
null,,color_black,286165,,black_plus_sign,,,,null,,,,,,,,,,,,,,,,,,,,
null,,learn_phase(without_color),289169,,black_plus_sign,,,,null,GW/carmel.png,GW/shreveport.png,,,,,,,,,,,,,,,,,,
null,,black_cross(without_color),289826,,yellow,,,,null,GW/carmel.png,GW/shreveport.png,,,,,,,,,,,,,,,,,,
470.20000000298023,,rt_plussign_withcolor,290328,,yellow,,,,50,GW/carmel.png,GW/shreveport.png,,,,,,,,,,,,,,,,,,
null,,rt_thecrossant_black,291678,,black_plus_sign,,,,null,,,1,0.9696969696969697,,,,,,,,,,,,,,,,
null,,color_black,291781,,black_plus_sign,,,,null,,,,,,,,,,,,,,,,,,,,
null,,learn_phase(without_color),294785,,black_plus_sign,,,,null,GW/hotsprings.png,GW/gatlinburg.png,,,,,,,,,,,,,,,,,,
null,,black_cross(without_color),295644,,blue,,,,null,GW/hotsprings.png,GW/gatlinburg.png,,,,,,,,,,,,,,,,,,
431.29999999701977,,rt_plussign_withcolor,296146,,blue,,,,49,GW/hotsprings.png,GW/gatlinburg.png,,,,,,,,,,,,,,,,,,
null,,rt_thecrossant_black,297293,,black_plus_sign,,,,null,,,1,0.9705882352941176,,,,,,,,,,,,,,,,
null,,color_black,297396,,black_plus_sign,,,,null,,,,,,,,,,,,,,,,,,,,
null,,learn_phase(without_color),300400,,black_plus_sign,,,,null,GW/hanover.png,GW/leesburg.png,,,,,,,,,,,,,,,,,,
null,,black_cross(without_color),301145,,yellow,,,,null,GW/hanover.png,GW/leesburg.png,,,,,,,,,,,,,,,,,,
null,,rt_plussign_withcolor,301648,,yellow,,,,null,GW/hanover.png,GW/leesburg.png,,,,,,,,,,,,,,,,,,
967.6000000089407,,rt_thecrossant_black,302908,,black_plus_sign,,,,50,,,1,0.9714285714285714,,,,,,,,,,,,,,,,
null,,color_black,303011,,black_plus_sign,,,,null,,,,,,,,,,,,,,,,,,,,
null,,learn_phase(without_color),306015,,black_plus_sign,,,,null,GW/hotsprings.png,GW/westpalmbeach.png,,,,,,,,,,,,,,,,,,
null,,black_cross(without_color),306454,,blue,,,,null,GW/hotsprings.png,GW/westpalmbeach.png,,,,,,,,,,,,,,,,,,
473.90000000596046,,rt_plussign_withcolor,306956,,blue,,,,49,GW/hotsprings.png,GW/westpalmbeach.png,,,,,,,,,,,,,,,,,,
null,,rt_thecrossant_black,308524,,black_plus_sign,,,,null,,,1,0.9722222222222222,,,,,,,,,,,,,,,,
null,,color_black,308627,,black_plus_sign,,,,null,,,,,,,,,,,,,,,,,,,,
null,,learn_phase(without_color),311631,,black_plus_sign,,,,null,GW/shreveport.png,GW/huntsville.png,,,,,,,,,,,,,,,,,,
null,,black_cross(without_color),312501,,blue,,,,null,GW/shreveport.png,GW/huntsville.png,,,,,,,,,,,,,,,,,,
408.09999999403954,,rt_plussign_withcolor,313004,,blue,,,,49,GW/shreveport.png,GW/huntsville.png,,,,,,,,,,,,,,,,,,
null,,rt_thecrossant_black,314140,,black_plus_sign,,,,null,,,1,0.972972972972973,,,,,,,,,,,,,,,,
null,,color_black,314244,,black_plus_sign,,,,null,,,,,,,,,,,,,,,,,,,,
null,,learn_phase(without_color),317247,,black_plus_sign,,,,null,GW/racine.png,GW/gatlinburg.png,,,,,,,,,,,,,,,,,,
null,,black_cross(without_color),318068,,yellow,,,,null,GW/racine.png,GW/gatlinburg.png,,,,,,,,,,,,,,,,,,
361,,rt_plussign_withcolor,318570,,yellow,,,,50,GW/racine.png,GW/gatlinburg.png,,,,,,,,,,,,,,,,,,
null,,rt_thecrossant_black,319756,,black_plus_sign,,,,null,,,1,0.9736842105263158,,,,,,,,,,,,,,,,
null,,color_black,319860,,black_plus_sign,,,,null,,,,,,,,,,,,,,,,,,,,
null,,learn_phase(without_color),322863,,black_plus_sign,,,,null,GW/carmel.png,GW/shreveport.png,,,,,,,,,,,,,,,,,,
null,,black_cross(without_color),323463,,yellow,,,,null,GW/carmel.png,GW/shreveport.png,,,,,,,,,,,,,,,,,,
null,,rt_plussign_withcolor,323967,,yellow,,,,null,GW/carmel.png,GW/shreveport.png,,,,,,,,,,,,,,,,,,
1237.9000000059605,,rt_thecrossant_black,325373,,black_plus_sign,,,,50,,,1,0.9743589743589743,,,,,,,,,,,,,,,,
null,,color_black,325476,,black_plus_sign,,,,null,,,,,,,,,,,,,,,,,,,,
null,,learn_phase(without_color),328480,,black_plus_sign,,,,null,GW/hotsprings.png,GW/gatlinburg.png,,,,,,,,,,,,,,,,,,
null,,black_cross(without_color),329288,,blue,,,,null,GW/hotsprings.png,GW/gatlinburg.png,,,,,,,,,,,,,,,,,,
458.70000000298023,,rt_plussign_withcolor,329791,,blue,,,,49,GW/hotsprings.png,GW/gatlinburg.png,,,,,,,,,,,,,,,,,,
null,,rt_thecrossant_black,330989,,black_plus_sign,,,,null,,,1,0.975,,,,,,,,,,,,,,,,
null,,color_black,331091,,black_plus_sign,,,,null,,,,,,,,,,,,,,,,,,,,
null,,learn_phase(without_color),334095,,black_plus_sign,,,,null,GW/hanover.png,GW/leesburg.png,,,,,,,,,,,,,,,,,,
null,,black_cross(without_color),334871,,blue,,,,null,GW/hanover.png,GW/leesburg.png,,,,,,,,,,,,,,,,,,
393.30000001192093,,rt_plussign_withcolor,335374,,blue,,,,50,GW/hanover.png,GW/leesburg.png,,,,,,,,,,,,,,,,,,
null,,rt_thecrossant_black,336604,,black_plus_sign,,,,49,,,0,0.9512195121951219,,,,,,,,,,,,,,,,
null,,color_black,336706,,black_plus_sign,,,,null,,,,,,,,,,,,,,,,,,,,
null,,learn_phase(without_color),339709,,black_plus_sign,,,,null,GW/huntsville.png,GW/newhope.png,,,,,,,,,,,,,,,,,,
null,,black_cross(without_color),340548,,yellow,,,,null,GW/huntsville.png,GW/newhope.png,,,,,,,,,,,,,,,,,,
414.5,,rt_plussign_withcolor,341051,,yellow,,,,50,GW/huntsville.png,GW/newhope.png,,,,,,,,,,,,,,,,,,
null,,rt_thecrossant_black,342218,,black_plus_sign,,,,null,,,1,0.9523809523809523,,,,,,,,,,,,,,,,
null,,color_black,342321,,black_plus_sign,,,,null,,,,,,,,,,,,,,,,,,,,
null,,learn_phase(without_color),345325,,black_plus_sign,,,,null,GW/newhope.png,GW/huntsville.png,,,,,,,,,,,,,,,,,,
null,,black_cross(without_color),345920,,yellow,,,,null,GW/newhope.png,GW/huntsville.png,,,,,,,,,,,,,,,,,,
426.5,,rt_plussign_withcolor,346422,,yellow,,,,50,GW/newhope.png,GW/huntsville.png,,,,,,,,,,,,,,,,,,
null,,rt_thecrossant_black,347833,,black_plus_sign,,,,null,,,1,0.9534883720930233,,,,,,,,,,,,,,,,
null,,color_black,347936,,black_plus_sign,,,,null,,,,,,,,,,,,,,,,,,,,
null,,learn_phase(without_color),350941,,black_plus_sign,,,,null,GW/leesburg.png,GW/hanover.png,,,,,,,,,,,,,,,,,,
null,,black_cross(without_color),352000,,yellow,,,,null,GW/leesburg.png,GW/hanover.png,,,,,,,,,,,,,,,,,,
399.90000000596046,,rt_plussign_withcolor,352503,,yellow,,,,50,GW/leesburg.png,GW/hanover.png,,,,,,,,,,,,,,,,,,
null,,rt_thecrossant_black,353450,,black_plus_sign,,,,null,,,1,0.9545454545454546,,,,,,,,,,,,,,,,
null,,color_black,353552,,black_plus_sign,,,,null,,,,,,,,,,,,,,,,,,,,
null,,learn_phase(without_color),356556,,black_plus_sign,,,,null,GW/leesburg.png,GW/racine.png,,,,,,,,,,,,,,,,,,
null,,black_cross(without_color),357109,,blue,,,,null,GW/leesburg.png,GW/racine.png,,,,,,,,,,,,,,,,,,
null,,rt_plussign_withcolor,357612,,blue,,,,null,GW/leesburg.png,GW/racine.png,,,,,,,,,,,,,,,,,,
1192.7999999970198,,rt_thecrossant_black,359065,,black_plus_sign,,,,49,,,1,0.9555555555555556,,,,,,,,,,,,,,,,
null,,color_black,359168,,black_plus_sign,,,,null,,,,,,,,,,,,,,,,,,,,
null,,learn_phase(without_color),362172,,black_plus_sign,,,,null,GW/westpalmbeach.png,GW/hotsprings.png,,,,,,,,,,,,,,,,,,
null,,black_cross(without_color),362942,,yellow,,,,null,GW/westpalmbeach.png,GW/hotsprings.png,,,,,,,,,,,,,,,,,,
481.09999999403954,,rt_plussign_withcolor,363444,,yellow,,,,50,GW/westpalmbeach.png,GW/hotsprings.png,,,,,,,,,,,,,,,,,,
null,,rt_thecrossant_black,364680,,black_plus_sign,,,,null,,,1,0.9565217391304348,,,,,,,,,,,,,,,,
null,,color_black,364783,,black_plus_sign,,,,null,,,,,,,,,,,,,,,,,,,,
null,,learn_phase(without_color),367787,,black_plus_sign,,,,null,GW/leesburg.png,GW/hanover.png,,,,,,,,,,,,,,,,,,
null,,black_cross(without_color),368854,,yellow,,,,null,GW/leesburg.png,GW/hanover.png,,,,,,,,,,,,,,,,,,
390.5,,rt_plussign_withcolor,369357,,yellow,,,,50,GW/leesburg.png,GW/hanover.png,,,,,,,,,,,,,,,,,,
null,,rt_thecrossant_black,370295,,black_plus_sign,,,,null,,,1,0.9574468085106383,,,,,,,,,,,,,,,,
null,,color_black,370398,,black_plus_sign,,,,null,,,,,,,,,,,,,,,,,,,,
null,,learn_phase(without_color),373402,,black_plus_sign,,,,null,GW/carmel.png,GW/boulder.png,,,,,,,,,,,,,,,,,,
null,,black_cross(without_color),373908,,blue,,,,null,GW/carmel.png,GW/boulder.png,,,,,,,,,,,,,,,,,,
null,,rt_plussign_withcolor,374411,,blue,,,,null,GW/carmel.png,GW/boulder.png,,,,,,,,,,,,,,,,,,
1232.7999999970198,,rt_thecrossant_black,375912,,black_plus_sign,,,,49,,,1,0.9583333333333334,,,,,,,,,,,,,,,,
null,,color_black,376015,,black_plus_sign,,,,null,,,,,,,,,,,,,,,,,,,,
null,,learn_phase(without_color),379018,,black_plus_sign,,,,null,GW/hotsprings.png,GW/cornwall.png,,,,,,,,,,,,,,,,,,
null,,black_cross(without_color),379557,,yellow,,,,null,GW/hotsprings.png,GW/cornwall.png,,,,,,,,,,,,,,,,,,
364.70000000298023,,rt_plussign_withcolor,380060,,yellow,,,,50,GW/hotsprings.png,GW/cornwall.png,,,,,,,,,,,,,,,,,,
null,,rt_thecrossant_black,381527,,black_plus_sign,,,,null,,,1,0.9591836734693877,,,,,,,,,,,,,,,,
null,,color_black,381630,,black_plus_sign,,,,null,,,,,,,,,,,,,,,,,,,,
null,,learn_phase(without_color),384634,,black_plus_sign,,,,null,GW/boulder.png,GW/cornwall.png,,,,,,,,,,,,,,,,,,
null,,black_cross(without_color),385591,,blue,,,,null,GW/boulder.png,GW/cornwall.png,,,,,,,,,,,,,,,,,,
null,,rt_plussign_withcolor,386094,,blue,,,,null,GW/boulder.png,GW/cornwall.png,,,,,,,,,,,,,,,,,,
641,,rt_thecrossant_black,387143,,black_plus_sign,,,,49,,,1,0.96,,,,,,,,,,,,,,,,
null,,color_black,387246,,black_plus_sign,,,,null,,,,,,,,,,,,,,,,,,,,
null,,learn_phase(without_color),390250,,black_plus_sign,,,,null,GW/leesburg.png,GW/huntsville.png,,,,,,,,,,,,,,,,,,
null,,black_cross(without_color),390754,,yellow,,,,null,GW/leesburg.png,GW/huntsville.png,,,,,,,,,,,,,,,,,,
null,,rt_plussign_withcolor,391256,,yellow,,,,null,GW/leesburg.png,GW/huntsville.png,,,,,,,,,,,,,,,,,,
1072.2999999970198,,rt_thecrossant_black,392758,,black_plus_sign,,,,50,,,1,0.9607843137254902,,,,,,,,,,,,,,,,
null,,color_black,392861,,black_plus_sign,,,,null,,,,,,,,,,,,,,,,,,,,
null,,learn_phase(without_color),395865,,black_plus_sign,,,,null,GW/hotsprings.png,GW/cornwall.png,,,,,,,,,,,,,,,,,,
null,,black_cross(without_color),396359,,blue,,,,null,GW/hotsprings.png,GW/cornwall.png,,,,,,,,,,,,,,,,,,
473.70000000298023,,rt_plussign_withcolor,396862,,blue,,,,49,GW/hotsprings.png,GW/cornwall.png,,,,,,,,,,,,,,,,,,
null,,rt_thecrossant_black,398374,,black_plus_sign,,,,null,,,1,0.9615384615384616,,,,,,,,,,,,,,,,
null,,color_black,398477,,black_plus_sign,,,,null,,,,,,,,,,,,,,,,,,,,
null,,learn_phase(without_color),401480,,black_plus_sign,,,,null,GW/boulder.png,GW/carmel.png,,,,,,,,,,,,,,,,,,
null,,black_cross(without_color),401982,,blue,,,,null,GW/boulder.png,GW/carmel.png,,,,,,,,,,,,,,,,,,
486.1000000089407,,rt_plussign_withcolor,402484,,blue,,,,49,GW/boulder.png,GW/carmel.png,,,,,,,,,,,,,,,,,,
null,,rt_thecrossant_black,403988,,black_plus_sign,,,,null,,,1,0.9622641509433962,,,,,,,,,,,,,,,,
null,,color_black,404092,,black_plus_sign,,,,null,,,,,,,,,,,,,,,,,,,,
null,,learn_phase(without_color),407096,,black_plus_sign,,,,null,GW/cornwall.png,GW/boulder.png,,,,,,,,,,,,,,,,,,
null,,black_cross(without_color),407540,,yellow,,,,null,GW/cornwall.png,GW/boulder.png,,,,,,,,,,,,,,,,,,
444.8999999910593,,rt_plussign_withcolor,408042,,yellow,,,,50,GW/cornwall.png,GW/boulder.png,,,,,,,,,,,,,,,,,,
null,,rt_thecrossant_black,409605,,black_plus_sign,,,,null,,,1,0.9629629629629629,,,,,,,,,,,,,,,,
null,,color_black,409707,,black_plus_sign,,,,null,,,,,,,,,,,,,,,,,,,,
null,,learn_phase(without_color),412710,,black_plus_sign,,,,null,GW/hotsprings.png,GW/westpalmbeach.png,,,,,,,,,,,,,,,,,,
null,,black_cross(without_color),413492,,blue,,,,null,GW/hotsprings.png,GW/westpalmbeach.png,,,,,,,,,,,,,,,,,,
null,,rt_plussign_withcolor,413995,,blue,,,,null,GW/hotsprings.png,GW/westpalmbeach.png,,,,,,,,,,,,,,,,,,
676.1000000089407,,rt_thecrossant_black,415218,,black_plus_sign,,,,49,,,1,0.9636363636363636,,,,,,,,,,,,,,,,
null,,color_black,415320,,black_plus_sign,,,,null,,,,,,,,,,,,,,,,,,,,
null,,learn_phase(without_color),418323,,black_plus_sign,,,,null,GW/hotsprings.png,GW/boulder.png,,,,,,,,,,,,,,,,,,
null,,black_cross(without_color),419212,,yellow,,,,null,GW/hotsprings.png,GW/boulder.png,,,,,,,,,,,,,,,,,,
318,,rt_plussign_withcolor,419714,,yellow,,,,50,GW/hotsprings.png,GW/boulder.png,,,,,,,,,,,,,,,,,,
null,,rt_thecrossant_black,420832,,black_plus_sign,,,,null,,,1,0.9642857142857143,,,,,,,,,,,,,,,,
null,,color_black,420935,,black_plus_sign,,,,null,,,,,,,,,,,,,,,,,,,,
null,,learn_phase(without_color),423938,,black_plus_sign,,,,null,GW/gatlinburg.png,GW/hotsprings.png,,,,,,,,,,,,,,,,,,
null,,black_cross(without_color),424573,,blue,,,,null,GW/gatlinburg.png,GW/hotsprings.png,,,,,,,,,,,,,,,,,,
null,,rt_plussign_withcolor,425076,,blue,,,,null,GW/gatlinburg.png,GW/hotsprings.png,,,,,,,,,,,,,,,,,,
1039.5,,rt_thecrossant_black,426448,,black_plus_sign,,,,49,,,1,0.9649122807017544,,,,,,,,,,,,,,,,
null,,color_black,426552,,black_plus_sign,,,,null,,,,,,,,,,,,,,,,,,,,
null,,learn_phase(without_color),429555,,black_plus_sign,,,,null,GW/hotsprings.png,GW/boulder.png,,,,,,,,,,,,,,,,,,
null,,black_cross(without_color),430095,,yellow,,,,null,GW/hotsprings.png,GW/boulder.png,,,,,,,,,,,,,,,,,,
371.20000000298023,,rt_plussign_withcolor,430598,,yellow,,,,50,GW/hotsprings.png,GW/boulder.png,,,,,,,,,,,,,,,,,,
null,,rt_thecrossant_black,432064,,black_plus_sign,,,,null,,,1,0.9655172413793104,,,,,,,,,,,,,,,,
null,,color_black,432168,,black_plus_sign,,,,null,,,,,,,,,,,,,,,,,,,,
null,,learn_phase(without_color),435172,,black_plus_sign,,,,null,GW/huntsville.png,GW/leesburg.png,,,,,,,,,,,,,,,,,,
null,,black_cross(without_color),436125,,blue,,,,null,GW/huntsville.png,GW/leesburg.png,,,,,,,,,,,,,,,,,,
401.29999999701977,,rt_plussign_withcolor,436628,,blue,,,,49,GW/huntsville.png,GW/leesburg.png,,,,,,,,,,,,,,,,,,
null,,rt_thecrossant_black,437680,,black_plus_sign,,,,null,,,1,0.9661016949152542,,,,,,,,,,,,,,,,
null,,color_black,437784,,black_plus_sign,,,,null,,,,,,,,,,,,,,,,,,,,
null,,learn_phase(without_color),440787,,black_plus_sign,,,,null,GW/carmel.png,GW/racine.png,,,,,,,,,,,,,,,,,,
null,,black_cross(without_color),441439,,blue,,,,null,GW/carmel.png,GW/racine.png,,,,,,,,,,,,,,,,,,
null,,rt_plussign_withcolor,441942,,blue,,,,null,GW/carmel.png,GW/racine.png,,,,,,,,,,,,,,,,,,
1104.7000000029802,,rt_thecrossant_black,443297,,black_plus_sign,,,,49,,,1,0.9666666666666667,,,,,,,,,,,,,,,,
null,,color_black,443400,,black_plus_sign,,,,null,,,,,,,,,,,,,,,,,,,,
null,,learn_phase(without_color),446404,,black_plus_sign,,,,null,GW/huntsville.png,GW/shreveport.png,,,,,,,,,,,,,,,,,,
null,,black_cross(without_color),447500,,yellow,,,,null,GW/huntsville.png,GW/shreveport.png,,,,,,,,,,,,,,,,,,
290.40000000596046,,rt_plussign_withcolor,448003,,yellow,,,,50,GW/huntsville.png,GW/shreveport.png,,,,,,,,,,,,,,,,,,
null,,rt_thecrossant_black,448913,,black_plus_sign,,,,null,,,1,0.9672131147540983,,,,,,,,,,,,,,,,
null,,color_black,449017,,black_plus_sign,,,,null,,,,,,,,,,,,,,,,,,,,
null,,learn_phase(without_color),452021,,black_plus_sign,,,,null,GW/newhope.png,GW/huntsville.png,,,,,,,,,,,,,,,,,,
null,,black_cross(without_color),452984,,blue,,,,null,GW/newhope.png,GW/huntsville.png,,,,,,,,,,,,,,,,,,
442.5,,rt_plussign_withcolor,453487,,blue,,,,49,GW/newhope.png,GW/huntsville.png,,,,,,,,,,,,,,,,,,
null,,rt_thecrossant_black,454531,,black_plus_sign,,,,null,,,1,0.967741935483871,,,,,,,,,,,,,,,,
null,,color_black,454634,,black_plus_sign,,,,null,,,,,,,,,,,,,,,,,,,,
null,,learn_phase(without_color),457638,,black_plus_sign,,,,null,GW/cornwall.png,GW/hotsprings.png,,,,,,,,,,,,,,,,,,
null,,black_cross(without_color),458408,,yellow,,,,null,GW/cornwall.png,GW/hotsprings.png,,,,,,,,,,,,,,,,,,
null,,rt_plussign_withcolor,458911,,yellow,,,,null,GW/cornwall.png,GW/hotsprings.png,,,,,,,,,,,,,,,,,,
1077.2999999970198,,rt_thecrossant_black,460147,,black_plus_sign,,,,49,,,0,0.9523809523809523,,,,,,,,,,,,,,,,
null,,color_black,460250,,black_plus_sign,,,,null,,,,,,,,,,,,,,,,,,,,
null,,learn_phase(without_color),463253,,black_plus_sign,,,,null,GW/leesburg.png,GW/hanover.png,,,,,,,,,,,,,,,,,,
null,,black_cross(without_color),463724,,yellow,,,,null,GW/leesburg.png,GW/hanover.png,,,,,,,,,,,,,,,,,,
350.19999998807907,,rt_plussign_withcolor,464227,,yellow,,,,50,GW/leesburg.png,GW/hanover.png,,,,,,,,,,,,,,,,,,
null,,rt_thecrossant_black,465763,,black_plus_sign,,,,null,,,1,0.953125,,,,,,,,,,,,,,,,
null,,color_black,465866,,black_plus_sign,,,,null,,,,,,,,,,,,,,,,,,,,
7220.9000000059605,,learn_break,473089,,learn_break,,,,32,,,,,,,,,,,,,,,,,,,,
null,,html-keyboard-response,474091,,<p></p>,,,,null,,,,,,,,,,,,,,,,,,,,
null,,learn_phase(without_color),477086,,black_plus_sign,,,,null,GW/newhope.png,GW/huntsville.png,,,,,,,,,,,,,,,,,,
null,,black_cross(without_color),477728,,blue,,,,null,GW/newhope.png,GW/huntsville.png,,,,,,,,,,,,,,,,,,
null,,rt_plussign_withcolor,478230,,blue,,,,null,GW/newhope.png,GW/huntsville.png,,,,,,,,,,,,,,,,,,
582.2000000029802,,rt_thecrossant_black,479589,,black_plus_sign,,,,49,,,1,0.9538461538461539,,,,,,,,,,,,,,,,
null,,color_black,479692,,black_plus_sign,,,,null,,,,,,,,,,,,,,,,,,,,
null,,learn_phase(without_color),482691,,black_plus_sign,,,,null,GW/cornwall.png,GW/hotsprings.png,,,,,,,,,,,,,,,,,,
null,,black_cross(without_color),483315,,blue,,,,null,GW/cornwall.png,GW/hotsprings.png,,,,,,,,,,,,,,,,,,
448,,rt_plussign_withcolor,483815,,blue,,,,49,GW/cornwall.png,GW/hotsprings.png,,,,,,,,,,,,,,,,,,
null,,rt_thecrossant_black,485195,,black_plus_sign,,,,null,,,1,0.9545454545454546,,,,,,,,,,,,,,,,
null,,color_black,485298,,black_plus_sign,,,,null,,,,,,,,,,,,,,,,,,,,
null,,learn_phase(without_color),488297,,black_plus_sign,,,,null,GW/racine.png,GW/gatlinburg.png,,,,,,,,,,,,,,,,,,
null,,black_cross(without_color),489111,,yellow,,,,null,GW/racine.png,GW/gatlinburg.png,,,,,,,,,,,,,,,,,,
470.5,,rt_plussign_withcolor,489613,,yellow,,,,50,GW/racine.png,GW/gatlinburg.png,,,,,,,,,,,,,,,,,,
null,,rt_thecrossant_black,490804,,black_plus_sign,,,,null,,,1,0.9552238805970149,,,,,,,,,,,,,,,,
null,,color_black,490907,,black_plus_sign,,,,null,,,,,,,,,,,,,,,,,,,,
null,,learn_phase(without_color),493909,,black_plus_sign,,,,null,GW/boulder.png,GW/hotsprings.png,,,,,,,,,,,,,,,,,,
null,,black_cross(without_color),494956,,yellow,,,,null,GW/boulder.png,GW/hotsprings.png,,,,,,,,,,,,,,,,,,
429,,rt_plussign_withcolor,495459,,yellow,,,,50,GW/boulder.png,GW/hotsprings.png,,,,,,,,,,,,,,,,,,
null,,rt_thecrossant_black,496417,,black_plus_sign,,,,null,,,1,0.9558823529411765,,,,,,,,,,,,,,,,
null,,color_black,496520,,black_plus_sign,,,,null,,,,,,,,,,,,,,,,,,,,
null,,learn_phase(without_color),499523,,black_plus_sign,,,,null,GW/boulder.png,GW/gatlinburg.png,,,,,,,,,,,,,,,,,,
null,,black_cross(without_color),500084,,blue,,,,null,GW/boulder.png,GW/gatlinburg.png,,,,,,,,,,,,,,,,,,
null,,rt_plussign_withcolor,500587,,blue,,,,null,GW/boulder.png,GW/gatlinburg.png,,,,,,,,,,,,,,,,,,
1286.5,,rt_thecrossant_black,502031,,black_plus_sign,,,,49,,,1,0.9565217391304348,,,,,,,,,,,,,,,,
null,,color_black,502134,,black_plus_sign,,,,null,,,,,,,,,,,,,,,,,,,,
null,,learn_phase(without_color),505136,,black_plus_sign,,,,null,GW/leesburg.png,GW/racine.png,,,,,,,,,,,,,,,,,,
null,,black_cross(without_color),505642,,yellow,,,,null,GW/leesburg.png,GW/racine.png,,,,,,,,,,,,,,,,,,
null,,rt_plussign_withcolor,506143,,yellow,,,,null,GW/leesburg.png,GW/racine.png,,,,,,,,,,,,,,,,,,
698.2000000029802,,rt_thecrossant_black,507644,,black_plus_sign,,,,50,,,1,0.9571428571428572,,,,,,,,,,,,,,,,
null,,color_black,507747,,black_plus_sign,,,,null,,,,,,,,,,,,,,,,,,,,
null,,learn_phase(without_color),510750,,black_plus_sign,,,,null,GW/gatlinburg.png,GW/racine.png,,,,,,,,,,,,,,,,,,
null,,black_cross(without_color),511173,,blue,,,,null,GW/gatlinburg.png,GW/racine.png,,,,,,,,,,,,,,,,,,
471.70000000298023,,rt_plussign_withcolor,511676,,blue,,,,49,GW/gatlinburg.png,GW/racine.png,,,,,,,,,,,,,,,,,,
null,,rt_thecrossant_black,513258,,black_plus_sign,,,,null,,,1,0.9577464788732394,,,,,,,,,,,,,,,,
null,,color_black,513361,,black_plus_sign,,,,null,,,,,,,,,,,,,,,,,,,,
null,,learn_phase(without_color),516364,,black_plus_sign,,,,null,GW/shreveport.png,GW/huntsville.png,,,,,,,,,,,,,,,,,,
null,,black_cross(without_color),517354,,yellow,,,,null,GW/shreveport.png,GW/huntsville.png,,,,,,,,,,,,,,,,,,
332.79999999701977,,rt_plussign_withcolor,517857,,yellow,,,,50,GW/shreveport.png,GW/huntsville.png,,,,,,,,,,,,,,,,,,
null,,rt_thecrossant_black,518873,,black_plus_sign,,,,null,,,1,0.9583333333333334,,,,,,,,,,,,,,,,
null,,color_black,518977,,black_plus_sign,,,,null,,,,,,,,,,,,,,,,,,,,
null,,learn_phase(without_color),521980,,black_plus_sign,,,,null,GW/leesburg.png,GW/racine.png,,,,,,,,,,,,,,,,,,
null,,black_cross(without_color),522382,,yellow,,,,null,GW/leesburg.png,GW/racine.png,,,,,,,,,,,,,,,,,,
null,,rt_plussign_withcolor,522885,,yellow,,,,null,GW/leesburg.png,GW/racine.png,,,,,,,,,,,,,,,,,,
1254.7999999970198,,rt_thecrossant_black,524488,,black_plus_sign,,,,50,,,1,0.958904109589041,,,,,,,,,,,,,,,,
null,,color_black,524591,,black_plus_sign,,,,null,,,,,,,,,,,,,,,,,,,,
null,,learn_phase(without_color),527594,,black_plus_sign,,,,null,GW/boulder.png,GW/cornwall.png,,,,,,,,,,,,,,,,,,
null,,black_cross(without_color),528412,,blue,,,,null,GW/boulder.png,GW/cornwall.png,,,,,,,,,,,,,,,,,,
451.70000000298023,,rt_plussign_withcolor,528915,,blue,,,,49,GW/boulder.png,GW/cornwall.png,,,,,,,,,,,,,,,,,,
null,,rt_thecrossant_black,530102,,black_plus_sign,,,,null,,,1,0.9594594594594594,,,,,,,,,,,,,,,,
null,,color_black,530205,,black_plus_sign,,,,null,,,,,,,,,,,,,,,,,,,,
null,,learn_phase(without_color),533208,,black_plus_sign,,,,null,GW/westpalmbeach.png,GW/hotsprings.png,,,,,,,,,,,,,,,,,,
null,,black_cross(without_color),533733,,yellow,,,,null,GW/westpalmbeach.png,GW/hotsprings.png,,,,,,,,,,,,,,,,,,
null,,rt_plussign_withcolor,534236,,yellow,,,,null,GW/westpalmbeach.png,GW/hotsprings.png,,,,,,,,,,,,,,,,,,
1057.2000000029802,,rt_thecrossant_black,535718,,black_plus_sign,,,,50,,,1,0.96,,,,,,,,,,,,,,,,
null,,color_black,535822,,black_plus_sign,,,,null,,,,,,,,,,,,,,,,,,,,
null,,learn_phase(without_color),538825,,black_plus_sign,,,,null,GW/racine.png,GW/carmel.png,,,,,,,,,,,,,,,,,,
null,,black_cross(without_color),539737,,yellow,,,,null,GW/racine.png,GW/carmel.png,,,,,,,,,,,,,,,,,,
395.20000000298023,,rt_plussign_withcolor,540239,,yellow,,,,50,GW/racine.png,GW/carmel.png,,,,,,,,,,,,,,,,,,
null,,rt_thecrossant_black,541335,,black_plus_sign,,,,null,,,1,0.9605263157894737,,,,,,,,,,,,,,,,
null,,color_black,541438,,black_plus_sign,,,,null,,,,,,,,,,,,,,,,,,,,
null,,learn_phase(without_color),544442,,black_plus_sign,,,,null,GW/carmel.png,GW/boulder.png,,,,,,,,,,,,,,,,,,
null,,black_cross(without_color),545295,,yellow,,,,null,GW/carmel.png,GW/boulder.png,,,,,,,,,,,,,,,,,,
429.20000000298023,,rt_plussign_withcolor,545797,,yellow,,,,50,GW/carmel.png,GW/boulder.png,,,,,,,,,,,,,,,,,,
null,,rt_thecrossant_black,546951,,black_plus_sign,,,,null,,,1,0.961038961038961,,,,,,,,,,,,,,,,
null,,color_black,547055,,black_plus_sign,,,,null,,,,,,,,,,,,,,,,,,,,
null,,learn_phase(without_color),550058,,black_plus_sign,,,,null,GW/boulder.png,GW/gatlinburg.png,,,,,,,,,,,,,,,,,,
null,,black_cross(without_color),551113,,yellow,,,,null,GW/boulder.png,GW/gatlinburg.png,,,,,,,,,,,,,,,,,,
337.59999999403954,,rt_plussign_withcolor,551616,,yellow,,,,50,GW/boulder.png,GW/gatlinburg.png,,,,,,,,,,,,,,,,,,
null,,rt_thecrossant_black,552567,,black_plus_sign,,,,null,,,1,0.9615384615384616,,,,,,,,,,,,,,,,
null,,color_black,552670,,black_plus_sign,,,,null,,,,,,,,,,,,,,,,,,,,
null,,learn_phase(without_color),555674,,black_plus_sign,,,,null,GW/hotsprings.png,GW/boulder.png,,,,,,,,,,,,,,,,,,
null,,black_cross(without_color),556408,,blue,,,,null,GW/hotsprings.png,GW/boulder.png,,,,,,,,,,,,,,,,,,
null,,rt_plussign_withcolor,556911,,blue,,,,null,GW/hotsprings.png,GW/boulder.png,,,,,,,,,,,,,,,,,,
1186.5,,rt_thecrossant_black,558184,,black_plus_sign,,,,49,,,1,0.9620253164556962,,,,,,,,,,,,,,,,
null,,color_black,558287,,black_plus_sign,,,,null,,,,,,,,,,,,,,,,,,,,
null,,learn_phase(without_color),561291,,black_plus_sign,,,,null,GW/huntsville.png,GW/leesburg.png,,,,,,,,,,,,,,,,,,
null,,black_cross(without_color),562070,,blue,,,,null,GW/huntsville.png,GW/leesburg.png,,,,,,,,,,,,,,,,,,
null,,rt_plussign_withcolor,562573,,blue,,,,null,GW/huntsville.png,GW/leesburg.png,,,,,,,,,,,,,,,,,,
868.7999999970198,,rt_thecrossant_black,563801,,black_plus_sign,,,,49,,,1,0.9625,,,,,,,,,,,,,,,,
null,,color_black,563904,,black_plus_sign,,,,null,,,,,,,,,,,,,,,,,,,,
null,,learn_phase(without_color),566907,,black_plus_sign,,,,null,GW/hotsprings.png,GW/cornwall.png,,,,,,,,,,,,,,,,,,
null,,black_cross(without_color),567880,,blue,,,,null,GW/hotsprings.png,GW/cornwall.png,,,,,,,,,,,,,,,,,,
462.40000000596046,,rt_plussign_withcolor,568383,,blue,,,,49,GW/hotsprings.png,GW/cornwall.png,,,,,,,,,,,,,,,,,,
null,,rt_thecrossant_black,569417,,black_plus_sign,,,,null,,,1,0.9629629629629629,,,,,,,,,,,,,,,,
null,,color_black,569521,,black_plus_sign,,,,null,,,,,,,,,,,,,,,,,,,,
null,,learn_phase(without_color),572525,,black_plus_sign,,,,null,GW/newhope.png,GW/huntsville.png,,,,,,,,,,,,,,,,,,
null,,black_cross(without_color),573200,,yellow,,,,null,GW/newhope.png,GW/huntsville.png,,,,,,,,,,,,,,,,,,
420.70000000298023,,rt_plussign_withcolor,573703,,yellow,,,,50,GW/newhope.png,GW/huntsville.png,,,,,,,,,,,,,,,,,,
null,,rt_thecrossant_black,575033,,black_plus_sign,,,,null,,,1,0.9634146341463414,,,,,,,,,,,,,,,,
null,,color_black,575136,,black_plus_sign,,,,null,,,,,,,,,,,,,,,,,,,,
null,,learn_phase(without_color),578141,,black_plus_sign,,,,null,GW/boulder.png,GW/carmel.png,,,,,,,,,,,,,,,,,,
null,,black_cross(without_color),578718,,yellow,,,,null,GW/boulder.png,GW/carmel.png,,,,,,,,,,,,,,,,,,
null,,rt_plussign_withcolor,579221,,yellow,,,,null,GW/boulder.png,GW/carmel.png,,,,,,,,,,,,,,,,,,
781.7999999970198,,rt_thecrossant_black,580650,,black_plus_sign,,,,50,,,1,0.963855421686747,,,,,,,,,,,,,,,,
null,,color_black,580754,,black_plus_sign,,,,null,,,,,,,,,,,,,,,,,,,,
null,,learn_phase(without_color),583758,,black_plus_sign,,,,null,GW/huntsville.png,GW/newhope.png,,,,,,,,,,,,,,,,,,
null,,black_cross(without_color),584248,,yellow,,,,null,GW/huntsville.png,GW/newhope.png,,,,,,,,,,,,,,,,,,
399.80000001192093,,rt_plussign_withcolor,584750,,yellow,,,,50,GW/huntsville.png,GW/newhope.png,,,,,,,,,,,,,,,,,,
null,,rt_thecrossant_black,586267,,black_plus_sign,,,,null,,,1,0.9642857142857143,,,,,,,,,,,,,,,,
null,,color_black,586371,,black_plus_sign,,,,null,,,,,,,,,,,,,,,,,,,,
null,,learn_phase(without_color),589374,,black_plus_sign,,,,null,GW/carmel.png,GW/boulder.png,,,,,,,,,,,,,,,,,,
null,,black_cross(without_color),589968,,yellow,,,,null,GW/carmel.png,GW/boulder.png,,,,,,,,,,,,,,,,,,
488.20000000298023,,rt_plussign_withcolor,590471,,yellow,,,,50,GW/carmel.png,GW/boulder.png,,,,,,,,,,,,,,,,,,
null,,rt_thecrossant_black,591883,,black_plus_sign,,,,null,,,1,0.9647058823529412,,,,,,,,,,,,,,,,
null,,color_black,591986,,black_plus_sign,,,,null,,,,,,,,,,,,,,,,,,,,
null,,learn_phase(without_color),594991,,black_plus_sign,,,,null,GW/carmel.png,GW/racine.png,,,,,,,,,,,,,,,,,,
null,,black_cross(without_color),595559,,blue,,,,null,GW/carmel.png,GW/racine.png,,,,,,,,,,,,,,,,,,
446.70000000298023,,rt_plussign_withcolor,596061,,blue,,,,49,GW/carmel.png,GW/racine.png,,,,,,,,,,,,,,,,,,
null,,rt_thecrossant_black,597501,,black_plus_sign,,,,null,,,1,0.9651162790697675,,,,,,,,,,,,,,,,
null,,color_black,597604,,black_plus_sign,,,,null,,,,,,,,,,,,,,,,,,,,
null,,learn_phase(without_color),600608,,black_plus_sign,,,,null,GW/boulder.png,GW/gatlinburg.png,,,,,,,,,,,,,,,,,,
null,,black_cross(without_color),601180,,blue,,,,null,GW/boulder.png,GW/gatlinburg.png,,,,,,,,,,,,,,,,,,
379,,rt_plussign_withcolor,601683,,blue,,,,49,GW/boulder.png,GW/gatlinburg.png,,,,,,,,,,,,,,,,,,
null,,rt_thecrossant_black,603118,,black_plus_sign,,,,null,,,1,0.9655172413793104,,,,,,,,,,,,,,,,
null,,color_black,603221,,black_plus_sign,,,,null,,,,,,,,,,,,,,,,,,,,
null,,learn_phase(without_color),606224,,black_plus_sign,,,,null,GW/hotsprings.png,GW/westpalmbeach.png,,,,,,,,,,,,,,,,,,
null,,black_cross(without_color),607117,,blue,,,,null,GW/hotsprings.png,GW/westpalmbeach.png,,,,,,,,,,,,,,,,,,
415.79999999701977,,rt_plussign_withcolor,607619,,blue,,,,49,GW/hotsprings.png,GW/westpalmbeach.png,,,,,,,,,,,,,,,,,,
null,,rt_thecrossant_black,608733,,black_plus_sign,,,,null,,,1,0.9659090909090909,,,,,,,,,,,,,,,,
null,,color_black,608837,,black_plus_sign,,,,null,,,,,,,,,,,,,,,,,,,,
null,,learn_phase(without_color),611841,,black_plus_sign,,,,null,GW/leesburg.png,GW/huntsville.png,,,,,,,,,,,,,,,,,,
null,,black_cross(without_color),612641,,yellow,,,,null,GW/leesburg.png,GW/huntsville.png,,,,,,,,,,,,,,,,,,
362.90000000596046,,rt_plussign_withcolor,613144,,yellow,,,,50,GW/leesburg.png,GW/huntsville.png,,,,,,,,,,,,,,,,,,
null,,rt_thecrossant_black,614350,,black_plus_sign,,,,null,,,1,0.9662921348314607,,,,,,,,,,,,,,,,
null,,color_black,614454,,black_plus_sign,,,,null,,,,,,,,,,,,,,,,,,,,
null,,learn_phase(without_color),617459,,black_plus_sign,,,,null,GW/shreveport.png,GW/huntsville.png,,,,,,,,,,,,,,,,,,
null,,black_cross(without_color),618139,,yellow,,,,null,GW/shreveport.png,GW/huntsville.png,,,,,,,,,,,,,,,,,,
426.59999999403954,,rt_plussign_withcolor,618642,,yellow,,,,50,GW/shreveport.png,GW/huntsville.png,,,,,,,,,,,,,,,,,,
null,,rt_thecrossant_black,619969,,black_plus_sign,,,,null,,,1,0.9666666666666667,,,,,,,,,,,,,,,,
null,,color_black,620073,,black_plus_sign,,,,null,,,,,,,,,,,,,,,,,,,,
null,,learn_phase(without_color),623078,,black_plus_sign,,,,null,GW/boulder.png,GW/hotsprings.png,,,,,,,,,,,,,,,,,,
null,,black_cross(without_color),623983,,blue,,,,null,GW/boulder.png,GW/hotsprings.png,,,,,,,,,,,,,,,,,,
385,,rt_plussign_withcolor,624485,,blue,,,,49,GW/boulder.png,GW/hotsprings.png,,,,,,,,,,,,,,,,,,
null,,rt_thecrossant_black,625586,,black_plus_sign,,,,null,,,1,0.967032967032967,,,,,,,,,,,,,,,,
null,,color_black,625689,,black_plus_sign,,,,null,,,,,,,,,,,,,,,,,,,,
null,,learn_phase(without_color),628694,,black_plus_sign,,,,null,GW/boulder.png,GW/hotsprings.png,,,,,,,,,,,,,,,,,,
null,,black_cross(without_color),629481,,yellow,,,,null,GW/boulder.png,GW/hotsprings.png,,,,,,,,,,,,,,,,,,
325.6000000089407,,rt_plussign_withcolor,629984,,yellow,,,,50,GW/boulder.png,GW/hotsprings.png,,,,,,,,,,,,,,,,,,
null,,rt_thecrossant_black,631203,,black_plus_sign,,,,null,,,1,0.967391304347826,,,,,,,,,,,,,,,,
null,,color_black,631307,,black_plus_sign,,,,null,,,,,,,,,,,,,,,,,,,,
null,,learn_phase(without_color),634311,,black_plus_sign,,,,null,GW/gatlinburg.png,GW/hotsprings.png,,,,,,,,,,,,,,,,,,
null,,black_cross(without_color),635151,,yellow,,,,null,GW/gatlinburg.png,GW/hotsprings.png,,,,,,,,,,,,,,,,,,
482.90000000596046,,rt_plussign_withcolor,635653,,yellow,,,,50,GW/gatlinburg.png,GW/hotsprings.png,,,,,,,,,,,,,,,,,,
null,,rt_thecrossant_black,636821,,black_plus_sign,,,,null,,,1,0.967741935483871,,,,,,,,,,,,,,,,
null,,color_black,636924,,black_plus_sign,,,,null,,,,,,,,,,,,,,,,,,,,
null,,learn_phase(without_color),639928,,black_plus_sign,,,,null,GW/leesburg.png,GW/huntsville.png,,,,,,,,,,,,,,,,,,
null,,black_cross(without_color),640762,,blue,,,,null,GW/leesburg.png,GW/huntsville.png,,,,,,,,,,,,,,,,,,
null,,rt_plussign_withcolor,641265,,blue,,,,null,GW/leesburg.png,GW/huntsville.png,,,,,,,,,,,,,,,,,,
972.7000000029802,,rt_thecrossant_black,642438,,black_plus_sign,,,,49,,,1,0.9680851063829787,,,,,,,,,,,,,,,,
null,,color_black,642541,,black_plus_sign,,,,null,,,,,,,,,,,,,,,,,,,,
null,,learn_phase(without_color),645545,,black_plus_sign,,,,null,GW/cornwall.png,GW/peoria.png,,,,,,,,,,,,,,,,,,
null,,black_cross(without_color),646249,,yellow,,,,null,GW/cornwall.png,GW/peoria.png,,,,,,,,,,,,,,,,,,
null,,rt_plussign_withcolor,646752,,yellow,,,,null,GW/cornwall.png,GW/peoria.png,,,,,,,,,,,,,,,,,,
935.4000000059605,,rt_thecrossant_black,648055,,black_plus_sign,,,,50,,,1,0.968421052631579,,,,,,,,,,,,,,,,
null,,color_black,648158,,black_plus_sign,,,,null,,,,,,,,,,,,,,,,,,,,
null,,learn_phase(without_color),651162,,black_plus_sign,,,,null,GW/carmel.png,GW/racine.png,,,,,,,,,,,,,,,,,,
null,,black_cross(without_color),652209,,blue,,,,null,GW/carmel.png,GW/racine.png,,,,,,,,,,,,,,,,,,
null,,rt_plussign_withcolor,652711,,blue,,,,null,GW/carmel.png,GW/racine.png,,,,,,,,,,,,,,,,,,
812.3000000119209,,rt_thecrossant_black,653672,,black_plus_sign,,,,49,,,1,0.96875,,,,,,,,,,,,,,,,
null,,color_black,653775,,black_plus_sign,,,,null,,,,,,,,,,,,,,,,,,,,
null,,learn_phase(without_color),656780,,black_plus_sign,,,,null,GW/boulder.png,GW/hotsprings.png,,,,,,,,,,,,,,,,,,
null,,black_cross(without_color),657441,,blue,,,,null,GW/boulder.png,GW/hotsprings.png,,,,,,,,,,,,,,,,,,
null,,rt_plussign_withcolor,657944,,blue,,,,null,GW/boulder.png,GW/hotsprings.png,,,,,,,,,,,,,,,,,,
1163.0999999940395,,rt_thecrossant_black,659290,,black_plus_sign,,,,49,,,1,0.9690721649484536,,,,,,,,,,,,,,,,
null,,color_black,659393,,black_plus_sign,,,,null,,,,,,,,,,,,,,,,,,,,
null,,learn_phase(without_color),662397,,black_plus_sign,,,,null,GW/cornwall.png,GW/hotsprings.png,,,,,,,,,,,,,,,,,,
null,,black_cross(without_color),663325,,blue,,,,null,GW/cornwall.png,GW/hotsprings.png,,,,,,,,,,,,,,,,,,
445.70000000298023,,rt_plussign_withcolor,663828,,blue,,,,49,GW/cornwall.png,GW/hotsprings.png,,,,,,,,,,,,,,,,,,
null,,rt_thecrossant_black,664905,,black_plus_sign,,,,null,,,1,0.9693877551020408,,,,,,,,,,,,,,,,
null,,color_black,665008,,black_plus_sign,,,,null,,,,,,,,,,,,,,,,,,,,
null,,learn_phase(without_color),668012,,black_plus_sign,,,,null,GW/racine.png,GW/carmel.png,,,,,,,,,,,,,,,,,,
null,,black_cross(without_color),668735,,yellow,,,,null,GW/racine.png,GW/carmel.png,,,,,,,,,,,,,,,,,,
356.09999999403954,,rt_plussign_withcolor,669237,,yellow,,,,50,GW/racine.png,GW/carmel.png,,,,,,,,,,,,,,,,,,
null,,rt_thecrossant_black,670522,,black_plus_sign,,,,null,,,1,0.9696969696969697,,,,,,,,,,,,,,,,
null,,color_black,670625,,black_plus_sign,,,,null,,,,,,,,,,,,,,,,,,,,
null,,learn_phase(without_color),673630,,black_plus_sign,,,,null,GW/carmel.png,GW/shreveport.png,,,,,,,,,,,,,,,,,,
null,,black_cross(without_color),674569,,blue,,,,null,GW/carmel.png,GW/shreveport.png,,,,,,,,,,,,,,,,,,
440.29999999701977,,rt_plussign_withcolor,675072,,blue,,,,49,GW/carmel.png,GW/shreveport.png,,,,,,,,,,,,,,,,,,
null,,rt_thecrossant_black,676139,,black_plus_sign,,,,null,,,1,0.97,,,,,,,,,,,,,,,,
null,,color_black,676243,,black_plus_sign,,,,null,,,,,,,,,,,,,,,,,,,,
null,,learn_phase(without_color),679247,,black_plus_sign,,,,null,GW/carmel.png,GW/racine.png,,,,,,,,,,,,,,,,,,
null,,black_cross(without_color),679738,,blue,,,,null,GW/carmel.png,GW/racine.png,,,,,,,,,,,,,,,,,,
426.79999999701977,,rt_plussign_withcolor,680240,,blue,,,,49,GW/carmel.png,GW/racine.png,,,,,,,,,,,,,,,,,,
null,,rt_thecrossant_black,681756,,black_plus_sign,,,,null,,,1,0.9702970297029703,,,,,,,,,,,,,,,,
null,,color_black,681859,,black_plus_sign,,,,null,,,,,,,,,,,,,,,,,,,,
null,,learn_phase(without_color),684864,,black_plus_sign,,,,null,GW/shreveport.png,GW/huntsville.png,,,,,,,,,,,,,,,,,,
null,,black_cross(without_color),685556,,yellow,,,,null,GW/shreveport.png,GW/huntsville.png,,,,,,,,,,,,,,,,,,
437.20000000298023,,rt_plussign_withcolor,686059,,yellow,,,,50,GW/shreveport.png,GW/huntsville.png,,,,,,,,,,,,,,,,,,
null,,rt_thecrossant_black,687373,,black_plus_sign,,,,null,,,1,0.9705882352941176,,,,,,,,,,,,,,,,
null,,color_black,687477,,black_plus_sign,,,,null,,,,,,,,,,,,,,,,,,,,
null,,learn_phase(without_color),690481,,black_plus_sign,,,,null,GW/hanover.png,GW/leesburg.png,,,,,,,,,,,,,,,,,,
null,,black_cross(without_color),691020,,yellow,,,,null,GW/hanover.png,GW/leesburg.png,,,,,,,,,,,,,,,,,,
null,,rt_plussign_withcolor,691523,,yellow,,,,null,GW/hanover.png,GW/leesburg.png,,,,,,,,,,,,,,,,,,
961.7000000029802,,rt_thecrossant_black,692990,,black_plus_sign,,,,50,,,1,0.970873786407767,,,,,,,,,,,,,,,,
null,,color_black,693092,,black_plus_sign,,,,null,,,,,,,,,,,,,,,,,,,,
null,,learn_phase(without_color),696096,,black_plus_sign,,,,null,GW/boulder.png,GW/carmel.png,,,,,,,,,,,,,,,,,,
null,,black_cross(without_color),696515,,blue,,,,null,GW/boulder.png,GW/carmel.png,,,,,,,,,,,,,,,,,,
469.5,,rt_plussign_withcolor,697018,,blue,,,,50,GW/boulder.png,GW/carmel.png,,,,,,,,,,,,,,,,,,
null,,rt_thecrossant_black,698606,,black_plus_sign,,,,49,,,0,0.9615384615384616,,,,,,,,,,,,,,,,
null,,color_black,698709,,black_plus_sign,,,,null,,,,,,,,,,,,,,,,,,,,
null,,learn_phase(without_color),701712,,black_plus_sign,,,,null,GW/gatlinburg.png,GW/hotsprings.png,,,,,,,,,,,,,,,,,,
null,,black_cross(without_color),702118,,blue,,,,null,GW/gatlinburg.png,GW/hotsprings.png,,,,,,,,,,,,,,,,,,
456.59999999403954,,rt_plussign_withcolor,702622,,blue,,,,49,GW/gatlinburg.png,GW/hotsprings.png,,,,,,,,,,,,,,,,,,
null,,rt_thecrossant_black,704223,,black_plus_sign,,,,null,,,1,0.9619047619047619,,,,,,,,,,,,,,,,
null,,color_black,704327,,black_plus_sign,,,,null,,,,,,,,,,,,,,,,,,,,
null,,learn_phase(without_color),707332,,black_plus_sign,,,,null,GW/leesburg.png,GW/hanover.png,,,,,,,,,,,,,,,,,,
null,,black_cross(without_color),708333,,blue,,,,null,GW/leesburg.png,GW/hanover.png,,,,,,,,,,,,,,,,,,
395.3999999910593,,rt_plussign_withcolor,708836,,blue,,,,49,GW/leesburg.png,GW/hanover.png,,,,,,,,,,,,,,,,,,
null,,rt_thecrossant_black,709841,,black_plus_sign,,,,null,,,1,0.9622641509433962,,,,,,,,,,,,,,,,
null,,color_black,709944,,black_plus_sign,,,,null,,,,,,,,,,,,,,,,,,,,
null,,learn_phase(without_color),712948,,black_plus_sign,,,,null,GW/leesburg.png,GW/racine.png,,,,,,,,,,,,,,,,,,
null,,black_cross(without_color),713689,,yellow,,,,null,GW/leesburg.png,GW/racine.png,,,,,,,,,,,,,,,,,,
401.20000000298023,,rt_plussign_withcolor,714192,,yellow,,,,50,GW/leesburg.png,GW/racine.png,,,,,,,,,,,,,,,,,,
null,,rt_thecrossant_black,715456,,black_plus_sign,,,,null,,,1,0.9626168224299065,,,,,,,,,,,,,,,,
null,,color_black,715560,,black_plus_sign,,,,null,,,,,,,,,,,,,,,,,,,,
null,,learn_phase(without_color),718564,,black_plus_sign,,,,null,GW/cornwall.png,GW/boulder.png,,,,,,,,,,,,,,,,,,
null,,black_cross(without_color),719178,,blue,,,,null,GW/cornwall.png,GW/boulder.png,,,,,,,,,,,,,,,,,,
433.70000000298023,,rt_plussign_withcolor,719680,,blue,,,,49,GW/cornwall.png,GW/boulder.png,,,,,,,,,,,,,,,,,,
null,,rt_thecrossant_black,721072,,black_plus_sign,,,,null,,,1,0.9629629629629629,,,,,,,,,,,,,,,,
null,,color_black,721175,,black_plus_sign,,,,null,,,,,,,,,,,,,,,,,,,,
null,,learn_phase(without_color),724178,,black_plus_sign,,,,null,GW/racine.png,GW/gatlinburg.png,,,,,,,,,,,,,,,,,,
null,,black_cross(without_color),725224,,yellow,,,,null,GW/racine.png,GW/gatlinburg.png,,,,,,,,,,,,,,,,,,
312.09999999403954,,rt_plussign_withcolor,725726,,yellow,,,,50,GW/racine.png,GW/gatlinburg.png,,,,,,,,,,,,,,,,,,
null,,rt_thecrossant_black,726687,,black_plus_sign,,,,null,,,1,0.963302752293578,,,,,,,,,,,,,,,,
null,,color_black,726790,,black_plus_sign,,,,null,,,,,,,,,,,,,,,,,,,,
null,,learn_phase(without_color),729794,,black_plus_sign,,,,null,GW/hotsprings.png,GW/gatlinburg.png,,,,,,,,,,,,,,,,,,
null,,black_cross(without_color),730688,,yellow,,,,null,GW/hotsprings.png,GW/gatlinburg.png,,,,,,,,,,,,,,,,,,
385.90000000596046,,rt_plussign_withcolor,731191,,yellow,,,,50,GW/hotsprings.png,GW/gatlinburg.png,,,,,,,,,,,,,,,,,,
null,,rt_thecrossant_black,732303,,black_plus_sign,,,,null,,,1,0.9636363636363636,,,,,,,,,,,,,,,,
null,,color_black,732407,,black_plus_sign,,,,null,,,,,,,,,,,,,,,,,,,,
null,,learn_phase(without_color),735411,,black_plus_sign,,,,null,GW/westpalmbeach.png,GW/hotsprings.png,,,,,,,,,,,,,,,,,,
null,,black_cross(without_color),736064,,blue,,,,null,GW/westpalmbeach.png,GW/hotsprings.png,,,,,,,,,,,,,,,,,,
490.09999999403954,,rt_plussign_withcolor,736567,,blue,,,,49,GW/westpalmbeach.png,GW/hotsprings.png,,,,,,,,,,,,,,,,,,
null,,rt_thecrossant_black,737920,,black_plus_sign,,,,null,,,1,0.963963963963964,,,,,,,,,,,,,,,,
null,,color_black,738024,,black_plus_sign,,,,null,,,,,,,,,,,,,,,,,,,,
null,,learn_phase(without_color),741028,,black_plus_sign,,,,null,GW/leesburg.png,GW/racine.png,,,,,,,,,,,,,,,,,,
null,,black_cross(without_color),741967,,yellow,,,,null,GW/leesburg.png,GW/racine.png,,,,,,,,,,,,,,,,,,
470.70000000298023,,rt_plussign_withcolor,742471,,yellow,,,,50,GW/leesburg.png,GW/racine.png,,,,,,,,,,,,,,,,,,
null,,rt_thecrossant_black,743538,,black_plus_sign,,,,null,,,1,0.9642857142857143,,,,,,,,,,,,,,,,
null,,color_black,743641,,black_plus_sign,,,,null,,,,,,,,,,,,,,,,,,,,
null,,learn_phase(without_color),746646,,black_plus_sign,,,,null,GW/leesburg.png,GW/racine.png,,,,,,,,,,,,,,,,,,
null,,black_cross(without_color),747669,,yellow,,,,null,GW/leesburg.png,GW/racine.png,,,,,,,,,,,,,,,,,,
420.20000000298023,,rt_plussign_withcolor,748172,,yellow,,,,50,GW/leesburg.png,GW/racine.png,,,,,,,,,,,,,,,,,,
null,,rt_thecrossant_black,749157,,black_plus_sign,,,,null,,,1,0.9646017699115044,,,,,,,,,,,,,,,,
null,,color_black,749261,,black_plus_sign,,,,null,,,,,,,,,,,,,,,,,,,,
null,,learn_phase(without_color),752266,,black_plus_sign,,,,null,GW/shreveport.png,GW/carmel.png,,,,,,,,,,,,,,,,,,
null,,black_cross(without_color),752921,,blue,,,,null,GW/shreveport.png,GW/carmel.png,,,,,,,,,,,,,,,,,,
null,,rt_plussign_withcolor,753423,,blue,,,,null,GW/shreveport.png,GW/carmel.png,,,,,,,,,,,,,,,,,,
1141.6000000089407,,rt_thecrossant_black,754775,,black_plus_sign,,,,49,,,1,0.9649122807017544,,,,,,,,,,,,,,,,
null,,color_black,754879,,black_plus_sign,,,,null,,,,,,,,,,,,,,,,,,,,
null,,learn_phase(without_color),757883,,black_plus_sign,,,,null,GW/boulder.png,GW/carmel.png,,,,,,,,,,,,,,,,,,
null,,black_cross(without_color),758376,,yellow,,,,null,GW/boulder.png,GW/carmel.png,,,,,,,,,,,,,,,,,,
443.1000000089407,,rt_plussign_withcolor,758879,,yellow,,,,50,GW/boulder.png,GW/carmel.png,,,,,,,,,,,,,,,,,,
null,,rt_thecrossant_black,760392,,black_plus_sign,,,,null,,,1,0.9652173913043478,,,,,,,,,,,,,,,,
null,,color_black,760496,,black_plus_sign,,,,null,,,,,,,,,,,,,,,,,,,,
null,,learn_phase(without_color),763500,,black_plus_sign,,,,null,GW/gatlinburg.png,GW/racine.png,,,,,,,,,,,,,,,,,,
null,,black_cross(without_color),764527,,blue,,,,null,GW/gatlinburg.png,GW/racine.png,,,,,,,,,,,,,,,,,,
353.30000001192093,,rt_plussign_withcolor,765030,,blue,,,,49,GW/gatlinburg.png,GW/racine.png,,,,,,,,,,,,,,,,,,
null,,rt_thecrossant_black,766010,,black_plus_sign,,,,null,,,1,0.9655172413793104,,,,,,,,,,,,,,,,
null,,color_black,766114,,black_plus_sign,,,,null,,,,,,,,,,,,,,,,,,,,
null,,learn_phase(without_color),769118,,black_plus_sign,,,,null,GW/gatlinburg.png,GW/hotsprings.png,,,,,,,,,,,,,,,,,,
null,,black_cross(without_color),770200,,blue,,,,null,GW/gatlinburg.png,GW/hotsprings.png,,,,,,,,,,,,,,,,,,
442.40000000596046,,rt_plussign_withcolor,770703,,blue,,,,49,GW/gatlinburg.png,GW/hotsprings.png,,,,,,,,,,,,,,,,,,
null,,rt_thecrossant_black,771629,,black_plus_sign,,,,null,,,1,0.9658119658119658,,,,,,,,,,,,,,,,
null,,color_black,771733,,black_plus_sign,,,,null,,,,,,,,,,,,,,,,,,,,
null,,learn_phase(without_color),774737,,black_plus_sign,,,,null,GW/cornwall.png,GW/peoria.png,,,,,,,,,,,,,,,,,,
null,,black_cross(without_color),775510,,yellow,,,,null,GW/cornwall.png,GW/peoria.png,,,,,,,,,,,,,,,,,,
null,,rt_plussign_withcolor,776013,,yellow,,,,null,GW/cornwall.png,GW/peoria.png,,,,,,,,,,,,,,,,,,
1194.300000011921,,rt_thecrossant_black,777247,,black_plus_sign,,,,50,,,1,0.9661016949152542,,,,,,,,,,,,,,,,
null,,color_black,777350,,black_plus_sign,,,,null,,,,,,,,,,,,,,,,,,,,
null,,learn_phase(without_color),780355,,black_plus_sign,,,,null,GW/carmel.png,GW/shreveport.png,,,,,,,,,,,,,,,,,,
null,,black_cross(without_color),780916,,yellow,,,,null,GW/carmel.png,GW/shreveport.png,,,,,,,,,,,,,,,,,,
419.5,,rt_plussign_withcolor,781419,,yellow,,,,50,GW/carmel.png,GW/shreveport.png,,,,,,,,,,,,,,,,,,
null,,rt_thecrossant_black,782864,,black_plus_sign,,,,null,,,1,0.9663865546218487,,,,,,,,,,,,,,,,
null,,color_black,782968,,black_plus_sign,,,,null,,,,,,,,,,,,,,,,,,,,
null,,learn_phase(without_color),785972,,black_plus_sign,,,,null,GW/leesburg.png,GW/hanover.png,,,,,,,,,,,,,,,,,,
null,,black_cross(without_color),786386,,yellow,,,,null,GW/leesburg.png,GW/hanover.png,,,,,,,,,,,,,,,,,,
375,,rt_plussign_withcolor,786889,,yellow,,,,50,GW/leesburg.png,GW/hanover.png,,,,,,,,,,,,,,,,,,
null,,rt_thecrossant_black,788481,,black_plus_sign,,,,null,,,1,0.9666666666666667,,,,,,,,,,,,,,,,
null,,color_black,788585,,black_plus_sign,,,,null,,,,,,,,,,,,,,,,,,,,
null,,learn_phase(without_color),791590,,black_plus_sign,,,,null,GW/racine.png,GW/carmel.png,,,,,,,,,,,,,,,,,,
null,,black_cross(without_color),792125,,blue,,,,null,GW/racine.png,GW/carmel.png,,,,,,,,,,,,,,,,,,
null,,rt_plussign_withcolor,792628,,blue,,,,null,GW/racine.png,GW/carmel.png,,,,,,,,,,,,,,,,,,
699.4000000059605,,rt_thecrossant_black,794100,,black_plus_sign,,,,50,,,0,0.9586776859504132,,,,,,,,,,,,,,,,
null,,color_black,794204,,black_plus_sign,,,,null,,,,,,,,,,,,,,,,,,,,
null,,learn_phase(without_color),797209,,black_plus_sign,,,,null,GW/cornwall.png,GW/peoria.png,,,,,,,,,,,,,,,,,,
null,,black_cross(without_color),797817,,blue,,,,null,GW/cornwall.png,GW/peoria.png,,,,,,,,,,,,,,,,,,
444.09999999403954,,rt_plussign_withcolor,798320,,blue,,,,49,GW/cornwall.png,GW/peoria.png,,,,,,,,,,,,,,,,,,
null,,rt_thecrossant_black,799717,,black_plus_sign,,,,null,,,1,0.9590163934426229,,,,,,,,,,,,,,,,
null,,color_black,799820,,black_plus_sign,,,,null,,,,,,,,,,,,,,,,,,,,
null,,learn_phase(without_color),802825,,black_plus_sign,,,,null,GW/huntsville.png,GW/shreveport.png,,,,,,,,,,,,,,,,,,
null,,black_cross(without_color),803372,,yellow,,,,null,GW/huntsville.png,GW/shreveport.png,,,,,,,,,,,,,,,,,,
500.90000000596046,,rt_plussign_withcolor,803875,,yellow,,,,50,GW/huntsville.png,GW/shreveport.png,,,,,,,,,,,,,,,,,,
null,,rt_thecrossant_black,805335,,black_plus_sign,,,,null,,,1,0.959349593495935,,,,,,,,,,,,,,,,
null,,color_black,805439,,black_plus_sign,,,,null,,,,,,,,,,,,,,,,,,,,
null,,learn_phase(without_color),808443,,black_plus_sign,,,,null,GW/boulder.png,GW/gatlinburg.png,,,,,,,,,,,,,,,,,,
null,,black_cross(without_color),809367,,yellow,,,,null,GW/boulder.png,GW/gatlinburg.png,,,,,,,,,,,,,,,,,,
null,,rt_plussign_withcolor,809871,,yellow,,,,null,GW/boulder.png,GW/gatlinburg.png,,,,,,,,,,,,,,,,,,
733.2999999970198,,rt_thecrossant_black,810954,,black_plus_sign,,,,50,,,1,0.9596774193548387,,,,,,,,,,,,,,,,
null,,color_black,811057,,black_plus_sign,,,,null,,,,,,,,,,,,,,,,,,,,
null,,learn_phase(without_color),814061,,black_plus_sign,,,,null,GW/boulder.png,GW/gatlinburg.png,,,,,,,,,,,,,,,,,,
null,,black_cross(without_color),814633,,blue,,,,null,GW/boulder.png,GW/gatlinburg.png,,,,,,,,,,,,,,,,,,
null,,rt_plussign_withcolor,815136,,blue,,,,null,GW/boulder.png,GW/gatlinburg.png,,,,,,,,,,,,,,,,,,
1075.2999999970198,,rt_thecrossant_black,816571,,black_plus_sign,,,,49,,,1,0.96,,,,,,,,,,,,,,,,
null,,color_black,816674,,black_plus_sign,,,,null,,,,,,,,,,,,,,,,,,,,
null,,learn_phase(without_color),819678,,black_plus_sign,,,,null,GW/boulder.png,GW/cornwall.png,,,,,,,,,,,,,,,,,,
null,,black_cross(without_color),820630,,yellow,,,,null,GW/boulder.png,GW/cornwall.png,,,,,,,,,,,,,,,,,,
347.29999999701977,,rt_plussign_withcolor,821132,,yellow,,,,50,GW/boulder.png,GW/cornwall.png,,,,,,,,,,,,,,,,,,
null,,rt_thecrossant_black,822188,,black_plus_sign,,,,null,,,1,0.9603174603174603,,,,,,,,,,,,,,,,
null,,color_black,822291,,black_plus_sign,,,,null,,,,,,,,,,,,,,,,,,,,
null,,learn_phase(without_color),825295,,black_plus_sign,,,,null,GW/carmel.png,GW/shreveport.png,,,,,,,,,,,,,,,,,,
null,,black_cross(without_color),826348,,blue,,,,null,GW/carmel.png,GW/shreveport.png,,,,,,,,,,,,,,,,,,
452.09999999403954,,rt_plussign_withcolor,826851,,blue,,,,49,GW/carmel.png,GW/shreveport.png,,,,,,,,,,,,,,,,,,
null,,rt_thecrossant_black,827805,,black_plus_sign,,,,null,,,1,0.9606299212598425,,,,,,,,,,,,,,,,
null,,color_black,827909,,black_plus_sign,,,,null,,,,,,,,,,,,,,,,,,,,
null,,learn_phase(without_color),830913,,black_plus_sign,,,,null,GW/cornwall.png,GW/boulder.png,,,,,,,,,,,,,,,,,,
null,,black_cross(without_color),831608,,yellow,,,,null,GW/cornwall.png,GW/boulder.png,,,,,,,,,,,,,,,,,,
469.6000000089407,,rt_plussign_withcolor,832111,,yellow,,,,50,GW/cornwall.png,GW/boulder.png,,,,,,,,,,,,,,,,,,
null,,rt_thecrossant_black,833423,,black_plus_sign,,,,null,,,1,0.9609375,,,,,,,,,,,,,,,,
null,,color_black,833527,,black_plus_sign,,,,null,,,,,,,,,,,,,,,,,,,,
16791.40000000596,,learn_break,850321,,learn_break,,,,32,,,,,,,,,,,,,,,,,,,,
8821.29999999702,,intro_1,859144,,instruct,,0,Start,,,,,,,,,,,,,,,,,,,,,
2896.699999988079,,directmemory_phase,862043,,GW/racine.png,,,,49,,,1,1,GW/carmel.png,GW/westpalmbeach.png,GW/hanover.png,GW/carmel.png,GW/hanover.png,GW/westpalmbeach.png,1,,,,,,,,,
null,,html-keyboard-response,863048,,<p></p>,,,,null,,,,,,,,,,,,,,,,,,,,
2184.6000000089407,,directmemory_phase,865234,,GW/shreveport.png,,,,51,,,1,1,GW/hanover.png,GW/newhope.png,GW/huntsville.png,GW/huntsville.png,GW/newhope.png,GW/hanover.png,1,,,,,,,,,
null,,html-keyboard-response,866238,,<p></p>,,,,null,,,,,,,,,,,,,,,,,,,,
1964.5,,directmemory_phase,868204,,GW/gatlinburg.png,,,,50,,,1,1,GW/carmel.png,GW/racine.png,GW/peoria.png,GW/racine.png,GW/carmel.png,GW/peoria.png,1,,,,,,,,,
null,,html-keyboard-response,869208,,<p></p>,,,,null,,,,,,,,,,,,,,,,,,,,
2339.6000000089407,,directmemory_phase,871550,,GW/cornwall.png,,,,51,,,1,1,GW/racine.png,GW/westpalmbeach.png,GW/boulder.png,GW/boulder.png,GW/westpalmbeach.png,GW/racine.png,1,,,,,,,,,
null,,html-keyboard-response,872554,,<p></p>,,,,null,,,,,,,,,,,,,,,,,,,,
1709.0999999940395,,directmemory_phase,874265,,GW/hotsprings.png,,,,49,,,1,1,GW/westpalmbeach.png,GW/shreveport.png,GW/racine.png,GW/westpalmbeach.png,GW/racine.png,GW/shreveport.png,1,,,,,,,,,
null,,html-keyboard-response,875269,,<p></p>,,,,null,,,,,,,,,,,,,,,,,,,,
1994,,directmemory_phase,877265,,GW/boulder.png,,,,50,,,1,1,GW/racine.png,GW/cornwall.png,GW/newhope.png,GW/cornwall.png,GW/racine.png,GW/newhope.png,1,,,,,,,,,
null,,html-keyboard-response,878269,,<p></p>,,,,null,,,,,,,,,,,,,,,,,,,,
1627.5,,directmemory_phase,879899,,GW/huntsville.png,,,,51,,,1,1,GW/gatlinburg.png,GW/carmel.png,GW/shreveport.png,GW/shreveport.png,GW/carmel.png,GW/gatlinburg.png,1,,,,,,,,,
null,,html-keyboard-response,880901,,<p></p>,,,,null,,,,,,,,,,,,,,,,,,,,
3163.699999988079,,directmemory_phase,884067,,GW/boulder.png,,,,51,,,1,1,GW/leesburg.png,GW/racine.png,GW/hotsprings.png,GW/hotsprings.png,GW/racine.png,GW/leesburg.png,1,,,,,,,,,
null,,html-keyboard-response,885071,,<p></p>,,,,null,,,,,,,,,,,,,,,,,,,,
2639.2000000029802,,directmemory_phase,887712,,GW/hanover.png,,,,49,,,1,1,GW/leesburg.png,GW/carmel.png,GW/racine.png,GW/leesburg.png,GW/racine.png,GW/carmel.png,1,,,,,,,,,
null,,html-keyboard-response,888715,,<p></p>,,,,null,,,,,,,,,,,,,,,,,,,,
5363.9000000059605,,directmemory_phase,894081,,GW/hotsprings.png,,,,49,,,1,1,GW/boulder.png,GW/hanover.png,GW/carmel.png,GW/boulder.png,GW/carmel.png,GW/hanover.png,1,,,,,,,,,
null,,html-keyboard-response,895084,,<p></p>,,,,null,,,,,,,,,,,,,,,,,,,,
3064.7999999970198,,directmemory_phase,898151,,GW/leesburg.png,,,,51,,,1,1,GW/hotsprings.png,GW/gatlinburg.png,GW/racine.png,GW/racine.png,GW/gatlinburg.png,GW/hotsprings.png,1,,,,,,,,,
null,,html-keyboard-response,899154,,<p></p>,,,,null,,,,,,,,,,,,,,,,,,,,
3267.7999999970198,,directmemory_phase,902424,,GW/westpalmbeach.png,,,,51,,,1,1,GW/racine.png,GW/boulder.png,GW/hotsprings.png,GW/hotsprings.png,GW/boulder.png,GW/racine.png,1,,,,,,,,,
null,,html-keyboard-response,903428,,<p></p>,,,,null,,,,,,,,,,,,,,,,,,,,
1701.300000011921,,directmemory_phase,905131,,GW/carmel.png,,,,49,,,1,1,GW/racine.png,GW/hanover.png,GW/cornwall.png,GW/racine.png,GW/cornwall.png,GW/hanover.png,1,,,,,,,,,
null,,html-keyboard-response,906133,,<p></p>,,,,null,,,,,,,,,,,,,,,,,,,,
3369.5,,directmemory_phase,909504,,GW/hotsprings.png,,,,49,,,1,1,GW/cornwall.png,GW/huntsville.png,GW/carmel.png,GW/cornwall.png,GW/carmel.png,GW/huntsville.png,1,,,,,,,,,
null,,html-keyboard-response,910508,,<p></p>,,,,null,,,,,,,,,,,,,,,,,,,,
3679.7000000029802,,directmemory_phase,914189,,GW/huntsville.png,,,,51,,,1,1,GW/gatlinburg.png,GW/hanover.png,GW/leesburg.png,GW/leesburg.png,GW/hanover.png,GW/gatlinburg.png,1,,,,,,,,,
null,,html-keyboard-response,915192,,<p></p>,,,,null,,,,,,,,,,,,,,,,,,,,
1159.2000000029802,,directmemory_phase,916353,,GW/peoria.png,,,,51,,,1,1,GW/carmel.png,GW/hotsprings.png,GW/cornwall.png,GW/cornwall.png,GW/hotsprings.png,GW/carmel.png,1,,,,,,,,,
null,,html-keyboard-response,917356,,<p></p>,,,,null,,,,,,,,,,,,,,,,,,,,
3800.5,,directmemory_phase,921159,,GW/racine.png,,,,51,,,1,1,GW/westpalmbeach.png,GW/shreveport.png,GW/gatlinburg.png,GW/gatlinburg.png,GW/shreveport.png,GW/westpalmbeach.png,1,,,,,,,,,
null,,html-keyboard-response,922162,,<p></p>,,,,null,,,,,,,,,,,,,,,,,,,,
1225.4000000059605,,directmemory_phase,923390,,GW/cornwall.png,,,,49,,,1,1,GW/peoria.png,GW/huntsville.png,GW/gatlinburg.png,GW/peoria.png,GW/gatlinburg.png,GW/huntsville.png,1,,,,,,,,,
null,,html-keyboard-response,924393,,<p></p>,,,,null,,,,,,,,,,,,,,,,,,,,
2009.7000000029802,,directmemory_phase,926405,,GW/gatlinburg.png,,,,51,,,1,1,GW/shreveport.png,GW/carmel.png,GW/boulder.png,GW/boulder.png,GW/carmel.png,GW/shreveport.png,1,,,,,,,,,
null,,html-keyboard-response,927409,,<p></p>,,,,null,,,,,,,,,,,,,,,,,,,,
2567.5999999940395,,directmemory_phase,929977,,GW/cornwall.png,,,,51,,,1,1,GW/huntsville.png,GW/gatlinburg.png,GW/hotsprings.png,GW/hotsprings.png,GW/gatlinburg.png,GW/huntsville.png,1,,,,,,,,,
null,,html-keyboard-response,930982,,<p></p>,,,,null,,,,,,,,,,,,,,,,,,,,
2668.5999999940395,,directmemory_phase,933652,,GW/carmel.png,,,,51,,,1,1,GW/hanover.png,GW/cornwall.png,GW/boulder.png,GW/boulder.png,GW/cornwall.png,GW/hanover.png,1,,,,,,,,,
null,,html-keyboard-response,934655,,<p></p>,,,,null,,,,,,,,,,,,,,,,,,,,
2615.0999999940395,,directmemory_phase,937272,,GW/leesburg.png,,,,51,,,1,1,GW/westpalmbeach.png,GW/gatlinburg.png,GW/huntsville.png,GW/huntsville.png,GW/gatlinburg.png,GW/westpalmbeach.png,1,,,,,,,,,
null,,html-keyboard-response,938275,,<p></p>,,,,null,,,,,,,,,,,,,,,,,,,,
1556,,directmemory_phase,939833,,GW/carmel.png,,,,51,,,1,1,GW/newhope.png,GW/hotsprings.png,GW/shreveport.png,GW/shreveport.png,GW/hotsprings.png,GW/newhope.png,1,,,,,,,,,
null,,html-keyboard-response,940836,,<p></p>,,,,null,,,,,,,,,,,,,,,,,,,,
2616.5,,directmemory_phase,943455,,GW/hotsprings.png,,,,49,,,1,1,GW/gatlinburg.png,GW/leesburg.png,GW/carmel.png,GW/gatlinburg.png,GW/carmel.png,GW/leesburg.png,1,,,,,,,,,
null,,html-keyboard-response,944458,,<p></p>,,,,null,,,,,,,,,,,,,,,,,,,,
2186,,directmemory_phase,946646,,GW/boulder.png,,,,49,,,1,1,GW/carmel.png,GW/leesburg.png,GW/peoria.png,GW/carmel.png,GW/peoria.png,GW/leesburg.png,1,,,,,,,,,
null,,html-keyboard-response,947649,,<p></p>,,,,null,,,,,,,,,,,,,,,,,,,,
1437.6000000089407,,directmemory_phase,949089,,GW/gatlinburg.png,,,,51,,,1,1,GW/shreveport.png,GW/carmel.png,GW/hotsprings.png,GW/hotsprings.png,GW/carmel.png,GW/shreveport.png,1,,,,,,,,,
null,,html-keyboard-response,950093,,<p></p>,,,,null,,,,,,,,,,,,,,,,,,,,
1373.7999999970198,,directmemory_phase,951469,,GW/newhope.png,,,,51,,,1,1,GW/racine.png,GW/leesburg.png,GW/huntsville.png,GW/huntsville.png,GW/leesburg.png,GW/racine.png,1,,,,,,,,,
null,,html-keyboard-response,952472,,<p></p>,,,,null,,,,,,,,,,,,,,,,,,,,
1408,,directmemory_phase,953882,,GW/boulder.png,,,,49,,,1,1,GW/gatlinburg.png,GW/huntsville.png,GW/peoria.png,GW/gatlinburg.png,GW/peoria.png,GW/huntsville.png,1,,,,,,,,,
null,,html-keyboard-response,954887,,<p></p>,,,,null,,,,,,,,,,,,,,,,,,,,
2061.2999999970198,,directmemory_phase,956951,,GW/shreveport.png,,,,51,,,1,1,GW/hotsprings.png,GW/racine.png,GW/carmel.png,GW/carmel.png,GW/racine.png,GW/hotsprings.png,1,,,,,,,,,
null,,html-keyboard-response,957955,,<p></p>,,,,null,,,,,,,,,,,,,,,,,,,,
2583.9000000059605,,directmemory_phase,960541,,GW/leesburg.png,,,,51,,,1,1,GW/boulder.png,GW/carmel.png,GW/hanover.png,GW/hanover.png,GW/carmel.png,GW/boulder.png,1,,,,,,,,,
null,,html-keyboard-response,961545,,<p></p>,,,,null,,,,,,,,,,,,,,,,,,,,
1198.5999999940395,,directmemory_phase,962746,,GW/huntsville.png,,,,51,,,1,1,GW/boulder.png,GW/hanover.png,GW/newhope.png,GW/newhope.png,GW/hanover.png,GW/boulder.png,1,,,,,,,,,
null,,html-keyboard-response,963750,,<p></p>,,,,null,,,,,,,,,,,,,,,,,,,,
2038.5999999940395,,directmemory_phase,965791,,GW/racine.png,,,,51,,,0,0.96875,GW/leesburg.png,GW/peoria.png,GW/shreveport.png,GW/leesburg.png,GW/shreveport.png,GW/peoria.png,0.5,closer,,,,,,,,
null,,html-keyboard-response,966794,,<p></p>,,,,null,,,,,,,,,,,,,,,,,,,,
7339.79999999702,,intro_1,974135,,instruct,,0,,,,,,,,,,,,,,,,,,,,,,
9972.79999999702,,intro_2,984111,,instruct,,1,Next,,,,,,,,,,,,,,,,,,,,,
1663.5999999940395,,intro_3,985777,,instruct,,1,Next,,,,,,,,,,,,,,,,,,,,,
6347.20000000298,,intro_4,992127,,instruct,,1,Next,,,,,,,,,,,,,,,,,,,,,
7905.100000008941,,intro_5,1000035,,instruct,,1,Next,,,,,,,,,,,,,,,,,,,,,
14747.29999999702,,intro_6,1014785,,instruct,,1,Next,,,,,,,,,,,,,,,,,,,,,
3367.7999999970198,,intro_7,1018155,,instruct,,1,Next,,,,,,,,,,,,,,,,,,,,,
4730,,intro_8,1022888,,instruct,,1,Next,,,,,,,,,,,,,,,,,,,,,
3137.6000000089407,,shortestpath_phase,1026028,,GW/cornwall.png,,,,50,GW/gatlinburg.png,GW/huntsville.png,0,0,,,,GW/gatlinburg.png,,,,,Two Edge Diff,Two Edge Four Edge,,,,,,
null,,html-keyboard-response,1027032,,<p></p>,,,,null,,,,,,,,,,,,,,,,,,,,
4625.0999999940395,,shortestpath_phase,1031659,,GW/peoria.png,,,,50,GW/hanover.png,GW/boulder.png,1,0.5,,,,GW/boulder.png,,,,,Four Edge Diff,Two Edge Six Edge,,,,,,
null,,html-keyboard-response,1032663,,<p></p>,,,,null,,,,,,,,,,,,,,,,,,,,
1989.5,,shortestpath_phase,1034654,,GW/westpalmbeach.png,,,,50,GW/huntsville.png,GW/gatlinburg.png,1,0.6666666666666666,,,,GW/gatlinburg.png,,,,,Three Edge Diff,Three Edge Six Edge,,,,,,
null,,html-keyboard-response,1035657,,<p></p>,,,,null,,,,,,,,,,,,,,,,,,,,
3315.300000011921,,shortestpath_phase,1038974,,GW/huntsville.png,,,,50,GW/westpalmbeach.png,GW/racine.png,1,0.75,,,,GW/racine.png,,,,,Three Edge Diff,Three Edge Six Edge,,,,,,
null,,html-keyboard-response,1039979,,<p></p>,,,,null,,,,,,,,,,,,,,,,,,,,
null,,shortestpath_phase,1047483,,GW/westpalmbeach.png,,,,null,GW/shreveport.png,GW/hanover.png,0,0.6,,,,GW/shreveport.png,,,,,One Edge Diff,Four Edge Five Edge,,,,,,
null,,warning_page,1050485,,warning,,,,null,,,,,,,,,,,,,,,,,,,,
null,,html-keyboard-response,1051487,,<p></p>,,,,null,,,,,,,,,,,,,,,,,,,,
1994.2999999970198,,shortestpath_phase,1053484,,GW/hotsprings.png,,,,50,GW/newhope.png,GW/racine.png,1,0.6666666666666666,,,,GW/racine.png,,,,,Three Edge Diff,Two Edge Five Edge,,,,,,
null,,html-keyboard-response,1054488,,<p></p>,,,,null,,,,,,,,,,,,,,,,,,,,
3165.3999999910593,,shortestpath_phase,1057655,,GW/westpalmbeach.png,,,,50,GW/huntsville.png,GW/shreveport.png,1,0.7142857142857143,,,,GW/shreveport.png,,,,,One Edge Diff,Four Edge Five Edge,,,,,,
null,,html-keyboard-response,1058659,,<p></p>,,,,null,,,,,,,,,,,,,,,,,,,,
2568.7000000029802,,shortestpath_phase,1061230,,GW/newhope.png,,,,49,GW/hotsprings.png,GW/westpalmbeach.png,1,0.75,,,,GW/hotsprings.png,,,,,One Edge Diff,Five Edge Six Edge,,,,,,
null,,html-keyboard-response,1062234,,<p></p>,,,,null,,,,,,,,,,,,,,,,,,,,
2703,,shortestpath_phase,1064939,,GW/hanover.png,,,,50,GW/shreveport.png,GW/boulder.png,0,0.6666666666666666,,,,GW/shreveport.png,,,,,One Edge Diff,Three Edge Four Edge,,,,,,
null,,html-keyboard-response,1065942,,<p></p>,,,,null,,,,,,,,,,,,,,,,,,,,
1945.0999999940395,,shortestpath_phase,1067889,,GW/newhope.png,,,,49,GW/leesburg.png,GW/hotsprings.png,1,0.7,,,,GW/leesburg.png,,,,,Three Edge Diff,Two Edge Five Edge,,,,,,
null,,html-keyboard-response,1068892,,<p></p>,,,,null,,,,,,,,,,,,,,,,,,,,
1616.0999999940395,,shortestpath_phase,1070510,,GW/peoria.png,,,,49,GW/hotsprings.png,GW/shreveport.png,1,0.7272727272727273,,,,GW/hotsprings.png,,,,,Two Edge Diff,Two Edge Four Edge,,,,,,
null,,html-keyboard-response,1071514,,<p></p>,,,,null,,,,,,,,,,,,,,,,,,,,
2201,,shortestpath_phase,1073717,,GW/newhope.png,,,,50,GW/peoria.png,GW/cornwall.png,1,0.75,,,,GW/cornwall.png,,,,,One Edge Diff,Five Edge Six Edge,,,,,,
null,,html-keyboard-response,1074721,,<p></p>,,,,null,,,,,,,,,,,,,,,,,,,,
1984,,shortestpath_phase,1076708,,GW/peoria.png,,,,50,GW/hanover.png,GW/hotsprings.png,1,0.7692307692307693,,,,GW/hotsprings.png,,,,,Four Edge Diff,Two Edge Six Edge,,,,,,
null,,html-keyboard-response,1077710,,<p></p>,,,,null,,,,,,,,,,,,,,,,,,,,
2146.7999999970198,,shortestpath_phase,1079858,,GW/westpalmbeach.png,,,,49,GW/racine.png,GW/hanover.png,1,0.7857142857142857,,,,GW/racine.png,,,,,Two Edge Diff,Three Edge Five Edge,,,,,,
null,,html-keyboard-response,1080863,,<p></p>,,,,null,,,,,,,,,,,,,,,,,,,,
2096.4000000059605,,shortestpath_phase,1082961,,GW/peoria.png,,,,49,GW/gatlinburg.png,GW/huntsville.png,1,0.8,,,,GW/gatlinburg.png,,,,,Two Edge Diff,Three Edge Five Edge,,,,,,
null,,html-keyboard-response,1083965,,<p></p>,,,,null,,,,,,,,,,,,,,,,,,,,
2792.9000000059605,,shortestpath_phase,1086760,,GW/newhope.png,,,,50,GW/peoria.png,GW/hotsprings.png,1,0.8125,,,,GW/hotsprings.png,,,,,One Edge Diff,Five Edge Six Edge,,,,,,
null,,html-keyboard-response,1087763,,<p></p>,,,,null,,,,,,,,,,,,,,,,,,,,
2678.5999999940395,,shortestpath_phase,1090444,,GW/peoria.png,,,,49,GW/shreveport.png,GW/newhope.png,1,0.8235294117647058,,,,GW/shreveport.png,,,,,Two Edge Diff,Four Edge Six Edge,,,,,,
null,,html-keyboard-response,1091448,,<p></p>,,,,null,,,,,,,,,,,,,,,,,,,,
3185.3999999910593,,shortestpath_phase,1094636,,GW/hanover.png,,,,49,GW/peoria.png,GW/westpalmbeach.png,0,0.7777777777777778,,,,GW/westpalmbeach.png,,,,,One Edge Diff,Five Edge Six Edge,,,,,,
null,,html-keyboard-response,1095640,,<p></p>,,,,null,,,,,,,,,,,,,,,,,,,,
2133.8999999910593,,shortestpath_phase,1097776,,GW/peoria.png,,,,50,GW/huntsville.png,GW/hotsprings.png,1,0.7894736842105263,,,,GW/hotsprings.png,,,,,Three Edge Diff,Two Edge Five Edge,,,,,,
null,,html-keyboard-response,1098779,,<p></p>,,,,null,,,,,,,,,,,,,,,,,,,,
2249.5,,shortestpath_phase,1101030,,GW/newhope.png,,,,50,GW/gatlinburg.png,GW/cornwall.png,0,0.75,,,,GW/gatlinburg.png,,,,,One Edge Diff,Four Edge Five Edge,,,,,,
null,,html-keyboard-response,1102034,,<p></p>,,,,null,,,,,,,,,,,,,,,,,,,,
2537.7000000029802,,shortestpath_phase,1104574,,GW/peoria.png,,,,49,GW/leesburg.png,GW/westpalmbeach.png,0,0.7142857142857143,,,,GW/westpalmbeach.png,,,,,Two Edge Diff,Three Edge Five Edge,,,,,,
null,,html-keyboard-response,1105578,,<p></p>,,,,null,,,,,,,,,,,,,,,,,,,,
2346.2999999970198,,shortestpath_phase,1107926,,GW/gatlinburg.png,,,,49,GW/carmel.png,GW/newhope.png,1,0.7272727272727273,,,,GW/carmel.png,,,,,Two Edge Diff,Two Edge Four Edge,,,,,,
null,,html-keyboard-response,1108929,,<p></p>,,,,null,,,,,,,,,,,,,,,,,,,,
1746.8999999910593,,shortestpath_phase,1110678,,GW/peoria.png,,,,50,GW/gatlinburg.png,GW/boulder.png,1,0.7391304347826086,,,,GW/boulder.png,,,,,One Edge Diff,Two Edge Three Edge,,,,,,
null,,html-keyboard-response,1111682,,<p></p>,,,,null,,,,,,,,,,,,,,,,,,,,
2274.5,,shortestpath_phase,1113959,,GW/hanover.png,,,,50,GW/peoria.png,GW/racine.png,1,0.75,,,,GW/racine.png,,,,,Four Edge Diff,Two Edge Six Edge,,,,,,
null,,html-keyboard-response,1114962,,<p></p>,,,,null,,,,,,,,,,,,,,,,,,,,
1505.9000000059605,,shortestpath_phase,1116471,,GW/boulder.png,,,,49,GW/peoria.png,GW/newhope.png,1,0.76,,,,GW/peoria.png,,,,,Two Edge Diff,Two Edge Four Edge,,,,,,
null,,html-keyboard-response,1117474,,<p></p>,,,,null,,,,,,,,,,,,,,,,,,,,
2509.7999999970198,,shortestpath_phase,1119986,,GW/newhope.png,,,,50,GW/peoria.png,GW/gatlinburg.png,1,0.7692307692307693,,,,GW/gatlinburg.png,,,,,Two Edge Diff,Four Edge Six Edge,,,,,,
null,,html-keyboard-response,1120990,,<p></p>,,,,null,,,,,,,,,,,,,,,,,,,,
2554.5,,shortestpath_phase,1123547,,GW/peoria.png,,,,50,GW/huntsville.png,GW/newhope.png,0,0.7407407407407407,,,,GW/huntsville.png,,,,,One Edge Diff,Five Edge Six Edge,,,,,,
null,,html-keyboard-response,1124551,,<p></p>,,,,null,,,,,,,,,,,,,,,,,,,,
2111.1000000089407,,shortestpath_phase,1126665,,GW/hanover.png,,,,49,GW/westpalmbeach.png,GW/gatlinburg.png,0,0.7142857142857143,,,,GW/gatlinburg.png,,,,,Two Edge Diff,Three Edge Five Edge,,,,,,
null,,html-keyboard-response,1127668,,<p></p>,,,,null,,,,,,,,,,,,,,,,,,,,
2732.9000000059605,,shortestpath_phase,1130403,,GW/peoria.png,,,,49,GW/hotsprings.png,GW/leesburg.png,1,0.7241379310344828,,,,GW/hotsprings.png,,,,,Three Edge Diff,Three Edge Six Edge,,,,,,
null,,html-keyboard-response,1131407,,<p></p>,,,,null,,,,,,,,,,,,,,,,,,,,
2321.3999999910593,,shortestpath_phase,1133731,,GW/cornwall.png,,,,50,GW/newhope.png,GW/huntsville.png,1,0.7333333333333333,,,,GW/huntsville.png,,,,,One Edge Diff,Four Edge Five Edge,,,,,,
null,,html-keyboard-response,1134736,,<p></p>,,,,null,,,,,,,,,,,,,,,,,,,,
2955,,shortestpath_phase,1137693,,GW/westpalmbeach.png,,,,50,GW/newhope.png,GW/boulder.png,1,0.7419354838709677,,,,GW/boulder.png,,,,,Four Edge Diff,Two Edge Six Edge,,,,,,
null,,html-keyboard-response,1138696,,<p></p>,,,,null,,,,,,,,,,,,,,,,,,,,
2112.7000000029802,,shortestpath_phase,1140811,,GW/gatlinburg.png,,,,49,GW/leesburg.png,GW/huntsville.png,1,0.75,,,,GW/leesburg.png,,,,,One Edge Diff,Two Edge Three Edge,,,,,,
null,,html-keyboard-response,1141815,,<p></p>,,,,null,,,,,,,,,,,,,,,,,,,,
2534.8999999910593,,shortestpath_phase,1144352,,GW/westpalmbeach.png,,,,50,GW/hanover.png,GW/boulder.png,1,0.7575757575757576,,,,GW/boulder.png,,,,,Three Edge Diff,Three Edge Six Edge,,,,,,
null,,html-keyboard-response,1145356,,<p></p>,,,,null,,,,,,,,,,,,,,,,,,,,
2162.3999999910593,,shortestpath_phase,1147521,,GW/hanover.png,,,,49,GW/racine.png,GW/cornwall.png,1,0.7647058823529411,,,,GW/racine.png,,,,,Three Edge Diff,Two Edge Five Edge,,,,,,
null,,html-keyboard-response,1148525,,<p></p>,,,,null,,,,,,,,,,,,,,,,,,,,
1740.7999999970198,,shortestpath_phase,1150268,,GW/westpalmbeach.png,,,,49,GW/gatlinburg.png,GW/hanover.png,1,0.7714285714285715,,,,GW/gatlinburg.png,,,,,Three Edge Diff,Two Edge Five Edge,,,,,,
null,,html-keyboard-response,1151272,,<p></p>,,,,null,,,,,,,,,,,,,,,,,,,,
3427.9000000059605,,shortestpath_phase,1154702,,GW/hanover.png,,,,50,GW/carmel.png,GW/boulder.png,0,0.75,,,,GW/carmel.png,,,,,One Edge Diff,Three Edge Four Edge,,,,,,
null,,html-keyboard-response,1155707,,<p></p>,,,,null,,,,,,,,,,,,,,,,,,,,
2323.800000011921,,shortestpath_phase,1158033,,GW/peoria.png,,,,49,GW/racine.png,GW/hanover.png,1,0.7567567567567568,,,,GW/racine.png,,,,,Two Edge Diff,Four Edge Six Edge,,,,,,
null,,html-keyboard-response,1159037,,<p></p>,,,,null,,,,,,,,,,,,,,,,,,,,
2573.5999999940395,,shortestpath_phase,1161613,,GW/hanover.png,,,,49,GW/westpalmbeach.png,GW/huntsville.png,0,0.7368421052631579,,,,GW/huntsville.png,,,,,Three Edge Diff,Two Edge Five Edge,,,,,,
null,,html-keyboard-response,1162617,,<p></p>,,,,null,,,,,,,,,,,,,,,,,,,,
2217,,shortestpath_phase,1164837,,GW/newhope.png,,,,50,GW/cornwall.png,GW/racine.png,1,0.7435897435897436,,,,GW/racine.png,,,,,Two Edge Diff,Three Edge Five Edge,,,,,,
null,,html-keyboard-response,1165840,,<p></p>,,,,null,,,,,,,,,,,,,,,,,,,,
2456.2999999970198,,shortestpath_phase,1168299,,GW/huntsville.png,,,,50,GW/hanover.png,GW/gatlinburg.png,0,0.725,,,,GW/hanover.png,,,,,One Edge Diff,Two Edge Three Edge,,,,,,
null,,html-keyboard-response,1169302,,<p></p>,,,,null,,,,,,,,,,,,,,,,,,,,
2151.1000000089407,,shortestpath_phase,1171455,,GW/newhope.png,,,,50,GW/hotsprings.png,GW/gatlinburg.png,1,0.7317073170731707,,,,GW/gatlinburg.png,,,,,One Edge Diff,Four Edge Five Edge,,,,,,
null,,html-keyboard-response,1172460,,<p></p>,,,,null,,,,,,,,,,,,,,,,,,,,
1896.6000000089407,,shortestpath_phase,1174358,,GW/hanover.png,,,,50,GW/westpalmbeach.png,GW/racine.png,1,0.7380952380952381,,,,GW/racine.png,,,,,Three Edge Diff,Three Edge Six Edge,,,,,,
null,,html-keyboard-response,1175363,,<p></p>,,,,null,,,,,,,,,,,,,,,,,,,,
1485.1000000089407,,shortestpath_phase,1176850,,GW/westpalmbeach.png,,,,50,GW/carmel.png,GW/gatlinburg.png,1,0.7441860465116279,,,,GW/gatlinburg.png,,,,,One Edge Diff,Two Edge Three Edge,,,,,,
null,,html-keyboard-response,1177853,,<p></p>,,,,null,,,,,,,,,,,,,,,,,,,,
1851.4000000059605,,shortestpath_phase,1179706,,GW/hanover.png,,,,49,GW/huntsville.png,GW/cornwall.png,1,0.75,,,,GW/huntsville.png,,,,,Three Edge Diff,Two Edge Five Edge,,,,,,
null,,html-keyboard-response,1180710,,<p></p>,,,,null,,,,,,,,,,,,,,,,,,,,
2268,,shortestpath_phase,1182981,,GW/peoria.png,,,,49,GW/boulder.png,GW/newhope.png,1,0.7555555555555555,,,,GW/boulder.png,,,,,Four Edge Diff,Two Edge Six Edge,,,,,,
null,,html-keyboard-response,1183985,,<p></p>,,,,null,,,,,,,,,,,,,,,,,,,,
2158.9000000059605,,shortestpath_phase,1186146,,GW/cornwall.png,,,,49,GW/huntsville.png,GW/carmel.png,0,0.7391304347826086,,,,GW/carmel.png,,,,,Two Edge Diff,Two Edge Four Edge,,,,,,
null,,html-keyboard-response,1187149,,<p></p>,,,,null,,,,,,,,,,,,,,,,,,,,
2273.5999999940395,,shortestpath_phase,1189425,,GW/peoria.png,,,,49,GW/racine.png,GW/gatlinburg.png,0,0.723404255319149,,,,GW/gatlinburg.png,,,,,One Edge Diff,Three Edge Four Edge,,,,,,
null,,html-keyboard-response,1190430,,<p></p>,,,,null,,,,,,,,,,,,,,,,,,,,
2725.2000000029802,,shortestpath_phase,1193157,,GW/hotsprings.png,,,,49,GW/racine.png,GW/newhope.png,1,0.7291666666666666,,,,GW/racine.png,,,,,Three Edge Diff,Three Edge Six Edge,,,,,,
null,,html-keyboard-response,1194162,,<p></p>,,,,null,,,,,,,,,,,,,,,,,,,,
2713.300000011921,,shortestpath_phase,1196877,,GW/newhope.png,,,,49,GW/boulder.png,GW/cornwall.png,1,0.7346938775510204,,,,GW/boulder.png,,,,,One Edge Diff,Four Edge Five Edge,,,,,,
null,,html-keyboard-response,1197880,,<p></p>,,,,null,,,,,,,,,,,,,,,,,,,,
1218.0999999940395,,shortestpath_phase,1199101,,GW/peoria.png,,,,50,GW/westpalmbeach.png,GW/hotsprings.png,1,0.74,,,,GW/hotsprings.png,,,,,One Edge Diff,Two Edge Three Edge,,,,,,
null,,html-keyboard-response,1200105,,<p></p>,,,,null,,,,,,,,,,,,,,,,,,,,
2166.5,,shortestpath_phase,1202274,,GW/newhope.png,,,,49,GW/leesburg.png,GW/westpalmbeach.png,1,0.7450980392156863,,,,GW/leesburg.png,,,,,Four Edge Diff,Two Edge Six Edge,,,,,,
null,,html-keyboard-response,1203278,,<p></p>,,,,null,,,,,,,,,,,,,,,,,,,,
2107.7000000029802,,shortestpath_phase,1205388,,GW/hanover.png,,,,50,GW/peoria.png,GW/boulder.png,1,0.75,,,,GW/boulder.png,,,,,Two Edge Diff,Four Edge Six Edge,,,,,,
null,,html-keyboard-response,1206391,,<p></p>,,,,null,,,,,,,,,,,,,,,,,,,,
1785,,shortestpath_phase,1208179,,GW/westpalmbeach.png,,,,50,GW/newhope.png,GW/cornwall.png,1,0.7547169811320755,,,,GW/cornwall.png,,,,,Four Edge Diff,Two Edge Six Edge,,,,,,
null,,html-keyboard-response,1209183,,<p></p>,,,,null,,,,,,,,,,,,,,,,,,,,
2662.7999999970198,,shortestpath_phase,1211848,,GW/newhope.png,,,,50,GW/boulder.png,GW/peoria.png,0,0.7407407407407407,,,,GW/boulder.png,,,,,Two Edge Diff,Four Edge Six Edge,,,,,,
null,,html-keyboard-response,1212852,,<p></p>,,,,null,,,,,,,,,,,,,,,,,,,,
1554.4000000059605,,shortestpath_phase,1214409,,GW/westpalmbeach.png,,,,49,GW/gatlinburg.png,GW/newhope.png,1,0.7454545454545455,,,,GW/gatlinburg.png,,,,,Four Edge Diff,Two Edge Six Edge,,,,,,
null,,html-keyboard-response,1215412,,<p></p>,,,,null,,,,,,,,,,,,,,,,,,,,
1828.2000000029802,,shortestpath_phase,1217242,,GW/newhope.png,,,,49,GW/shreveport.png,GW/westpalmbeach.png,1,0.75,,,,GW/shreveport.png,,,,,Four Edge Diff,Two Edge Six Edge,,,,,,
null,,html-keyboard-response,1218245,,<p></p>,,,,null,,,,,,,,,,,,,,,,,,,,
1878.8999999910593,,shortestpath_phase,1220126,,GW/leesburg.png,,,,50,GW/gatlinburg.png,GW/peoria.png,0,0.7368421052631579,,,,GW/gatlinburg.png,,,,,Three Edge Diff,Three Edge Six Edge,,,,,,
null,,html-keyboard-response,1221130,,<p></p>,,,,null,,,,,,,,,,,,,,,,,,,,
2379.199999988079,,shortestpath_phase,1223512,,GW/cornwall.png,,,,49,GW/westpalmbeach.png,GW/hanover.png,1,0.7413793103448276,,,,GW/westpalmbeach.png,,,,,Three Edge Diff,Two Edge Five Edge,,,,,,
null,,html-keyboard-response,1224516,,<p></p>,,,,null,,,,,,,,,,,,,,,,,,,,
2718.7999999970198,,shortestpath_phase,1227237,,GW/shreveport.png,,,,50,GW/peoria.png,GW/gatlinburg.png,1,0.7457627118644068,,,,GW/gatlinburg.png,,,,,One Edge Diff,Three Edge Four Edge,,,,,,
null,,html-keyboard-response,1228242,,<p></p>,,,,null,,,,,,,,,,,,,,,,,,,,
2557.7999999970198,,shortestpath_phase,1230801,,GW/boulder.png,,,,49,GW/westpalmbeach.png,GW/newhope.png,1,0.75,,,,GW/westpalmbeach.png,,,,,Two Edge Diff,Two Edge Four Edge,,,,,,
null,,html-keyboard-response,1231804,,<p></p>,,,,null,,,,,,,,,,,,,,,,,,,,
1824.7000000029802,,shortestpath_phase,1233632,,GW/hotsprings.png,,,,49,GW/peoria.png,GW/newhope.png,1,0.7540983606557377,,,,GW/peoria.png,,,,,Three Edge Diff,Three Edge Six Edge,,,,,,
null,,html-keyboard-response,1234635,,<p></p>,,,,null,,,,,,,,,,,,,,,,,,,,
1508.5999999940395,,shortestpath_phase,1236146,,GW/westpalmbeach.png,,,,49,GW/gatlinburg.png,GW/huntsville.png,1,0.7580645161290323,,,,GW/gatlinburg.png,,,,,Three Edge Diff,Two Edge Five Edge,,,,,,
null,,html-keyboard-response,1237150,,<p></p>,,,,null,,,,,,,,,,,,,,,,,,,,
1596.7999999970198,,shortestpath_phase,1238749,,GW/hotsprings.png,,,,49,GW/carmel.png,GW/hanover.png,1,0.7619047619047619,,,,GW/carmel.png,,,,,Two Edge Diff,Two Edge Four Edge,,,,,,
null,,html-keyboard-response,1239753,,<p></p>,,,,null,,,,,,,,,,,,,,,,,,,,
2601.7000000029802,,shortestpath_phase,1242357,,GW/leesburg.png,,,,49,GW/newhope.png,GW/peoria.png,1,0.765625,,,,GW/newhope.png,,,,,Three Edge Diff,Two Edge Five Edge,,,,,,
null,,html-keyboard-response,1243361,,<p></p>,,,,null,,,,,,,,,,,,,,,,,,,,
2254.2000000029802,,shortestpath_phase,1245618,,GW/hanover.png,,,,49,GW/huntsville.png,GW/peoria.png,1,0.7692307692307693,,,,GW/huntsville.png,,,,,Four Edge Diff,Two Edge Six Edge,,,,,,
null,,html-keyboard-response,1246622,,<p></p>,,,,null,,,,,,,,,,,,,,,,,,,,
2443.5999999940395,,shortestpath_phase,1249068,,GW/newhope.png,,,,49,GW/gatlinburg.png,GW/racine.png,0,0.7575757575757576,,,,GW/racine.png,,,,,One Edge Diff,Three Edge Four Edge,,,,,,
null,,html-keyboard-response,1250073,,<p></p>,,,,null,,,,,,,,,,,,,,,,,,,,
2073.3999999910593,,shortestpath_phase,1252149,,GW/westpalmbeach.png,,,,49,GW/peoria.png,GW/huntsville.png,1,0.7611940298507462,,,,GW/peoria.png,,,,,Two Edge Diff,Three Edge Five Edge,,,,,,
null,,html-keyboard-response,1253153,,<p></p>,,,,null,,,,,,,,,,,,,,,,,,,,
1345.199999988079,,shortestpath_phase,1254500,,GW/newhope.png,,,,49,GW/shreveport.png,GW/peoria.png,1,0.7647058823529411,,,,GW/shreveport.png,,,,,Four Edge Diff,Two Edge Six Edge,,,,,,
null,,html-keyboard-response,1255505,,<p></p>,,,,null,,,,,,,,,,,,,,,,,,,,
2076.5999999940395,,shortestpath_phase,1257583,,GW/cornwall.png,,,,49,GW/racine.png,GW/huntsville.png,1,0.7681159420289855,,,,GW/racine.png,,,,,One Edge Diff,Three Edge Four Edge,,,,,,
null,,html-keyboard-response,1258588,,<p></p>,,,,null,,,,,,,,,,,,,,,,,,,,
2812.5,,shortestpath_phase,1261403,,GW/hanover.png,,,,49,GW/cornwall.png,GW/gatlinburg.png,0,0.7571428571428571,,,,GW/gatlinburg.png,,,,,Two Edge Diff,Three Edge Five Edge,,,,,,
null,,html-keyboard-response,1262406,,<p></p>,,,,null,,,,,,,,,,,,,,,,,,,,
1110.7999999970198,,shortestpath_phase,1263519,,GW/shreveport.png,,,,49,GW/newhope.png,GW/hanover.png,1,0.7605633802816901,,,,GW/newhope.png,,,,,One Edge Diff,Two Edge Three Edge,,,,,,
null,,html-keyboard-response,1264524,,<p></p>,,,,null,,,,,,,,,,,,,,,,,,,,
1060.6000000089407,,shortestpath_phase,1265587,,GW/peoria.png,,,,49,GW/hotsprings.png,GW/huntsville.png,1,0.7638888888888888,,,,GW/hotsprings.png,,,,,Three Edge Diff,Three Edge Six Edge,,,,,,
null,,html-keyboard-response,1266592,,<p></p>,,,,null,,,,,,,,,,,,,,,,,,,,
1907.5999999940395,,shortestpath_phase,1268502,,GW/newhope.png,,,,49,GW/peoria.png,GW/leesburg.png,0,0.7534246575342466,,,,GW/leesburg.png,,,,,Four Edge Diff,Two Edge Six Edge,,,,,,
null,,html-keyboard-response,1269505,,<p></p>,,,,null,,,,,,,,,,,,,,,,,,,,
2046.5,,shortestpath_phase,1271554,,GW/westpalmbeach.png,,,,49,GW/cornwall.png,GW/hanover.png,1,0.7567567567567568,,,,GW/cornwall.png,,,,,Three Edge Diff,Three Edge Six Edge,,,,,,
null,,html-keyboard-response,1272558,,<p></p>,,,,null,,,,,,,,,,,,,,,,,,,,
1995.5999999940395,,shortestpath_phase,1274556,,GW/leesburg.png,,,,49,GW/peoria.png,GW/gatlinburg.png,0,0.7466666666666667,,,,GW/gatlinburg.png,,,,,Three Edge Diff,Two Edge Five Edge,,,,,,
null,,html-keyboard-response,1275561,,<p></p>,,,,null,,,,,,,,,,,,,,,,,,,,
2366.5,,shortestpath_phase,1277930,,GW/newhope.png,,,,50,GW/westpalmbeach.png,GW/boulder.png,1,0.75,,,,GW/boulder.png,,,,,Two Edge Diff,Four Edge Six Edge,,,,,,
null,,html-keyboard-response,1278933,,<p></p>,,,,null,,,,,,,,,,,,,,,,,,,,
2240.3999999910593,,shortestpath_phase,1281176,,GW/westpalmbeach.png,,,,50,GW/newhope.png,GW/leesburg.png,1,0.7532467532467533,,,,GW/leesburg.png,,,,,Two Edge Diff,Four Edge Six Edge,,,,,,
null,,html-keyboard-response,1282180,,<p></p>,,,,null,,,,,,,,,,,,,,,,,,,,
1802,,shortestpath_phase,1283984,,GW/hotsprings.png,,,,49,GW/carmel.png,GW/newhope.png,1,0.7564102564102564,,,,GW/carmel.png,,,,,Three Edge Diff,Two Edge Five Edge,,,,,,
null,,html-keyboard-response,1284988,,<p></p>,,,,null,,,,,,,,,,,,,,,,,,,,
2275.7000000029802,,shortestpath_phase,1287266,,GW/westpalmbeach.png,,,,49,GW/newhope.png,GW/hanover.png,0,0.7468354430379747,,,,GW/hanover.png,,,,,One Edge Diff,Five Edge Six Edge,,,,,,
null,,html-keyboard-response,1288269,,<p></p>,,,,null,,,,,,,,,,,,,,,,,,,,
2805.3999999910593,,shortestpath_phase,1291077,,GW/leesburg.png,,,,50,GW/carmel.png,GW/peoria.png,0,0.7375,,,,GW/carmel.png,,,,,Three Edge Diff,Three Edge Six Edge,,,,,,
null,,html-keyboard-response,1292081,,<p></p>,,,,null,,,,,,,,,,,,,,,,,,,,
2376.6000000089407,,shortestpath_phase,1294460,,GW/shreveport.png,,,,49,GW/boulder.png,GW/westpalmbeach.png,1,0.7407407407407407,,,,GW/boulder.png,,,,,Two Edge Diff,Two Edge Four Edge,,,,,,
null,,html-keyboard-response,1295464,,<p></p>,,,,null,,,,,,,,,,,,,,,,,,,,
2070.2999999970198,,shortestpath_phase,1297536,,GW/newhope.png,,,,50,GW/gatlinburg.png,GW/westpalmbeach.png,0,0.7317073170731707,,,,GW/gatlinburg.png,,,,,Two Edge Diff,Four Edge Six Edge,,,,,,
null,,html-keyboard-response,1298539,,<p></p>,,,,null,,,,,,,,,,,,,,,,,,,,
2638.8999999910593,,shortestpath_phase,1301180,,GW/peoria.png,,,,50,GW/huntsville.png,GW/carmel.png,1,0.7349397590361446,,,,GW/carmel.png,,,,,Two Edge Diff,Three Edge Five Edge,,,,,,
null,,html-keyboard-response,1302185,,<p></p>,,,,null,,,,,,,,,,,,,,,,,,,,
2178.6000000089407,,shortestpath_phase,1304365,,GW/newhope.png,,,,49,GW/shreveport.png,GW/hotsprings.png,1,0.7380952380952381,,,,GW/shreveport.png,,,,,Three Edge Diff,Three Edge Six Edge,,,,,,
null,,html-keyboard-response,1305369,,<p></p>,,,,null,,,,,,,,,,,,,,,,,,,,
1887.3999999910593,,intro_1,1307259,,instruct,,0,,,,,,,,,,,,,,,,,,,,,,
1939.0999999940395,,intro_2,1309201,,instruct,,1,Next,,,,,,,,,,,,,,,,,,,,,
4305.300000011921,,intro_3,1313509,,instruct,,1,Next,,,,,,,,,,,,,,,,,,,,,
2434.4000000059605,,intro_4,1315947,,instruct,,1,Next,,,,,,,,,,,,,,,,,,,,,
1680,,intro_5,1317630,,instruct,,1,Next,,,,,,,,,,,,,,,,,,,,,
5630.399999991059,,intro_6,1323263,,instruct,,1,Next,,,,,,,,,,,,,,,,,,,,,
,,Goal Directed Planning,1432469,,GDP-0,,,,,,,,,,,,,,,,,,,newhope.png,cornwall.png,,undefinedimgLdrag04:[x1:74 x2:175 y1:210 y2:211]drag04drag12:[x1:175 x2:290 y1:211 y2:210]drag12drag11:[x1:290 x2:403 y1:210 y2:223]drag11drag03:[x1:415 x2:563 y1:212 y2:214]drag03drag06:[x1:563 x2:731 y1:214 y2:214]drag06drag07:[x1:731 x2:906 y1:214 y2:221]imgRdrag07:[x1:1074 x2:904 y1:210 y2:221],false,
