rt,responses,trial_type,time_elapsed,sequence,stimulus,graphorder,button_pressed,response,key_press,stimulus_left,stimulus_right,accuracy,cumulative_accuracy,stimulus_down_left,stimulus_down_mid,stimulus_down_right,stimulus_correct,stimulus_short,stimulus_far,weighted_accuracy,missedtrial,condition,specific_pairs,imgL_ID,imgR_ID,linedress,linedressed,detour_trial,linedressed_detor
4283.600000143051,{worker_id:60ddfe929fff846f04cd2c95},id_enter,4285,blocked,replication,GW/gatlinburg.png; GW/hotsprings.png; GW/racine.png; GW/boulder.png; GW/cornwall.png; GW/peoria.png; GW/westpalmbeach.png; GW/carmel.png; GW/huntsville.png; GW/leesburg.png; GW/shreveport.png; GW/newhope.png; GW/hanover.png,,,,,,,,,,,,,,,,,,,,,,,
7156.900000095367,,fullscreen,11444,,fullscreen,,0,,,,,,,,,,,,,,,,,,,,,,
112478.59999990463,,intro_1,123922,,instruct,,0,,,,,,,,,,,,,,,,,,,,,,
10615,,intro_2,134538,,instruct,,1,Next,,,,,,,,,,,,,,,,,,,,,
11575.299999952316,,intro_3,146115,,instruct,,1,Next,,,,,,,,,,,,,,,,,,,,,
null,,learn_prac_1,149116,,lean_prac_1,,,,null,,,,,,,,,,,,,,,,,,,,
null,,html-keyboard-response,150117,,<p></p>,,,,null,,,,,,,,,,,,,,,,,,,,
6868.700000047684,,intro_1,156986,,instruct,,0,,,,,,,,,,,,,,,,,,,,,,
4191.200000047684,,intro_2,161178,,instruct,,1,Next,,,,,,,,,,,,,,,,,,,,,
null,,learn_prac_2,164180,,lean_prac_2,,,,null,,,,,,,,,,,,,,,,,,,,
null,,html-keyboard-response,165181,,<p></p>,,,,null,,,,,,,,,,,,,,,,,,,,
1228.5,,intro_1,166410,,instruct,,0,,,,,,,,,,,,,,,,,,,,,,
2287.4000000953674,,intro_2,168699,,instruct,,1,Next,,,,,,,,,,,,,,,,,,,,,
22335.200000047684,,intro_3,191034,,instruct,,1,Next,,,,,,,,,,,,,,,,,,,,,
null,,prac_atten_color_black,191737,,black_plus_sign,,,,null,,,,,,,,,,,,,,,,,,,,
null,,prac_atten_color,192436,,prac_stop_color,,,,null,,,,,,,,,,,,,,,,,,,,
null,,prac_atten_color_black,194437,,black_plus_sign,,,,null,,,,,,,,,,,,,,,,,,,,
8123.700000047684,,attentioncheck_help,202562,,instruct,,,,32,,,,,,,,,,,,,,,,,,,,
null,,prac_atten_color_black,203265,,black_plus_sign,,,,null,,,,,,,,,,,,,,,,,,,,
556.3999998569489,,prac_atten_color,204114,,prac_stop_color,,,,50,,,,,,,,,,,,,,,,,,,,
null,,prac_atten_color_black,206116,,black_plus_sign,,,,null,,,,,,,,,,,,,,,,,,,,
null,,prac_atten_color_black,206669,,black_plus_sign,,,,null,,,,,,,,,,,,,,,,,,,,
520.2000000476837,,prac_atten_color,207384,,prac_stop_color,,,,50,,,,,,,,,,,,,,,,,,,,
null,,prac_atten_color_black,209386,,black_plus_sign,,,,null,,,,,,,,,,,,,,,,,,,,
null,,prac_atten_color_black,210073,,black_plus_sign,,,,null,,,,,,,,,,,,,,,,,,,,
484.5,,prac_atten_color,210991,,prac_stop_color,,,,49,,,,,,,,,,,,,,,,,,,,
null,,prac_atten_color_black,212992,,black_plus_sign,,,,null,,,,,,,,,,,,,,,,,,,,
null,,prac_atten_color_black,213477,,black_plus_sign,,,,null,,,,,,,,,,,,,,,,,,,,
449,,prac_atten_color,214575,,prac_stop_color,,,,50,,,,,,,,,,,,,,,,,,,,
null,,prac_atten_color_black,216577,,black_plus_sign,,,,null,,,,,,,,,,,,,,,,,,,,
null,,prac_atten_color_black,216880,,black_plus_sign,,,,null,,,,,,,,,,,,,,,,,,,,
null,,prac_atten_color,217315,,prac_stop_color,,,,null,,,,,,,,,,,,,,,,,,,,
558.3000001907349,,prac_atten_color_black,219315,,black_plus_sign,,,,50,,,,,,,,,,,,,,,,,,,,
null,,prac_atten_color_black,220284,,black_plus_sign,,,,null,,,,,,,,,,,,,,,,,,,,
913,,prac_atten_color,221320,,prac_stop_color,,,,49,,,,,,,,,,,,,,,,,,,,
null,,prac_atten_color_black,223321,,black_plus_sign,,,,null,,,,,,,,,,,,,,,,,,,,
null,,prac_atten_color_black,223688,,black_plus_sign,,,,null,,,,,,,,,,,,,,,,,,,,
533.6000001430511,,prac_atten_color,224627,,prac_stop_color,,,,50,,,,,,,,,,,,,,,,,,,,
null,,prac_atten_color_black,226628,,black_plus_sign,,,,null,,,,,,,,,,,,,,,,,,,,
null,,prac_atten_color_black,227092,,black_plus_sign,,,,null,,,,,,,,,,,,,,,,,,,,
413.7000000476837,,prac_atten_color,227909,,prac_stop_color,,,,49,,,,,,,,,,,,,,,,,,,,
null,,prac_atten_color_black,229909,,black_plus_sign,,,,null,,,,,,,,,,,,,,,,,,,,
null,,prac_atten_color_black,230495,,black_plus_sign,,,,null,,,,,,,,,,,,,,,,,,,,
null,,prac_atten_color,230932,,prac_stop_color,,,,null,,,,,,,,,,,,,,,,,,,,
109.10000014305115,,prac_atten_color_black,232933,,black_plus_sign,,,,49,,,,,,,,,,,,,,,,,,,,
7684.199999809265,,attentioncheck_feedback,240618,,cross_check_feedback,,0,,,,,,,,,,,,,,,,,,,,,,
16122.299999952316,,last_instruct,256740,,instruct,,,,32,,,,,,,,,,,,,,,,,,,,
null,,learn_phase(without_color),259742,,black_plus_sign,,,,null,GW/shreveport.png,GW/huntsville.png,,,,,,,,,,,,,,,,,,
null,,black_cross(without_color),260791,,yellow,,,,null,GW/shreveport.png,GW/huntsville.png,,,,,,,,,,,,,,,,,,
null,,rt_plussign_withcolor,261292,,yellow,,,,null,GW/shreveport.png,GW/huntsville.png,,,,,,,,,,,,,,,,,,
1648,,rt_thecrossant_black,262245,,black_plus_sign,,,,50,,,1,1,,,,,,,,,,,,,,,,
null,,color_black,262347,,black_plus_sign,,,,null,,,,,,,,,,,,,,,,,,,,
null,,learn_phase(without_color),265349,,black_plus_sign,,,,null,GW/leesburg.png,GW/carmel.png,,,,,,,,,,,,,,,,,,
null,,black_cross(without_color),266028,,yellow,,,,null,GW/leesburg.png,GW/carmel.png,,,,,,,,,,,,,,,,,,
null,,rt_plussign_withcolor,266529,,yellow,,,,null,GW/leesburg.png,GW/carmel.png,,,,,,,,,,,,,,,,,,
947.8999998569489,,rt_thecrossant_black,267854,,black_plus_sign,,,,50,,,1,1,,,,,,,,,,,,,,,,
null,,color_black,267955,,black_plus_sign,,,,null,,,,,,,,,,,,,,,,,,,,
null,,learn_phase(without_color),270956,,black_plus_sign,,,,null,GW/newhope.png,GW/boulder.png,,,,,,,,,,,,,,,,,,
null,,black_cross(without_color),271716,,blue,,,,null,GW/newhope.png,GW/boulder.png,,,,,,,,,,,,,,,,,,
376.40000009536743,,rt_plussign_withcolor,272217,,blue,,,,49,GW/newhope.png,GW/boulder.png,,,,,,,,,,,,,,,,,,
null,,rt_thecrossant_black,273460,,black_plus_sign,,,,null,,,1,1,,,,,,,,,,,,,,,,
null,,color_black,273561,,black_plus_sign,,,,null,,,,,,,,,,,,,,,,,,,,
null,,learn_phase(without_color),276563,,black_plus_sign,,,,null,GW/shreveport.png,GW/huntsville.png,,,,,,,,,,,,,,,,,,
null,,black_cross(without_color),277248,,blue,,,,null,GW/shreveport.png,GW/huntsville.png,,,,,,,,,,,,,,,,,,
null,,rt_plussign_withcolor,277749,,blue,,,,null,GW/shreveport.png,GW/huntsville.png,,,,,,,,,,,,,,,,,,
1094.6000001430511,,rt_thecrossant_black,279066,,black_plus_sign,,,,50,,,0,0.75,,,,,,,,,,,,,,,,
null,,color_black,279167,,black_plus_sign,,,,null,,,,,,,,,,,,,,,,,,,,
null,,learn_phase(without_color),282169,,black_plus_sign,,,,null,GW/carmel.png,GW/leesburg.png,,,,,,,,,,,,,,,,,,
null,,black_cross(without_color),282804,,blue,,,,null,GW/carmel.png,GW/leesburg.png,,,,,,,,,,,,,,,,,,
null,,rt_plussign_withcolor,283305,,blue,,,,null,GW/carmel.png,GW/leesburg.png,,,,,,,,,,,,,,,,,,
915.2000000476837,,rt_thecrossant_black,284674,,black_plus_sign,,,,50,,,0,0.6,,,,,,,,,,,,,,,,
null,,warning_page,287675,,warning,,,,null,,,,,,,,,,,,,,,,,,,,
null,,color_black,287777,,black_plus_sign,,,,null,,,,,,,,,,,,,,,,,,,,
null,,learn_phase(without_color),290778,,black_plus_sign,,,,null,GW/shreveport.png,GW/huntsville.png,,,,,,,,,,,,,,,,,,
null,,black_cross(without_color),291207,,blue,,,,null,GW/shreveport.png,GW/huntsville.png,,,,,,,,,,,,,,,,,,
null,,rt_plussign_withcolor,291708,,blue,,,,null,GW/shreveport.png,GW/huntsville.png,,,,,,,,,,,,,,,,,,
929.7000000476837,,rt_thecrossant_black,293282,,black_plus_sign,,,,49,,,1,0.6666666666666666,,,,,,,,,,,,,,,,
null,,color_black,293383,,black_plus_sign,,,,null,,,,,,,,,,,,,,,,,,,,
null,,learn_phase(without_color),296385,,black_plus_sign,,,,null,GW/peoria.png,GW/westpalmbeach.png,,,,,,,,,,,,,,,,,,
null,,black_cross(without_color),297351,,yellow,,,,null,GW/peoria.png,GW/westpalmbeach.png,,,,,,,,,,,,,,,,,,
null,,rt_plussign_withcolor,297852,,yellow,,,,null,GW/peoria.png,GW/westpalmbeach.png,,,,,,,,,,,,,,,,,,
563.2000000476837,,rt_thecrossant_black,298889,,black_plus_sign,,,,50,,,1,0.7142857142857143,,,,,,,,,,,,,,,,
null,,color_black,298991,,black_plus_sign,,,,null,,,,,,,,,,,,,,,,,,,,
null,,learn_phase(without_color),301993,,black_plus_sign,,,,null,GW/boulder.png,GW/newhope.png,,,,,,,,,,,,,,,,,,
null,,black_cross(without_color),302830,,blue,,,,null,GW/boulder.png,GW/newhope.png,,,,,,,,,,,,,,,,,,
null,,rt_plussign_withcolor,303332,,blue,,,,null,GW/boulder.png,GW/newhope.png,,,,,,,,,,,,,,,,,,
1560.5999999046326,,rt_thecrossant_black,304497,,black_plus_sign,,,,49,,,1,0.75,,,,,,,,,,,,,,,,
null,,color_black,304598,,black_plus_sign,,,,null,,,,,,,,,,,,,,,,,,,,
null,,learn_phase(without_color),307599,,black_plus_sign,,,,null,GW/huntsville.png,GW/shreveport.png,,,,,,,,,,,,,,,,,,
null,,black_cross(without_color),308602,,yellow,,,,null,GW/huntsville.png,GW/shreveport.png,,,,,,,,,,,,,,,,,,
null,,rt_plussign_withcolor,309103,,yellow,,,,null,GW/huntsville.png,GW/shreveport.png,,,,,,,,,,,,,,,,,,
1049.9000000953674,,rt_thecrossant_black,310103,,black_plus_sign,,,,50,,,1,0.7777777777777778,,,,,,,,,,,,,,,,
null,,color_black,310204,,black_plus_sign,,,,null,,,,,,,,,,,,,,,,,,,,
null,,learn_phase(without_color),313206,,black_plus_sign,,,,null,GW/westpalmbeach.png,GW/peoria.png,,,,,,,,,,,,,,,,,,
null,,black_cross(without_color),313652,,yellow,,,,null,GW/westpalmbeach.png,GW/peoria.png,,,,,,,,,,,,,,,,,,
null,,rt_plussign_withcolor,314153,,yellow,,,,null,GW/westpalmbeach.png,GW/peoria.png,,,,,,,,,,,,,,,,,,
1192.5,,rt_thecrossant_black,315709,,black_plus_sign,,,,50,,,1,0.8,,,,,,,,,,,,,,,,
null,,color_black,315811,,black_plus_sign,,,,null,,,,,,,,,,,,,,,,,,,,
null,,learn_phase(without_color),318812,,black_plus_sign,,,,null,GW/shreveport.png,GW/huntsville.png,,,,,,,,,,,,,,,,,,
null,,black_cross(without_color),319489,,yellow,,,,null,GW/shreveport.png,GW/huntsville.png,,,,,,,,,,,,,,,,,,
null,,rt_plussign_withcolor,319990,,yellow,,,,null,GW/shreveport.png,GW/huntsville.png,,,,,,,,,,,,,,,,,,
1338.5,,rt_thecrossant_black,321316,,black_plus_sign,,,,50,,,1,0.8181818181818182,,,,,,,,,,,,,,,,
null,,color_black,321417,,black_plus_sign,,,,null,,,,,,,,,,,,,,,,,,,,
null,,learn_phase(without_color),324419,,black_plus_sign,,,,null,GW/carmel.png,GW/leesburg.png,,,,,,,,,,,,,,,,,,
null,,black_cross(without_color),325023,,yellow,,,,null,GW/carmel.png,GW/leesburg.png,,,,,,,,,,,,,,,,,,
null,,rt_plussign_withcolor,325525,,yellow,,,,null,GW/carmel.png,GW/leesburg.png,,,,,,,,,,,,,,,,,,
1102.6000001430511,,rt_thecrossant_black,326922,,black_plus_sign,,,,50,,,1,0.8333333333333334,,,,,,,,,,,,,,,,
null,,color_black,327024,,black_plus_sign,,,,null,,,,,,,,,,,,,,,,,,,,
null,,learn_phase(without_color),330025,,black_plus_sign,,,,null,GW/boulder.png,GW/newhope.png,,,,,,,,,,,,,,,,,,
null,,black_cross(without_color),330729,,yellow,,,,null,GW/boulder.png,GW/newhope.png,,,,,,,,,,,,,,,,,,
null,,rt_plussign_withcolor,331230,,yellow,,,,null,GW/boulder.png,GW/newhope.png,,,,,,,,,,,,,,,,,,
762.2000000476837,,rt_thecrossant_black,332529,,black_plus_sign,,,,50,,,1,0.8461538461538461,,,,,,,,,,,,,,,,
null,,color_black,332630,,black_plus_sign,,,,null,,,,,,,,,,,,,,,,,,,,
null,,learn_phase(without_color),335632,,black_plus_sign,,,,null,GW/huntsville.png,GW/shreveport.png,,,,,,,,,,,,,,,,,,
null,,black_cross(without_color),336299,,yellow,,,,null,GW/huntsville.png,GW/shreveport.png,,,,,,,,,,,,,,,,,,
481.09999990463257,,rt_plussign_withcolor,336800,,yellow,,,,50,GW/huntsville.png,GW/shreveport.png,,,,,,,,,,,,,,,,,,
null,,rt_thecrossant_black,338135,,black_plus_sign,,,,null,,,1,0.8571428571428571,,,,,,,,,,,,,,,,
null,,color_black,338236,,black_plus_sign,,,,null,,,,,,,,,,,,,,,,,,,,
null,,learn_phase(without_color),341238,,black_plus_sign,,,,null,GW/carmel.png,GW/leesburg.png,,,,,,,,,,,,,,,,,,
null,,black_cross(without_color),341822,,blue,,,,null,GW/carmel.png,GW/leesburg.png,,,,,,,,,,,,,,,,,,
null,,rt_plussign_withcolor,342324,,blue,,,,null,GW/carmel.png,GW/leesburg.png,,,,,,,,,,,,,,,,,,
769.9000000953674,,rt_thecrossant_black,343752,,black_plus_sign,,,,49,,,1,0.8666666666666667,,,,,,,,,,,,,,,,
null,,color_black,343853,,black_plus_sign,,,,null,,,,,,,,,,,,,,,,,,,,
null,,learn_phase(without_color),346854,,black_plus_sign,,,,null,GW/westpalmbeach.png,GW/peoria.png,,,,,,,,,,,,,,,,,,
null,,black_cross(without_color),347451,,blue,,,,null,GW/westpalmbeach.png,GW/peoria.png,,,,,,,,,,,,,,,,,,
null,,rt_plussign_withcolor,347952,,blue,,,,null,GW/westpalmbeach.png,GW/peoria.png,,,,,,,,,,,,,,,,,,
686.5999999046326,,rt_thecrossant_black,349358,,black_plus_sign,,,,49,,,1,0.875,,,,,,,,,,,,,,,,
null,,color_black,349459,,black_plus_sign,,,,null,,,,,,,,,,,,,,,,,,,,
null,,learn_phase(without_color),352461,,black_plus_sign,,,,null,GW/shreveport.png,GW/huntsville.png,,,,,,,,,,,,,,,,,,
null,,black_cross(without_color),352918,,blue,,,,null,GW/shreveport.png,GW/huntsville.png,,,,,,,,,,,,,,,,,,
null,,rt_plussign_withcolor,353419,,blue,,,,null,GW/shreveport.png,GW/huntsville.png,,,,,,,,,,,,,,,,,,
755.5999999046326,,rt_thecrossant_black,354965,,black_plus_sign,,,,49,,,1,0.8823529411764706,,,,,,,,,,,,,,,,
null,,color_black,355066,,black_plus_sign,,,,null,,,,,,,,,,,,,,,,,,,,
null,,learn_phase(without_color),358067,,black_plus_sign,,,,null,GW/carmel.png,GW/leesburg.png,,,,,,,,,,,,,,,,,,
null,,black_cross(without_color),358927,,blue,,,,null,GW/carmel.png,GW/leesburg.png,,,,,,,,,,,,,,,,,,
null,,rt_plussign_withcolor,359429,,blue,,,,null,GW/carmel.png,GW/leesburg.png,,,,,,,,,,,,,,,,,,
670.6999998092651,,rt_thecrossant_black,360571,,black_plus_sign,,,,49,,,1,0.8888888888888888,,,,,,,,,,,,,,,,
null,,color_black,360672,,black_plus_sign,,,,null,,,,,,,,,,,,,,,,,,,,
null,,learn_phase(without_color),363673,,black_plus_sign,,,,null,GW/peoria.png,GW/westpalmbeach.png,,,,,,,,,,,,,,,,,,
null,,black_cross(without_color),364486,,blue,,,,null,GW/peoria.png,GW/westpalmbeach.png,,,,,,,,,,,,,,,,,,
null,,rt_plussign_withcolor,364988,,blue,,,,null,GW/peoria.png,GW/westpalmbeach.png,,,,,,,,,,,,,,,,,,
1014.9000000953674,,rt_thecrossant_black,366177,,black_plus_sign,,,,49,,,1,0.8947368421052632,,,,,,,,,,,,,,,,
null,,color_black,366279,,black_plus_sign,,,,null,,,,,,,,,,,,,,,,,,,,
null,,learn_phase(without_color),369280,,black_plus_sign,,,,null,GW/shreveport.png,GW/huntsville.png,,,,,,,,,,,,,,,,,,
null,,black_cross(without_color),369792,,yellow,,,,null,GW/shreveport.png,GW/huntsville.png,,,,,,,,,,,,,,,,,,
464.2000000476837,,rt_plussign_withcolor,370293,,yellow,,,,50,GW/shreveport.png,GW/huntsville.png,,,,,,,,,,,,,,,,,,
null,,rt_thecrossant_black,371783,,black_plus_sign,,,,null,,,1,0.9,,,,,,,,,,,,,,,,
null,,color_black,371884,,black_plus_sign,,,,null,,,,,,,,,,,,,,,,,,,,
null,,learn_phase(without_color),374885,,black_plus_sign,,,,null,GW/peoria.png,GW/westpalmbeach.png,,,,,,,,,,,,,,,,,,
null,,black_cross(without_color),375488,,yellow,,,,null,GW/peoria.png,GW/westpalmbeach.png,,,,,,,,,,,,,,,,,,
467.59999990463257,,rt_plussign_withcolor,375989,,yellow,,,,50,GW/peoria.png,GW/westpalmbeach.png,,,,,,,,,,,,,,,,,,
null,,rt_thecrossant_black,377388,,black_plus_sign,,,,null,,,1,0.9047619047619048,,,,,,,,,,,,,,,,
null,,color_black,377490,,black_plus_sign,,,,null,,,,,,,,,,,,,,,,,,,,
null,,learn_phase(without_color),380490,,black_plus_sign,,,,null,GW/leesburg.png,GW/carmel.png,,,,,,,,,,,,,,,,,,
null,,black_cross(without_color),381190,,yellow,,,,null,GW/leesburg.png,GW/carmel.png,,,,,,,,,,,,,,,,,,
500.5,,rt_plussign_withcolor,381692,,yellow,,,,50,GW/leesburg.png,GW/carmel.png,,,,,,,,,,,,,,,,,,
null,,rt_thecrossant_black,382994,,black_plus_sign,,,,null,,,1,0.9090909090909091,,,,,,,,,,,,,,,,
null,,color_black,383095,,black_plus_sign,,,,null,,,,,,,,,,,,,,,,,,,,
null,,learn_phase(without_color),386096,,black_plus_sign,,,,null,GW/boulder.png,GW/newhope.png,,,,,,,,,,,,,,,,,,
null,,black_cross(without_color),387117,,yellow,,,,null,GW/boulder.png,GW/newhope.png,,,,,,,,,,,,,,,,,,
null,,rt_plussign_withcolor,387619,,yellow,,,,null,GW/boulder.png,GW/newhope.png,,,,,,,,,,,,,,,,,,
1575.7000000476837,,rt_thecrossant_black,388610,,black_plus_sign,,,,50,,,1,0.9130434782608695,,,,,,,,,,,,,,,,
null,,color_black,388711,,black_plus_sign,,,,null,,,,,,,,,,,,,,,,,,,,
null,,learn_phase(without_color),391712,,black_plus_sign,,,,null,GW/leesburg.png,GW/carmel.png,,,,,,,,,,,,,,,,,,
null,,black_cross(without_color),392191,,blue,,,,null,GW/leesburg.png,GW/carmel.png,,,,,,,,,,,,,,,,,,
null,,rt_plussign_withcolor,392692,,blue,,,,null,GW/leesburg.png,GW/carmel.png,,,,,,,,,,,,,,,,,,
1160.2999999523163,,rt_thecrossant_black,394216,,black_plus_sign,,,,49,,,1,0.9166666666666666,,,,,,,,,,,,,,,,
null,,color_black,394316,,black_plus_sign,,,,null,,,,,,,,,,,,,,,,,,,,
null,,learn_phase(without_color),397318,,black_plus_sign,,,,null,GW/peoria.png,GW/westpalmbeach.png,,,,,,,,,,,,,,,,,,
null,,black_cross(without_color),398379,,blue,,,,null,GW/peoria.png,GW/westpalmbeach.png,,,,,,,,,,,,,,,,,,
null,,rt_plussign_withcolor,398879,,blue,,,,null,GW/peoria.png,GW/westpalmbeach.png,,,,,,,,,,,,,,,,,,
773.7000000476837,,rt_thecrossant_black,399822,,black_plus_sign,,,,49,,,1,0.92,,,,,,,,,,,,,,,,
null,,color_black,399923,,black_plus_sign,,,,null,,,,,,,,,,,,,,,,,,,,
null,,learn_phase(without_color),402925,,black_plus_sign,,,,null,GW/boulder.png,GW/newhope.png,,,,,,,,,,,,,,,,,,
null,,black_cross(without_color),403946,,blue,,,,null,GW/boulder.png,GW/newhope.png,,,,,,,,,,,,,,,,,,
null,,rt_plussign_withcolor,404447,,blue,,,,null,GW/boulder.png,GW/newhope.png,,,,,,,,,,,,,,,,,,
1458.8000001907349,,rt_thecrossant_black,405429,,black_plus_sign,,,,49,,,1,0.9230769230769231,,,,,,,,,,,,,,,,
null,,color_black,405530,,black_plus_sign,,,,null,,,,,,,,,,,,,,,,,,,,
null,,learn_phase(without_color),408532,,black_plus_sign,,,,null,GW/westpalmbeach.png,GW/peoria.png,,,,,,,,,,,,,,,,,,
null,,black_cross(without_color),409579,,blue,,,,null,GW/westpalmbeach.png,GW/peoria.png,,,,,,,,,,,,,,,,,,
481,,rt_plussign_withcolor,410079,,blue,,,,49,GW/westpalmbeach.png,GW/peoria.png,,,,,,,,,,,,,,,,,,
null,,rt_thecrossant_black,411035,,black_plus_sign,,,,null,,,1,0.9259259259259259,,,,,,,,,,,,,,,,
null,,color_black,411136,,black_plus_sign,,,,null,,,,,,,,,,,,,,,,,,,,
null,,learn_phase(without_color),414137,,black_plus_sign,,,,null,GW/boulder.png,GW/newhope.png,,,,,,,,,,,,,,,,,,
null,,black_cross(without_color),415109,,yellow,,,,null,GW/boulder.png,GW/newhope.png,,,,,,,,,,,,,,,,,,
390.2000000476837,,rt_plussign_withcolor,415610,,yellow,,,,50,GW/boulder.png,GW/newhope.png,,,,,,,,,,,,,,,,,,
null,,rt_thecrossant_black,416642,,black_plus_sign,,,,null,,,1,0.9285714285714286,,,,,,,,,,,,,,,,
null,,color_black,416744,,black_plus_sign,,,,null,,,,,,,,,,,,,,,,,,,,
null,,learn_phase(without_color),419745,,black_plus_sign,,,,null,GW/peoria.png,GW/westpalmbeach.png,,,,,,,,,,,,,,,,,,
null,,black_cross(without_color),420340,,yellow,,,,null,GW/peoria.png,GW/westpalmbeach.png,,,,,,,,,,,,,,,,,,
null,,rt_plussign_withcolor,420842,,yellow,,,,null,GW/peoria.png,GW/westpalmbeach.png,,,,,,,,,,,,,,,,,,
1175.1999998092651,,rt_thecrossant_black,422250,,black_plus_sign,,,,50,,,1,0.9310344827586207,,,,,,,,,,,,,,,,
null,,color_black,422351,,black_plus_sign,,,,null,,,,,,,,,,,,,,,,,,,,
null,,learn_phase(without_color),425353,,black_plus_sign,,,,null,GW/newhope.png,GW/boulder.png,,,,,,,,,,,,,,,,,,
null,,black_cross(without_color),426185,,blue,,,,null,GW/newhope.png,GW/boulder.png,,,,,,,,,,,,,,,,,,
450.7000000476837,,rt_plussign_withcolor,426686,,blue,,,,49,GW/newhope.png,GW/boulder.png,,,,,,,,,,,,,,,,,,
null,,rt_thecrossant_black,427857,,black_plus_sign,,,,null,,,1,0.9333333333333333,,,,,,,,,,,,,,,,
null,,color_black,427958,,black_plus_sign,,,,null,,,,,,,,,,,,,,,,,,,,
null,,learn_phase(without_color),430959,,black_plus_sign,,,,null,GW/leesburg.png,GW/carmel.png,,,,,,,,,,,,,,,,,,
null,,black_cross(without_color),431665,,yellow,,,,null,GW/leesburg.png,GW/carmel.png,,,,,,,,,,,,,,,,,,
null,,rt_plussign_withcolor,432166,,yellow,,,,null,GW/leesburg.png,GW/carmel.png,,,,,,,,,,,,,,,,,,
1198.6000001430511,,rt_thecrossant_black,433464,,black_plus_sign,,,,50,,,1,0.9354838709677419,,,,,,,,,,,,,,,,
null,,color_black,433565,,black_plus_sign,,,,null,,,,,,,,,,,,,,,,,,,,
null,,learn_phase(without_color),436566,,black_plus_sign,,,,null,GW/newhope.png,GW/boulder.png,,,,,,,,,,,,,,,,,,
null,,black_cross(without_color),437402,,blue,,,,null,GW/newhope.png,GW/boulder.png,,,,,,,,,,,,,,,,,,
null,,rt_plussign_withcolor,437903,,blue,,,,null,GW/newhope.png,GW/boulder.png,,,,,,,,,,,,,,,,,,
920.1999998092651,,rt_thecrossant_black,439070,,black_plus_sign,,,,49,,,1,0.9375,,,,,,,,,,,,,,,,
null,,color_black,439171,,black_plus_sign,,,,null,,,,,,,,,,,,,,,,,,,,
null,,learn_phase(without_color),442172,,black_plus_sign,,,,null,GW/cornwall.png,GW/boulder.png,,,,,,,,,,,,,,,,,,
null,,black_cross(without_color),442795,,yellow,,,,null,GW/cornwall.png,GW/boulder.png,,,,,,,,,,,,,,,,,,
null,,rt_plussign_withcolor,443296,,yellow,,,,null,GW/cornwall.png,GW/boulder.png,,,,,,,,,,,,,,,,,,
1388.3999998569489,,rt_thecrossant_black,444675,,black_plus_sign,,,,50,,,1,0.9393939393939394,,,,,,,,,,,,,,,,
null,,color_black,444776,,black_plus_sign,,,,null,,,,,,,,,,,,,,,,,,,,
null,,learn_phase(without_color),447778,,black_plus_sign,,,,null,GW/huntsville.png,GW/westpalmbeach.png,,,,,,,,,,,,,,,,,,
null,,black_cross(without_color),448294,,yellow,,,,null,GW/huntsville.png,GW/westpalmbeach.png,,,,,,,,,,,,,,,,,,
null,,rt_plussign_withcolor,448795,,yellow,,,,null,GW/huntsville.png,GW/westpalmbeach.png,,,,,,,,,,,,,,,,,,
1645.2000000476837,,rt_thecrossant_black,450281,,black_plus_sign,,,,50,,,1,0.9411764705882353,,,,,,,,,,,,,,,,
null,,color_black,450383,,black_plus_sign,,,,null,,,,,,,,,,,,,,,,,,,,
null,,learn_phase(without_color),453384,,black_plus_sign,,,,null,GW/gatlinburg.png,GW/hotsprings.png,,,,,,,,,,,,,,,,,,
null,,black_cross(without_color),454426,,yellow,,,,null,GW/gatlinburg.png,GW/hotsprings.png,,,,,,,,,,,,,,,,,,
null,,rt_plussign_withcolor,454927,,yellow,,,,null,GW/gatlinburg.png,GW/hotsprings.png,,,,,,,,,,,,,,,,,,
702.4000000953674,,rt_thecrossant_black,455887,,black_plus_sign,,,,50,,,1,0.9428571428571428,,,,,,,,,,,,,,,,
null,,color_black,455988,,black_plus_sign,,,,null,,,,,,,,,,,,,,,,,,,,
null,,learn_phase(without_color),458991,,black_plus_sign,,,,null,GW/peoria.png,GW/racine.png,,,,,,,,,,,,,,,,,,
null,,black_cross(without_color),459780,,blue,,,,null,GW/peoria.png,GW/racine.png,,,,,,,,,,,,,,,,,,
null,,rt_plussign_withcolor,460281,,blue,,,,null,GW/peoria.png,GW/racine.png,,,,,,,,,,,,,,,,,,
1358,,rt_thecrossant_black,461495,,black_plus_sign,,,,49,,,1,0.9444444444444444,,,,,,,,,,,,,,,,
null,,color_black,461596,,black_plus_sign,,,,null,,,,,,,,,,,,,,,,,,,,
null,,learn_phase(without_color),464598,,black_plus_sign,,,,null,GW/huntsville.png,GW/westpalmbeach.png,,,,,,,,,,,,,,,,,,
null,,black_cross(without_color),465671,,yellow,,,,null,GW/huntsville.png,GW/westpalmbeach.png,,,,,,,,,,,,,,,,,,
null,,rt_plussign_withcolor,466173,,yellow,,,,null,GW/huntsville.png,GW/westpalmbeach.png,,,,,,,,,,,,,,,,,,
989.5,,rt_thecrossant_black,467103,,black_plus_sign,,,,50,,,1,0.9459459459459459,,,,,,,,,,,,,,,,
null,,color_black,467204,,black_plus_sign,,,,null,,,,,,,,,,,,,,,,,,,,
null,,learn_phase(without_color),470206,,black_plus_sign,,,,null,GW/racine.png,GW/peoria.png,,,,,,,,,,,,,,,,,,
null,,black_cross(without_color),470645,,yellow,,,,null,GW/racine.png,GW/peoria.png,,,,,,,,,,,,,,,,,,
null,,rt_plussign_withcolor,471146,,yellow,,,,null,GW/racine.png,GW/peoria.png,,,,,,,,,,,,,,,,,,
1496.5999999046326,,rt_thecrossant_black,472709,,black_plus_sign,,,,50,,,1,0.9473684210526315,,,,,,,,,,,,,,,,
null,,color_black,472811,,black_plus_sign,,,,null,,,,,,,,,,,,,,,,,,,,
null,,learn_phase(without_color),475812,,black_plus_sign,,,,null,GW/cornwall.png,GW/boulder.png,,,,,,,,,,,,,,,,,,
null,,black_cross(without_color),476339,,yellow,,,,null,GW/cornwall.png,GW/boulder.png,,,,,,,,,,,,,,,,,,
null,,rt_plussign_withcolor,476840,,yellow,,,,null,GW/cornwall.png,GW/boulder.png,,,,,,,,,,,,,,,,,,
904.0999999046326,,rt_thecrossant_black,478315,,black_plus_sign,,,,50,,,1,0.9487179487179487,,,,,,,,,,,,,,,,
null,,color_black,478417,,black_plus_sign,,,,null,,,,,,,,,,,,,,,,,,,,
null,,learn_phase(without_color),481418,,black_plus_sign,,,,null,GW/westpalmbeach.png,GW/huntsville.png,,,,,,,,,,,,,,,,,,
null,,black_cross(without_color),482096,,yellow,,,,null,GW/westpalmbeach.png,GW/huntsville.png,,,,,,,,,,,,,,,,,,
466.10000014305115,,rt_plussign_withcolor,482597,,yellow,,,,50,GW/westpalmbeach.png,GW/huntsville.png,,,,,,,,,,,,,,,,,,
null,,rt_thecrossant_black,483922,,black_plus_sign,,,,null,,,1,0.95,,,,,,,,,,,,,,,,
null,,color_black,484023,,black_plus_sign,,,,null,,,,,,,,,,,,,,,,,,,,
null,,learn_phase(without_color),487034,,black_plus_sign,,,,null,GW/gatlinburg.png,GW/hotsprings.png,,,,,,,,,,,,,,,,,,
null,,black_cross(without_color),487810,,blue,,,,null,GW/gatlinburg.png,GW/hotsprings.png,,,,,,,,,,,,,,,,,,
null,,rt_plussign_withcolor,488311,,blue,,,,null,GW/gatlinburg.png,GW/hotsprings.png,,,,,,,,,,,,,,,,,,
800.2000000476837,,rt_thecrossant_black,489537,,black_plus_sign,,,,49,,,1,0.9512195121951219,,,,,,,,,,,,,,,,
null,,color_black,489639,,black_plus_sign,,,,null,,,,,,,,,,,,,,,,,,,,
null,,learn_phase(without_color),492640,,black_plus_sign,,,,null,GW/peoria.png,GW/racine.png,,,,,,,,,,,,,,,,,,
null,,black_cross(without_color),493533,,blue,,,,null,GW/peoria.png,GW/racine.png,,,,,,,,,,,,,,,,,,
null,,rt_plussign_withcolor,494034,,blue,,,,null,GW/peoria.png,GW/racine.png,,,,,,,,,,,,,,,,,,
915,,rt_thecrossant_black,495142,,black_plus_sign,,,,49,,,1,0.9523809523809523,,,,,,,,,,,,,,,,
null,,color_black,495243,,black_plus_sign,,,,null,,,,,,,,,,,,,,,,,,,,
null,,learn_phase(without_color),498245,,black_plus_sign,,,,null,GW/hotsprings.png,GW/gatlinburg.png,,,,,,,,,,,,,,,,,,
null,,black_cross(without_color),499295,,yellow,,,,null,GW/hotsprings.png,GW/gatlinburg.png,,,,,,,,,,,,,,,,,,
399.7000000476837,,rt_plussign_withcolor,499796,,yellow,,,,50,GW/hotsprings.png,GW/gatlinburg.png,,,,,,,,,,,,,,,,,,
null,,rt_thecrossant_black,500761,,black_plus_sign,,,,null,,,1,0.9534883720930233,,,,,,,,,,,,,,,,
null,,color_black,500862,,black_plus_sign,,,,null,,,,,,,,,,,,,,,,,,,,
null,,learn_phase(without_color),503863,,black_plus_sign,,,,null,GW/racine.png,GW/peoria.png,,,,,,,,,,,,,,,,,,
null,,black_cross(without_color),504891,,yellow,,,,null,GW/racine.png,GW/peoria.png,,,,,,,,,,,,,,,,,,
414.5,,rt_plussign_withcolor,505393,,yellow,,,,50,GW/racine.png,GW/peoria.png,,,,,,,,,,,,,,,,,,
null,,rt_thecrossant_black,506367,,black_plus_sign,,,,null,,,1,0.9545454545454546,,,,,,,,,,,,,,,,
null,,color_black,506469,,black_plus_sign,,,,null,,,,,,,,,,,,,,,,,,,,
null,,learn_phase(without_color),509470,,black_plus_sign,,,,null,GW/cornwall.png,GW/boulder.png,,,,,,,,,,,,,,,,,,
null,,black_cross(without_color),510564,,blue,,,,null,GW/cornwall.png,GW/boulder.png,,,,,,,,,,,,,,,,,,
425.90000009536743,,rt_plussign_withcolor,511065,,blue,,,,49,GW/cornwall.png,GW/boulder.png,,,,,,,,,,,,,,,,,,
null,,rt_thecrossant_black,511973,,black_plus_sign,,,,null,,,1,0.9555555555555556,,,,,,,,,,,,,,,,
null,,color_black,512075,,black_plus_sign,,,,null,,,,,,,,,,,,,,,,,,,,
null,,learn_phase(without_color),515076,,black_plus_sign,,,,null,GW/huntsville.png,GW/westpalmbeach.png,,,,,,,,,,,,,,,,,,
null,,black_cross(without_color),515524,,yellow,,,,null,GW/huntsville.png,GW/westpalmbeach.png,,,,,,,,,,,,,,,,,,
null,,rt_plussign_withcolor,516025,,yellow,,,,null,GW/huntsville.png,GW/westpalmbeach.png,,,,,,,,,,,,,,,,,,
1517.5999999046326,,rt_thecrossant_black,517579,,black_plus_sign,,,,50,,,1,0.9565217391304348,,,,,,,,,,,,,,,,
null,,color_black,517680,,black_plus_sign,,,,null,,,,,,,,,,,,,,,,,,,,
null,,learn_phase(without_color),520682,,black_plus_sign,,,,null,GW/gatlinburg.png,GW/hotsprings.png,,,,,,,,,,,,,,,,,,
null,,black_cross(without_color),521519,,yellow,,,,null,GW/gatlinburg.png,GW/hotsprings.png,,,,,,,,,,,,,,,,,,
null,,rt_plussign_withcolor,522020,,yellow,,,,null,GW/gatlinburg.png,GW/hotsprings.png,,,,,,,,,,,,,,,,,,
593.2999999523163,,rt_thecrossant_black,523186,,black_plus_sign,,,,50,,,1,0.9574468085106383,,,,,,,,,,,,,,,,
null,,color_black,523287,,black_plus_sign,,,,null,,,,,,,,,,,,,,,,,,,,
null,,learn_phase(without_color),526288,,black_plus_sign,,,,null,GW/racine.png,GW/peoria.png,,,,,,,,,,,,,,,,,,
null,,black_cross(without_color),527299,,blue,,,,null,GW/racine.png,GW/peoria.png,,,,,,,,,,,,,,,,,,
475.10000014305115,,rt_plussign_withcolor,527800,,blue,,,,49,GW/racine.png,GW/peoria.png,,,,,,,,,,,,,,,,,,
null,,rt_thecrossant_black,528791,,black_plus_sign,,,,null,,,1,0.9583333333333334,,,,,,,,,,,,,,,,
null,,color_black,528892,,black_plus_sign,,,,null,,,,,,,,,,,,,,,,,,,,
null,,learn_phase(without_color),531893,,black_plus_sign,,,,null,GW/gatlinburg.png,GW/hotsprings.png,,,,,,,,,,,,,,,,,,
null,,black_cross(without_color),532489,,yellow,,,,null,GW/gatlinburg.png,GW/hotsprings.png,,,,,,,,,,,,,,,,,,
null,,rt_plussign_withcolor,532991,,yellow,,,,null,GW/gatlinburg.png,GW/hotsprings.png,,,,,,,,,,,,,,,,,,
1225,,rt_thecrossant_black,534397,,black_plus_sign,,,,50,,,1,0.9591836734693877,,,,,,,,,,,,,,,,
null,,color_black,534499,,black_plus_sign,,,,null,,,,,,,,,,,,,,,,,,,,
null,,learn_phase(without_color),537501,,black_plus_sign,,,,null,GW/boulder.png,GW/cornwall.png,,,,,,,,,,,,,,,,,,
null,,black_cross(without_color),538567,,blue,,,,null,GW/boulder.png,GW/cornwall.png,,,,,,,,,,,,,,,,,,
null,,rt_plussign_withcolor,539069,,blue,,,,null,GW/boulder.png,GW/cornwall.png,,,,,,,,,,,,,,,,,,
767.8000001907349,,rt_thecrossant_black,540005,,black_plus_sign,,,,49,,,1,0.96,,,,,,,,,,,,,,,,
null,,color_black,540106,,black_plus_sign,,,,null,,,,,,,,,,,,,,,,,,,,
null,,learn_phase(without_color),543108,,black_plus_sign,,,,null,GW/peoria.png,GW/racine.png,,,,,,,,,,,,,,,,,,
null,,black_cross(without_color),543511,,blue,,,,null,GW/peoria.png,GW/racine.png,,,,,,,,,,,,,,,,,,
null,,rt_plussign_withcolor,544013,,blue,,,,null,GW/peoria.png,GW/racine.png,,,,,,,,,,,,,,,,,,
1421.6000001430511,,rt_thecrossant_black,545612,,black_plus_sign,,,,49,,,1,0.9607843137254902,,,,,,,,,,,,,,,,
null,,color_black,545713,,black_plus_sign,,,,null,,,,,,,,,,,,,,,,,,,,
null,,learn_phase(without_color),548714,,black_plus_sign,,,,null,GW/gatlinburg.png,GW/hotsprings.png,,,,,,,,,,,,,,,,,,
null,,black_cross(without_color),549775,,blue,,,,null,GW/gatlinburg.png,GW/hotsprings.png,,,,,,,,,,,,,,,,,,
null,,rt_plussign_withcolor,550276,,blue,,,,null,GW/gatlinburg.png,GW/hotsprings.png,,,,,,,,,,,,,,,,,,
536.7000000476837,,rt_thecrossant_black,551217,,black_plus_sign,,,,49,,,1,0.9615384615384616,,,,,,,,,,,,,,,,
null,,color_black,551324,,black_plus_sign,,,,null,,,,,,,,,,,,,,,,,,,,
null,,learn_phase(without_color),554326,,black_plus_sign,,,,null,GW/racine.png,GW/peoria.png,,,,,,,,,,,,,,,,,,
null,,black_cross(without_color),555339,,blue,,,,null,GW/racine.png,GW/peoria.png,,,,,,,,,,,,,,,,,,
438.7999999523163,,rt_plussign_withcolor,555840,,blue,,,,49,GW/racine.png,GW/peoria.png,,,,,,,,,,,,,,,,,,
null,,rt_thecrossant_black,556830,,black_plus_sign,,,,null,,,1,0.9622641509433962,,,,,,,,,,,,,,,,
null,,color_black,556931,,black_plus_sign,,,,null,,,,,,,,,,,,,,,,,,,,
null,,learn_phase(without_color),559933,,black_plus_sign,,,,null,GW/boulder.png,GW/cornwall.png,,,,,,,,,,,,,,,,,,
null,,black_cross(without_color),560549,,yellow,,,,null,GW/boulder.png,GW/cornwall.png,,,,,,,,,,,,,,,,,,
null,,rt_plussign_withcolor,561050,,yellow,,,,null,GW/boulder.png,GW/cornwall.png,,,,,,,,,,,,,,,,,,
null,,rt_thecrossant_black,562436,,black_plus_sign,,,,null,,,,0.9622641509433962,,,,,,,,,,,,,,,,
null,,color_black,562546,,black_plus_sign,,,,null,,,,,,,,,,,,,,,,,,,,
null,,learn_phase(without_color),565546,,black_plus_sign,,,,null,GW/huntsville.png,GW/westpalmbeach.png,,,,,,,,,,,,,,,,,,
null,,black_cross(without_color),566046,,blue,,,,null,GW/huntsville.png,GW/westpalmbeach.png,,,,,,,,,,,,,,,,,,
null,,rt_plussign_withcolor,566547,,blue,,,,null,GW/huntsville.png,GW/westpalmbeach.png,,,,,,,,,,,,,,,,,,
1073.2999999523163,,rt_thecrossant_black,568049,,black_plus_sign,,,,49,,,1,0.9629629629629629,,,,,,,,,,,,,,,,
null,,color_black,568150,,black_plus_sign,,,,null,,,,,,,,,,,,,,,,,,,,
null,,learn_phase(without_color),571152,,black_plus_sign,,,,null,GW/boulder.png,GW/cornwall.png,,,,,,,,,,,,,,,,,,
null,,black_cross(without_color),571927,,yellow,,,,null,GW/boulder.png,GW/cornwall.png,,,,,,,,,,,,,,,,,,
null,,rt_plussign_withcolor,572428,,yellow,,,,null,GW/boulder.png,GW/cornwall.png,,,,,,,,,,,,,,,,,,
655.7999999523163,,rt_thecrossant_black,573656,,black_plus_sign,,,,50,,,1,0.9636363636363636,,,,,,,,,,,,,,,,
null,,color_black,573771,,black_plus_sign,,,,null,,,,,,,,,,,,,,,,,,,,
null,,learn_phase(without_color),576773,,black_plus_sign,,,,null,GW/westpalmbeach.png,GW/huntsville.png,,,,,,,,,,,,,,,,,,
null,,black_cross(without_color),577587,,yellow,,,,null,GW/westpalmbeach.png,GW/huntsville.png,,,,,,,,,,,,,,,,,,
null,,rt_plussign_withcolor,578088,,yellow,,,,null,GW/westpalmbeach.png,GW/huntsville.png,,,,,,,,,,,,,,,,,,
1138.7999999523163,,rt_thecrossant_black,579277,,black_plus_sign,,,,50,,,1,0.9642857142857143,,,,,,,,,,,,,,,,
null,,color_black,579378,,black_plus_sign,,,,null,,,,,,,,,,,,,,,,,,,,
null,,learn_phase(without_color),582380,,black_plus_sign,,,,null,GW/boulder.png,GW/cornwall.png,,,,,,,,,,,,,,,,,,
null,,black_cross(without_color),583344,,blue,,,,null,GW/boulder.png,GW/cornwall.png,,,,,,,,,,,,,,,,,,
null,,rt_plussign_withcolor,583846,,blue,,,,null,GW/boulder.png,GW/cornwall.png,,,,,,,,,,,,,,,,,,
1199.9000000953674,,rt_thecrossant_black,584885,,black_plus_sign,,,,49,,,1,0.9649122807017544,,,,,,,,,,,,,,,,
null,,color_black,584987,,black_plus_sign,,,,null,,,,,,,,,,,,,,,,,,,,
null,,learn_phase(without_color),587988,,black_plus_sign,,,,null,GW/racine.png,GW/peoria.png,,,,,,,,,,,,,,,,,,
null,,black_cross(without_color),588948,,blue,,,,null,GW/racine.png,GW/peoria.png,,,,,,,,,,,,,,,,,,
null,,rt_plussign_withcolor,589448,,blue,,,,null,GW/racine.png,GW/peoria.png,,,,,,,,,,,,,,,,,,
1238.5999999046326,,rt_thecrossant_black,590492,,black_plus_sign,,,,49,,,1,0.9655172413793104,,,,,,,,,,,,,,,,
null,,color_black,590593,,black_plus_sign,,,,null,,,,,,,,,,,,,,,,,,,,
null,,learn_phase(without_color),593594,,black_plus_sign,,,,null,GW/huntsville.png,GW/westpalmbeach.png,,,,,,,,,,,,,,,,,,
null,,black_cross(without_color),594476,,blue,,,,null,GW/huntsville.png,GW/westpalmbeach.png,,,,,,,,,,,,,,,,,,
null,,rt_plussign_withcolor,594978,,blue,,,,null,GW/huntsville.png,GW/westpalmbeach.png,,,,,,,,,,,,,,,,,,
1097.6000001430511,,rt_thecrossant_black,596099,,black_plus_sign,,,,49,,,1,0.9661016949152542,,,,,,,,,,,,,,,,
null,,color_black,596200,,black_plus_sign,,,,null,,,,,,,,,,,,,,,,,,,,
null,,learn_phase(without_color),599201,,black_plus_sign,,,,null,GW/gatlinburg.png,GW/hotsprings.png,,,,,,,,,,,,,,,,,,
null,,black_cross(without_color),600223,,yellow,,,,null,GW/gatlinburg.png,GW/hotsprings.png,,,,,,,,,,,,,,,,,,
null,,rt_plussign_withcolor,600724,,yellow,,,,null,GW/gatlinburg.png,GW/hotsprings.png,,,,,,,,,,,,,,,,,,
1037,,rt_thecrossant_black,601705,,black_plus_sign,,,,50,,,1,0.9666666666666667,,,,,,,,,,,,,,,,
null,,color_black,601806,,black_plus_sign,,,,null,,,,,,,,,,,,,,,,,,,,
null,,learn_phase(without_color),604807,,black_plus_sign,,,,null,GW/huntsville.png,GW/westpalmbeach.png,,,,,,,,,,,,,,,,,,
null,,black_cross(without_color),605558,,blue,,,,null,GW/huntsville.png,GW/westpalmbeach.png,,,,,,,,,,,,,,,,,,
454.80000019073486,,rt_plussign_withcolor,606059,,blue,,,,49,GW/huntsville.png,GW/westpalmbeach.png,,,,,,,,,,,,,,,,,,
null,,rt_thecrossant_black,607310,,black_plus_sign,,,,null,,,1,0.9672131147540983,,,,,,,,,,,,,,,,
null,,color_black,607412,,black_plus_sign,,,,null,,,,,,,,,,,,,,,,,,,,
null,,learn_phase(without_color),610413,,black_plus_sign,,,,null,GW/boulder.png,GW/cornwall.png,,,,,,,,,,,,,,,,,,
null,,black_cross(without_color),611078,,blue,,,,null,GW/boulder.png,GW/cornwall.png,,,,,,,,,,,,,,,,,,
462.7999999523163,,rt_plussign_withcolor,611580,,blue,,,,49,GW/boulder.png,GW/cornwall.png,,,,,,,,,,,,,,,,,,
null,,rt_thecrossant_black,612918,,black_plus_sign,,,,null,,,1,0.967741935483871,,,,,,,,,,,,,,,,
null,,color_black,613019,,black_plus_sign,,,,null,,,,,,,,,,,,,,,,,,,,
null,,learn_phase(without_color),616021,,black_plus_sign,,,,null,GW/hotsprings.png,GW/gatlinburg.png,,,,,,,,,,,,,,,,,,
null,,black_cross(without_color),617018,,yellow,,,,null,GW/hotsprings.png,GW/gatlinburg.png,,,,,,,,,,,,,,,,,,
null,,rt_plussign_withcolor,617519,,yellow,,,,null,GW/hotsprings.png,GW/gatlinburg.png,,,,,,,,,,,,,,,,,,
890,,rt_thecrossant_black,618525,,black_plus_sign,,,,50,,,1,0.9682539682539683,,,,,,,,,,,,,,,,
null,,color_black,618626,,black_plus_sign,,,,null,,,,,,,,,,,,,,,,,,,,
35922.40000009537,,learn_break,654549,,learn_break,,,,32,,,,,,,,,,,,,,,,,,,,
null,,html-keyboard-response,655551,,<p></p>,,,,null,,,,,,,,,,,,,,,,,,,,
null,,learn_phase(without_color),658552,,black_plus_sign,,,,null,GW/shreveport.png,GW/racine.png,,,,,,,,,,,,,,,,,,
null,,black_cross(without_color),659261,,yellow,,,,null,GW/shreveport.png,GW/racine.png,,,,,,,,,,,,,,,,,,
null,,rt_plussign_withcolor,659763,,yellow,,,,null,GW/shreveport.png,GW/racine.png,,,,,,,,,,,,,,,,,,
1352.4000000953674,,rt_thecrossant_black,661056,,black_plus_sign,,,,50,,,1,0.96875,,,,,,,,,,,,,,,,
null,,color_black,661158,,black_plus_sign,,,,null,,,,,,,,,,,,,,,,,,,,
null,,learn_phase(without_color),664159,,black_plus_sign,,,,null,GW/hanover.png,GW/westpalmbeach.png,,,,,,,,,,,,,,,,,,
null,,black_cross(without_color),664705,,yellow,,,,null,GW/hanover.png,GW/westpalmbeach.png,,,,,,,,,,,,,,,,,,
390.7000000476837,,rt_plussign_withcolor,665207,,yellow,,,,50,GW/hanover.png,GW/westpalmbeach.png,,,,,,,,,,,,,,,,,,
null,,rt_thecrossant_black,666663,,black_plus_sign,,,,null,,,1,0.9692307692307692,,,,,,,,,,,,,,,,
null,,color_black,666764,,black_plus_sign,,,,null,,,,,,,,,,,,,,,,,,,,
null,,learn_phase(without_color),669766,,black_plus_sign,,,,null,GW/huntsville.png,GW/carmel.png,,,,,,,,,,,,,,,,,,
null,,black_cross(without_color),670819,,blue,,,,null,GW/huntsville.png,GW/carmel.png,,,,,,,,,,,,,,,,,,
384.89999985694885,,rt_plussign_withcolor,671321,,blue,,,,49,GW/huntsville.png,GW/carmel.png,,,,,,,,,,,,,,,,,,
null,,rt_thecrossant_black,672270,,black_plus_sign,,,,null,,,1,0.9696969696969697,,,,,,,,,,,,,,,,
null,,color_black,672372,,black_plus_sign,,,,null,,,,,,,,,,,,,,,,,,,,
null,,learn_phase(without_color),675373,,black_plus_sign,,,,null,GW/shreveport.png,GW/racine.png,,,,,,,,,,,,,,,,,,
null,,black_cross(without_color),676160,,yellow,,,,null,GW/shreveport.png,GW/racine.png,,,,,,,,,,,,,,,,,,
null,,rt_plussign_withcolor,676662,,yellow,,,,null,GW/shreveport.png,GW/racine.png,,,,,,,,,,,,,,,,,,
1422.5999999046326,,rt_thecrossant_black,677877,,black_plus_sign,,,,50,,,1,0.9701492537313433,,,,,,,,,,,,,,,,
null,,color_black,677979,,black_plus_sign,,,,null,,,,,,,,,,,,,,,,,,,,
null,,learn_phase(without_color),680980,,black_plus_sign,,,,null,GW/hanover.png,GW/westpalmbeach.png,,,,,,,,,,,,,,,,,,
null,,black_cross(without_color),681980,,yellow,,,,null,GW/hanover.png,GW/westpalmbeach.png,,,,,,,,,,,,,,,,,,
null,,rt_plussign_withcolor,682482,,yellow,,,,null,GW/hanover.png,GW/westpalmbeach.png,,,,,,,,,,,,,,,,,,
1235.3999998569489,,rt_thecrossant_black,683484,,black_plus_sign,,,,50,,,1,0.9705882352941176,,,,,,,,,,,,,,,,
null,,color_black,683585,,black_plus_sign,,,,null,,,,,,,,,,,,,,,,,,,,
null,,learn_phase(without_color),686586,,black_plus_sign,,,,null,GW/hotsprings.png,GW/boulder.png,,,,,,,,,,,,,,,,,,
null,,black_cross(without_color),687565,,yellow,,,,null,GW/hotsprings.png,GW/boulder.png,,,,,,,,,,,,,,,,,,
null,,rt_plussign_withcolor,688066,,yellow,,,,null,GW/hotsprings.png,GW/boulder.png,,,,,,,,,,,,,,,,,,
1300.1999998092651,,rt_thecrossant_black,689089,,black_plus_sign,,,,50,,,1,0.9710144927536232,,,,,,,,,,,,,,,,
null,,color_black,689191,,black_plus_sign,,,,null,,,,,,,,,,,,,,,,,,,,
null,,learn_phase(without_color),692193,,black_plus_sign,,,,null,GW/shreveport.png,GW/racine.png,,,,,,,,,,,,,,,,,,
null,,black_cross(without_color),692906,,blue,,,,null,GW/shreveport.png,GW/racine.png,,,,,,,,,,,,,,,,,,
null,,rt_plussign_withcolor,693408,,blue,,,,null,GW/shreveport.png,GW/racine.png,,,,,,,,,,,,,,,,,,
1641.9000000953674,,rt_thecrossant_black,694696,,black_plus_sign,,,,49,,,1,0.9714285714285714,,,,,,,,,,,,,,,,
null,,color_black,694798,,black_plus_sign,,,,null,,,,,,,,,,,,,,,,,,,,
null,,learn_phase(without_color),697798,,black_plus_sign,,,,null,GW/carmel.png,GW/huntsville.png,,,,,,,,,,,,,,,,,,
null,,black_cross(without_color),698567,,yellow,,,,null,GW/carmel.png,GW/huntsville.png,,,,,,,,,,,,,,,,,,
null,,rt_plussign_withcolor,699068,,yellow,,,,null,GW/carmel.png,GW/huntsville.png,,,,,,,,,,,,,,,,,,
1232,,rt_thecrossant_black,700303,,black_plus_sign,,,,50,,,1,0.971830985915493,,,,,,,,,,,,,,,,
null,,color_black,700405,,black_plus_sign,,,,null,,,,,,,,,,,,,,,,,,,,
null,,learn_phase(without_color),703407,,black_plus_sign,,,,null,GW/hotsprings.png,GW/boulder.png,,,,,,,,,,,,,,,,,,
null,,black_cross(without_color),704392,,yellow,,,,null,GW/hotsprings.png,GW/boulder.png,,,,,,,,,,,,,,,,,,
null,,rt_plussign_withcolor,704894,,yellow,,,,null,GW/hotsprings.png,GW/boulder.png,,,,,,,,,,,,,,,,,,
1100.9000000953674,,rt_thecrossant_black,705911,,black_plus_sign,,,,50,,,1,0.9722222222222222,,,,,,,,,,,,,,,,
null,,color_black,706012,,black_plus_sign,,,,null,,,,,,,,,,,,,,,,,,,,
null,,learn_phase(without_color),709014,,black_plus_sign,,,,null,GW/westpalmbeach.png,GW/hanover.png,,,,,,,,,,,,,,,,,,
null,,black_cross(without_color),709748,,yellow,,,,null,GW/westpalmbeach.png,GW/hanover.png,,,,,,,,,,,,,,,,,,
null,,rt_plussign_withcolor,710249,,yellow,,,,null,GW/westpalmbeach.png,GW/hanover.png,,,,,,,,,,,,,,,,,,
1410.5,,rt_thecrossant_black,711518,,black_plus_sign,,,,50,,,1,0.9726027397260274,,,,,,,,,,,,,,,,
null,,color_black,711620,,black_plus_sign,,,,null,,,,,,,,,,,,,,,,,,,,
null,,learn_phase(without_color),714621,,black_plus_sign,,,,null,GW/hotsprings.png,GW/boulder.png,,,,,,,,,,,,,,,,,,
null,,black_cross(without_color),715184,,yellow,,,,null,GW/hotsprings.png,GW/boulder.png,,,,,,,,,,,,,,,,,,
null,,rt_plussign_withcolor,715685,,yellow,,,,null,GW/hotsprings.png,GW/boulder.png,,,,,,,,,,,,,,,,,,
1039,,rt_thecrossant_black,717124,,black_plus_sign,,,,50,,,1,0.972972972972973,,,,,,,,,,,,,,,,
null,,color_black,717226,,black_plus_sign,,,,null,,,,,,,,,,,,,,,,,,,,
null,,learn_phase(without_color),720228,,black_plus_sign,,,,null,GW/huntsville.png,GW/carmel.png,,,,,,,,,,,,,,,,,,
null,,black_cross(without_color),720935,,yellow,,,,null,GW/huntsville.png,GW/carmel.png,,,,,,,,,,,,,,,,,,
null,,rt_plussign_withcolor,721436,,yellow,,,,null,GW/huntsville.png,GW/carmel.png,,,,,,,,,,,,,,,,,,
921.5999999046326,,rt_thecrossant_black,722733,,black_plus_sign,,,,50,,,1,0.9733333333333334,,,,,,,,,,,,,,,,
null,,color_black,722834,,black_plus_sign,,,,null,,,,,,,,,,,,,,,,,,,,
null,,learn_phase(without_color),725849,,black_plus_sign,,,,null,GW/hanover.png,GW/westpalmbeach.png,,,,,,,,,,,,,,,,,,
null,,black_cross(without_color),726258,,blue,,,,null,GW/hanover.png,GW/westpalmbeach.png,,,,,,,,,,,,,,,,,,
null,,rt_plussign_withcolor,726759,,blue,,,,null,GW/hanover.png,GW/westpalmbeach.png,,,,,,,,,,,,,,,,,,
1221.9000000953674,,rt_thecrossant_black,728352,,black_plus_sign,,,,49,,,1,0.9736842105263158,,,,,,,,,,,,,,,,
null,,color_black,728454,,black_plus_sign,,,,null,,,,,,,,,,,,,,,,,,,,
null,,learn_phase(without_color),731456,,black_plus_sign,,,,null,GW/boulder.png,GW/hotsprings.png,,,,,,,,,,,,,,,,,,
null,,black_cross(without_color),731969,,yellow,,,,null,GW/boulder.png,GW/hotsprings.png,,,,,,,,,,,,,,,,,,
null,,rt_plussign_withcolor,732470,,yellow,,,,null,GW/boulder.png,GW/hotsprings.png,,,,,,,,,,,,,,,,,,
925.2000000476837,,rt_thecrossant_black,733960,,black_plus_sign,,,,50,,,1,0.974025974025974,,,,,,,,,,,,,,,,
null,,color_black,734062,,black_plus_sign,,,,null,,,,,,,,,,,,,,,,,,,,
null,,learn_phase(without_color),737063,,black_plus_sign,,,,null,GW/hanover.png,GW/westpalmbeach.png,,,,,,,,,,,,,,,,,,
null,,black_cross(without_color),737885,,blue,,,,null,GW/hanover.png,GW/westpalmbeach.png,,,,,,,,,,,,,,,,,,
478.60000014305115,,rt_plussign_withcolor,738386,,blue,,,,49,GW/hanover.png,GW/westpalmbeach.png,,,,,,,,,,,,,,,,,,
null,,rt_thecrossant_black,739567,,black_plus_sign,,,,null,,,1,0.9743589743589743,,,,,,,,,,,,,,,,
null,,color_black,739669,,black_plus_sign,,,,null,,,,,,,,,,,,,,,,,,,,
null,,learn_phase(without_color),742670,,black_plus_sign,,,,null,GW/shreveport.png,GW/racine.png,,,,,,,,,,,,,,,,,,
null,,black_cross(without_color),743343,,blue,,,,null,GW/shreveport.png,GW/racine.png,,,,,,,,,,,,,,,,,,
null,,rt_plussign_withcolor,743845,,blue,,,,null,GW/shreveport.png,GW/racine.png,,,,,,,,,,,,,,,,,,
942.7000000476837,,rt_thecrossant_black,745173,,black_plus_sign,,,,49,,,1,0.9746835443037974,,,,,,,,,,,,,,,,
null,,color_black,745274,,black_plus_sign,,,,null,,,,,,,,,,,,,,,,,,,,
null,,learn_phase(without_color),748275,,black_plus_sign,,,,null,GW/hotsprings.png,GW/boulder.png,,,,,,,,,,,,,,,,,,
null,,black_cross(without_color),749286,,blue,,,,null,GW/hotsprings.png,GW/boulder.png,,,,,,,,,,,,,,,,,,
472.5,,rt_plussign_withcolor,749788,,blue,,,,49,GW/hotsprings.png,GW/boulder.png,,,,,,,,,,,,,,,,,,
null,,rt_thecrossant_black,750790,,black_plus_sign,,,,null,,,1,0.975,,,,,,,,,,,,,,,,
null,,color_black,750891,,black_plus_sign,,,,null,,,,,,,,,,,,,,,,,,,,
null,,learn_phase(without_color),753892,,black_plus_sign,,,,null,GW/shreveport.png,GW/racine.png,,,,,,,,,,,,,,,,,,
null,,black_cross(without_color),754664,,blue,,,,null,GW/shreveport.png,GW/racine.png,,,,,,,,,,,,,,,,,,
null,,rt_plussign_withcolor,755165,,blue,,,,null,GW/shreveport.png,GW/racine.png,,,,,,,,,,,,,,,,,,
1139.5999999046326,,rt_thecrossant_black,756396,,black_plus_sign,,,,49,,,1,0.9753086419753086,,,,,,,,,,,,,,,,
null,,color_black,756498,,black_plus_sign,,,,null,,,,,,,,,,,,,,,,,,,,
null,,learn_phase(without_color),759500,,black_plus_sign,,,,null,GW/hotsprings.png,GW/boulder.png,,,,,,,,,,,,,,,,,,
null,,black_cross(without_color),760222,,yellow,,,,null,GW/hotsprings.png,GW/boulder.png,,,,,,,,,,,,,,,,,,
null,,rt_plussign_withcolor,760723,,yellow,,,,null,GW/hotsprings.png,GW/boulder.png,,,,,,,,,,,,,,,,,,
941.6999998092651,,rt_thecrossant_black,762003,,black_plus_sign,,,,50,,,1,0.975609756097561,,,,,,,,,,,,,,,,
null,,color_black,762104,,black_plus_sign,,,,null,,,,,,,,,,,,,,,,,,,,
null,,learn_phase(without_color),765107,,black_plus_sign,,,,null,GW/racine.png,GW/shreveport.png,,,,,,,,,,,,,,,,,,
null,,black_cross(without_color),765656,,blue,,,,null,GW/racine.png,GW/shreveport.png,,,,,,,,,,,,,,,,,,
null,,rt_plussign_withcolor,766158,,blue,,,,null,GW/racine.png,GW/shreveport.png,,,,,,,,,,,,,,,,,,
902.2999999523163,,rt_thecrossant_black,767611,,black_plus_sign,,,,49,,,1,0.9759036144578314,,,,,,,,,,,,,,,,
null,,color_black,767712,,black_plus_sign,,,,null,,,,,,,,,,,,,,,,,,,,
null,,learn_phase(without_color),770714,,black_plus_sign,,,,null,GW/westpalmbeach.png,GW/hanover.png,,,,,,,,,,,,,,,,,,
null,,black_cross(without_color),771562,,yellow,,,,null,GW/westpalmbeach.png,GW/hanover.png,,,,,,,,,,,,,,,,,,
null,,rt_plussign_withcolor,772064,,yellow,,,,null,GW/westpalmbeach.png,GW/hanover.png,,,,,,,,,,,,,,,,,,
827.6000001430511,,rt_thecrossant_black,773217,,black_plus_sign,,,,50,,,1,0.9761904761904762,,,,,,,,,,,,,,,,
null,,color_black,773319,,black_plus_sign,,,,null,,,,,,,,,,,,,,,,,,,,
null,,learn_phase(without_color),776321,,black_plus_sign,,,,null,GW/racine.png,GW/shreveport.png,,,,,,,,,,,,,,,,,,
null,,black_cross(without_color),776921,,yellow,,,,null,GW/racine.png,GW/shreveport.png,,,,,,,,,,,,,,,,,,
null,,rt_plussign_withcolor,777422,,yellow,,,,null,GW/racine.png,GW/shreveport.png,,,,,,,,,,,,,,,,,,
1079.4000000953674,,rt_thecrossant_black,778826,,black_plus_sign,,,,50,,,1,0.9764705882352941,,,,,,,,,,,,,,,,
null,,color_black,778928,,black_plus_sign,,,,null,,,,,,,,,,,,,,,,,,,,
null,,learn_phase(without_color),781930,,black_plus_sign,,,,null,GW/boulder.png,GW/hotsprings.png,,,,,,,,,,,,,,,,,,
null,,black_cross(without_color),782584,,blue,,,,null,GW/boulder.png,GW/hotsprings.png,,,,,,,,,,,,,,,,,,
null,,rt_plussign_withcolor,783085,,blue,,,,null,GW/boulder.png,GW/hotsprings.png,,,,,,,,,,,,,,,,,,
1007.7999999523163,,rt_thecrossant_black,784433,,black_plus_sign,,,,49,,,1,0.9767441860465116,,,,,,,,,,,,,,,,
null,,color_black,784534,,black_plus_sign,,,,null,,,,,,,,,,,,,,,,,,,,
null,,learn_phase(without_color),787536,,black_plus_sign,,,,null,GW/shreveport.png,GW/racine.png,,,,,,,,,,,,,,,,,,
null,,black_cross(without_color),788189,,blue,,,,null,GW/shreveport.png,GW/racine.png,,,,,,,,,,,,,,,,,,
null,,rt_plussign_withcolor,788690,,blue,,,,null,GW/shreveport.png,GW/racine.png,,,,,,,,,,,,,,,,,,
798,,rt_thecrossant_black,790041,,black_plus_sign,,,,49,,,1,0.9770114942528736,,,,,,,,,,,,,,,,
null,,color_black,790142,,black_plus_sign,,,,null,,,,,,,,,,,,,,,,,,,,
null,,learn_phase(without_color),793143,,black_plus_sign,,,,null,GW/huntsville.png,GW/carmel.png,,,,,,,,,,,,,,,,,,
null,,black_cross(without_color),793682,,blue,,,,null,GW/huntsville.png,GW/carmel.png,,,,,,,,,,,,,,,,,,
465.30000019073486,,rt_plussign_withcolor,794182,,blue,,,,49,GW/huntsville.png,GW/carmel.png,,,,,,,,,,,,,,,,,,
null,,rt_thecrossant_black,795647,,black_plus_sign,,,,null,,,1,0.9772727272727273,,,,,,,,,,,,,,,,
null,,color_black,795748,,black_plus_sign,,,,null,,,,,,,,,,,,,,,,,,,,
null,,learn_phase(without_color),798749,,black_plus_sign,,,,null,GW/westpalmbeach.png,GW/hanover.png,,,,,,,,,,,,,,,,,,
null,,black_cross(without_color),799341,,yellow,,,,null,GW/westpalmbeach.png,GW/hanover.png,,,,,,,,,,,,,,,,,,
486.40000009536743,,rt_plussign_withcolor,799842,,yellow,,,,50,GW/westpalmbeach.png,GW/hanover.png,,,,,,,,,,,,,,,,,,
null,,rt_thecrossant_black,801253,,black_plus_sign,,,,null,,,1,0.9775280898876404,,,,,,,,,,,,,,,,
null,,color_black,801365,,black_plus_sign,,,,null,,,,,,,,,,,,,,,,,,,,
null,,learn_phase(without_color),804367,,black_plus_sign,,,,null,GW/huntsville.png,GW/carmel.png,,,,,,,,,,,,,,,,,,
null,,black_cross(without_color),805449,,yellow,,,,null,GW/huntsville.png,GW/carmel.png,,,,,,,,,,,,,,,,,,
454.60000014305115,,rt_plussign_withcolor,805950,,yellow,,,,50,GW/huntsville.png,GW/carmel.png,,,,,,,,,,,,,,,,,,
null,,rt_thecrossant_black,806871,,black_plus_sign,,,,null,,,1,0.9777777777777777,,,,,,,,,,,,,,,,
null,,color_black,806972,,black_plus_sign,,,,null,,,,,,,,,,,,,,,,,,,,
null,,learn_phase(without_color),809972,,black_plus_sign,,,,null,GW/hanover.png,GW/westpalmbeach.png,,,,,,,,,,,,,,,,,,
null,,black_cross(without_color),810827,,yellow,,,,null,GW/hanover.png,GW/westpalmbeach.png,,,,,,,,,,,,,,,,,,
null,,rt_plussign_withcolor,811328,,yellow,,,,null,GW/hanover.png,GW/westpalmbeach.png,,,,,,,,,,,,,,,,,,
1311.5,,rt_thecrossant_black,812477,,black_plus_sign,,,,50,,,1,0.978021978021978,,,,,,,,,,,,,,,,
null,,color_black,812578,,black_plus_sign,,,,null,,,,,,,,,,,,,,,,,,,,
null,,learn_phase(without_color),815579,,black_plus_sign,,,,null,GW/carmel.png,GW/huntsville.png,,,,,,,,,,,,,,,,,,
null,,black_cross(without_color),816086,,yellow,,,,null,GW/carmel.png,GW/huntsville.png,,,,,,,,,,,,,,,,,,
null,,rt_plussign_withcolor,816588,,yellow,,,,null,GW/carmel.png,GW/huntsville.png,,,,,,,,,,,,,,,,,,
1119.2000000476837,,rt_thecrossant_black,818084,,black_plus_sign,,,,50,,,1,0.9782608695652174,,,,,,,,,,,,,,,,
null,,color_black,818186,,black_plus_sign,,,,null,,,,,,,,,,,,,,,,,,,,
null,,learn_phase(without_color),821187,,black_plus_sign,,,,null,GW/huntsville.png,GW/carmel.png,,,,,,,,,,,,,,,,,,
null,,black_cross(without_color),822151,,blue,,,,null,GW/huntsville.png,GW/carmel.png,,,,,,,,,,,,,,,,,,
451.7999999523163,,rt_plussign_withcolor,822652,,blue,,,,49,GW/huntsville.png,GW/carmel.png,,,,,,,,,,,,,,,,,,
null,,rt_thecrossant_black,823690,,black_plus_sign,,,,null,,,1,0.978494623655914,,,,,,,,,,,,,,,,
null,,color_black,823791,,black_plus_sign,,,,null,,,,,,,,,,,,,,,,,,,,
null,,learn_phase(without_color),826793,,black_plus_sign,,,,null,GW/boulder.png,GW/hotsprings.png,,,,,,,,,,,,,,,,,,
null,,black_cross(without_color),827406,,yellow,,,,null,GW/boulder.png,GW/hotsprings.png,,,,,,,,,,,,,,,,,,
null,,rt_plussign_withcolor,827907,,yellow,,,,null,GW/boulder.png,GW/hotsprings.png,,,,,,,,,,,,,,,,,,
1246.0999999046326,,rt_thecrossant_black,829297,,black_plus_sign,,,,50,,,1,0.9787234042553191,,,,,,,,,,,,,,,,
null,,color_black,829397,,black_plus_sign,,,,null,,,,,,,,,,,,,,,,,,,,
null,,learn_phase(without_color),832399,,black_plus_sign,,,,null,GW/huntsville.png,GW/carmel.png,,,,,,,,,,,,,,,,,,
null,,black_cross(without_color),833330,,blue,,,,null,GW/huntsville.png,GW/carmel.png,,,,,,,,,,,,,,,,,,
null,,rt_plussign_withcolor,833831,,blue,,,,null,GW/huntsville.png,GW/carmel.png,,,,,,,,,,,,,,,,,,
738.9000000953674,,rt_thecrossant_black,834903,,black_plus_sign,,,,49,,,1,0.9789473684210527,,,,,,,,,,,,,,,,
null,,color_black,835004,,black_plus_sign,,,,null,,,,,,,,,,,,,,,,,,,,
null,,learn_phase(without_color),838006,,black_plus_sign,,,,null,GW/racine.png,GW/hotsprings.png,,,,,,,,,,,,,,,,,,
null,,black_cross(without_color),838566,,yellow,,,,null,GW/racine.png,GW/hotsprings.png,,,,,,,,,,,,,,,,,,
475.7999999523163,,rt_plussign_withcolor,839067,,yellow,,,,50,GW/racine.png,GW/hotsprings.png,,,,,,,,,,,,,,,,,,
null,,rt_thecrossant_black,840508,,black_plus_sign,,,,null,,,1,0.9791666666666666,,,,,,,,,,,,,,,,
null,,color_black,840610,,black_plus_sign,,,,null,,,,,,,,,,,,,,,,,,,,
null,,learn_phase(without_color),843612,,black_plus_sign,,,,null,GW/huntsville.png,GW/peoria.png,,,,,,,,,,,,,,,,,,
null,,black_cross(without_color),844307,,blue,,,,null,GW/huntsville.png,GW/peoria.png,,,,,,,,,,,,,,,,,,
null,,rt_plussign_withcolor,844808,,blue,,,,null,GW/huntsville.png,GW/peoria.png,,,,,,,,,,,,,,,,,,
746.7000000476837,,rt_thecrossant_black,846116,,black_plus_sign,,,,49,,,1,0.979381443298969,,,,,,,,,,,,,,,,
null,,color_black,846218,,black_plus_sign,,,,null,,,,,,,,,,,,,,,,,,,,
null,,learn_phase(without_color),849220,,black_plus_sign,,,,null,GW/carmel.png,GW/westpalmbeach.png,,,,,,,,,,,,,,,,,,
null,,black_cross(without_color),849854,,yellow,,,,null,GW/carmel.png,GW/westpalmbeach.png,,,,,,,,,,,,,,,,,,
null,,rt_plussign_withcolor,850355,,yellow,,,,null,GW/carmel.png,GW/westpalmbeach.png,,,,,,,,,,,,,,,,,,
1031.9000000953674,,rt_thecrossant_black,851724,,black_plus_sign,,,,50,,,1,0.9795918367346939,,,,,,,,,,,,,,,,
null,,color_black,851825,,black_plus_sign,,,,null,,,,,,,,,,,,,,,,,,,,
null,,learn_phase(without_color),854828,,black_plus_sign,,,,null,GW/hotsprings.png,GW/racine.png,,,,,,,,,,,,,,,,,,
null,,black_cross(without_color),855286,,yellow,,,,null,GW/hotsprings.png,GW/racine.png,,,,,,,,,,,,,,,,,,
null,,rt_plussign_withcolor,855788,,yellow,,,,null,GW/hotsprings.png,GW/racine.png,,,,,,,,,,,,,,,,,,
1023.6000001430511,,rt_thecrossant_black,857331,,black_plus_sign,,,,50,,,1,0.9797979797979798,,,,,,,,,,,,,,,,
null,,color_black,857432,,black_plus_sign,,,,null,,,,,,,,,,,,,,,,,,,,
null,,learn_phase(without_color),860434,,black_plus_sign,,,,null,GW/huntsville.png,GW/peoria.png,,,,,,,,,,,,,,,,,,
null,,black_cross(without_color),861388,,yellow,,,,null,GW/huntsville.png,GW/peoria.png,,,,,,,,,,,,,,,,,,
null,,rt_plussign_withcolor,861890,,yellow,,,,null,GW/huntsville.png,GW/peoria.png,,,,,,,,,,,,,,,,,,
690,,rt_thecrossant_black,862939,,black_plus_sign,,,,50,,,1,0.98,,,,,,,,,,,,,,,,
null,,color_black,863040,,black_plus_sign,,,,null,,,,,,,,,,,,,,,,,,,,
null,,learn_phase(without_color),866042,,black_plus_sign,,,,null,GW/newhope.png,GW/shreveport.png,,,,,,,,,,,,,,,,,,
null,,black_cross(without_color),866526,,yellow,,,,null,GW/newhope.png,GW/shreveport.png,,,,,,,,,,,,,,,,,,
null,,rt_plussign_withcolor,867027,,yellow,,,,null,GW/newhope.png,GW/shreveport.png,,,,,,,,,,,,,,,,,,
1208.1999998092651,,rt_thecrossant_black,868549,,black_plus_sign,,,,50,,,1,0.9801980198019802,,,,,,,,,,,,,,,,
null,,color_black,868651,,black_plus_sign,,,,null,,,,,,,,,,,,,,,,,,,,
null,,learn_phase(without_color),871652,,black_plus_sign,,,,null,GW/hotsprings.png,GW/racine.png,,,,,,,,,,,,,,,,,,
null,,black_cross(without_color),872617,,blue,,,,null,GW/hotsprings.png,GW/racine.png,,,,,,,,,,,,,,,,,,
null,,rt_plussign_withcolor,873118,,blue,,,,null,GW/hotsprings.png,GW/racine.png,,,,,,,,,,,,,,,,,,
622.3999998569489,,rt_thecrossant_black,874155,,black_plus_sign,,,,49,,,1,0.9803921568627451,,,,,,,,,,,,,,,,
null,,color_black,874256,,black_plus_sign,,,,null,,,,,,,,,,,,,,,,,,,,
null,,learn_phase(without_color),877257,,black_plus_sign,,,,null,GW/newhope.png,GW/shreveport.png,,,,,,,,,,,,,,,,,,
null,,black_cross(without_color),878256,,blue,,,,null,GW/newhope.png,GW/shreveport.png,,,,,,,,,,,,,,,,,,
null,,rt_plussign_withcolor,878756,,blue,,,,null,GW/newhope.png,GW/shreveport.png,,,,,,,,,,,,,,,,,,
1117.0999999046326,,rt_thecrossant_black,879761,,black_plus_sign,,,,49,,,1,0.9805825242718447,,,,,,,,,,,,,,,,
null,,color_black,879862,,black_plus_sign,,,,null,,,,,,,,,,,,,,,,,,,,
null,,learn_phase(without_color),882864,,black_plus_sign,,,,null,GW/westpalmbeach.png,GW/carmel.png,,,,,,,,,,,,,,,,,,
null,,black_cross(without_color),883287,,yellow,,,,null,GW/westpalmbeach.png,GW/carmel.png,,,,,,,,,,,,,,,,,,
434.90000009536743,,rt_plussign_withcolor,883788,,yellow,,,,50,GW/westpalmbeach.png,GW/carmel.png,,,,,,,,,,,,,,,,,,
null,,rt_thecrossant_black,885367,,black_plus_sign,,,,null,,,1,0.9807692307692307,,,,,,,,,,,,,,,,
null,,color_black,885468,,black_plus_sign,,,,null,,,,,,,,,,,,,,,,,,,,
null,,learn_phase(without_color),888470,,black_plus_sign,,,,null,GW/hotsprings.png,GW/racine.png,,,,,,,,,,,,,,,,,,
null,,black_cross(without_color),889535,,blue,,,,null,GW/hotsprings.png,GW/racine.png,,,,,,,,,,,,,,,,,,
null,,rt_plussign_withcolor,890037,,blue,,,,null,GW/hotsprings.png,GW/racine.png,,,,,,,,,,,,,,,,,,
886.9000000953674,,rt_thecrossant_black,890975,,black_plus_sign,,,,49,,,1,0.9809523809523809,,,,,,,,,,,,,,,,
null,,color_black,891075,,black_plus_sign,,,,null,,,,,,,,,,,,,,,,,,,,
null,,learn_phase(without_color),894077,,black_plus_sign,,,,null,GW/newhope.png,GW/shreveport.png,,,,,,,,,,,,,,,,,,
null,,black_cross(without_color),894698,,yellow,,,,null,GW/newhope.png,GW/shreveport.png,,,,,,,,,,,,,,,,,,
null,,rt_plussign_withcolor,895199,,yellow,,,,null,GW/newhope.png,GW/shreveport.png,,,,,,,,,,,,,,,,,,
1258.7999999523163,,rt_thecrossant_black,896580,,black_plus_sign,,,,50,,,1,0.9811320754716981,,,,,,,,,,,,,,,,
null,,color_black,896681,,black_plus_sign,,,,null,,,,,,,,,,,,,,,,,,,,
null,,learn_phase(without_color),899683,,black_plus_sign,,,,null,GW/hotsprings.png,GW/racine.png,,,,,,,,,,,,,,,,,,
null,,black_cross(without_color),900687,,yellow,,,,null,GW/hotsprings.png,GW/racine.png,,,,,,,,,,,,,,,,,,
null,,rt_plussign_withcolor,901188,,yellow,,,,null,GW/hotsprings.png,GW/racine.png,,,,,,,,,,,,,,,,,,
746,,rt_thecrossant_black,902187,,black_plus_sign,,,,50,,,1,0.9813084112149533,,,,,,,,,,,,,,,,
null,,color_black,902289,,black_plus_sign,,,,null,,,,,,,,,,,,,,,,,,,,
null,,learn_phase(without_color),905290,,black_plus_sign,,,,null,GW/peoria.png,GW/huntsville.png,,,,,,,,,,,,,,,,,,
null,,black_cross(without_color),906077,,blue,,,,null,GW/peoria.png,GW/huntsville.png,,,,,,,,,,,,,,,,,,
null,,rt_plussign_withcolor,906578,,blue,,,,null,GW/peoria.png,GW/huntsville.png,,,,,,,,,,,,,,,,,,
1246,,rt_thecrossant_black,907809,,black_plus_sign,,,,49,,,1,0.9814814814814815,,,,,,,,,,,,,,,,
null,,color_black,907910,,black_plus_sign,,,,null,,,,,,,,,,,,,,,,,,,,
null,,learn_phase(without_color),910912,,black_plus_sign,,,,null,GW/westpalmbeach.png,GW/carmel.png,,,,,,,,,,,,,,,,,,
null,,black_cross(without_color),911485,,yellow,,,,null,GW/westpalmbeach.png,GW/carmel.png,,,,,,,,,,,,,,,,,,
null,,rt_plussign_withcolor,911986,,yellow,,,,null,GW/westpalmbeach.png,GW/carmel.png,,,,,,,,,,,,,,,,,,
1616.5,,rt_thecrossant_black,913415,,black_plus_sign,,,,50,,,1,0.981651376146789,,,,,,,,,,,,,,,,
null,,color_black,913517,,black_plus_sign,,,,null,,,,,,,,,,,,,,,,,,,,
null,,learn_phase(without_color),916518,,black_plus_sign,,,,null,GW/shreveport.png,GW/newhope.png,,,,,,,,,,,,,,,,,,
null,,black_cross(without_color),917157,,blue,,,,null,GW/shreveport.png,GW/newhope.png,,,,,,,,,,,,,,,,,,
null,,rt_plussign_withcolor,917658,,blue,,,,null,GW/shreveport.png,GW/newhope.png,,,,,,,,,,,,,,,,,,
735.7999999523163,,rt_thecrossant_black,919022,,black_plus_sign,,,,49,,,1,0.9818181818181818,,,,,,,,,,,,,,,,
null,,color_black,919122,,black_plus_sign,,,,null,,,,,,,,,,,,,,,,,,,,
null,,learn_phase(without_color),922125,,black_plus_sign,,,,null,GW/hotsprings.png,GW/racine.png,,,,,,,,,,,,,,,,,,
null,,black_cross(without_color),922680,,blue,,,,null,GW/hotsprings.png,GW/racine.png,,,,,,,,,,,,,,,,,,
null,,rt_plussign_withcolor,923181,,blue,,,,null,GW/hotsprings.png,GW/racine.png,,,,,,,,,,,,,,,,,,
770.7000000476837,,rt_thecrossant_black,924629,,black_plus_sign,,,,49,,,1,0.9819819819819819,,,,,,,,,,,,,,,,
null,,color_black,924731,,black_plus_sign,,,,null,,,,,,,,,,,,,,,,,,,,
null,,learn_phase(without_color),927732,,black_plus_sign,,,,null,GW/peoria.png,GW/huntsville.png,,,,,,,,,,,,,,,,,,
null,,black_cross(without_color),928271,,blue,,,,null,GW/peoria.png,GW/huntsville.png,,,,,,,,,,,,,,,,,,
null,,rt_plussign_withcolor,928772,,blue,,,,null,GW/peoria.png,GW/huntsville.png,,,,,,,,,,,,,,,,,,
667.7000000476837,,rt_thecrossant_black,930236,,black_plus_sign,,,,49,,,1,0.9821428571428571,,,,,,,,,,,,,,,,
null,,color_black,930338,,black_plus_sign,,,,null,,,,,,,,,,,,,,,,,,,,
null,,learn_phase(without_color),933339,,black_plus_sign,,,,null,GW/westpalmbeach.png,GW/carmel.png,,,,,,,,,,,,,,,,,,
null,,black_cross(without_color),934290,,blue,,,,null,GW/westpalmbeach.png,GW/carmel.png,,,,,,,,,,,,,,,,,,
null,,rt_plussign_withcolor,934791,,blue,,,,null,GW/westpalmbeach.png,GW/carmel.png,,,,,,,,,,,,,,,,,,
723.2000000476837,,rt_thecrossant_black,935842,,black_plus_sign,,,,49,,,1,0.9823008849557522,,,,,,,,,,,,,,,,
null,,color_black,935944,,black_plus_sign,,,,null,,,,,,,,,,,,,,,,,,,,
null,,learn_phase(without_color),938945,,black_plus_sign,,,,null,GW/shreveport.png,GW/newhope.png,,,,,,,,,,,,,,,,,,
null,,black_cross(without_color),939733,,yellow,,,,null,GW/shreveport.png,GW/newhope.png,,,,,,,,,,,,,,,,,,
null,,rt_plussign_withcolor,940234,,yellow,,,,null,GW/shreveport.png,GW/newhope.png,,,,,,,,,,,,,,,,,,
1108.8999998569489,,rt_thecrossant_black,941449,,black_plus_sign,,,,50,,,1,0.9824561403508771,,,,,,,,,,,,,,,,
null,,color_black,941550,,black_plus_sign,,,,null,,,,,,,,,,,,,,,,,,,,
null,,learn_phase(without_color),944553,,black_plus_sign,,,,null,GW/westpalmbeach.png,GW/carmel.png,,,,,,,,,,,,,,,,,,
null,,black_cross(without_color),945362,,blue,,,,null,GW/westpalmbeach.png,GW/carmel.png,,,,,,,,,,,,,,,,,,
null,,rt_plussign_withcolor,945863,,blue,,,,null,GW/westpalmbeach.png,GW/carmel.png,,,,,,,,,,,,,,,,,,
1055.8999998569489,,rt_thecrossant_black,947057,,black_plus_sign,,,,49,,,1,0.9826086956521739,,,,,,,,,,,,,,,,
null,,color_black,947158,,black_plus_sign,,,,null,,,,,,,,,,,,,,,,,,,,
null,,learn_phase(without_color),950160,,black_plus_sign,,,,null,GW/huntsville.png,GW/peoria.png,,,,,,,,,,,,,,,,,,
null,,black_cross(without_color),951036,,yellow,,,,null,GW/huntsville.png,GW/peoria.png,,,,,,,,,,,,,,,,,,
null,,rt_plussign_withcolor,951537,,yellow,,,,null,GW/huntsville.png,GW/peoria.png,,,,,,,,,,,,,,,,,,
1179.6000001430511,,rt_thecrossant_black,952675,,black_plus_sign,,,,50,,,1,0.9827586206896551,,,,,,,,,,,,,,,,
null,,color_black,952776,,black_plus_sign,,,,null,,,,,,,,,,,,,,,,,,,,
null,,learn_phase(without_color),955778,,black_plus_sign,,,,null,GW/carmel.png,GW/westpalmbeach.png,,,,,,,,,,,,,,,,,,
null,,black_cross(without_color),956573,,blue,,,,null,GW/carmel.png,GW/westpalmbeach.png,,,,,,,,,,,,,,,,,,
null,,rt_plussign_withcolor,957074,,blue,,,,null,GW/carmel.png,GW/westpalmbeach.png,,,,,,,,,,,,,,,,,,
1026.7999999523163,,rt_thecrossant_black,958283,,black_plus_sign,,,,49,,,1,0.9829059829059829,,,,,,,,,,,,,,,,
null,,color_black,958384,,black_plus_sign,,,,null,,,,,,,,,,,,,,,,,,,,
null,,learn_phase(without_color),961386,,black_plus_sign,,,,null,GW/huntsville.png,GW/peoria.png,,,,,,,,,,,,,,,,,,
null,,black_cross(without_color),962048,,yellow,,,,null,GW/huntsville.png,GW/peoria.png,,,,,,,,,,,,,,,,,,
null,,rt_plussign_withcolor,962550,,yellow,,,,null,GW/huntsville.png,GW/peoria.png,,,,,,,,,,,,,,,,,,
1231.9000000953674,,rt_thecrossant_black,963891,,black_plus_sign,,,,50,,,1,0.9830508474576272,,,,,,,,,,,,,,,,
null,,color_black,963993,,black_plus_sign,,,,null,,,,,,,,,,,,,,,,,,,,
null,,learn_phase(without_color),966995,,black_plus_sign,,,,null,GW/shreveport.png,GW/newhope.png,,,,,,,,,,,,,,,,,,
null,,black_cross(without_color),967443,,blue,,,,null,GW/shreveport.png,GW/newhope.png,,,,,,,,,,,,,,,,,,
null,,rt_plussign_withcolor,967944,,blue,,,,null,GW/shreveport.png,GW/newhope.png,,,,,,,,,,,,,,,,,,
804.5,,rt_thecrossant_black,969498,,black_plus_sign,,,,49,,,1,0.9831932773109243,,,,,,,,,,,,,,,,
null,,color_black,969599,,black_plus_sign,,,,null,,,,,,,,,,,,,,,,,,,,
null,,learn_phase(without_color),972601,,black_plus_sign,,,,null,GW/racine.png,GW/hotsprings.png,,,,,,,,,,,,,,,,,,
null,,black_cross(without_color),973241,,yellow,,,,null,GW/racine.png,GW/hotsprings.png,,,,,,,,,,,,,,,,,,
null,,rt_plussign_withcolor,973743,,yellow,,,,null,GW/racine.png,GW/hotsprings.png,,,,,,,,,,,,,,,,,,
700.7999999523163,,rt_thecrossant_black,975105,,black_plus_sign,,,,50,,,1,0.9833333333333333,,,,,,,,,,,,,,,,
null,,color_black,975207,,black_plus_sign,,,,null,,,,,,,,,,,,,,,,,,,,
null,,learn_phase(without_color),978208,,black_plus_sign,,,,null,GW/shreveport.png,GW/newhope.png,,,,,,,,,,,,,,,,,,
null,,black_cross(without_color),978619,,blue,,,,null,GW/shreveport.png,GW/newhope.png,,,,,,,,,,,,,,,,,,
null,,rt_plussign_withcolor,979120,,blue,,,,null,GW/shreveport.png,GW/newhope.png,,,,,,,,,,,,,,,,,,
971.5,,rt_thecrossant_black,980713,,black_plus_sign,,,,49,,,1,0.9834710743801653,,,,,,,,,,,,,,,,
null,,color_black,980814,,black_plus_sign,,,,null,,,,,,,,,,,,,,,,,,,,
null,,learn_phase(without_color),983816,,black_plus_sign,,,,null,GW/peoria.png,GW/huntsville.png,,,,,,,,,,,,,,,,,,
null,,black_cross(without_color),984614,,yellow,,,,null,GW/peoria.png,GW/huntsville.png,,,,,,,,,,,,,,,,,,
null,,rt_plussign_withcolor,985115,,yellow,,,,null,GW/peoria.png,GW/huntsville.png,,,,,,,,,,,,,,,,,,
851.7000000476837,,rt_thecrossant_black,986320,,black_plus_sign,,,,50,,,1,0.9836065573770492,,,,,,,,,,,,,,,,
null,,color_black,986422,,black_plus_sign,,,,null,,,,,,,,,,,,,,,,,,,,
null,,learn_phase(without_color),989424,,black_plus_sign,,,,null,GW/racine.png,GW/hotsprings.png,,,,,,,,,,,,,,,,,,
null,,black_cross(without_color),990066,,blue,,,,null,GW/racine.png,GW/hotsprings.png,,,,,,,,,,,,,,,,,,
450.40000009536743,,rt_plussign_withcolor,990568,,blue,,,,49,GW/racine.png,GW/hotsprings.png,,,,,,,,,,,,,,,,,,
null,,rt_thecrossant_black,991929,,black_plus_sign,,,,null,,,1,0.983739837398374,,,,,,,,,,,,,,,,
null,,color_black,992030,,black_plus_sign,,,,null,,,,,,,,,,,,,,,,,,,,
null,,learn_phase(without_color),995031,,black_plus_sign,,,,null,GW/shreveport.png,GW/newhope.png,,,,,,,,,,,,,,,,,,
null,,black_cross(without_color),995737,,yellow,,,,null,GW/shreveport.png,GW/newhope.png,,,,,,,,,,,,,,,,,,
null,,rt_plussign_withcolor,996239,,yellow,,,,null,GW/shreveport.png,GW/newhope.png,,,,,,,,,,,,,,,,,,
1106.1000001430511,,rt_thecrossant_black,997535,,black_plus_sign,,,,50,,,1,0.9838709677419355,,,,,,,,,,,,,,,,
null,,color_black,997637,,black_plus_sign,,,,null,,,,,,,,,,,,,,,,,,,,
null,,learn_phase(without_color),1000639,,black_plus_sign,,,,null,GW/westpalmbeach.png,GW/carmel.png,,,,,,,,,,,,,,,,,,
null,,black_cross(without_color),1001449,,blue,,,,null,GW/westpalmbeach.png,GW/carmel.png,,,,,,,,,,,,,,,,,,
null,,rt_plussign_withcolor,1001950,,blue,,,,null,GW/westpalmbeach.png,GW/carmel.png,,,,,,,,,,,,,,,,,,
1307.7000000476837,,rt_thecrossant_black,1003142,,black_plus_sign,,,,49,,,1,0.984,,,,,,,,,,,,,,,,
null,,color_black,1003244,,black_plus_sign,,,,null,,,,,,,,,,,,,,,,,,,,
null,,learn_phase(without_color),1006245,,black_plus_sign,,,,null,GW/huntsville.png,GW/peoria.png,,,,,,,,,,,,,,,,,,
null,,black_cross(without_color),1007201,,blue,,,,null,GW/huntsville.png,GW/peoria.png,,,,,,,,,,,,,,,,,,
null,,rt_plussign_withcolor,1007703,,blue,,,,null,GW/huntsville.png,GW/peoria.png,,,,,,,,,,,,,,,,,,
1118.1000001430511,,rt_thecrossant_black,1008750,,black_plus_sign,,,,49,,,1,0.9841269841269841,,,,,,,,,,,,,,,,
null,,color_black,1008855,,black_plus_sign,,,,null,,,,,,,,,,,,,,,,,,,,
null,,learn_phase(without_color),1011857,,black_plus_sign,,,,null,GW/carmel.png,GW/westpalmbeach.png,,,,,,,,,,,,,,,,,,
null,,black_cross(without_color),1012547,,yellow,,,,null,GW/carmel.png,GW/westpalmbeach.png,,,,,,,,,,,,,,,,,,
null,,rt_plussign_withcolor,1013048,,yellow,,,,null,GW/carmel.png,GW/westpalmbeach.png,,,,,,,,,,,,,,,,,,
1278.7999999523163,,rt_thecrossant_black,1014361,,black_plus_sign,,,,50,,,1,0.984251968503937,,,,,,,,,,,,,,,,
null,,color_black,1014463,,black_plus_sign,,,,null,,,,,,,,,,,,,,,,,,,,
30737.200000047684,,learn_break,1045201,,learn_break,,,,32,,,,,,,,,,,,,,,,,,,,
21655.200000047684,,intro_1,1066857,,instruct,,0,Start,,,,,,,,,,,,,,,,,,,,,
3810.2999999523163,,directmemory_phase,1070668,,GW/peoria.png,,,,49,,,1,1,GW/westpalmbeach.png,GW/cornwall.png,GW/hotsprings.png,GW/westpalmbeach.png,GW/hotsprings.png,GW/cornwall.png,1,,,,,,,,,
null,,html-keyboard-response,1071669,,<p></p>,,,,null,,,,,,,,,,,,,,,,,,,,
4018.300000190735,,directmemory_phase,1075688,,GW/racine.png,,,,49,,,0,0.5,GW/leesburg.png,GW/newhope.png,GW/shreveport.png,GW/shreveport.png,GW/newhope.png,GW/leesburg.png,0.5,closer,,,,,,,,
null,,html-keyboard-response,1076690,,<p></p>,,,,null,,,,,,,,,,,,,,,,,,,,
2182.100000143051,,directmemory_phase,1078872,,GW/huntsville.png,,,,51,,,1,0.6666666666666666,GW/cornwall.png,GW/newhope.png,GW/carmel.png,GW/carmel.png,GW/newhope.png,GW/cornwall.png,1,,,,,,,,,
null,,html-keyboard-response,1079874,,<p></p>,,,,null,,,,,,,,,,,,,,,,,,,,
2693.800000190735,,directmemory_phase,1082568,,GW/westpalmbeach.png,,,,51,,,1,0.75,GW/hotsprings.png,GW/shreveport.png,GW/peoria.png,GW/peoria.png,GW/shreveport.png,GW/hotsprings.png,1,,,,,,,,,
null,,html-keyboard-response,1083570,,<p></p>,,,,null,,,,,,,,,,,,,,,,,,,,
3325.7000000476837,,directmemory_phase,1086896,,GW/leesburg.png,,,,49,,,0,0.6,GW/huntsville.png,GW/carmel.png,GW/hanover.png,GW/carmel.png,GW/huntsville.png,GW/hanover.png,0.5,closer,,,,,,,,
null,,html-keyboard-response,1087898,,<p></p>,,,,null,,,,,,,,,,,,,,,,,,,,
3665.7999999523163,,directmemory_phase,1091564,,GW/gatlinburg.png,,,,49,,,1,0.6666666666666666,GW/hotsprings.png,GW/westpalmbeach.png,GW/racine.png,GW/hotsprings.png,GW/racine.png,GW/westpalmbeach.png,1,,,,,,,,,
null,,html-keyboard-response,1092566,,<p></p>,,,,null,,,,,,,,,,,,,,,,,,,,
2445.899999856949,,directmemory_phase,1095012,,GW/shreveport.png,,,,50,,,1,0.7142857142857143,GW/westpalmbeach.png,GW/newhope.png,GW/leesburg.png,GW/newhope.png,GW/westpalmbeach.png,GW/leesburg.png,1,,,,,,,,,
null,,html-keyboard-response,1096014,,<p></p>,,,,null,,,,,,,,,,,,,,,,,,,,
4949,,directmemory_phase,1100964,,GW/boulder.png,,,,49,,,1,0.75,GW/cornwall.png,GW/huntsville.png,GW/racine.png,GW/cornwall.png,GW/racine.png,GW/huntsville.png,1,,,,,,,,,
null,,html-keyboard-response,1101966,,<p></p>,,,,null,,,,,,,,,,,,,,,,,,,,
2533.800000190735,,directmemory_phase,1104500,,GW/hotsprings.png,,,,51,,,1,0.7777777777777778,GW/carmel.png,GW/shreveport.png,GW/gatlinburg.png,GW/gatlinburg.png,GW/shreveport.png,GW/carmel.png,1,,,,,,,,,
null,,html-keyboard-response,1105502,,<p></p>,,,,null,,,,,,,,,,,,,,,,,,,,
5365.200000047684,,directmemory_phase,1110868,,GW/shreveport.png,,,,51,,,1,0.8,GW/leesburg.png,GW/boulder.png,GW/racine.png,GW/racine.png,GW/boulder.png,GW/leesburg.png,1,,,,,,,,,
null,,html-keyboard-response,1111870,,<p></p>,,,,null,,,,,,,,,,,,,,,,,,,,
3929.5,,directmemory_phase,1115800,,GW/carmel.png,,,,51,,,0,0.7272727272727273,GW/huntsville.png,GW/hotsprings.png,GW/peoria.png,GW/huntsville.png,GW/peoria.png,GW/hotsprings.png,0.5,closer,,,,,,,,
null,,html-keyboard-response,1116801,,<p></p>,,,,null,,,,,,,,,,,,,,,,,,,,
3693.899999856949,,directmemory_phase,1120495,,GW/boulder.png,,,,49,,,0,0.6666666666666666,GW/gatlinburg.png,GW/hotsprings.png,GW/peoria.png,GW/hotsprings.png,GW/gatlinburg.png,GW/peoria.png,0.5,closer,,,,,,,,
null,,html-keyboard-response,1121497,,<p></p>,,,,null,,,,,,,,,,,,,,,,,,,,
3537.9000000953674,,directmemory_phase,1125035,,GW/peoria.png,,,,49,,,0,0.6153846153846154,GW/boulder.png,GW/hanover.png,GW/huntsville.png,GW/huntsville.png,GW/hanover.png,GW/boulder.png,0.5,closer,,,,,,,,
null,,html-keyboard-response,1126037,,<p></p>,,,,null,,,,,,,,,,,,,,,,,,,,
4194.5,,directmemory_phase,1130232,,GW/carmel.png,,,,49,,,1,0.6428571428571429,GW/westpalmbeach.png,GW/racine.png,GW/hanover.png,GW/westpalmbeach.png,GW/hanover.png,GW/racine.png,1,,,,,,,,,
null,,html-keyboard-response,1131233,,<p></p>,,,,null,,,,,,,,,,,,,,,,,,,,
2169.7999999523163,,directmemory_phase,1133404,,GW/shreveport.png,,,,51,,,1,0.6666666666666666,GW/hanover.png,GW/hotsprings.png,GW/huntsville.png,GW/huntsville.png,GW/hotsprings.png,GW/hanover.png,1,,,,,,,,,
null,,html-keyboard-response,1134406,,<p></p>,,,,null,,,,,,,,,,,,,,,,,,,,
3101.199999809265,,directmemory_phase,1137507,,GW/carmel.png,,,,51,,,1,0.6875,GW/boulder.png,GW/hanover.png,GW/leesburg.png,GW/leesburg.png,GW/hanover.png,GW/boulder.png,1,,,,,,,,,
null,,html-keyboard-response,1138509,,<p></p>,,,,null,,,,,,,,,,,,,,,,,,,,
3174.2999999523163,,directmemory_phase,1141684,,GW/hotsprings.png,,,,51,,,1,0.7058823529411765,GW/huntsville.png,GW/newhope.png,GW/boulder.png,GW/boulder.png,GW/newhope.png,GW/huntsville.png,1,,,,,,,,,
null,,html-keyboard-response,1142685,,<p></p>,,,,null,,,,,,,,,,,,,,,,,,,,
1857.7000000476837,,directmemory_phase,1144543,,GW/westpalmbeach.png,,,,51,,,1,0.7222222222222222,GW/gatlinburg.png,GW/racine.png,GW/carmel.png,GW/carmel.png,GW/racine.png,GW/gatlinburg.png,1,,,,,,,,,
null,,html-keyboard-response,1145545,,<p></p>,,,,null,,,,,,,,,,,,,,,,,,,,
5226.399999856949,,directmemory_phase,1150771,,GW/racine.png,,,,51,,,1,0.7368421052631579,GW/leesburg.png,GW/gatlinburg.png,GW/peoria.png,GW/peoria.png,GW/gatlinburg.png,GW/leesburg.png,1,,,,,,,,,
null,,html-keyboard-response,1151773,,<p></p>,,,,null,,,,,,,,,,,,,,,,,,,,
3434,,directmemory_phase,1155208,,GW/newhope.png,,,,49,,,1,0.75,GW/boulder.png,GW/peoria.png,GW/cornwall.png,GW/boulder.png,GW/cornwall.png,GW/peoria.png,1,,,,,,,,,
null,,html-keyboard-response,1156208,,<p></p>,,,,null,,,,,,,,,,,,,,,,,,,,
6162.599999904633,,directmemory_phase,1162372,,GW/huntsville.png,,,,51,,,1,0.7619047619047619,GW/gatlinburg.png,GW/newhope.png,GW/peoria.png,GW/peoria.png,GW/newhope.png,GW/gatlinburg.png,1,,,,,,,,,
null,,html-keyboard-response,1163374,,<p></p>,,,,null,,,,,,,,,,,,,,,,,,,,
4961.5,,directmemory_phase,1168336,,GW/westpalmbeach.png,,,,50,,,0,0.7272727272727273,GW/newhope.png,GW/shreveport.png,GW/hanover.png,GW/hanover.png,GW/shreveport.png,GW/newhope.png,0.5,closer,,,,,,,,
null,,html-keyboard-response,1169338,,<p></p>,,,,null,,,,,,,,,,,,,,,,,,,,
2320.7000000476837,,directmemory_phase,1171659,,GW/boulder.png,,,,49,,,0,0.6956521739130435,GW/huntsville.png,GW/racine.png,GW/newhope.png,GW/newhope.png,GW/racine.png,GW/huntsville.png,0.5,closer,,,,,,,,
null,,html-keyboard-response,1172661,,<p></p>,,,,null,,,,,,,,,,,,,,,,,,,,
4469.399999856949,,directmemory_phase,1177131,,GW/hanover.png,,,,49,,,0,0.6666666666666666,GW/shreveport.png,GW/peoria.png,GW/westpalmbeach.png,GW/westpalmbeach.png,GW/peoria.png,GW/shreveport.png,0.5,closer,,,,,,,,
null,,html-keyboard-response,1178133,,<p></p>,,,,null,,,,,,,,,,,,,,,,,,,,
1757.5,,directmemory_phase,1179891,,GW/cornwall.png,,,,50,,,1,0.68,GW/newhope.png,GW/boulder.png,GW/peoria.png,GW/boulder.png,GW/newhope.png,GW/peoria.png,1,,,,,,,,,
null,,html-keyboard-response,1180892,,<p></p>,,,,null,,,,,,,,,,,,,,,,,,,,
2798.0999999046326,,directmemory_phase,1183691,,GW/westpalmbeach.png,,,,50,,,0,0.6538461538461539,GW/hotsprings.png,GW/shreveport.png,GW/huntsville.png,GW/huntsville.png,GW/shreveport.png,GW/hotsprings.png,0.5,closer,,,,,,,,
null,,html-keyboard-response,1184693,,<p></p>,,,,null,,,,,,,,,,,,,,,,,,,,
4361.100000143051,,directmemory_phase,1189055,,GW/newhope.png,,,,51,,,1,0.6666666666666666,GW/carmel.png,GW/huntsville.png,GW/shreveport.png,GW/shreveport.png,GW/huntsville.png,GW/carmel.png,1,,,,,,,,,
null,,html-keyboard-response,1190056,,<p></p>,,,,null,,,,,,,,,,,,,,,,,,,,
2478.399999856949,,directmemory_phase,1192535,,GW/racine.png,,,,51,,,1,0.6785714285714286,GW/carmel.png,GW/huntsville.png,GW/hotsprings.png,GW/hotsprings.png,GW/huntsville.png,GW/carmel.png,1,,,,,,,,,
null,,html-keyboard-response,1193536,,<p></p>,,,,null,,,,,,,,,,,,,,,,,,,,
2978.0999999046326,,directmemory_phase,1196515,,GW/huntsville.png,,,,50,,,0,0.6551724137931034,GW/shreveport.png,GW/boulder.png,GW/leesburg.png,GW/shreveport.png,GW/leesburg.png,GW/boulder.png,0.5,closer,,,,,,,,
null,,html-keyboard-response,1197517,,<p></p>,,,,null,,,,,,,,,,,,,,,,,,,,
2125.2999999523163,,directmemory_phase,1199643,,GW/hotsprings.png,,,,49,,,1,0.6666666666666666,GW/racine.png,GW/hanover.png,GW/shreveport.png,GW/racine.png,GW/shreveport.png,GW/hanover.png,1,,,,,,,,,
null,,html-keyboard-response,1200644,,<p></p>,,,,null,,,,,,,,,,,,,,,,,,,,
3917.9000000953674,,directmemory_phase,1204563,,GW/huntsville.png,,,,49,,,0,0.6451612903225806,GW/gatlinburg.png,GW/leesburg.png,GW/westpalmbeach.png,GW/westpalmbeach.png,GW/leesburg.png,GW/gatlinburg.png,0.5,closer,,,,,,,,
null,,html-keyboard-response,1205564,,<p></p>,,,,null,,,,,,,,,,,,,,,,,,,,
3458,,directmemory_phase,1209023,,GW/peoria.png,,,,50,,,0,0.625,GW/racine.png,GW/leesburg.png,GW/hanover.png,GW/racine.png,GW/hanover.png,GW/leesburg.png,0.5,closer,,,,,,,,
null,,html-keyboard-response,1210025,,<p></p>,,,,null,,,,,,,,,,,,,,,,,,,,
19469,,intro_1,1229495,,instruct,,0,,,,,,,,,,,,,,,,,,,,,,
10783.099999904633,,intro_2,1240278,,instruct,,1,Next,,,,,,,,,,,,,,,,,,,,,
5934.399999856949,,intro_3,1246214,,instruct,,1,Next,,,,,,,,,,,,,,,,,,,,,
7135.5,,intro_4,1253350,,instruct,,1,Next,,,,,,,,,,,,,,,,,,,,,
10110.5,,intro_5,1263462,,instruct,,1,Next,,,,,,,,,,,,,,,,,,,,,
9102.899999856949,,intro_6,1272566,,instruct,,1,Next,,,,,,,,,,,,,,,,,,,,,
16119.100000143051,,intro_7,1288686,,instruct,,1,Next,,,,,,,,,,,,,,,,,,,,,
8159.299999952316,,intro_8,1296846,,instruct,,1,Next,,,,,,,,,,,,,,,,,,,,,
3383.2000000476837,,shortestpath_phase,1300230,,GW/racine.png,,,,49,GW/hanover.png,GW/boulder.png,0,0,,,,GW/boulder.png,,,,,One Edge Diff,Two Edge Three Edge,,,,,,
null,,html-keyboard-response,1301232,,<p></p>,,,,null,,,,,,,,,,,,,,,,,,,,
2249.2000000476837,,shortestpath_phase,1303482,,GW/carmel.png,,,,49,GW/hotsprings.png,GW/cornwall.png,1,0.5,,,,GW/hotsprings.png,,,,,One Edge Diff,Four Edge Five Edge,,,,,,
null,,html-keyboard-response,1304483,,<p></p>,,,,null,,,,,,,,,,,,,,,,,,,,
2230.0999999046326,,shortestpath_phase,1306714,,GW/leesburg.png,,,,50,GW/cornwall.png,GW/racine.png,1,0.6666666666666666,,,,GW/racine.png,,,,,Two Edge Diff,Four Edge Six Edge,,,,,,
null,,html-keyboard-response,1307716,,<p></p>,,,,null,,,,,,,,,,,,,,,,,,,,
1985.2999999523163,,shortestpath_phase,1309701,,GW/boulder.png,,,,50,GW/carmel.png,GW/huntsville.png,1,0.75,,,,GW/huntsville.png,,,,,One Edge Diff,Three Edge Four Edge,,,,,,
null,,html-keyboard-response,1310703,,<p></p>,,,,null,,,,,,,,,,,,,,,,,,,,
1666.2000000476837,,shortestpath_phase,1312370,,GW/leesburg.png,,,,50,GW/gatlinburg.png,GW/westpalmbeach.png,1,0.8,,,,GW/westpalmbeach.png,,,,,Four Edge Diff,Two Edge Six Edge,,,,,,
null,,html-keyboard-response,1313372,,<p></p>,,,,null,,,,,,,,,,,,,,,,,,,,
1805.2999999523163,,shortestpath_phase,1315178,,GW/hotsprings.png,,,,49,GW/carmel.png,GW/leesburg.png,1,0.8333333333333334,,,,GW/carmel.png,,,,,One Edge Diff,Four Edge Five Edge,,,,,,
null,,html-keyboard-response,1316179,,<p></p>,,,,null,,,,,,,,,,,,,,,,,,,,
1805.2999999523163,,shortestpath_phase,1317985,,GW/gatlinburg.png,,,,49,GW/leesburg.png,GW/racine.png,0,0.7142857142857143,,,,GW/racine.png,,,,,Four Edge Diff,Two Edge Six Edge,,,,,,
null,,html-keyboard-response,1318988,,<p></p>,,,,null,,,,,,,,,,,,,,,,,,,,
1392.7000000476837,,shortestpath_phase,1320381,,GW/hanover.png,,,,50,GW/shreveport.png,GW/boulder.png,0,0.625,,,,GW/shreveport.png,,,,,Two Edge Diff,Three Edge Five Edge,,,,,,
null,,html-keyboard-response,1321383,,<p></p>,,,,null,,,,,,,,,,,,,,,,,,,,
1986.5999999046326,,shortestpath_phase,1323370,,GW/newhope.png,,,,50,GW/leesburg.png,GW/gatlinburg.png,1,0.6666666666666666,,,,GW/gatlinburg.png,,,,,One Edge Diff,Three Edge Four Edge,,,,,,
null,,html-keyboard-response,1324371,,<p></p>,,,,null,,,,,,,,,,,,,,,,,,,,
1873.4000000953674,,shortestpath_phase,1326245,,GW/boulder.png,,,,50,GW/hanover.png,GW/westpalmbeach.png,1,0.7,,,,GW/westpalmbeach.png,,,,,One Edge Diff,Four Edge Five Edge,,,,,,
null,,html-keyboard-response,1327246,,<p></p>,,,,null,,,,,,,,,,,,,,,,,,,,
1262.5,,shortestpath_phase,1328509,,GW/cornwall.png,,,,50,GW/hanover.png,GW/newhope.png,1,0.7272727272727273,,,,GW/newhope.png,,,,,Four Edge Diff,Two Edge Six Edge,,,,,,
null,,html-keyboard-response,1329511,,<p></p>,,,,null,,,,,,,,,,,,,,,,,,,,
1682,,shortestpath_phase,1331194,,GW/gatlinburg.png,,,,49,GW/peoria.png,GW/boulder.png,0,0.6666666666666666,,,,GW/boulder.png,,,,,One Edge Diff,Two Edge Three Edge,,,,,,
null,,html-keyboard-response,1332195,,<p></p>,,,,null,,,,,,,,,,,,,,,,,,,,
1686.0999999046326,,shortestpath_phase,1333882,,GW/newhope.png,,,,49,GW/peoria.png,GW/hanover.png,1,0.6923076923076923,,,,GW/peoria.png,,,,,One Edge Diff,Three Edge Four Edge,,,,,,
null,,html-keyboard-response,1334883,,<p></p>,,,,null,,,,,,,,,,,,,,,,,,,,
910,,shortestpath_phase,1335793,,GW/gatlinburg.png,,,,50,GW/leesburg.png,GW/boulder.png,1,0.7142857142857143,,,,GW/boulder.png,,,,,Four Edge Diff,Two Edge Six Edge,,,,,,
null,,html-keyboard-response,1336795,,<p></p>,,,,null,,,,,,,,,,,,,,,,,,,,
2313.5,,shortestpath_phase,1339110,,GW/hanover.png,,,,50,GW/hotsprings.png,GW/carmel.png,1,0.7333333333333333,,,,GW/carmel.png,,,,,Two Edge Diff,Two Edge Four Edge,,,,,,
null,,html-keyboard-response,1340111,,<p></p>,,,,null,,,,,,,,,,,,,,,,,,,,
1957.6000001430511,,shortestpath_phase,1342070,,GW/gatlinburg.png,,,,49,GW/hanover.png,GW/huntsville.png,0,0.6875,,,,GW/huntsville.png,,,,,One Edge Diff,Four Edge Five Edge,,,,,,
null,,html-keyboard-response,1343071,,<p></p>,,,,null,,,,,,,,,,,,,,,,,,,,
1953.8999998569489,,shortestpath_phase,1345026,,GW/hotsprings.png,,,,49,GW/shreveport.png,GW/leesburg.png,1,0.7058823529411765,,,,GW/shreveport.png,,,,,Three Edge Diff,Two Edge Five Edge,,,,,,
null,,html-keyboard-response,1346027,,<p></p>,,,,null,,,,,,,,,,,,,,,,,,,,
2361.600000143051,,shortestpath_phase,1348390,,GW/gatlinburg.png,,,,49,GW/peoria.png,GW/hanover.png,1,0.7222222222222222,,,,GW/peoria.png,,,,,Two Edge Diff,Three Edge Five Edge,,,,,,
null,,html-keyboard-response,1349391,,<p></p>,,,,null,,,,,,,,,,,,,,,,,,,,
2053.7000000476837,,shortestpath_phase,1351445,,GW/carmel.png,,,,49,GW/shreveport.png,GW/cornwall.png,1,0.7368421052631579,,,,GW/shreveport.png,,,,,Three Edge Diff,Two Edge Five Edge,,,,,,
null,,html-keyboard-response,1352447,,<p></p>,,,,null,,,,,,,,,,,,,,,,,,,,
1869.7000000476837,,shortestpath_phase,1354317,,GW/racine.png,,,,49,GW/gatlinburg.png,GW/hanover.png,1,0.75,,,,GW/gatlinburg.png,,,,,One Edge Diff,Two Edge Three Edge,,,,,,
null,,html-keyboard-response,1355319,,<p></p>,,,,null,,,,,,,,,,,,,,,,,,,,
1210,,shortestpath_phase,1356529,,GW/leesburg.png,,,,50,GW/hanover.png,GW/westpalmbeach.png,1,0.7619047619047619,,,,GW/westpalmbeach.png,,,,,One Edge Diff,Two Edge Three Edge,,,,,,
null,,html-keyboard-response,1357530,,<p></p>,,,,null,,,,,,,,,,,,,,,,,,,,
2602.0999999046326,,shortestpath_phase,1360133,,GW/hanover.png,,,,50,GW/racine.png,GW/carmel.png,1,0.7727272727272727,,,,GW/carmel.png,,,,,One Edge Diff,Two Edge Three Edge,,,,,,
null,,html-keyboard-response,1361134,,<p></p>,,,,null,,,,,,,,,,,,,,,,,,,,
1041.7999999523163,,shortestpath_phase,1362177,,GW/cornwall.png,,,,49,GW/racine.png,GW/peoria.png,1,0.782608695652174,,,,GW/racine.png,,,,,One Edge Diff,Three Edge Four Edge,,,,,,
null,,html-keyboard-response,1363179,,<p></p>,,,,null,,,,,,,,,,,,,,,,,,,,
1453.0999999046326,,shortestpath_phase,1364633,,GW/carmel.png,,,,49,GW/shreveport.png,GW/cornwall.png,1,0.7916666666666666,,,,GW/shreveport.png,,,,,Three Edge Diff,Three Edge Six Edge,,,,,,
null,,html-keyboard-response,1365634,,<p></p>,,,,null,,,,,,,,,,,,,,,,,,,,
3217.9000000953674,,shortestpath_phase,1368853,,GW/hotsprings.png,,,,50,GW/carmel.png,GW/westpalmbeach.png,1,0.8,,,,GW/westpalmbeach.png,,,,,One Edge Diff,Three Edge Four Edge,,,,,,
null,,html-keyboard-response,1369855,,<p></p>,,,,null,,,,,,,,,,,,,,,,,,,,
2721.4000000953674,,shortestpath_phase,1372577,,GW/carmel.png,,,,49,GW/cornwall.png,GW/hanover.png,0,0.7692307692307693,,,,GW/hanover.png,,,,,Three Edge Diff,Two Edge Five Edge,,,,,,
null,,html-keyboard-response,1373578,,<p></p>,,,,null,,,,,,,,,,,,,,,,,,,,
1358,,shortestpath_phase,1374937,,GW/boulder.png,,,,50,GW/peoria.png,GW/hanover.png,0,0.7407407407407407,,,,GW/peoria.png,,,,,Two Edge Diff,Three Edge Five Edge,,,,,,
null,,html-keyboard-response,1375939,,<p></p>,,,,null,,,,,,,,,,,,,,,,,,,,
2649.7000000476837,,shortestpath_phase,1378589,,GW/carmel.png,,,,50,GW/gatlinburg.png,GW/hanover.png,1,0.75,,,,GW/hanover.png,,,,,Three Edge Diff,Three Edge Six Edge,,,,,,
null,,html-keyboard-response,1379590,,<p></p>,,,,null,,,,,,,,,,,,,,,,,,,,
1362.5999999046326,,shortestpath_phase,1380953,,GW/hotsprings.png,,,,49,GW/huntsville.png,GW/leesburg.png,1,0.7586206896551724,,,,GW/huntsville.png,,,,,Two Edge Diff,Three Edge Five Edge,,,,,,
null,,html-keyboard-response,1381954,,<p></p>,,,,null,,,,,,,,,,,,,,,,,,,,
2369.7000000476837,,shortestpath_phase,1384325,,GW/hanover.png,,,,50,GW/leesburg.png,GW/boulder.png,0,0.7333333333333333,,,,GW/leesburg.png,,,,,Two Edge Diff,Three Edge Five Edge,,,,,,
null,,html-keyboard-response,1385327,,<p></p>,,,,null,,,,,,,,,,,,,,,,,,,,
1540.8999998569489,,shortestpath_phase,1386869,,GW/cornwall.png,,,,49,GW/carmel.png,GW/hanover.png,1,0.7419354838709677,,,,GW/carmel.png,,,,,One Edge Diff,Five Edge Six Edge,,,,,,
null,,html-keyboard-response,1387870,,<p></p>,,,,null,,,,,,,,,,,,,,,,,,,,
2098.2000000476837,,shortestpath_phase,1389969,,GW/gatlinburg.png,,,,50,GW/leesburg.png,GW/hanover.png,1,0.75,,,,GW/hanover.png,,,,,One Edge Diff,Five Edge Six Edge,,,,,,
null,,html-keyboard-response,1390970,,<p></p>,,,,null,,,,,,,,,,,,,,,,,,,,
1050.3000001907349,,shortestpath_phase,1392021,,GW/cornwall.png,,,,50,GW/hanover.png,GW/hotsprings.png,1,0.7575757575757576,,,,GW/hotsprings.png,,,,,Four Edge Diff,Two Edge Six Edge,,,,,,
null,,html-keyboard-response,1393022,,<p></p>,,,,null,,,,,,,,,,,,,,,,,,,,
1650.2000000476837,,shortestpath_phase,1394673,,GW/gatlinburg.png,,,,50,GW/hanover.png,GW/westpalmbeach.png,1,0.7647058823529411,,,,GW/westpalmbeach.png,,,,,One Edge Diff,Four Edge Five Edge,,,,,,
null,,html-keyboard-response,1395675,,<p></p>,,,,null,,,,,,,,,,,,,,,,,,,,
2709.4000000953674,,shortestpath_phase,1398385,,GW/hanover.png,,,,49,GW/hotsprings.png,GW/cornwall.png,1,0.7714285714285715,,,,GW/hotsprings.png,,,,,Two Edge Diff,Four Edge Six Edge,,,,,,
null,,html-keyboard-response,1399387,,<p></p>,,,,null,,,,,,,,,,,,,,,,,,,,
2869.5,,shortestpath_phase,1402257,,GW/leesburg.png,,,,49,GW/huntsville.png,GW/cornwall.png,1,0.7777777777777778,,,,GW/huntsville.png,,,,,Four Edge Diff,Two Edge Six Edge,,,,,,
null,,html-keyboard-response,1403259,,<p></p>,,,,null,,,,,,,,,,,,,,,,,,,,
2685,,shortestpath_phase,1405945,,GW/westpalmbeach.png,,,,49,GW/boulder.png,GW/racine.png,0,0.7567567567567568,,,,GW/racine.png,,,,,Two Edge Diff,Two Edge Four Edge,,,,,,
null,,html-keyboard-response,1406947,,<p></p>,,,,null,,,,,,,,,,,,,,,,,,,,
1453.4000000953674,,shortestpath_phase,1408401,,GW/gatlinburg.png,,,,49,GW/huntsville.png,GW/leesburg.png,1,0.7631578947368421,,,,GW/huntsville.png,,,,,Two Edge Diff,Four Edge Six Edge,,,,,,
null,,html-keyboard-response,1409402,,<p></p>,,,,null,,,,,,,,,,,,,,,,,,,,
2138,,shortestpath_phase,1411541,,GW/leesburg.png,,,,50,GW/hotsprings.png,GW/cornwall.png,0,0.7435897435897436,,,,GW/hotsprings.png,,,,,One Edge Diff,Five Edge Six Edge,,,,,,
null,,html-keyboard-response,1412543,,<p></p>,,,,null,,,,,,,,,,,,,,,,,,,,
1901.4000000953674,,shortestpath_phase,1414445,,GW/hanover.png,,,,50,GW/peoria.png,GW/newhope.png,0,0.725,,,,GW/peoria.png,,,,,Two Edge Diff,Two Edge Four Edge,,,,,,
null,,html-keyboard-response,1415447,,<p></p>,,,,null,,,,,,,,,,,,,,,,,,,,
1705.3999998569489,,shortestpath_phase,1417153,,GW/leesburg.png,,,,49,GW/huntsville.png,GW/boulder.png,1,0.7317073170731707,,,,GW/huntsville.png,,,,,Three Edge Diff,Three Edge Six Edge,,,,,,
null,,html-keyboard-response,1418154,,<p></p>,,,,null,,,,,,,,,,,,,,,,,,,,
1249,,shortestpath_phase,1419404,,GW/boulder.png,,,,50,GW/leesburg.png,GW/shreveport.png,1,0.7380952380952381,,,,GW/shreveport.png,,,,,Three Edge Diff,Two Edge Five Edge,,,,,,
null,,html-keyboard-response,1420405,,<p></p>,,,,null,,,,,,,,,,,,,,,,,,,,
2082,,shortestpath_phase,1422488,,GW/hanover.png,,,,49,GW/cornwall.png,GW/newhope.png,0,0.7209302325581395,,,,GW/newhope.png,,,,,Two Edge Diff,Four Edge Six Edge,,,,,,
null,,html-keyboard-response,1423489,,<p></p>,,,,null,,,,,,,,,,,,,,,,,,,,
1134.4000000953674,,shortestpath_phase,1424624,,GW/westpalmbeach.png,,,,49,GW/gatlinburg.png,GW/racine.png,0,0.7045454545454546,,,,GW/racine.png,,,,,Two Edge Diff,Two Edge Four Edge,,,,,,
null,,html-keyboard-response,1425626,,<p></p>,,,,null,,,,,,,,,,,,,,,,,,,,
1769.5,,shortestpath_phase,1427396,,GW/hanover.png,,,,49,GW/gatlinburg.png,GW/shreveport.png,0,0.6888888888888889,,,,GW/shreveport.png,,,,,Two Edge Diff,Three Edge Five Edge,,,,,,
null,,html-keyboard-response,1428398,,<p></p>,,,,null,,,,,,,,,,,,,,,,,,,,
1745.5,,shortestpath_phase,1430144,,GW/leesburg.png,,,,50,GW/hotsprings.png,GW/westpalmbeach.png,1,0.6956521739130435,,,,GW/westpalmbeach.png,,,,,Three Edge Diff,Three Edge Six Edge,,,,,,
null,,html-keyboard-response,1431146,,<p></p>,,,,null,,,,,,,,,,,,,,,,,,,,
1361.5,,shortestpath_phase,1432508,,GW/boulder.png,,,,50,GW/hanover.png,GW/carmel.png,1,0.7021276595744681,,,,GW/carmel.png,,,,,One Edge Diff,Four Edge Five Edge,,,,,,
null,,html-keyboard-response,1433510,,<p></p>,,,,null,,,,,,,,,,,,,,,,,,,,
1310,,shortestpath_phase,1434820,,GW/westpalmbeach.png,,,,50,GW/cornwall.png,GW/shreveport.png,1,0.7083333333333334,,,,GW/shreveport.png,,,,,Three Edge Diff,Three Edge Six Edge,,,,,,
null,,html-keyboard-response,1435822,,<p></p>,,,,null,,,,,,,,,,,,,,,,,,,,
2080.9000000953674,,shortestpath_phase,1437904,,GW/cornwall.png,,,,50,GW/hanover.png,GW/peoria.png,1,0.7142857142857143,,,,GW/peoria.png,,,,,Two Edge Diff,Four Edge Six Edge,,,,,,
null,,html-keyboard-response,1438906,,<p></p>,,,,null,,,,,,,,,,,,,,,,,,,,
2657.199999809265,,shortestpath_phase,1441564,,GW/carmel.png,,,,49,GW/cornwall.png,GW/racine.png,0,0.7,,,,GW/racine.png,,,,,Two Edge Diff,Three Edge Five Edge,,,,,,
null,,html-keyboard-response,1442566,,<p></p>,,,,null,,,,,,,,,,,,,,,,,,,,
1193.2000000476837,,shortestpath_phase,1443760,,GW/cornwall.png,,,,49,GW/hotsprings.png,GW/leesburg.png,1,0.7058823529411765,,,,GW/hotsprings.png,,,,,Four Edge Diff,Two Edge Six Edge,,,,,,
null,,html-keyboard-response,1444762,,<p></p>,,,,null,,,,,,,,,,,,,,,,,,,,
1478,,shortestpath_phase,1446240,,GW/carmel.png,,,,50,GW/gatlinburg.png,GW/peoria.png,1,0.7115384615384616,,,,GW/peoria.png,,,,,Three Edge Diff,Two Edge Five Edge,,,,,,
null,,html-keyboard-response,1447242,,<p></p>,,,,null,,,,,,,,,,,,,,,,,,,,
1109.2000000476837,,shortestpath_phase,1448352,,GW/westpalmbeach.png,,,,49,GW/shreveport.png,GW/cornwall.png,1,0.7169811320754716,,,,GW/shreveport.png,,,,,Three Edge Diff,Two Edge Five Edge,,,,,,
null,,html-keyboard-response,1449354,,<p></p>,,,,null,,,,,,,,,,,,,,,,,,,,
1188.9000000953674,,shortestpath_phase,1450544,,GW/carmel.png,,,,50,GW/peoria.png,GW/gatlinburg.png,0,0.7037037037037037,,,,GW/peoria.png,,,,,Three Edge Diff,Three Edge Six Edge,,,,,,
null,,html-keyboard-response,1451546,,<p></p>,,,,null,,,,,,,,,,,,,,,,,,,,
1561.7000000476837,,shortestpath_phase,1453108,,GW/boulder.png,,,,50,GW/westpalmbeach.png,GW/gatlinburg.png,1,0.7090909090909091,,,,GW/gatlinburg.png,,,,,Two Edge Diff,Two Edge Four Edge,,,,,,
null,,html-keyboard-response,1454109,,<p></p>,,,,null,,,,,,,,,,,,,,,,,,,,
1694,,shortestpath_phase,1455804,,GW/hanover.png,,,,49,GW/carmel.png,GW/boulder.png,1,0.7142857142857143,,,,GW/carmel.png,,,,,Three Edge Diff,Two Edge Five Edge,,,,,,
null,,html-keyboard-response,1456806,,<p></p>,,,,null,,,,,,,,,,,,,,,,,,,,
1985.9000000953674,,shortestpath_phase,1458792,,GW/cornwall.png,,,,50,GW/hotsprings.png,GW/huntsville.png,0,0.7017543859649122,,,,GW/hotsprings.png,,,,,Two Edge Diff,Two Edge Four Edge,,,,,,
null,,html-keyboard-response,1459794,,<p></p>,,,,null,,,,,,,,,,,,,,,,,,,,
2205.5,,shortestpath_phase,1462000,,GW/boulder.png,,,,49,GW/peoria.png,GW/leesburg.png,1,0.7068965517241379,,,,GW/peoria.png,,,,,Two Edge Diff,Three Edge Five Edge,,,,,,
null,,html-keyboard-response,1463002,,<p></p>,,,,null,,,,,,,,,,,,,,,,,,,,
1313,,shortestpath_phase,1464316,,GW/leesburg.png,,,,50,GW/gatlinburg.png,GW/huntsville.png,1,0.711864406779661,,,,GW/huntsville.png,,,,,Four Edge Diff,Two Edge Six Edge,,,,,,
null,,html-keyboard-response,1465318,,<p></p>,,,,null,,,,,,,,,,,,,,,,,,,,
1557.5,,shortestpath_phase,1466876,,GW/cornwall.png,,,,50,GW/peoria.png,GW/leesburg.png,0,0.7,,,,GW/peoria.png,,,,,Two Edge Diff,Four Edge Six Edge,,,,,,
null,,html-keyboard-response,1467878,,<p></p>,,,,null,,,,,,,,,,,,,,,,,,,,
1417.7000000476837,,shortestpath_phase,1469296,,GW/leesburg.png,,,,49,GW/hotsprings.png,GW/gatlinburg.png,1,0.7049180327868853,,,,GW/hotsprings.png,,,,,One Edge Diff,Five Edge Six Edge,,,,,,
null,,html-keyboard-response,1470298,,<p></p>,,,,null,,,,,,,,,,,,,,,,,,,,
1945.5,,shortestpath_phase,1472244,,GW/gatlinburg.png,,,,49,GW/boulder.png,GW/carmel.png,1,0.7096774193548387,,,,GW/boulder.png,,,,,Three Edge Diff,Three Edge Six Edge,,,,,,
null,,html-keyboard-response,1473246,,<p></p>,,,,null,,,,,,,,,,,,,,,,,,,,
1165.5,,shortestpath_phase,1474412,,GW/racine.png,,,,50,GW/hanover.png,GW/leesburg.png,0,0.6984126984126984,,,,GW/hanover.png,,,,,One Edge Diff,Three Edge Four Edge,,,,,,
null,,html-keyboard-response,1475414,,<p></p>,,,,null,,,,,,,,,,,,,,,,,,,,
1553.7999999523163,,shortestpath_phase,1476968,,GW/boulder.png,,,,50,GW/shreveport.png,GW/hanover.png,0,0.6875,,,,GW/shreveport.png,,,,,Three Edge Diff,Three Edge Six Edge,,,,,,
null,,html-keyboard-response,1477970,,<p></p>,,,,null,,,,,,,,,,,,,,,,,,,,
1076.9000000953674,,shortestpath_phase,1479046,,GW/leesburg.png,,,,50,GW/westpalmbeach.png,GW/cornwall.png,0,0.676923076923077,,,,GW/westpalmbeach.png,,,,,Four Edge Diff,Two Edge Six Edge,,,,,,
null,,html-keyboard-response,1480048,,<p></p>,,,,null,,,,,,,,,,,,,,,,,,,,
1894.8000001907349,,shortestpath_phase,1481943,,GW/boulder.png,,,,49,GW/hanover.png,GW/racine.png,0,0.6666666666666666,,,,GW/racine.png,,,,,Three Edge Diff,Three Edge Six Edge,,,,,,
null,,html-keyboard-response,1482946,,<p></p>,,,,null,,,,,,,,,,,,,,,,,,,,
869,,shortestpath_phase,1483815,,GW/hanover.png,,,,50,GW/cornwall.png,GW/gatlinburg.png,1,0.6716417910447762,,,,GW/gatlinburg.png,,,,,One Edge Diff,Five Edge Six Edge,,,,,,
null,,html-keyboard-response,1484829,,<p></p>,,,,null,,,,,,,,,,,,,,,,,,,,
1005.7000000476837,,shortestpath_phase,1485835,,GW/leesburg.png,,,,49,GW/gatlinburg.png,GW/racine.png,0,0.6617647058823529,,,,GW/racine.png,,,,,Two Edge Diff,Four Edge Six Edge,,,,,,
null,,html-keyboard-response,1486845,,<p></p>,,,,null,,,,,,,,,,,,,,,,,,,,
2186,,shortestpath_phase,1489032,,GW/westpalmbeach.png,,,,50,GW/boulder.png,GW/shreveport.png,1,0.6666666666666666,,,,GW/shreveport.png,,,,,Two Edge Diff,Two Edge Four Edge,,,,,,
null,,html-keyboard-response,1490034,,<p></p>,,,,null,,,,,,,,,,,,,,,,,,,,
3017,,shortestpath_phase,1493052,,GW/leesburg.png,,,,49,GW/huntsville.png,GW/hotsprings.png,1,0.6714285714285714,,,,GW/huntsville.png,,,,,Three Edge Diff,Two Edge Five Edge,,,,,,
null,,html-keyboard-response,1494056,,<p></p>,,,,null,,,,,,,,,,,,,,,,,,,,
2045.8000001907349,,shortestpath_phase,1496103,,GW/cornwall.png,,,,50,GW/hotsprings.png,GW/westpalmbeach.png,0,0.6619718309859155,,,,GW/hotsprings.png,,,,,Three Edge Diff,Two Edge Five Edge,,,,,,
null,,html-keyboard-response,1497105,,<p></p>,,,,null,,,,,,,,,,,,,,,,,,,,
1117.4000000953674,,shortestpath_phase,1498223,,GW/hanover.png,,,,49,GW/huntsville.png,GW/cornwall.png,1,0.6666666666666666,,,,GW/huntsville.png,,,,,Four Edge Diff,Two Edge Six Edge,,,,,,
null,,html-keyboard-response,1499225,,<p></p>,,,,null,,,,,,,,,,,,,,,,,,,,
1032.5999999046326,,shortestpath_phase,1500259,,GW/shreveport.png,,,,49,GW/westpalmbeach.png,GW/leesburg.png,1,0.6712328767123288,,,,GW/westpalmbeach.png,,,,,One Edge Diff,Two Edge Three Edge,,,,,,
null,,html-keyboard-response,1501260,,<p></p>,,,,null,,,,,,,,,,,,,,,,,,,,
1391.1000001430511,,shortestpath_phase,1502651,,GW/cornwall.png,,,,50,GW/huntsville.png,GW/leesburg.png,0,0.6621621621621622,,,,GW/huntsville.png,,,,,Two Edge Diff,Four Edge Six Edge,,,,,,
null,,html-keyboard-response,1503654,,<p></p>,,,,null,,,,,,,,,,,,,,,,,,,,
1360.7999999523163,,shortestpath_phase,1505016,,GW/hanover.png,,,,49,GW/carmel.png,GW/gatlinburg.png,1,0.6666666666666666,,,,GW/carmel.png,,,,,Three Edge Diff,Two Edge Five Edge,,,,,,
null,,html-keyboard-response,1506017,,<p></p>,,,,null,,,,,,,,,,,,,,,,,,,,
1169.9000000953674,,shortestpath_phase,1507188,,GW/boulder.png,,,,49,GW/shreveport.png,GW/hanover.png,1,0.6710526315789473,,,,GW/shreveport.png,,,,,Three Edge Diff,Two Edge Five Edge,,,,,,
null,,html-keyboard-response,1508189,,<p></p>,,,,null,,,,,,,,,,,,,,,,,,,,
1797.3999998569489,,shortestpath_phase,1509988,,GW/hanover.png,,,,50,GW/cornwall.png,GW/peoria.png,1,0.6753246753246753,,,,GW/peoria.png,,,,,Four Edge Diff,Two Edge Six Edge,,,,,,
null,,html-keyboard-response,1511004,,<p></p>,,,,null,,,,,,,,,,,,,,,,,,,,
1023,,shortestpath_phase,1512028,,GW/boulder.png,,,,50,GW/racine.png,GW/hanover.png,0,0.6666666666666666,,,,GW/racine.png,,,,,Three Edge Diff,Two Edge Five Edge,,,,,,
null,,html-keyboard-response,1513029,,<p></p>,,,,null,,,,,,,,,,,,,,,,,,,,
1522,,shortestpath_phase,1514552,,GW/carmel.png,,,,49,GW/cornwall.png,GW/peoria.png,0,0.6582278481012658,,,,GW/peoria.png,,,,,Three Edge Diff,Three Edge Six Edge,,,,,,
null,,html-keyboard-response,1515553,,<p></p>,,,,null,,,,,,,,,,,,,,,,,,,,
1937.2000000476837,,shortestpath_phase,1517491,,GW/gatlinburg.png,,,,50,GW/boulder.png,GW/hanover.png,0,0.65,,,,GW/boulder.png,,,,,Three Edge Diff,Three Edge Six Edge,,,,,,
null,,html-keyboard-response,1518493,,<p></p>,,,,null,,,,,,,,,,,,,,,,,,,,
1081.3999998569489,,shortestpath_phase,1519575,,GW/huntsville.png,,,,50,GW/racine.png,GW/gatlinburg.png,0,0.6419753086419753,,,,GW/racine.png,,,,,Two Edge Diff,Two Edge Four Edge,,,,,,
null,,html-keyboard-response,1520578,,<p></p>,,,,null,,,,,,,,,,,,,,,,,,,,
1304.7999999523163,,shortestpath_phase,1521883,,GW/boulder.png,,,,49,GW/shreveport.png,GW/leesburg.png,1,0.6463414634146342,,,,GW/shreveport.png,,,,,Three Edge Diff,Three Edge Six Edge,,,,,,
null,,html-keyboard-response,1522885,,<p></p>,,,,null,,,,,,,,,,,,,,,,,,,,
1429.2999999523163,,shortestpath_phase,1524315,,GW/cornwall.png,,,,49,GW/newhope.png,GW/leesburg.png,1,0.6506024096385542,,,,GW/newhope.png,,,,,Four Edge Diff,Two Edge Six Edge,,,,,,
null,,html-keyboard-response,1525317,,<p></p>,,,,null,,,,,,,,,,,,,,,,,,,,
1749.7999999523163,,shortestpath_phase,1527067,,GW/leesburg.png,,,,49,GW/boulder.png,GW/gatlinburg.png,1,0.6547619047619048,,,,GW/boulder.png,,,,,One Edge Diff,Five Edge Six Edge,,,,,,
