rt,responses,trial_type,time_elapsed,sequence,stimulus,graphorder,button_pressed,response,key_press,stimulus_left,stimulus_right,accuracy,cumulative_accuracy,stimulus_down_left,stimulus_down_mid,stimulus_down_right,stimulus_correct,stimulus_short,stimulus_far,weighted_accuracy,missedtrial,condition,specific_pairs,imgL_ID,imgR_ID,linedress,linedressed,detour_trial,linedressed_detor
9569,{worker_id:629e112d75f3665c8362ab6f},id_enter,9568,blocked,replication,GW/cornwall.png; GW/racine.png; GW/peoria.png; GW/newhope.png; GW/hotsprings.png; GW/shreveport.png; GW/hanover.png; GW/boulder.png; GW/huntsville.png; GW/carmel.png; GW/gatlinburg.png; GW/leesburg.png; GW/westpalmbeach.png,,,,,,,,,,,,,,,,,,,,,,,
34811,,fullscreen,44382,,fullscreen,,0,,,,,,,,,,,,,,,,,,,,,,
9988,,intro_1,54372,,instruct,,0,,,,,,,,,,,,,,,,,,,,,,
17401,,intro_2,71774,,instruct,,1,Next,,,,,,,,,,,,,,,,,,,,,
10775,,intro_3,82550,,instruct,,1,Next,,,,,,,,,,,,,,,,,,,,,
null,,learn_prac_1,85649,,lean_prac_1,,,,null,,,,,,,,,,,,,,,,,,,,
null,,html-keyboard-response,86652,,<p></p>,,,,null,,,,,,,,,,,,,,,,,,,,
6980,,intro_1,93633,,instruct,,0,,,,,,,,,,,,,,,,,,,,,,
4218,,intro_2,97852,,instruct,,1,Next,,,,,,,,,,,,,,,,,,,,,
null,,learn_prac_2,101010,,lean_prac_2,,,,null,,,,,,,,,,,,,,,,,,,,
null,,html-keyboard-response,102028,,<p></p>,,,,null,,,,,,,,,,,,,,,,,,,,
2090,,intro_1,104120,,instruct,,0,,,,,,,,,,,,,,,,,,,,,,
1817,,intro_2,105938,,instruct,,1,Next,,,,,,,,,,,,,,,,,,,,,
17241,,intro_3,123180,,instruct,,1,Next,,,,,,,,,,,,,,,,,,,,,
null,,prac_atten_color_black,123545,,black_plus_sign,,,,null,,,,,,,,,,,,,,,,,,,,
null,,prac_atten_color,124629,,prac_stop_color,,,,null,,,,,,,,,,,,,,,,,,,,
null,,prac_atten_color_black,126676,,black_plus_sign,,,,null,,,,,,,,,,,,,,,,,,,,
6011,,attentioncheck_help,132692,,instruct,,,,32,,,,,,,,,,,,,,,,,,,,
null,,prac_atten_color_black,133070,,black_plus_sign,,,,null,,,,,,,,,,,,,,,,,,,,
null,,prac_atten_color,133748,,prac_stop_color,,,,null,,,,,,,,,,,,,,,,,,,,
398,,prac_atten_color_black,135850,,black_plus_sign,,,,50,,,,,,,,,,,,,,,,,,,,
null,,prac_atten_color_black,136602,,black_plus_sign,,,,null,,,,,,,,,,,,,,,,,,,,
null,,prac_atten_color,137633,,prac_stop_color,,,,null,,,,,,,,,,,,,,,,,,,,
246,,prac_atten_color_black,139642,,black_plus_sign,,,,50,,,,,,,,,,,,,,,,,,,,
null,,prac_atten_color_black,140036,,black_plus_sign,,,,null,,,,,,,,,,,,,,,,,,,,
null,,prac_atten_color,140603,,prac_stop_color,,,,null,,,,,,,,,,,,,,,,,,,,
320,,prac_atten_color_black,142615,,black_plus_sign,,,,49,,,,,,,,,,,,,,,,,,,,
null,,prac_atten_color_black,143475,,black_plus_sign,,,,null,,,,,,,,,,,,,,,,,,,,
null,,prac_atten_color,144092,,prac_stop_color,,,,null,,,,,,,,,,,,,,,,,,,,
144,,prac_atten_color_black,146098,,black_plus_sign,,,,50,,,,,,,,,,,,,,,,,,,,
null,,prac_atten_color_black,146904,,black_plus_sign,,,,null,,,,,,,,,,,,,,,,,,,,
null,,prac_atten_color,147582,,prac_stop_color,,,,null,,,,,,,,,,,,,,,,,,,,
187,,prac_atten_color_black,149598,,black_plus_sign,,,,50,,,,,,,,,,,,,,,,,,,,
null,,prac_atten_color_black,150355,,black_plus_sign,,,,null,,,,,,,,,,,,,,,,,,,,
null,,prac_atten_color,150794,,prac_stop_color,,,,null,,,,,,,,,,,,,,,,,,,,
379,,prac_atten_color_black,152804,,black_plus_sign,,,,49,,,,,,,,,,,,,,,,,,,,
null,,prac_atten_color_black,153793,,black_plus_sign,,,,null,,,,,,,,,,,,,,,,,,,,
null,,prac_atten_color,154376,,prac_stop_color,,,,null,,,,,,,,,,,,,,,,,,,,
95,,prac_atten_color_black,156485,,black_plus_sign,,,,50,,,,,,,,,,,,,,,,,,,,
null,,prac_atten_color_black,157321,,black_plus_sign,,,,null,,,,,,,,,,,,,,,,,,,,
719,,prac_atten_color,158215,,prac_stop_color,,,,49,,,,,,,,,,,,,,,,,,,,
null,,prac_atten_color_black,160223,,black_plus_sign,,,,null,,,,,,,,,,,,,,,,,,,,
null,,prac_atten_color_black,160759,,black_plus_sign,,,,null,,,,,,,,,,,,,,,,,,,,
659,,prac_atten_color,161559,,prac_stop_color,,,,49,,,,,,,,,,,,,,,,,,,,
null,,prac_atten_color_black,163571,,black_plus_sign,,,,null,,,,,,,,,,,,,,,,,,,,
5472,,attentioncheck_feedback,169048,,cross_check_feedback,,0,,,,,,,,,,,,,,,,,,,,,,
17626,,last_instruct,186675,,instruct,,,,32,,,,,,,,,,,,,,,,,,,,
null,,learn_phase(without_color),189687,,black_plus_sign,,,,null,GW/newhope.png,GW/leesburg.png,,,,,,,,,,,,,,,,,,
null,,black_cross(without_color),190411,,yellow,,,,null,GW/newhope.png,GW/leesburg.png,,,,,,,,,,,,,,,,,,
null,,rt_plussign_withcolor,190915,,yellow,,,,null,GW/newhope.png,GW/leesburg.png,,,,,,,,,,,,,,,,,,
1060,,rt_thecrossant_black,192216,,black_plus_sign,,,,50,,,1,1,,,,,,,,,,,,,,,,
null,,color_black,192326,,black_plus_sign,,,,null,,,,,,,,,,,,,,,,,,,,
null,,learn_phase(without_color),195345,,black_plus_sign,,,,null,GW/boulder.png,GW/hanover.png,,,,,,,,,,,,,,,,,,
null,,black_cross(without_color),196144,,yellow,,,,null,GW/boulder.png,GW/hanover.png,,,,,,,,,,,,,,,,,,
null,,rt_plussign_withcolor,196649,,yellow,,,,null,GW/boulder.png,GW/hanover.png,,,,,,,,,,,,,,,,,,
695,,rt_thecrossant_black,197952,,black_plus_sign,,,,50,,,1,1,,,,,,,,,,,,,,,,
null,,color_black,198062,,black_plus_sign,,,,null,,,,,,,,,,,,,,,,,,,,
null,,learn_phase(without_color),201067,,black_plus_sign,,,,null,GW/huntsville.png,GW/gatlinburg.png,,,,,,,,,,,,,,,,,,
null,,black_cross(without_color),201804,,blue,,,,null,GW/huntsville.png,GW/gatlinburg.png,,,,,,,,,,,,,,,,,,
null,,rt_plussign_withcolor,202306,,blue,,,,null,GW/huntsville.png,GW/gatlinburg.png,,,,,,,,,,,,,,,,,,
1072,,rt_thecrossant_black,203586,,black_plus_sign,,,,49,,,1,1,,,,,,,,,,,,,,,,
null,,color_black,203699,,black_plus_sign,,,,null,,,,,,,,,,,,,,,,,,,,
null,,learn_phase(without_color),206741,,black_plus_sign,,,,null,GW/boulder.png,GW/hanover.png,,,,,,,,,,,,,,,,,,
null,,black_cross(without_color),207507,,blue,,,,null,GW/boulder.png,GW/hanover.png,,,,,,,,,,,,,,,,,,
null,,rt_plussign_withcolor,208011,,blue,,,,null,GW/boulder.png,GW/hanover.png,,,,,,,,,,,,,,,,,,
890,,rt_thecrossant_black,209268,,black_plus_sign,,,,49,,,1,1,,,,,,,,,,,,,,,,
null,,color_black,209377,,black_plus_sign,,,,null,,,,,,,,,,,,,,,,,,,,
null,,learn_phase(without_color),212381,,black_plus_sign,,,,null,GW/shreveport.png,GW/peoria.png,,,,,,,,,,,,,,,,,,
null,,black_cross(without_color),213480,,yellow,,,,null,GW/shreveport.png,GW/peoria.png,,,,,,,,,,,,,,,,,,
null,,rt_plussign_withcolor,213983,,yellow,,,,null,GW/shreveport.png,GW/peoria.png,,,,,,,,,,,,,,,,,,
903,,rt_thecrossant_black,214907,,black_plus_sign,,,,50,,,1,1,,,,,,,,,,,,,,,,
null,,color_black,215016,,black_plus_sign,,,,null,,,,,,,,,,,,,,,,,,,,
null,,learn_phase(without_color),218027,,black_plus_sign,,,,null,GW/huntsville.png,GW/gatlinburg.png,,,,,,,,,,,,,,,,,,
null,,black_cross(without_color),218511,,yellow,,,,null,GW/huntsville.png,GW/gatlinburg.png,,,,,,,,,,,,,,,,,,
null,,rt_plussign_withcolor,219015,,yellow,,,,null,GW/huntsville.png,GW/gatlinburg.png,,,,,,,,,,,,,,,,,,
1317,,rt_thecrossant_black,220562,,black_plus_sign,,,,50,,,1,1,,,,,,,,,,,,,,,,
null,,color_black,220669,,black_plus_sign,,,,null,,,,,,,,,,,,,,,,,,,,
null,,learn_phase(without_color),223768,,black_plus_sign,,,,null,GW/newhope.png,GW/leesburg.png,,,,,,,,,,,,,,,,,,
null,,black_cross(without_color),224253,,blue,,,,null,GW/newhope.png,GW/leesburg.png,,,,,,,,,,,,,,,,,,
null,,rt_plussign_withcolor,224767,,blue,,,,null,GW/newhope.png,GW/leesburg.png,,,,,,,,,,,,,,,,,,
1129,,rt_thecrossant_black,226305,,black_plus_sign,,,,49,,,1,1,,,,,,,,,,,,,,,,
null,,color_black,226415,,black_plus_sign,,,,null,,,,,,,,,,,,,,,,,,,,
null,,learn_phase(without_color),229417,,black_plus_sign,,,,null,GW/gatlinburg.png,GW/huntsville.png,,,,,,,,,,,,,,,,,,
null,,black_cross(without_color),229998,,blue,,,,null,GW/gatlinburg.png,GW/huntsville.png,,,,,,,,,,,,,,,,,,
null,,rt_plussign_withcolor,230501,,blue,,,,null,GW/gatlinburg.png,GW/huntsville.png,,,,,,,,,,,,,,,,,,
766,,rt_thecrossant_black,231934,,black_plus_sign,,,,49,,,1,1,,,,,,,,,,,,,,,,
null,,color_black,232042,,black_plus_sign,,,,null,,,,,,,,,,,,,,,,,,,,
null,,learn_phase(without_color),235044,,black_plus_sign,,,,null,GW/hanover.png,GW/boulder.png,,,,,,,,,,,,,,,,,,
null,,black_cross(without_color),235642,,blue,,,,null,GW/hanover.png,GW/boulder.png,,,,,,,,,,,,,,,,,,
null,,rt_plussign_withcolor,236147,,blue,,,,null,GW/hanover.png,GW/boulder.png,,,,,,,,,,,,,,,,,,
874,,rt_thecrossant_black,237574,,black_plus_sign,,,,49,,,1,1,,,,,,,,,,,,,,,,
null,,color_black,237684,,black_plus_sign,,,,null,,,,,,,,,,,,,,,,,,,,
null,,learn_phase(without_color),240693,,black_plus_sign,,,,null,GW/newhope.png,GW/leesburg.png,,,,,,,,,,,,,,,,,,
null,,black_cross(without_color),241497,,yellow,,,,null,GW/newhope.png,GW/leesburg.png,,,,,,,,,,,,,,,,,,
null,,rt_plussign_withcolor,241998,,yellow,,,,null,GW/newhope.png,GW/leesburg.png,,,,,,,,,,,,,,,,,,
832,,rt_thecrossant_black,243221,,black_plus_sign,,,,50,,,1,1,,,,,,,,,,,,,,,,
null,,color_black,243332,,black_plus_sign,,,,null,,,,,,,,,,,,,,,,,,,,
null,,learn_phase(without_color),246348,,black_plus_sign,,,,null,GW/peoria.png,GW/shreveport.png,,,,,,,,,,,,,,,,,,
null,,black_cross(without_color),247370,,yellow,,,,null,GW/peoria.png,GW/shreveport.png,,,,,,,,,,,,,,,,,,
null,,rt_plussign_withcolor,247875,,yellow,,,,null,GW/peoria.png,GW/shreveport.png,,,,,,,,,,,,,,,,,,
981,,rt_thecrossant_black,248875,,black_plus_sign,,,,50,,,1,1,,,,,,,,,,,,,,,,
null,,color_black,248985,,black_plus_sign,,,,null,,,,,,,,,,,,,,,,,,,,
null,,learn_phase(without_color),252079,,black_plus_sign,,,,null,GW/hanover.png,GW/boulder.png,,,,,,,,,,,,,,,,,,
null,,black_cross(without_color),253033,,blue,,,,null,GW/hanover.png,GW/boulder.png,,,,,,,,,,,,,,,,,,
null,,rt_plussign_withcolor,253535,,blue,,,,null,GW/hanover.png,GW/boulder.png,,,,,,,,,,,,,,,,,,
1181,,rt_thecrossant_black,254587,,black_plus_sign,,,,49,,,1,1,,,,,,,,,,,,,,,,
null,,color_black,254699,,black_plus_sign,,,,null,,,,,,,,,,,,,,,,,,,,
null,,learn_phase(without_color),257715,,black_plus_sign,,,,null,GW/newhope.png,GW/leesburg.png,,,,,,,,,,,,,,,,,,
null,,black_cross(without_color),258702,,yellow,,,,null,GW/newhope.png,GW/leesburg.png,,,,,,,,,,,,,,,,,,
null,,rt_plussign_withcolor,259209,,yellow,,,,null,GW/newhope.png,GW/leesburg.png,,,,,,,,,,,,,,,,,,
1152,,rt_thecrossant_black,260249,,black_plus_sign,,,,50,,,1,1,,,,,,,,,,,,,,,,
null,,color_black,260359,,black_plus_sign,,,,null,,,,,,,,,,,,,,,,,,,,
null,,learn_phase(without_color),263365,,black_plus_sign,,,,null,GW/boulder.png,GW/hanover.png,,,,,,,,,,,,,,,,,,
null,,black_cross(without_color),264148,,blue,,,,null,GW/boulder.png,GW/hanover.png,,,,,,,,,,,,,,,,,,
490,,rt_plussign_withcolor,264663,,blue,,,,49,GW/boulder.png,GW/hanover.png,,,,,,,,,,,,,,,,,,
null,,rt_thecrossant_black,265900,,black_plus_sign,,,,null,,,1,1,,,,,,,,,,,,,,,,
null,,color_black,266010,,black_plus_sign,,,,null,,,,,,,,,,,,,,,,,,,,
null,,learn_phase(without_color),269026,,black_plus_sign,,,,null,GW/newhope.png,GW/leesburg.png,,,,,,,,,,,,,,,,,,
null,,black_cross(without_color),269639,,blue,,,,null,GW/newhope.png,GW/leesburg.png,,,,,,,,,,,,,,,,,,
null,,rt_plussign_withcolor,270142,,blue,,,,null,GW/newhope.png,GW/leesburg.png,,,,,,,,,,,,,,,,,,
1170,,rt_thecrossant_black,271557,,black_plus_sign,,,,49,,,1,1,,,,,,,,,,,,,,,,
null,,color_black,271668,,black_plus_sign,,,,null,,,,,,,,,,,,,,,,,,,,
null,,learn_phase(without_color),274756,,black_plus_sign,,,,null,GW/boulder.png,GW/hanover.png,,,,,,,,,,,,,,,,,,
null,,black_cross(without_color),275444,,blue,,,,null,GW/boulder.png,GW/hanover.png,,,,,,,,,,,,,,,,,,
null,,rt_plussign_withcolor,275949,,blue,,,,null,GW/boulder.png,GW/hanover.png,,,,,,,,,,,,,,,,,,
929,,rt_thecrossant_black,277282,,black_plus_sign,,,,49,,,1,1,,,,,,,,,,,,,,,,
null,,color_black,277390,,black_plus_sign,,,,null,,,,,,,,,,,,,,,,,,,,
null,,learn_phase(without_color),280573,,black_plus_sign,,,,null,GW/shreveport.png,GW/peoria.png,,,,,,,,,,,,,,,,,,
null,,black_cross(without_color),281186,,yellow,,,,null,GW/shreveport.png,GW/peoria.png,,,,,,,,,,,,,,,,,,
null,,rt_plussign_withcolor,281691,,yellow,,,,null,GW/shreveport.png,GW/peoria.png,,,,,,,,,,,,,,,,,,
961,,rt_thecrossant_black,283092,,black_plus_sign,,,,50,,,1,1,,,,,,,,,,,,,,,,
null,,color_black,283203,,black_plus_sign,,,,null,,,,,,,,,,,,,,,,,,,,
null,,learn_phase(without_color),286223,,black_plus_sign,,,,null,GW/huntsville.png,GW/gatlinburg.png,,,,,,,,,,,,,,,,,,
null,,black_cross(without_color),287082,,blue,,,,null,GW/huntsville.png,GW/gatlinburg.png,,,,,,,,,,,,,,,,,,
478,,rt_plussign_withcolor,287586,,blue,,,,49,GW/huntsville.png,GW/gatlinburg.png,,,,,,,,,,,,,,,,,,
null,,rt_thecrossant_black,288747,,black_plus_sign,,,,null,,,1,1,,,,,,,,,,,,,,,,
null,,color_black,288856,,black_plus_sign,,,,null,,,,,,,,,,,,,,,,,,,,
null,,learn_phase(without_color),291871,,black_plus_sign,,,,null,GW/newhope.png,GW/leesburg.png,,,,,,,,,,,,,,,,,,
null,,black_cross(without_color),292309,,yellow,,,,null,GW/newhope.png,GW/leesburg.png,,,,,,,,,,,,,,,,,,
null,,rt_plussign_withcolor,292812,,yellow,,,,null,GW/newhope.png,GW/leesburg.png,,,,,,,,,,,,,,,,,,
1115,,rt_thecrossant_black,294392,,black_plus_sign,,,,50,,,1,1,,,,,,,,,,,,,,,,
null,,color_black,294502,,black_plus_sign,,,,null,,,,,,,,,,,,,,,,,,,,
null,,learn_phase(without_color),297514,,black_plus_sign,,,,null,GW/peoria.png,GW/shreveport.png,,,,,,,,,,,,,,,,,,
null,,black_cross(without_color),298435,,blue,,,,null,GW/peoria.png,GW/shreveport.png,,,,,,,,,,,,,,,,,,
null,,rt_plussign_withcolor,298938,,blue,,,,null,GW/peoria.png,GW/shreveport.png,,,,,,,,,,,,,,,,,,
655,,rt_thecrossant_black,300045,,black_plus_sign,,,,49,,,1,1,,,,,,,,,,,,,,,,
null,,color_black,300154,,black_plus_sign,,,,null,,,,,,,,,,,,,,,,,,,,
null,,learn_phase(without_color),303446,,black_plus_sign,,,,null,GW/huntsville.png,GW/gatlinburg.png,,,,,,,,,,,,,,,,,,
null,,black_cross(without_color),304130,,blue,,,,null,GW/huntsville.png,GW/gatlinburg.png,,,,,,,,,,,,,,,,,,
null,,rt_plussign_withcolor,304633,,blue,,,,null,GW/huntsville.png,GW/gatlinburg.png,,,,,,,,,,,,,,,,,,
1230,,rt_thecrossant_black,305967,,black_plus_sign,,,,49,,,1,1,,,,,,,,,,,,,,,,
null,,color_black,306077,,black_plus_sign,,,,null,,,,,,,,,,,,,,,,,,,,
null,,learn_phase(without_color),309091,,black_plus_sign,,,,null,GW/newhope.png,GW/leesburg.png,,,,,,,,,,,,,,,,,,
null,,black_cross(without_color),309986,,yellow,,,,null,GW/newhope.png,GW/leesburg.png,,,,,,,,,,,,,,,,,,
460,,rt_plussign_withcolor,310487,,yellow,,,,50,GW/newhope.png,GW/leesburg.png,,,,,,,,,,,,,,,,,,
null,,rt_thecrossant_black,311613,,black_plus_sign,,,,null,,,1,1,,,,,,,,,,,,,,,,
null,,color_black,311724,,black_plus_sign,,,,null,,,,,,,,,,,,,,,,,,,,
null,,learn_phase(without_color),314730,,black_plus_sign,,,,null,GW/huntsville.png,GW/gatlinburg.png,,,,,,,,,,,,,,,,,,
null,,black_cross(without_color),315797,,yellow,,,,null,GW/huntsville.png,GW/gatlinburg.png,,,,,,,,,,,,,,,,,,
483,,rt_plussign_withcolor,316300,,yellow,,,,50,GW/huntsville.png,GW/gatlinburg.png,,,,,,,,,,,,,,,,,,
null,,rt_thecrossant_black,317255,,black_plus_sign,,,,null,,,1,1,,,,,,,,,,,,,,,,
null,,color_black,317365,,black_plus_sign,,,,null,,,,,,,,,,,,,,,,,,,,
null,,learn_phase(without_color),320490,,black_plus_sign,,,,null,GW/newhope.png,GW/leesburg.png,,,,,,,,,,,,,,,,,,
null,,black_cross(without_color),321426,,blue,,,,null,GW/newhope.png,GW/leesburg.png,,,,,,,,,,,,,,,,,,
370,,rt_plussign_withcolor,321931,,blue,,,,49,GW/newhope.png,GW/leesburg.png,,,,,,,,,,,,,,,,,,
null,,rt_thecrossant_black,323017,,black_plus_sign,,,,null,,,1,1,,,,,,,,,,,,,,,,
null,,color_black,323128,,black_plus_sign,,,,null,,,,,,,,,,,,,,,,,,,,
null,,learn_phase(without_color),326148,,black_plus_sign,,,,null,GW/peoria.png,GW/shreveport.png,,,,,,,,,,,,,,,,,,
null,,black_cross(without_color),326853,,blue,,,,null,GW/peoria.png,GW/shreveport.png,,,,,,,,,,,,,,,,,,
null,,rt_plussign_withcolor,327355,,blue,,,,null,GW/peoria.png,GW/shreveport.png,,,,,,,,,,,,,,,,,,
1211,,rt_thecrossant_black,328664,,black_plus_sign,,,,49,,,1,1,,,,,,,,,,,,,,,,
null,,color_black,328774,,black_plus_sign,,,,null,,,,,,,,,,,,,,,,,,,,
null,,learn_phase(without_color),331777,,black_plus_sign,,,,null,GW/gatlinburg.png,GW/huntsville.png,,,,,,,,,,,,,,,,,,
null,,black_cross(without_color),332464,,blue,,,,null,GW/gatlinburg.png,GW/huntsville.png,,,,,,,,,,,,,,,,,,
469,,rt_plussign_withcolor,332968,,blue,,,,49,GW/gatlinburg.png,GW/huntsville.png,,,,,,,,,,,,,,,,,,
null,,rt_thecrossant_black,334300,,black_plus_sign,,,,null,,,1,1,,,,,,,,,,,,,,,,
null,,color_black,334409,,black_plus_sign,,,,null,,,,,,,,,,,,,,,,,,,,
null,,learn_phase(without_color),337422,,black_plus_sign,,,,null,GW/peoria.png,GW/shreveport.png,,,,,,,,,,,,,,,,,,
null,,black_cross(without_color),337862,,blue,,,,null,GW/peoria.png,GW/shreveport.png,,,,,,,,,,,,,,,,,,
null,,rt_plussign_withcolor,338378,,blue,,,,null,GW/peoria.png,GW/shreveport.png,,,,,,,,,,,,,,,,,,
855,,rt_thecrossant_black,339959,,black_plus_sign,,,,49,,,1,1,,,,,,,,,,,,,,,,
null,,color_black,340069,,black_plus_sign,,,,null,,,,,,,,,,,,,,,,,,,,
null,,learn_phase(without_color),343084,,black_plus_sign,,,,null,GW/huntsville.png,GW/gatlinburg.png,,,,,,,,,,,,,,,,,,
null,,black_cross(without_color),343854,,blue,,,,null,GW/huntsville.png,GW/gatlinburg.png,,,,,,,,,,,,,,,,,,
466,,rt_plussign_withcolor,344357,,blue,,,,49,GW/huntsville.png,GW/gatlinburg.png,,,,,,,,,,,,,,,,,,
null,,rt_thecrossant_black,345614,,black_plus_sign,,,,null,,,1,1,,,,,,,,,,,,,,,,
null,,color_black,345723,,black_plus_sign,,,,null,,,,,,,,,,,,,,,,,,,,
null,,learn_phase(without_color),348737,,black_plus_sign,,,,null,GW/peoria.png,GW/shreveport.png,,,,,,,,,,,,,,,,,,
null,,black_cross(without_color),349630,,yellow,,,,null,GW/peoria.png,GW/shreveport.png,,,,,,,,,,,,,,,,,,
428,,rt_plussign_withcolor,350134,,yellow,,,,50,GW/peoria.png,GW/shreveport.png,,,,,,,,,,,,,,,,,,
null,,rt_thecrossant_black,351259,,black_plus_sign,,,,null,,,1,1,,,,,,,,,,,,,,,,
null,,color_black,351369,,black_plus_sign,,,,null,,,,,,,,,,,,,,,,,,,,
null,,learn_phase(without_color),354381,,black_plus_sign,,,,null,GW/boulder.png,GW/hanover.png,,,,,,,,,,,,,,,,,,
null,,black_cross(without_color),355243,,yellow,,,,null,GW/boulder.png,GW/hanover.png,,,,,,,,,,,,,,,,,,
null,,rt_plussign_withcolor,355756,,yellow,,,,null,GW/boulder.png,GW/hanover.png,,,,,,,,,,,,,,,,,,
1024,,rt_thecrossant_black,356917,,black_plus_sign,,,,50,,,1,1,,,,,,,,,,,,,,,,
null,,color_black,357027,,black_plus_sign,,,,null,,,,,,,,,,,,,,,,,,,,
null,,learn_phase(without_color),360039,,black_plus_sign,,,,null,GW/hanover.png,GW/boulder.png,,,,,,,,,,,,,,,,,,
null,,black_cross(without_color),360747,,blue,,,,null,GW/hanover.png,GW/boulder.png,,,,,,,,,,,,,,,,,,
442,,rt_plussign_withcolor,361252,,blue,,,,49,GW/hanover.png,GW/boulder.png,,,,,,,,,,,,,,,,,,
null,,rt_thecrossant_black,362561,,black_plus_sign,,,,null,,,1,1,,,,,,,,,,,,,,,,
null,,color_black,362670,,black_plus_sign,,,,null,,,,,,,,,,,,,,,,,,,,
null,,learn_phase(without_color),365690,,black_plus_sign,,,,null,GW/peoria.png,GW/shreveport.png,,,,,,,,,,,,,,,,,,
null,,black_cross(without_color),366217,,yellow,,,,null,GW/peoria.png,GW/shreveport.png,,,,,,,,,,,,,,,,,,
443,,rt_plussign_withcolor,366732,,yellow,,,,50,GW/peoria.png,GW/shreveport.png,,,,,,,,,,,,,,,,,,
null,,rt_thecrossant_black,368229,,black_plus_sign,,,,null,,,1,1,,,,,,,,,,,,,,,,
null,,color_black,368338,,black_plus_sign,,,,null,,,,,,,,,,,,,,,,,,,,
null,,learn_phase(without_color),371346,,black_plus_sign,,,,null,GW/huntsville.png,GW/hanover.png,,,,,,,,,,,,,,,,,,
null,,black_cross(without_color),372267,,yellow,,,,null,GW/huntsville.png,GW/hanover.png,,,,,,,,,,,,,,,,,,
null,,rt_plussign_withcolor,372779,,yellow,,,,null,GW/huntsville.png,GW/hanover.png,,,,,,,,,,,,,,,,,,
629,,rt_thecrossant_black,373876,,black_plus_sign,,,,50,,,1,1,,,,,,,,,,,,,,,,
null,,color_black,373984,,black_plus_sign,,,,null,,,,,,,,,,,,,,,,,,,,
null,,learn_phase(without_color),377001,,black_plus_sign,,,,null,GW/racine.png,GW/peoria.png,,,,,,,,,,,,,,,,,,
null,,black_cross(without_color),377843,,blue,,,,null,GW/racine.png,GW/peoria.png,,,,,,,,,,,,,,,,,,
null,,rt_plussign_withcolor,378357,,blue,,,,null,GW/racine.png,GW/peoria.png,,,,,,,,,,,,,,,,,,
1233,,rt_thecrossant_black,379543,,black_plus_sign,,,,49,,,1,1,,,,,,,,,,,,,,,,
null,,color_black,379652,,black_plus_sign,,,,null,,,,,,,,,,,,,,,,,,,,
null,,learn_phase(without_color),382655,,black_plus_sign,,,,null,GW/carmel.png,GW/boulder.png,,,,,,,,,,,,,,,,,,
null,,black_cross(without_color),383405,,yellow,,,,null,GW/carmel.png,GW/boulder.png,,,,,,,,,,,,,,,,,,
489,,rt_plussign_withcolor,383907,,yellow,,,,50,GW/carmel.png,GW/boulder.png,,,,,,,,,,,,,,,,,,
null,,rt_thecrossant_black,385187,,black_plus_sign,,,,null,,,1,1,,,,,,,,,,,,,,,,
null,,color_black,385297,,black_plus_sign,,,,null,,,,,,,,,,,,,,,,,,,,
null,,learn_phase(without_color),388307,,black_plus_sign,,,,null,GW/gatlinburg.png,GW/leesburg.png,,,,,,,,,,,,,,,,,,
null,,black_cross(without_color),388917,,blue,,,,null,GW/gatlinburg.png,GW/leesburg.png,,,,,,,,,,,,,,,,,,
null,,rt_plussign_withcolor,389422,,blue,,,,null,GW/gatlinburg.png,GW/leesburg.png,,,,,,,,,,,,,,,,,,
904,,rt_thecrossant_black,390836,,black_plus_sign,,,,50,,,0,0.9722222222222222,,,,,,,,,,,,,,,,
null,,color_black,390945,,black_plus_sign,,,,null,,,,,,,,,,,,,,,,,,,,
null,,learn_phase(without_color),394039,,black_plus_sign,,,,null,GW/carmel.png,GW/boulder.png,,,,,,,,,,,,,,,,,,
null,,black_cross(without_color),394568,,blue,,,,null,GW/carmel.png,GW/boulder.png,,,,,,,,,,,,,,,,,,
null,,rt_plussign_withcolor,395085,,blue,,,,null,GW/carmel.png,GW/boulder.png,,,,,,,,,,,,,,,,,,
724,,rt_thecrossant_black,396576,,black_plus_sign,,,,49,,,1,0.972972972972973,,,,,,,,,,,,,,,,
null,,color_black,396686,,black_plus_sign,,,,null,,,,,,,,,,,,,,,,,,,,
null,,learn_phase(without_color),399695,,black_plus_sign,,,,null,GW/huntsville.png,GW/hanover.png,,,,,,,,,,,,,,,,,,
null,,black_cross(without_color),400615,,yellow,,,,null,GW/huntsville.png,GW/hanover.png,,,,,,,,,,,,,,,,,,
null,,rt_plussign_withcolor,401116,,yellow,,,,null,GW/huntsville.png,GW/hanover.png,,,,,,,,,,,,,,,,,,
669,,rt_thecrossant_black,402287,,black_plus_sign,,,,50,,,1,0.9736842105263158,,,,,,,,,,,,,,,,
null,,color_black,402397,,black_plus_sign,,,,null,,,,,,,,,,,,,,,,,,,,
null,,learn_phase(without_color),405399,,black_plus_sign,,,,null,GW/racine.png,GW/peoria.png,,,,,,,,,,,,,,,,,,
null,,black_cross(without_color),405883,,blue,,,,null,GW/racine.png,GW/peoria.png,,,,,,,,,,,,,,,,,,
null,,rt_plussign_withcolor,406400,,blue,,,,null,GW/racine.png,GW/peoria.png,,,,,,,,,,,,,,,,,,
1135,,rt_thecrossant_black,407934,,black_plus_sign,,,,49,,,1,0.9743589743589743,,,,,,,,,,,,,,,,
null,,color_black,408044,,black_plus_sign,,,,null,,,,,,,,,,,,,,,,,,,,
null,,learn_phase(without_color),411053,,black_plus_sign,,,,null,GW/carmel.png,GW/boulder.png,,,,,,,,,,,,,,,,,,
null,,black_cross(without_color),411478,,blue,,,,null,GW/carmel.png,GW/boulder.png,,,,,,,,,,,,,,,,,,
null,,rt_plussign_withcolor,411992,,blue,,,,null,GW/carmel.png,GW/boulder.png,,,,,,,,,,,,,,,,,,
692,,rt_thecrossant_black,413590,,black_plus_sign,,,,49,,,1,0.975,,,,,,,,,,,,,,,,
null,,color_black,413701,,black_plus_sign,,,,null,,,,,,,,,,,,,,,,,,,,
null,,learn_phase(without_color),416718,,black_plus_sign,,,,null,GW/huntsville.png,GW/hanover.png,,,,,,,,,,,,,,,,,,
null,,black_cross(without_color),417268,,blue,,,,null,GW/huntsville.png,GW/hanover.png,,,,,,,,,,,,,,,,,,
null,,rt_plussign_withcolor,417782,,blue,,,,null,GW/huntsville.png,GW/hanover.png,,,,,,,,,,,,,,,,,,
742,,rt_thecrossant_black,419251,,black_plus_sign,,,,49,,,1,0.975609756097561,,,,,,,,,,,,,,,,
null,,color_black,419361,,black_plus_sign,,,,null,,,,,,,,,,,,,,,,,,,,
null,,learn_phase(without_color),422370,,black_plus_sign,,,,null,GW/peoria.png,GW/racine.png,,,,,,,,,,,,,,,,,,
null,,black_cross(without_color),423166,,blue,,,,null,GW/peoria.png,GW/racine.png,,,,,,,,,,,,,,,,,,
null,,rt_plussign_withcolor,423681,,blue,,,,null,GW/peoria.png,GW/racine.png,,,,,,,,,,,,,,,,,,
668,,rt_thecrossant_black,424908,,black_plus_sign,,,,49,,,1,0.9761904761904762,,,,,,,,,,,,,,,,
null,,color_black,425015,,black_plus_sign,,,,null,,,,,,,,,,,,,,,,,,,,
null,,learn_phase(without_color),428018,,black_plus_sign,,,,null,GW/leesburg.png,GW/gatlinburg.png,,,,,,,,,,,,,,,,,,
null,,black_cross(without_color),428942,,blue,,,,null,GW/leesburg.png,GW/gatlinburg.png,,,,,,,,,,,,,,,,,,
462,,rt_plussign_withcolor,429456,,blue,,,,49,GW/leesburg.png,GW/gatlinburg.png,,,,,,,,,,,,,,,,,,
null,,rt_thecrossant_black,430549,,black_plus_sign,,,,null,,,1,0.9767441860465116,,,,,,,,,,,,,,,,
null,,color_black,430657,,black_plus_sign,,,,null,,,,,,,,,,,,,,,,,,,,
null,,learn_phase(without_color),433660,,black_plus_sign,,,,null,GW/peoria.png,GW/racine.png,,,,,,,,,,,,,,,,,,
null,,black_cross(without_color),434608,,blue,,,,null,GW/peoria.png,GW/racine.png,,,,,,,,,,,,,,,,,,
null,,rt_plussign_withcolor,435111,,blue,,,,null,GW/peoria.png,GW/racine.png,,,,,,,,,,,,,,,,,,
1089,,rt_thecrossant_black,436178,,black_plus_sign,,,,49,,,1,0.9772727272727273,,,,,,,,,,,,,,,,
null,,color_black,436285,,black_plus_sign,,,,null,,,,,,,,,,,,,,,,,,,,
null,,learn_phase(without_color),439391,,black_plus_sign,,,,null,GW/leesburg.png,GW/gatlinburg.png,,,,,,,,,,,,,,,,,,
null,,black_cross(without_color),440411,,yellow,,,,null,GW/leesburg.png,GW/gatlinburg.png,,,,,,,,,,,,,,,,,,
457,,rt_plussign_withcolor,440914,,yellow,,,,50,GW/leesburg.png,GW/gatlinburg.png,,,,,,,,,,,,,,,,,,
null,,rt_thecrossant_black,441905,,black_plus_sign,,,,null,,,1,0.9777777777777777,,,,,,,,,,,,,,,,
null,,color_black,442012,,black_plus_sign,,,,null,,,,,,,,,,,,,,,,,,,,
null,,learn_phase(without_color),445027,,black_plus_sign,,,,null,GW/huntsville.png,GW/hanover.png,,,,,,,,,,,,,,,,,,
null,,black_cross(without_color),445918,,yellow,,,,null,GW/huntsville.png,GW/hanover.png,,,,,,,,,,,,,,,,,,
null,,rt_plussign_withcolor,446422,,yellow,,,,null,GW/huntsville.png,GW/hanover.png,,,,,,,,,,,,,,,,,,
1234,,rt_thecrossant_black,447548,,black_plus_sign,,,,50,,,1,0.9782608695652174,,,,,,,,,,,,,,,,
null,,color_black,447656,,black_plus_sign,,,,null,,,,,,,,,,,,,,,,,,,,
null,,learn_phase(without_color),450669,,black_plus_sign,,,,null,GW/racine.png,GW/peoria.png,,,,,,,,,,,,,,,,,,
null,,black_cross(without_color),451723,,yellow,,,,null,GW/racine.png,GW/peoria.png,,,,,,,,,,,,,,,,,,
null,,rt_plussign_withcolor,452237,,yellow,,,,null,GW/racine.png,GW/peoria.png,,,,,,,,,,,,,,,,,,
1009,,rt_thecrossant_black,453213,,black_plus_sign,,,,50,,,1,0.9787234042553191,,,,,,,,,,,,,,,,
null,,color_black,453323,,black_plus_sign,,,,null,,,,,,,,,,,,,,,,,,,,
null,,learn_phase(without_color),456330,,black_plus_sign,,,,null,GW/leesburg.png,GW/gatlinburg.png,,,,,,,,,,,,,,,,,,
null,,black_cross(without_color),456942,,yellow,,,,null,GW/leesburg.png,GW/gatlinburg.png,,,,,,,,,,,,,,,,,,
null,,rt_plussign_withcolor,457445,,yellow,,,,null,GW/leesburg.png,GW/gatlinburg.png,,,,,,,,,,,,,,,,,,
1172,,rt_thecrossant_black,458857,,black_plus_sign,,,,50,,,1,0.9791666666666666,,,,,,,,,,,,,,,,
null,,color_black,458967,,black_plus_sign,,,,null,,,,,,,,,,,,,,,,,,,,
null,,learn_phase(without_color),461983,,black_plus_sign,,,,null,GW/carmel.png,GW/boulder.png,,,,,,,,,,,,,,,,,,
null,,black_cross(without_color),462483,,yellow,,,,null,GW/carmel.png,GW/boulder.png,,,,,,,,,,,,,,,,,,
474,,rt_plussign_withcolor,462987,,yellow,,,,50,GW/carmel.png,GW/boulder.png,,,,,,,,,,,,,,,,,,
null,,rt_thecrossant_black,464500,,black_plus_sign,,,,null,,,1,0.9795918367346939,,,,,,,,,,,,,,,,
null,,color_black,464611,,black_plus_sign,,,,null,,,,,,,,,,,,,,,,,,,,
null,,learn_phase(without_color),467622,,black_plus_sign,,,,null,GW/gatlinburg.png,GW/leesburg.png,,,,,,,,,,,,,,,,,,
null,,black_cross(without_color),468466,,yellow,,,,null,GW/gatlinburg.png,GW/leesburg.png,,,,,,,,,,,,,,,,,,
440,,rt_plussign_withcolor,468969,,yellow,,,,50,GW/gatlinburg.png,GW/leesburg.png,,,,,,,,,,,,,,,,,,
null,,rt_thecrossant_black,470147,,black_plus_sign,,,,null,,,1,0.98,,,,,,,,,,,,,,,,
null,,color_black,470257,,black_plus_sign,,,,null,,,,,,,,,,,,,,,,,,,,
null,,learn_phase(without_color),473263,,black_plus_sign,,,,null,GW/boulder.png,GW/carmel.png,,,,,,,,,,,,,,,,,,
null,,black_cross(without_color),473828,,yellow,,,,null,GW/boulder.png,GW/carmel.png,,,,,,,,,,,,,,,,,,
null,,rt_plussign_withcolor,474332,,yellow,,,,null,GW/boulder.png,GW/carmel.png,,,,,,,,,,,,,,,,,,
1046,,rt_thecrossant_black,475793,,black_plus_sign,,,,50,,,1,0.9803921568627451,,,,,,,,,,,,,,,,
null,,color_black,475905,,black_plus_sign,,,,null,,,,,,,,,,,,,,,,,,,,
null,,learn_phase(without_color),478925,,black_plus_sign,,,,null,GW/racine.png,GW/peoria.png,,,,,,,,,,,,,,,,,,
null,,black_cross(without_color),479333,,yellow,,,,null,GW/racine.png,GW/peoria.png,,,,,,,,,,,,,,,,,,
null,,rt_plussign_withcolor,479838,,yellow,,,,null,GW/racine.png,GW/peoria.png,,,,,,,,,,,,,,,,,,
721,,rt_thecrossant_black,481447,,black_plus_sign,,,,50,,,1,0.9807692307692307,,,,,,,,,,,,,,,,
null,,color_black,481557,,black_plus_sign,,,,null,,,,,,,,,,,,,,,,,,,,
null,,learn_phase(without_color),484564,,black_plus_sign,,,,null,GW/leesburg.png,GW/gatlinburg.png,,,,,,,,,,,,,,,,,,
null,,black_cross(without_color),485017,,blue,,,,null,GW/leesburg.png,GW/gatlinburg.png,,,,,,,,,,,,,,,,,,
null,,rt_plussign_withcolor,485519,,blue,,,,null,GW/leesburg.png,GW/gatlinburg.png,,,,,,,,,,,,,,,,,,
747,,rt_thecrossant_black,487091,,black_plus_sign,,,,49,,,1,0.9811320754716981,,,,,,,,,,,,,,,,
null,,color_black,487202,,black_plus_sign,,,,null,,,,,,,,,,,,,,,,,,,,
null,,learn_phase(without_color),490220,,black_plus_sign,,,,null,GW/boulder.png,GW/carmel.png,,,,,,,,,,,,,,,,,,
null,,black_cross(without_color),491270,,yellow,,,,null,GW/boulder.png,GW/carmel.png,,,,,,,,,,,,,,,,,,
null,,rt_plussign_withcolor,491773,,yellow,,,,null,GW/boulder.png,GW/carmel.png,,,,,,,,,,,,,,,,,,
570,,rt_thecrossant_black,492741,,black_plus_sign,,,,50,,,1,0.9814814814814815,,,,,,,,,,,,,,,,
null,,color_black,492851,,black_plus_sign,,,,null,,,,,,,,,,,,,,,,,,,,
null,,learn_phase(without_color),495867,,black_plus_sign,,,,null,GW/gatlinburg.png,GW/leesburg.png,,,,,,,,,,,,,,,,,,
null,,black_cross(without_color),496902,,yellow,,,,null,GW/gatlinburg.png,GW/leesburg.png,,,,,,,,,,,,,,,,,,
473,,rt_plussign_withcolor,497405,,yellow,,,,50,GW/gatlinburg.png,GW/leesburg.png,,,,,,,,,,,,,,,,,,
null,,rt_thecrossant_black,498391,,black_plus_sign,,,,null,,,1,0.9818181818181818,,,,,,,,,,,,,,,,
null,,color_black,498500,,black_plus_sign,,,,null,,,,,,,,,,,,,,,,,,,,
null,,learn_phase(without_color),501511,,black_plus_sign,,,,null,GW/huntsville.png,GW/hanover.png,,,,,,,,,,,,,,,,,,
null,,black_cross(without_color),502609,,yellow,,,,null,GW/huntsville.png,GW/hanover.png,,,,,,,,,,,,,,,,,,
null,,rt_plussign_withcolor,503123,,yellow,,,,null,GW/huntsville.png,GW/hanover.png,,,,,,,,,,,,,,,,,,
1177,,rt_thecrossant_black,504047,,black_plus_sign,,,,50,,,1,0.9821428571428571,,,,,,,,,,,,,,,,
null,,color_black,504157,,black_plus_sign,,,,null,,,,,,,,,,,,,,,,,,,,
null,,learn_phase(without_color),507169,,black_plus_sign,,,,null,GW/peoria.png,GW/racine.png,,,,,,,,,,,,,,,,,,
null,,black_cross(without_color),508121,,blue,,,,null,GW/peoria.png,GW/racine.png,,,,,,,,,,,,,,,,,,
399,,rt_plussign_withcolor,508636,,blue,,,,49,GW/peoria.png,GW/racine.png,,,,,,,,,,,,,,,,,,
null,,rt_thecrossant_black,509712,,black_plus_sign,,,,null,,,1,0.9824561403508771,,,,,,,,,,,,,,,,
null,,color_black,509823,,black_plus_sign,,,,null,,,,,,,,,,,,,,,,,,,,
null,,learn_phase(without_color),512832,,black_plus_sign,,,,null,GW/huntsville.png,GW/hanover.png,,,,,,,,,,,,,,,,,,
null,,black_cross(without_color),513431,,blue,,,,null,GW/huntsville.png,GW/hanover.png,,,,,,,,,,,,,,,,,,
null,,rt_plussign_withcolor,513932,,blue,,,,null,GW/huntsville.png,GW/hanover.png,,,,,,,,,,,,,,,,,,
1080,,rt_thecrossant_black,515355,,black_plus_sign,,,,49,,,1,0.9827586206896551,,,,,,,,,,,,,,,,
null,,color_black,515464,,black_plus_sign,,,,null,,,,,,,,,,,,,,,,,,,,
null,,learn_phase(without_color),518480,,black_plus_sign,,,,null,GW/boulder.png,GW/carmel.png,,,,,,,,,,,,,,,,,,
null,,black_cross(without_color),519388,,blue,,,,null,GW/boulder.png,GW/carmel.png,,,,,,,,,,,,,,,,,,
null,,rt_plussign_withcolor,519890,,blue,,,,null,GW/boulder.png,GW/carmel.png,,,,,,,,,,,,,,,,,,
762,,rt_thecrossant_black,521005,,black_plus_sign,,,,49,,,1,0.9830508474576272,,,,,,,,,,,,,,,,
null,,color_black,521115,,black_plus_sign,,,,null,,,,,,,,,,,,,,,,,,,,
null,,learn_phase(without_color),524137,,black_plus_sign,,,,null,GW/racine.png,GW/peoria.png,,,,,,,,,,,,,,,,,,
null,,black_cross(without_color),525064,,blue,,,,null,GW/racine.png,GW/peoria.png,,,,,,,,,,,,,,,,,,
null,,rt_plussign_withcolor,525566,,blue,,,,null,GW/racine.png,GW/peoria.png,,,,,,,,,,,,,,,,,,
1013,,rt_thecrossant_black,526754,,black_plus_sign,,,,49,,,1,0.9833333333333333,,,,,,,,,,,,,,,,
null,,color_black,526863,,black_plus_sign,,,,null,,,,,,,,,,,,,,,,,,,,
null,,learn_phase(without_color),529883,,black_plus_sign,,,,null,GW/huntsville.png,GW/hanover.png,,,,,,,,,,,,,,,,,,
null,,black_cross(without_color),530351,,blue,,,,null,GW/huntsville.png,GW/hanover.png,,,,,,,,,,,,,,,,,,
null,,rt_plussign_withcolor,530853,,blue,,,,null,GW/huntsville.png,GW/hanover.png,,,,,,,,,,,,,,,,,,
1276,,rt_thecrossant_black,532409,,black_plus_sign,,,,49,,,1,0.9836065573770492,,,,,,,,,,,,,,,,
null,,color_black,532517,,black_plus_sign,,,,null,,,,,,,,,,,,,,,,,,,,
null,,learn_phase(without_color),535533,,black_plus_sign,,,,null,GW/leesburg.png,GW/gatlinburg.png,,,,,,,,,,,,,,,,,,
null,,black_cross(without_color),536237,,blue,,,,null,GW/leesburg.png,GW/gatlinburg.png,,,,,,,,,,,,,,,,,,
null,,rt_plussign_withcolor,536738,,blue,,,,null,GW/leesburg.png,GW/gatlinburg.png,,,,,,,,,,,,,,,,,,
672,,rt_thecrossant_black,538047,,black_plus_sign,,,,49,,,1,0.9838709677419355,,,,,,,,,,,,,,,,
null,,color_black,538156,,black_plus_sign,,,,null,,,,,,,,,,,,,,,,,,,,
null,,learn_phase(without_color),541170,,black_plus_sign,,,,null,GW/carmel.png,GW/boulder.png,,,,,,,,,,,,,,,,,,
null,,black_cross(without_color),541907,,blue,,,,null,GW/carmel.png,GW/boulder.png,,,,,,,,,,,,,,,,,,
null,,rt_plussign_withcolor,542409,,blue,,,,null,GW/carmel.png,GW/boulder.png,,,,,,,,,,,,,,,,,,
848,,rt_thecrossant_black,543699,,black_plus_sign,,,,49,,,1,0.9841269841269841,,,,,,,,,,,,,,,,
null,,color_black,543811,,black_plus_sign,,,,null,,,,,,,,,,,,,,,,,,,,
null,,learn_phase(without_color),546853,,black_plus_sign,,,,null,GW/hanover.png,GW/huntsville.png,,,,,,,,,,,,,,,,,,
null,,black_cross(without_color),547901,,blue,,,,null,GW/hanover.png,GW/huntsville.png,,,,,,,,,,,,,,,,,,
null,,rt_plussign_withcolor,548416,,blue,,,,null,GW/hanover.png,GW/huntsville.png,,,,,,,,,,,,,,,,,,
974,,rt_thecrossant_black,549401,,black_plus_sign,,,,49,,,1,0.984375,,,,,,,,,,,,,,,,
null,,color_black,549511,,black_plus_sign,,,,null,,,,,,,,,,,,,,,,,,,,
51299,,learn_break,600813,,learn_break,,,,32,,,,,,,,,,,,,,,,,,,,
null,,html-keyboard-response,601822,,<p></p>,,,,null,,,,,,,,,,,,,,,,,,,,
null,,learn_phase(without_color),604827,,black_plus_sign,,,,null,GW/huntsville.png,GW/shreveport.png,,,,,,,,,,,,,,,,,,
null,,black_cross(without_color),605549,,blue,,,,null,GW/huntsville.png,GW/shreveport.png,,,,,,,,,,,,,,,,,,
460,,rt_plussign_withcolor,606052,,blue,,,,49,GW/huntsville.png,GW/shreveport.png,,,,,,,,,,,,,,,,,,
null,,rt_thecrossant_black,607407,,black_plus_sign,,,,null,,,1,0.9846153846153847,,,,,,,,,,,,,,,,
null,,color_black,607517,,black_plus_sign,,,,null,,,,,,,,,,,,,,,,,,,,
null,,learn_phase(without_color),610529,,black_plus_sign,,,,null,GW/cornwall.png,GW/racine.png,,,,,,,,,,,,,,,,,,
null,,black_cross(without_color),611532,,blue,,,,null,GW/cornwall.png,GW/racine.png,,,,,,,,,,,,,,,,,,
null,,rt_plussign_withcolor,612034,,blue,,,,null,GW/cornwall.png,GW/racine.png,,,,,,,,,,,,,,,,,,
982,,rt_thecrossant_black,613054,,black_plus_sign,,,,49,,,1,0.9848484848484849,,,,,,,,,,,,,,,,
null,,color_black,613164,,black_plus_sign,,,,null,,,,,,,,,,,,,,,,,,,,
null,,learn_phase(without_color),616169,,black_plus_sign,,,,null,GW/shreveport.png,GW/huntsville.png,,,,,,,,,,,,,,,,,,
null,,black_cross(without_color),616623,,blue,,,,null,GW/shreveport.png,GW/huntsville.png,,,,,,,,,,,,,,,,,,
null,,rt_plussign_withcolor,617125,,blue,,,,null,GW/shreveport.png,GW/huntsville.png,,,,,,,,,,,,,,,,,,
1224,,rt_thecrossant_black,618693,,black_plus_sign,,,,49,,,1,0.9850746268656716,,,,,,,,,,,,,,,,
null,,color_black,618804,,black_plus_sign,,,,null,,,,,,,,,,,,,,,,,,,,
null,,learn_phase(without_color),621819,,black_plus_sign,,,,null,GW/hanover.png,GW/westpalmbeach.png,,,,,,,,,,,,,,,,,,
null,,black_cross(without_color),622602,,yellow,,,,null,GW/hanover.png,GW/westpalmbeach.png,,,,,,,,,,,,,,,,,,
null,,rt_plussign_withcolor,623104,,yellow,,,,null,GW/hanover.png,GW/westpalmbeach.png,,,,,,,,,,,,,,,,,,
577,,rt_thecrossant_black,624345,,black_plus_sign,,,,50,,,1,0.9852941176470589,,,,,,,,,,,,,,,,
null,,color_black,624455,,black_plus_sign,,,,null,,,,,,,,,,,,,,,,,,,,
null,,learn_phase(without_color),627497,,black_plus_sign,,,,null,GW/newhope.png,GW/hotsprings.png,,,,,,,,,,,,,,,,,,
null,,black_cross(without_color),628246,,blue,,,,null,GW/newhope.png,GW/hotsprings.png,,,,,,,,,,,,,,,,,,
null,,rt_plussign_withcolor,628760,,blue,,,,null,GW/newhope.png,GW/hotsprings.png,,,,,,,,,,,,,,,,,,
1153,,rt_thecrossant_black,630033,,black_plus_sign,,,,49,,,1,0.9855072463768116,,,,,,,,,,,,,,,,
null,,color_black,630146,,black_plus_sign,,,,null,,,,,,,,,,,,,,,,,,,,
null,,learn_phase(without_color),633154,,black_plus_sign,,,,null,GW/shreveport.png,GW/huntsville.png,,,,,,,,,,,,,,,,,,
null,,black_cross(without_color),634042,,yellow,,,,null,GW/shreveport.png,GW/huntsville.png,,,,,,,,,,,,,,,,,,
null,,rt_plussign_withcolor,634559,,yellow,,,,null,GW/shreveport.png,GW/huntsville.png,,,,,,,,,,,,,,,,,,
879,,rt_thecrossant_black,635682,,black_plus_sign,,,,50,,,1,0.9857142857142858,,,,,,,,,,,,,,,,
null,,color_black,635792,,black_plus_sign,,,,null,,,,,,,,,,,,,,,,,,,,
null,,learn_phase(without_color),638805,,black_plus_sign,,,,null,GW/newhope.png,GW/hotsprings.png,,,,,,,,,,,,,,,,,,
null,,black_cross(without_color),639418,,blue,,,,null,GW/newhope.png,GW/hotsprings.png,,,,,,,,,,,,,,,,,,
445,,rt_plussign_withcolor,639921,,blue,,,,49,GW/newhope.png,GW/hotsprings.png,,,,,,,,,,,,,,,,,,
null,,rt_thecrossant_black,641335,,black_plus_sign,,,,null,,,1,0.9859154929577465,,,,,,,,,,,,,,,,
null,,color_black,641446,,black_plus_sign,,,,null,,,,,,,,,,,,,,,,,,,,
null,,learn_phase(without_color),644450,,black_plus_sign,,,,null,GW/cornwall.png,GW/racine.png,,,,,,,,,,,,,,,,,,
null,,black_cross(without_color),645074,,yellow,,,,null,GW/cornwall.png,GW/racine.png,,,,,,,,,,,,,,,,,,
null,,rt_plussign_withcolor,645575,,yellow,,,,null,GW/cornwall.png,GW/racine.png,,,,,,,,,,,,,,,,,,
815,,rt_thecrossant_black,646967,,black_plus_sign,,,,50,,,1,0.9861111111111112,,,,,,,,,,,,,,,,
null,,color_black,647078,,black_plus_sign,,,,null,,,,,,,,,,,,,,,,,,,,
null,,learn_phase(without_color),650094,,black_plus_sign,,,,null,GW/hanover.png,GW/westpalmbeach.png,,,,,,,,,,,,,,,,,,
null,,black_cross(without_color),651086,,yellow,,,,null,GW/hanover.png,GW/westpalmbeach.png,,,,,,,,,,,,,,,,,,
null,,rt_plussign_withcolor,651601,,yellow,,,,null,GW/hanover.png,GW/westpalmbeach.png,,,,,,,,,,,,,,,,,,
733,,rt_thecrossant_black,652636,,black_plus_sign,,,,50,,,1,0.9863013698630136,,,,,,,,,,,,,,,,
null,,color_black,652746,,black_plus_sign,,,,null,,,,,,,,,,,,,,,,,,,,
null,,learn_phase(without_color),655759,,black_plus_sign,,,,null,GW/newhope.png,GW/hotsprings.png,,,,,,,,,,,,,,,,,,
null,,black_cross(without_color),656728,,yellow,,,,null,GW/newhope.png,GW/hotsprings.png,,,,,,,,,,,,,,,,,,
null,,rt_plussign_withcolor,657241,,yellow,,,,null,GW/newhope.png,GW/hotsprings.png,,,,,,,,,,,,,,,,,,
1082,,rt_thecrossant_black,658290,,black_plus_sign,,,,50,,,1,0.9864864864864865,,,,,,,,,,,,,,,,
null,,color_black,658401,,black_plus_sign,,,,null,,,,,,,,,,,,,,,,,,,,
null,,learn_phase(without_color),661411,,black_plus_sign,,,,null,GW/cornwall.png,GW/racine.png,,,,,,,,,,,,,,,,,,
null,,black_cross(without_color),662461,,blue,,,,null,GW/cornwall.png,GW/racine.png,,,,,,,,,,,,,,,,,,
null,,rt_plussign_withcolor,662962,,blue,,,,null,GW/cornwall.png,GW/racine.png,,,,,,,,,,,,,,,,,,
1235,,rt_thecrossant_black,663937,,black_plus_sign,,,,49,,,1,0.9866666666666667,,,,,,,,,,,,,,,,
null,,color_black,664047,,black_plus_sign,,,,null,,,,,,,,,,,,,,,,,,,,
null,,learn_phase(without_color),667060,,black_plus_sign,,,,null,GW/newhope.png,GW/hotsprings.png,,,,,,,,,,,,,,,,,,
null,,black_cross(without_color),667873,,yellow,,,,null,GW/newhope.png,GW/hotsprings.png,,,,,,,,,,,,,,,,,,
477,,rt_plussign_withcolor,668378,,yellow,,,,50,GW/newhope.png,GW/hotsprings.png,,,,,,,,,,,,,,,,,,
null,,rt_thecrossant_black,669587,,black_plus_sign,,,,null,,,1,0.9868421052631579,,,,,,,,,,,,,,,,
null,,color_black,669697,,black_plus_sign,,,,null,,,,,,,,,,,,,,,,,,,,
null,,learn_phase(without_color),672875,,black_plus_sign,,,,null,GW/shreveport.png,GW/huntsville.png,,,,,,,,,,,,,,,,,,
null,,black_cross(without_color),673881,,blue,,,,null,GW/shreveport.png,GW/huntsville.png,,,,,,,,,,,,,,,,,,
null,,rt_plussign_withcolor,674398,,blue,,,,null,GW/shreveport.png,GW/huntsville.png,,,,,,,,,,,,,,,,,,
1054,,rt_thecrossant_black,675412,,black_plus_sign,,,,49,,,1,0.987012987012987,,,,,,,,,,,,,,,,
null,,color_black,675523,,black_plus_sign,,,,null,,,,,,,,,,,,,,,,,,,,
null,,learn_phase(without_color),678541,,black_plus_sign,,,,null,GW/hotsprings.png,GW/newhope.png,,,,,,,,,,,,,,,,,,
null,,black_cross(without_color),679418,,yellow,,,,null,GW/hotsprings.png,GW/newhope.png,,,,,,,,,,,,,,,,,,
null,,rt_plussign_withcolor,679922,,yellow,,,,null,GW/hotsprings.png,GW/newhope.png,,,,,,,,,,,,,,,,,,
1275,,rt_thecrossant_black,681083,,black_plus_sign,,,,50,,,1,0.9871794871794872,,,,,,,,,,,,,,,,
null,,color_black,681193,,black_plus_sign,,,,null,,,,,,,,,,,,,,,,,,,,
null,,learn_phase(without_color),684200,,black_plus_sign,,,,null,GW/westpalmbeach.png,GW/hanover.png,,,,,,,,,,,,,,,,,,
null,,black_cross(without_color),684999,,yellow,,,,null,GW/westpalmbeach.png,GW/hanover.png,,,,,,,,,,,,,,,,,,
null,,rt_plussign_withcolor,685500,,yellow,,,,null,GW/westpalmbeach.png,GW/hanover.png,,,,,,,,,,,,,,,,,,
1045,,rt_thecrossant_black,686721,,black_plus_sign,,,,50,,,1,0.9873417721518988,,,,,,,,,,,,,,,,
null,,color_black,686832,,black_plus_sign,,,,null,,,,,,,,,,,,,,,,,,,,
null,,learn_phase(without_color),689907,,black_plus_sign,,,,null,GW/newhope.png,GW/hotsprings.png,,,,,,,,,,,,,,,,,,
null,,black_cross(without_color),690502,,blue,,,,null,GW/newhope.png,GW/hotsprings.png,,,,,,,,,,,,,,,,,,
null,,rt_plussign_withcolor,691005,,blue,,,,null,GW/newhope.png,GW/hotsprings.png,,,,,,,,,,,,,,,,,,
1169,,rt_thecrossant_black,692434,,black_plus_sign,,,,49,,,1,0.9875,,,,,,,,,,,,,,,,
null,,color_black,692545,,black_plus_sign,,,,null,,,,,,,,,,,,,,,,,,,,
null,,learn_phase(without_color),695552,,black_plus_sign,,,,null,GW/shreveport.png,GW/huntsville.png,,,,,,,,,,,,,,,,,,
null,,black_cross(without_color),695990,,yellow,,,,null,GW/shreveport.png,GW/huntsville.png,,,,,,,,,,,,,,,,,,
null,,rt_plussign_withcolor,696493,,yellow,,,,null,GW/shreveport.png,GW/huntsville.png,,,,,,,,,,,,,,,,,,
842,,rt_thecrossant_black,698079,,black_plus_sign,,,,50,,,1,0.9876543209876543,,,,,,,,,,,,,,,,
null,,color_black,698190,,black_plus_sign,,,,null,,,,,,,,,,,,,,,,,,,,
null,,learn_phase(without_color),701206,,black_plus_sign,,,,null,GW/westpalmbeach.png,GW/hanover.png,,,,,,,,,,,,,,,,,,
null,,black_cross(without_color),702022,,yellow,,,,null,GW/westpalmbeach.png,GW/hanover.png,,,,,,,,,,,,,,,,,,
null,,rt_plussign_withcolor,702536,,yellow,,,,null,GW/westpalmbeach.png,GW/hanover.png,,,,,,,,,,,,,,,,,,
537,,rt_thecrossant_black,703745,,black_plus_sign,,,,50,,,1,0.9878048780487805,,,,,,,,,,,,,,,,
null,,color_black,703854,,black_plus_sign,,,,null,,,,,,,,,,,,,,,,,,,,
null,,learn_phase(without_color),706869,,black_plus_sign,,,,null,GW/newhope.png,GW/hotsprings.png,,,,,,,,,,,,,,,,,,
null,,black_cross(without_color),707949,,blue,,,,null,GW/newhope.png,GW/hotsprings.png,,,,,,,,,,,,,,,,,,
493,,rt_plussign_withcolor,708453,,blue,,,,49,GW/newhope.png,GW/hotsprings.png,,,,,,,,,,,,,,,,,,
null,,rt_thecrossant_black,709397,,black_plus_sign,,,,null,,,1,0.9879518072289156,,,,,,,,,,,,,,,,
null,,color_black,709508,,black_plus_sign,,,,null,,,,,,,,,,,,,,,,,,,,
null,,learn_phase(without_color),712521,,black_plus_sign,,,,null,GW/racine.png,GW/cornwall.png,,,,,,,,,,,,,,,,,,
null,,black_cross(without_color),713054,,blue,,,,null,GW/racine.png,GW/cornwall.png,,,,,,,,,,,,,,,,,,
null,,rt_plussign_withcolor,713557,,blue,,,,null,GW/racine.png,GW/cornwall.png,,,,,,,,,,,,,,,,,,
1505,,rt_thecrossant_black,715047,,black_plus_sign,,,,49,,,1,0.9880952380952381,,,,,,,,,,,,,,,,
null,,color_black,715159,,black_plus_sign,,,,null,,,,,,,,,,,,,,,,,,,,
null,,learn_phase(without_color),718176,,black_plus_sign,,,,null,GW/hanover.png,GW/westpalmbeach.png,,,,,,,,,,,,,,,,,,
null,,black_cross(without_color),718911,,blue,,,,null,GW/hanover.png,GW/westpalmbeach.png,,,,,,,,,,,,,,,,,,
null,,rt_plussign_withcolor,719416,,blue,,,,null,GW/hanover.png,GW/westpalmbeach.png,,,,,,,,,,,,,,,,,,
965,,rt_thecrossant_black,720697,,black_plus_sign,,,,49,,,1,0.9882352941176471,,,,,,,,,,,,,,,,
null,,color_black,720807,,black_plus_sign,,,,null,,,,,,,,,,,,,,,,,,,,
null,,learn_phase(without_color),723814,,black_plus_sign,,,,null,GW/newhope.png,GW/hotsprings.png,,,,,,,,,,,,,,,,,,
null,,black_cross(without_color),724397,,blue,,,,null,GW/newhope.png,GW/hotsprings.png,,,,,,,,,,,,,,,,,,
null,,rt_plussign_withcolor,724898,,blue,,,,null,GW/newhope.png,GW/hotsprings.png,,,,,,,,,,,,,,,,,,
955,,rt_thecrossant_black,726338,,black_plus_sign,,,,49,,,1,0.9883720930232558,,,,,,,,,,,,,,,,
null,,color_black,726447,,black_plus_sign,,,,null,,,,,,,,,,,,,,,,,,,,
null,,learn_phase(without_color),729450,,black_plus_sign,,,,null,GW/hanover.png,GW/westpalmbeach.png,,,,,,,,,,,,,,,,,,
null,,black_cross(without_color),730517,,yellow,,,,null,GW/hanover.png,GW/westpalmbeach.png,,,,,,,,,,,,,,,,,,
492,,rt_plussign_withcolor,731032,,yellow,,,,50,GW/hanover.png,GW/westpalmbeach.png,,,,,,,,,,,,,,,,,,
null,,rt_thecrossant_black,731989,,black_plus_sign,,,,null,,,1,0.9885057471264368,,,,,,,,,,,,,,,,
null,,color_black,732100,,black_plus_sign,,,,null,,,,,,,,,,,,,,,,,,,,
null,,learn_phase(without_color),735205,,black_plus_sign,,,,null,GW/shreveport.png,GW/huntsville.png,,,,,,,,,,,,,,,,,,
null,,black_cross(without_color),735645,,blue,,,,null,GW/shreveport.png,GW/huntsville.png,,,,,,,,,,,,,,,,,,
null,,rt_plussign_withcolor,736148,,blue,,,,null,GW/shreveport.png,GW/huntsville.png,,,,,,,,,,,,,,,,,,
1556,,rt_thecrossant_black,737738,,black_plus_sign,,,,49,,,1,0.9886363636363636,,,,,,,,,,,,,,,,
null,,color_black,737847,,black_plus_sign,,,,null,,,,,,,,,,,,,,,,,,,,
null,,learn_phase(without_color),740867,,black_plus_sign,,,,null,GW/cornwall.png,GW/racine.png,,,,,,,,,,,,,,,,,,
null,,black_cross(without_color),741950,,yellow,,,,null,GW/cornwall.png,GW/racine.png,,,,,,,,,,,,,,,,,,
null,,rt_plussign_withcolor,742454,,yellow,,,,null,GW/cornwall.png,GW/racine.png,,,,,,,,,,,,,,,,,,
777,,rt_thecrossant_black,743395,,black_plus_sign,,,,50,,,1,0.9887640449438202,,,,,,,,,,,,,,,,
null,,color_black,743506,,black_plus_sign,,,,null,,,,,,,,,,,,,,,,,,,,
null,,learn_phase(without_color),746515,,black_plus_sign,,,,null,GW/westpalmbeach.png,GW/hanover.png,,,,,,,,,,,,,,,,,,
null,,black_cross(without_color),747126,,yellow,,,,null,GW/westpalmbeach.png,GW/hanover.png,,,,,,,,,,,,,,,,,,
null,,rt_plussign_withcolor,747628,,yellow,,,,null,GW/westpalmbeach.png,GW/hanover.png,,,,,,,,,,,,,,,,,,
1204,,rt_thecrossant_black,749035,,black_plus_sign,,,,50,,,1,0.9888888888888889,,,,,,,,,,,,,,,,
null,,color_black,749145,,black_plus_sign,,,,null,,,,,,,,,,,,,,,,,,,,
null,,learn_phase(without_color),752147,,black_plus_sign,,,,null,GW/racine.png,GW/cornwall.png,,,,,,,,,,,,,,,,,,
null,,black_cross(without_color),752852,,blue,,,,null,GW/racine.png,GW/cornwall.png,,,,,,,,,,,,,,,,,,
null,,rt_plussign_withcolor,753357,,blue,,,,null,GW/racine.png,GW/cornwall.png,,,,,,,,,,,,,,,,,,
1138,,rt_thecrossant_black,754677,,black_plus_sign,,,,49,,,1,0.989010989010989,,,,,,,,,,,,,,,,
null,,color_black,754787,,black_plus_sign,,,,null,,,,,,,,,,,,,,,,,,,,
null,,learn_phase(without_color),757794,,black_plus_sign,,,,null,GW/huntsville.png,GW/shreveport.png,,,,,,,,,,,,,,,,,,
null,,black_cross(without_color),758310,,blue,,,,null,GW/huntsville.png,GW/shreveport.png,,,,,,,,,,,,,,,,,,
null,,rt_plussign_withcolor,758812,,blue,,,,null,GW/huntsville.png,GW/shreveport.png,,,,,,,,,,,,,,,,,,
905,,rt_thecrossant_black,760313,,black_plus_sign,,,,49,,,1,0.9891304347826086,,,,,,,,,,,,,,,,
null,,color_black,760422,,black_plus_sign,,,,null,,,,,,,,,,,,,,,,,,,,
null,,learn_phase(without_color),763443,,black_plus_sign,,,,null,GW/hanover.png,GW/westpalmbeach.png,,,,,,,,,,,,,,,,,,
null,,black_cross(without_color),764506,,blue,,,,null,GW/hanover.png,GW/westpalmbeach.png,,,,,,,,,,,,,,,,,,
null,,rt_plussign_withcolor,765010,,blue,,,,null,GW/hanover.png,GW/westpalmbeach.png,,,,,,,,,,,,,,,,,,
610,,rt_thecrossant_black,765962,,black_plus_sign,,,,49,,,1,0.989247311827957,,,,,,,,,,,,,,,,
null,,color_black,766072,,black_plus_sign,,,,null,,,,,,,,,,,,,,,,,,,,
null,,learn_phase(without_color),769080,,black_plus_sign,,,,null,GW/cornwall.png,GW/racine.png,,,,,,,,,,,,,,,,,,
null,,black_cross(without_color),770082,,blue,,,,null,GW/cornwall.png,GW/racine.png,,,,,,,,,,,,,,,,,,
490,,rt_plussign_withcolor,770585,,blue,,,,49,GW/cornwall.png,GW/racine.png,,,,,,,,,,,,,,,,,,
null,,rt_thecrossant_black,771608,,black_plus_sign,,,,null,,,1,0.9893617021276596,,,,,,,,,,,,,,,,
null,,color_black,771718,,black_plus_sign,,,,null,,,,,,,,,,,,,,,,,,,,
null,,learn_phase(without_color),774725,,black_plus_sign,,,,null,GW/shreveport.png,GW/huntsville.png,,,,,,,,,,,,,,,,,,
null,,black_cross(without_color),775431,,blue,,,,null,GW/shreveport.png,GW/huntsville.png,,,,,,,,,,,,,,,,,,
null,,rt_plussign_withcolor,775935,,blue,,,,null,GW/shreveport.png,GW/huntsville.png,,,,,,,,,,,,,,,,,,
1197,,rt_thecrossant_black,777251,,black_plus_sign,,,,49,,,1,0.9894736842105263,,,,,,,,,,,,,,,,
null,,color_black,777361,,black_plus_sign,,,,null,,,,,,,,,,,,,,,,,,,,
null,,learn_phase(without_color),780382,,black_plus_sign,,,,null,GW/cornwall.png,GW/racine.png,,,,,,,,,,,,,,,,,,
null,,black_cross(without_color),781230,,yellow,,,,null,GW/cornwall.png,GW/racine.png,,,,,,,,,,,,,,,,,,
null,,rt_plussign_withcolor,781737,,yellow,,,,null,GW/cornwall.png,GW/racine.png,,,,,,,,,,,,,,,,,,
915,,rt_thecrossant_black,782909,,black_plus_sign,,,,50,,,1,0.9895833333333334,,,,,,,,,,,,,,,,
null,,color_black,783020,,black_plus_sign,,,,null,,,,,,,,,,,,,,,,,,,,
null,,learn_phase(without_color),786036,,black_plus_sign,,,,null,GW/boulder.png,GW/huntsville.png,,,,,,,,,,,,,,,,,,
null,,black_cross(without_color),786456,,blue,,,,null,GW/boulder.png,GW/huntsville.png,,,,,,,,,,,,,,,,,,
null,,rt_plussign_withcolor,786962,,blue,,,,null,GW/boulder.png,GW/huntsville.png,,,,,,,,,,,,,,,,,,
1006,,rt_thecrossant_black,788574,,black_plus_sign,,,,49,,,1,0.9896907216494846,,,,,,,,,,,,,,,,
null,,color_black,788684,,black_plus_sign,,,,null,,,,,,,,,,,,,,,,,,,,
null,,learn_phase(without_color),791696,,black_plus_sign,,,,null,GW/gatlinburg.png,GW/peoria.png,,,,,,,,,,,,,,,,,,
null,,black_cross(without_color),792261,,yellow,,,,null,GW/gatlinburg.png,GW/peoria.png,,,,,,,,,,,,,,,,,,
null,,rt_plussign_withcolor,792763,,yellow,,,,null,GW/gatlinburg.png,GW/peoria.png,,,,,,,,,,,,,,,,,,
778,,rt_thecrossant_black,794221,,black_plus_sign,,,,50,,,1,0.9897959183673469,,,,,,,,,,,,,,,,
null,,color_black,794332,,black_plus_sign,,,,null,,,,,,,,,,,,,,,,,,,,
null,,learn_phase(without_color),797339,,black_plus_sign,,,,null,GW/boulder.png,GW/huntsville.png,,,,,,,,,,,,,,,,,,
null,,black_cross(without_color),798412,,yellow,,,,null,GW/boulder.png,GW/huntsville.png,,,,,,,,,,,,,,,,,,
null,,rt_plussign_withcolor,798916,,yellow,,,,null,GW/boulder.png,GW/huntsville.png,,,,,,,,,,,,,,,,,,
676,,rt_thecrossant_black,799858,,black_plus_sign,,,,50,,,1,0.98989898989899,,,,,,,,,,,,,,,,
null,,color_black,799967,,black_plus_sign,,,,null,,,,,,,,,,,,,,,,,,,,
null,,learn_phase(without_color),802979,,black_plus_sign,,,,null,GW/racine.png,GW/newhope.png,,,,,,,,,,,,,,,,,,
null,,black_cross(without_color),803449,,yellow,,,,null,GW/racine.png,GW/newhope.png,,,,,,,,,,,,,,,,,,
null,,rt_plussign_withcolor,803954,,yellow,,,,null,GW/racine.png,GW/newhope.png,,,,,,,,,,,,,,,,,,
1511,,rt_thecrossant_black,805511,,black_plus_sign,,,,50,,,1,0.99,,,,,,,,,,,,,,,,
null,,color_black,805622,,black_plus_sign,,,,null,,,,,,,,,,,,,,,,,,,,
null,,learn_phase(without_color),808733,,black_plus_sign,,,,null,GW/gatlinburg.png,GW/peoria.png,,,,,,,,,,,,,,,,,,
null,,black_cross(without_color),809296,,blue,,,,null,GW/gatlinburg.png,GW/peoria.png,,,,,,,,,,,,,,,,,,
474,,rt_plussign_withcolor,809798,,blue,,,,49,GW/gatlinburg.png,GW/peoria.png,,,,,,,,,,,,,,,,,,
null,,rt_thecrossant_black,811258,,black_plus_sign,,,,null,,,1,0.9900990099009901,,,,,,,,,,,,,,,,
null,,color_black,811368,,black_plus_sign,,,,null,,,,,,,,,,,,,,,,,,,,
null,,learn_phase(without_color),814375,,black_plus_sign,,,,null,GW/shreveport.png,GW/hanover.png,,,,,,,,,,,,,,,,,,
null,,black_cross(without_color),815298,,yellow,,,,null,GW/shreveport.png,GW/hanover.png,,,,,,,,,,,,,,,,,,
null,,rt_plussign_withcolor,815811,,yellow,,,,null,GW/shreveport.png,GW/hanover.png,,,,,,,,,,,,,,,,,,
888,,rt_thecrossant_black,816907,,black_plus_sign,,,,50,,,1,0.9901960784313726,,,,,,,,,,,,,,,,
null,,color_black,817018,,black_plus_sign,,,,null,,,,,,,,,,,,,,,,,,,,
null,,learn_phase(without_color),820024,,black_plus_sign,,,,null,GW/racine.png,GW/newhope.png,,,,,,,,,,,,,,,,,,
null,,black_cross(without_color),821059,,blue,,,,null,GW/racine.png,GW/newhope.png,,,,,,,,,,,,,,,,,,
null,,rt_plussign_withcolor,821562,,blue,,,,null,GW/racine.png,GW/newhope.png,,,,,,,,,,,,,,,,,,
1094,,rt_thecrossant_black,822560,,black_plus_sign,,,,49,,,1,0.9902912621359223,,,,,,,,,,,,,,,,
null,,color_black,822671,,black_plus_sign,,,,null,,,,,,,,,,,,,,,,,,,,
null,,learn_phase(without_color),825677,,black_plus_sign,,,,null,GW/peoria.png,GW/gatlinburg.png,,,,,,,,,,,,,,,,,,
null,,black_cross(without_color),826288,,yellow,,,,null,GW/peoria.png,GW/gatlinburg.png,,,,,,,,,,,,,,,,,,
null,,rt_plussign_withcolor,826789,,yellow,,,,null,GW/peoria.png,GW/gatlinburg.png,,,,,,,,,,,,,,,,,,
1165,,rt_thecrossant_black,828183,,black_plus_sign,,,,50,,,1,0.9903846153846154,,,,,,,,,,,,,,,,
null,,color_black,828291,,black_plus_sign,,,,null,,,,,,,,,,,,,,,,,,,,
null,,learn_phase(without_color),831312,,black_plus_sign,,,,null,GW/shreveport.png,GW/hanover.png,,,,,,,,,,,,,,,,,,
null,,black_cross(without_color),831890,,blue,,,,null,GW/shreveport.png,GW/hanover.png,,,,,,,,,,,,,,,,,,
null,,rt_plussign_withcolor,832405,,blue,,,,null,GW/shreveport.png,GW/hanover.png,,,,,,,,,,,,,,,,,,
908,,rt_thecrossant_black,833838,,black_plus_sign,,,,49,,,1,0.9904761904761905,,,,,,,,,,,,,,,,
null,,color_black,833949,,black_plus_sign,,,,null,,,,,,,,,,,,,,,,,,,,
null,,learn_phase(without_color),836961,,black_plus_sign,,,,null,GW/peoria.png,GW/gatlinburg.png,,,,,,,,,,,,,,,,,,
null,,black_cross(without_color),837590,,yellow,,,,null,GW/peoria.png,GW/gatlinburg.png,,,,,,,,,,,,,,,,,,
null,,rt_plussign_withcolor,838092,,yellow,,,,null,GW/peoria.png,GW/gatlinburg.png,,,,,,,,,,,,,,,,,,
709,,rt_thecrossant_black,839477,,black_plus_sign,,,,50,,,1,0.9905660377358491,,,,,,,,,,,,,,,,
null,,color_black,839588,,black_plus_sign,,,,null,,,,,,,,,,,,,,,,,,,,
null,,learn_phase(without_color),842599,,black_plus_sign,,,,null,GW/hanover.png,GW/shreveport.png,,,,,,,,,,,,,,,,,,
null,,black_cross(without_color),843554,,blue,,,,null,GW/hanover.png,GW/shreveport.png,,,,,,,,,,,,,,,,,,
null,,rt_plussign_withcolor,844069,,blue,,,,null,GW/hanover.png,GW/shreveport.png,,,,,,,,,,,,,,,,,,
1192,,rt_thecrossant_black,845146,,black_plus_sign,,,,49,,,1,0.9906542056074766,,,,,,,,,,,,,,,,
null,,color_black,845254,,black_plus_sign,,,,null,,,,,,,,,,,,,,,,,,,,
null,,learn_phase(without_color),848266,,black_plus_sign,,,,null,GW/newhope.png,GW/racine.png,,,,,,,,,,,,,,,,,,
null,,black_cross(without_color),849146,,blue,,,,null,GW/newhope.png,GW/racine.png,,,,,,,,,,,,,,,,,,
null,,rt_plussign_withcolor,849648,,blue,,,,null,GW/newhope.png,GW/racine.png,,,,,,,,,,,,,,,,,,
1039,,rt_thecrossant_black,850796,,black_plus_sign,,,,49,,,1,0.9907407407407407,,,,,,,,,,,,,,,,
null,,color_black,850905,,black_plus_sign,,,,null,,,,,,,,,,,,,,,,,,,,
null,,learn_phase(without_color),854070,,black_plus_sign,,,,null,GW/peoria.png,GW/gatlinburg.png,,,,,,,,,,,,,,,,,,
null,,black_cross(without_color),854538,,yellow,,,,null,GW/peoria.png,GW/gatlinburg.png,,,,,,,,,,,,,,,,,,
null,,rt_plussign_withcolor,855041,,yellow,,,,null,GW/peoria.png,GW/gatlinburg.png,,,,,,,,,,,,,,,,,,
1238,,rt_thecrossant_black,856592,,black_plus_sign,,,,50,,,1,0.9908256880733946,,,,,,,,,,,,,,,,
null,,color_black,856704,,black_plus_sign,,,,null,,,,,,,,,,,,,,,,,,,,
null,,learn_phase(without_color),859712,,black_plus_sign,,,,null,GW/shreveport.png,GW/hanover.png,,,,,,,,,,,,,,,,,,
null,,black_cross(without_color),860370,,yellow,,,,null,GW/shreveport.png,GW/hanover.png,,,,,,,,,,,,,,,,,,
null,,rt_plussign_withcolor,860874,,yellow,,,,null,GW/shreveport.png,GW/hanover.png,,,,,,,,,,,,,,,,,,
642,,rt_thecrossant_black,862239,,black_plus_sign,,,,50,,,1,0.990909090909091,,,,,,,,,,,,,,,,
null,,color_black,862349,,black_plus_sign,,,,null,,,,,,,,,,,,,,,,,,,,
null,,learn_phase(without_color),865364,,black_plus_sign,,,,null,GW/peoria.png,GW/gatlinburg.png,,,,,,,,,,,,,,,,,,
null,,black_cross(without_color),866190,,yellow,,,,null,GW/peoria.png,GW/gatlinburg.png,,,,,,,,,,,,,,,,,,
null,,rt_plussign_withcolor,866706,,yellow,,,,null,GW/peoria.png,GW/gatlinburg.png,,,,,,,,,,,,,,,,,,
849,,rt_thecrossant_black,867908,,black_plus_sign,,,,50,,,1,0.990990990990991,,,,,,,,,,,,,,,,
null,,color_black,868018,,black_plus_sign,,,,null,,,,,,,,,,,,,,,,,,,,
null,,learn_phase(without_color),871036,,black_plus_sign,,,,null,GW/boulder.png,GW/huntsville.png,,,,,,,,,,,,,,,,,,
null,,black_cross(without_color),872024,,blue,,,,null,GW/boulder.png,GW/huntsville.png,,,,,,,,,,,,,,,,,,
null,,rt_plussign_withcolor,872540,,blue,,,,null,GW/boulder.png,GW/huntsville.png,,,,,,,,,,,,,,,,,,
1076,,rt_thecrossant_black,873591,,black_plus_sign,,,,49,,,1,0.9910714285714286,,,,,,,,,,,,,,,,
null,,color_black,873701,,black_plus_sign,,,,null,,,,,,,,,,,,,,,,,,,,
null,,learn_phase(without_color),876742,,black_plus_sign,,,,null,GW/gatlinburg.png,GW/peoria.png,,,,,,,,,,,,,,,,,,
null,,black_cross(without_color),877226,,blue,,,,null,GW/gatlinburg.png,GW/peoria.png,,,,,,,,,,,,,,,,,,
null,,rt_plussign_withcolor,877730,,blue,,,,null,GW/gatlinburg.png,GW/peoria.png,,,,,,,,,,,,,,,,,,
1088,,rt_thecrossant_black,879273,,black_plus_sign,,,,49,,,1,0.9911504424778761,,,,,,,,,,,,,,,,
null,,color_black,879382,,black_plus_sign,,,,null,,,,,,,,,,,,,,,,,,,,
null,,learn_phase(without_color),882387,,black_plus_sign,,,,null,GW/newhope.png,GW/racine.png,,,,,,,,,,,,,,,,,,
null,,black_cross(without_color),882967,,yellow,,,,null,GW/newhope.png,GW/racine.png,,,,,,,,,,,,,,,,,,
490,,rt_plussign_withcolor,883479,,yellow,,,,50,GW/newhope.png,GW/racine.png,,,,,,,,,,,,,,,,,,
null,,rt_thecrossant_black,884918,,black_plus_sign,,,,null,,,1,0.9912280701754386,,,,,,,,,,,,,,,,
null,,color_black,885028,,black_plus_sign,,,,null,,,,,,,,,,,,,,,,,,,,
null,,learn_phase(without_color),888047,,black_plus_sign,,,,null,GW/hanover.png,GW/shreveport.png,,,,,,,,,,,,,,,,,,
null,,black_cross(without_color),888910,,yellow,,,,null,GW/hanover.png,GW/shreveport.png,,,,,,,,,,,,,,,,,,
null,,rt_plussign_withcolor,889421,,yellow,,,,null,GW/hanover.png,GW/shreveport.png,,,,,,,,,,,,,,,,,,
886,,rt_thecrossant_black,890578,,black_plus_sign,,,,50,,,1,0.991304347826087,,,,,,,,,,,,,,,,
null,,color_black,890688,,black_plus_sign,,,,null,,,,,,,,,,,,,,,,,,,,
null,,learn_phase(without_color),893702,,black_plus_sign,,,,null,GW/boulder.png,GW/huntsville.png,,,,,,,,,,,,,,,,,,
null,,black_cross(without_color),894783,,blue,,,,null,GW/boulder.png,GW/huntsville.png,,,,,,,,,,,,,,,,,,
null,,rt_plussign_withcolor,895287,,blue,,,,null,GW/boulder.png,GW/huntsville.png,,,,,,,,,,,,,,,,,,
1024,,rt_thecrossant_black,896231,,black_plus_sign,,,,49,,,1,0.9913793103448276,,,,,,,,,,,,,,,,
null,,color_black,896340,,black_plus_sign,,,,null,,,,,,,,,,,,,,,,,,,,
null,,learn_phase(without_color),899350,,black_plus_sign,,,,null,GW/newhope.png,GW/racine.png,,,,,,,,,,,,,,,,,,
null,,black_cross(without_color),900432,,yellow,,,,null,GW/newhope.png,GW/racine.png,,,,,,,,,,,,,,,,,,
null,,rt_plussign_withcolor,900935,,yellow,,,,null,GW/newhope.png,GW/racine.png,,,,,,,,,,,,,,,,,,
1261,,rt_thecrossant_black,901878,,black_plus_sign,,,,50,,,1,0.9914529914529915,,,,,,,,,,,,,,,,
null,,color_black,901987,,black_plus_sign,,,,null,,,,,,,,,,,,,,,,,,,,
null,,learn_phase(without_color),905079,,black_plus_sign,,,,null,GW/boulder.png,GW/huntsville.png,,,,,,,,,,,,,,,,,,
null,,black_cross(without_color),905975,,yellow,,,,null,GW/boulder.png,GW/huntsville.png,,,,,,,,,,,,,,,,,,
null,,rt_plussign_withcolor,906479,,yellow,,,,null,GW/boulder.png,GW/huntsville.png,,,,,,,,,,,,,,,,,,
1261,,rt_thecrossant_black,907594,,black_plus_sign,,,,50,,,1,0.9915254237288136,,,,,,,,,,,,,,,,
null,,color_black,907703,,black_plus_sign,,,,null,,,,,,,,,,,,,,,,,,,,
null,,learn_phase(without_color),910722,,black_plus_sign,,,,null,GW/racine.png,GW/newhope.png,,,,,,,,,,,,,,,,,,
null,,black_cross(without_color),911130,,yellow,,,,null,GW/racine.png,GW/newhope.png,,,,,,,,,,,,,,,,,,
null,,rt_plussign_withcolor,911646,,yellow,,,,null,GW/racine.png,GW/newhope.png,,,,,,,,,,,,,,,,,,
1081,,rt_thecrossant_black,913258,,black_plus_sign,,,,50,,,1,0.9915966386554622,,,,,,,,,,,,,,,,
null,,color_black,913367,,black_plus_sign,,,,null,,,,,,,,,,,,,,,,,,,,
null,,learn_phase(without_color),916383,,black_plus_sign,,,,null,GW/shreveport.png,GW/hanover.png,,,,,,,,,,,,,,,,,,
null,,black_cross(without_color),917337,,yellow,,,,null,GW/shreveport.png,GW/hanover.png,,,,,,,,,,,,,,,,,,
431,,rt_plussign_withcolor,917839,,yellow,,,,50,GW/shreveport.png,GW/hanover.png,,,,,,,,,,,,,,,,,,
null,,rt_thecrossant_black,918905,,black_plus_sign,,,,null,,,1,0.9916666666666667,,,,,,,,,,,,,,,,
null,,color_black,919017,,black_plus_sign,,,,null,,,,,,,,,,,,,,,,,,,,
null,,learn_phase(without_color),922034,,black_plus_sign,,,,null,GW/huntsville.png,GW/boulder.png,,,,,,,,,,,,,,,,,,
null,,black_cross(without_color),922757,,yellow,,,,null,GW/huntsville.png,GW/boulder.png,,,,,,,,,,,,,,,,,,
null,,rt_plussign_withcolor,923273,,yellow,,,,null,GW/huntsville.png,GW/boulder.png,,,,,,,,,,,,,,,,,,
1133,,rt_thecrossant_black,924577,,black_plus_sign,,,,50,,,1,0.9917355371900827,,,,,,,,,,,,,,,,
null,,color_black,924687,,black_plus_sign,,,,null,,,,,,,,,,,,,,,,,,,,
null,,learn_phase(without_color),927710,,black_plus_sign,,,,null,GW/shreveport.png,GW/hanover.png,,,,,,,,,,,,,,,,,,
null,,black_cross(without_color),928131,,yellow,,,,null,GW/shreveport.png,GW/hanover.png,,,,,,,,,,,,,,,,,,
null,,rt_plussign_withcolor,928636,,yellow,,,,null,GW/shreveport.png,GW/hanover.png,,,,,,,,,,,,,,,,,,
1504,,rt_thecrossant_black,930234,,black_plus_sign,,,,50,,,1,0.9918032786885246,,,,,,,,,,,,,,,,
null,,color_black,930344,,black_plus_sign,,,,null,,,,,,,,,,,,,,,,,,,,
null,,learn_phase(without_color),933355,,black_plus_sign,,,,null,GW/boulder.png,GW/huntsville.png,,,,,,,,,,,,,,,,,,
null,,black_cross(without_color),934094,,yellow,,,,null,GW/boulder.png,GW/huntsville.png,,,,,,,,,,,,,,,,,,
null,,rt_plussign_withcolor,934597,,yellow,,,,null,GW/boulder.png,GW/huntsville.png,,,,,,,,,,,,,,,,,,
742,,rt_thecrossant_black,935887,,black_plus_sign,,,,50,,,1,0.991869918699187,,,,,,,,,,,,,,,,
null,,color_black,935996,,black_plus_sign,,,,null,,,,,,,,,,,,,,,,,,,,
null,,learn_phase(without_color),939012,,black_plus_sign,,,,null,GW/racine.png,GW/newhope.png,,,,,,,,,,,,,,,,,,
null,,black_cross(without_color),939716,,yellow,,,,null,GW/racine.png,GW/newhope.png,,,,,,,,,,,,,,,,,,
null,,rt_plussign_withcolor,940218,,yellow,,,,null,GW/racine.png,GW/newhope.png,,,,,,,,,,,,,,,,,,
1020,,rt_thecrossant_black,941531,,black_plus_sign,,,,50,,,1,0.9919354838709677,,,,,,,,,,,,,,,,
null,,color_black,941640,,black_plus_sign,,,,null,,,,,,,,,,,,,,,,,,,,
null,,learn_phase(without_color),944658,,black_plus_sign,,,,null,GW/peoria.png,GW/gatlinburg.png,,,,,,,,,,,,,,,,,,
null,,black_cross(without_color),945538,,yellow,,,,null,GW/peoria.png,GW/gatlinburg.png,,,,,,,,,,,,,,,,,,
null,,rt_plussign_withcolor,946041,,yellow,,,,null,GW/peoria.png,GW/gatlinburg.png,,,,,,,,,,,,,,,,,,
879,,rt_thecrossant_black,947183,,black_plus_sign,,,,50,,,1,0.992,,,,,,,,,,,,,,,,
null,,color_black,947294,,black_plus_sign,,,,null,,,,,,,,,,,,,,,,,,,,
null,,learn_phase(without_color),950309,,black_plus_sign,,,,null,GW/boulder.png,GW/huntsville.png,,,,,,,,,,,,,,,,,,
null,,black_cross(without_color),950763,,yellow,,,,null,GW/boulder.png,GW/huntsville.png,,,,,,,,,,,,,,,,,,
null,,rt_plussign_withcolor,951264,,yellow,,,,null,GW/boulder.png,GW/huntsville.png,,,,,,,,,,,,,,,,,,
1098,,rt_thecrossant_black,952831,,black_plus_sign,,,,50,,,1,0.9920634920634921,,,,,,,,,,,,,,,,
null,,color_black,952941,,black_plus_sign,,,,null,,,,,,,,,,,,,,,,,,,,
null,,learn_phase(without_color),956047,,black_plus_sign,,,,null,GW/hanover.png,GW/shreveport.png,,,,,,,,,,,,,,,,,,
null,,black_cross(without_color),956611,,yellow,,,,null,GW/hanover.png,GW/shreveport.png,,,,,,,,,,,,,,,,,,
null,,rt_plussign_withcolor,957112,,yellow,,,,null,GW/hanover.png,GW/shreveport.png,,,,,,,,,,,,,,,,,,
567,,rt_thecrossant_black,958582,,black_plus_sign,,,,50,,,1,0.9921259842519685,,,,,,,,,,,,,,,,
null,,color_black,958691,,black_plus_sign,,,,null,,,,,,,,,,,,,,,,,,,,
null,,learn_phase(without_color),961712,,black_plus_sign,,,,null,GW/racine.png,GW/newhope.png,,,,,,,,,,,,,,,,,,
null,,black_cross(without_color),962432,,blue,,,,null,GW/racine.png,GW/newhope.png,,,,,,,,,,,,,,,,,,
null,,rt_plussign_withcolor,962946,,blue,,,,null,GW/racine.png,GW/newhope.png,,,,,,,,,,,,,,,,,,
829,,rt_thecrossant_black,964248,,black_plus_sign,,,,49,,,1,0.9921875,,,,,,,,,,,,,,,,
null,,color_black,964357,,black_plus_sign,,,,null,,,,,,,,,,,,,,,,,,,,
null,,learn_break,1024371,,learn_break,,,,null,,,,,,,,,,,,,,,,,,,,
16789,,intro_1,1041161,,instruct,,0,Start,,,,,,,,,,,,,,,,,,,,,
2000,,directmemory_phase,1043162,,GW/hotsprings.png,,,,51,,,1,1,GW/shreveport.png,GW/racine.png,GW/newhope.png,GW/newhope.png,GW/racine.png,GW/shreveport.png,1,,,,,,,,,
null,,html-keyboard-response,1044181,,<p></p>,,,,null,,,,,,,,,,,,,,,,,,,,
1953,,directmemory_phase,1046136,,GW/racine.png,,,,49,,,1,1,GW/peoria.png,GW/westpalmbeach.png,GW/gatlinburg.png,GW/peoria.png,GW/gatlinburg.png,GW/westpalmbeach.png,1,,,,,,,,,
null,,html-keyboard-response,1047148,,<p></p>,,,,null,,,,,,,,,,,,,,,,,,,,
1190,,directmemory_phase,1048339,,GW/newhope.png,,,,49,,,1,1,GW/hotsprings.png,GW/boulder.png,GW/gatlinburg.png,GW/hotsprings.png,GW/gatlinburg.png,GW/boulder.png,1,,,,,,,,,
null,,html-keyboard-response,1049345,,<p></p>,,,,null,,,,,,,,,,,,,,,,,,,,
1672,,directmemory_phase,1051018,,GW/hanover.png,,,,50,,,1,1,GW/carmel.png,GW/huntsville.png,GW/leesburg.png,GW/huntsville.png,GW/carmel.png,GW/leesburg.png,1,,,,,,,,,
null,,html-keyboard-response,1052034,,<p></p>,,,,null,,,,,,,,,,,,,,,,,,,,
3857,,directmemory_phase,1055893,,GW/newhope.png,,,,51,,,1,1,GW/hanover.png,GW/gatlinburg.png,GW/leesburg.png,GW/leesburg.png,GW/gatlinburg.png,GW/hanover.png,1,,,,,,,,,
null,,html-keyboard-response,1056900,,<p></p>,,,,null,,,,,,,,,,,,,,,,,,,,
2699,,directmemory_phase,1059601,,GW/gatlinburg.png,,,,50,,,1,1,GW/shreveport.png,GW/peoria.png,GW/westpalmbeach.png,GW/peoria.png,GW/shreveport.png,GW/westpalmbeach.png,1,,,,,,,,,
null,,html-keyboard-response,1060616,,<p></p>,,,,null,,,,,,,,,,,,,,,,,,,,
2704,,directmemory_phase,1063321,,GW/carmel.png,,,,50,,,0,0.8571428571428571,GW/boulder.png,GW/westpalmbeach.png,GW/huntsville.png,GW/boulder.png,GW/huntsville.png,GW/westpalmbeach.png,0.5,closer,,,,,,,,
null,,html-keyboard-response,1064333,,<p></p>,,,,null,,,,,,,,,,,,,,,,,,,,
2045,,directmemory_phase,1066380,,GW/westpalmbeach.png,,,,51,,,1,0.875,GW/gatlinburg.png,GW/shreveport.png,GW/hanover.png,GW/hanover.png,GW/shreveport.png,GW/gatlinburg.png,1,,,,,,,,,
null,,html-keyboard-response,1067386,,<p></p>,,,,null,,,,,,,,,,,,,,,,,,,,
3148,,directmemory_phase,1070535,,GW/leesburg.png,,,,51,,,1,0.8888888888888888,GW/carmel.png,GW/peoria.png,GW/newhope.png,GW/newhope.png,GW/peoria.png,GW/carmel.png,1,,,,,,,,,
null,,html-keyboard-response,1071553,,<p></p>,,,,null,,,,,,,,,,,,,,,,,,,,
1943,,directmemory_phase,1073497,,GW/peoria.png,,,,49,,,1,0.9,GW/gatlinburg.png,GW/westpalmbeach.png,GW/leesburg.png,GW/gatlinburg.png,GW/leesburg.png,GW/westpalmbeach.png,1,,,,,,,,,
null,,html-keyboard-response,1074504,,<p></p>,,,,null,,,,,,,,,,,,,,,,,,,,
1271,,directmemory_phase,1075775,,GW/shreveport.png,,,,50,,,1,0.9090909090909091,GW/westpalmbeach.png,GW/huntsville.png,GW/leesburg.png,GW/huntsville.png,GW/westpalmbeach.png,GW/leesburg.png,1,,,,,,,,,
null,,html-keyboard-response,1076793,,<p></p>,,,,null,,,,,,,,,,,,,,,,,,,,
1778,,directmemory_phase,1078573,,GW/boulder.png,,,,50,,,1,0.9166666666666666,GW/gatlinburg.png,GW/hanover.png,GW/racine.png,GW/hanover.png,GW/gatlinburg.png,GW/racine.png,1,,,,,,,,,
null,,html-keyboard-response,1079591,,<p></p>,,,,null,,,,,,,,,,,,,,,,,,,,
2226,,directmemory_phase,1081818,,GW/shreveport.png,,,,51,,,1,0.9230769230769231,GW/hotsprings.png,GW/racine.png,GW/peoria.png,GW/peoria.png,GW/racine.png,GW/hotsprings.png,1,,,,,,,,,
null,,html-keyboard-response,1082827,,<p></p>,,,,null,,,,,,,,,,,,,,,,,,,,
2709,,directmemory_phase,1085538,,GW/huntsville.png,,,,51,,,1,0.9285714285714286,GW/racine.png,GW/carmel.png,GW/hanover.png,GW/hanover.png,GW/carmel.png,GW/racine.png,1,,,,,,,,,
null,,html-keyboard-response,1086543,,<p></p>,,,,null,,,,,,,,,,,,,,,,,,,,
2447,,directmemory_phase,1088992,,GW/peoria.png,,,,49,,,1,0.9333333333333333,GW/shreveport.png,GW/carmel.png,GW/hanover.png,GW/shreveport.png,GW/hanover.png,GW/carmel.png,1,,,,,,,,,
null,,html-keyboard-response,1090004,,<p></p>,,,,null,,,,,,,,,,,,,,,,,,,,
2084,,directmemory_phase,1092090,,GW/gatlinburg.png,,,,49,,,1,0.9375,GW/huntsville.png,GW/hotsprings.png,GW/racine.png,GW/huntsville.png,GW/racine.png,GW/hotsprings.png,1,,,,,,,,,
null,,html-keyboard-response,1093104,,<p></p>,,,,null,,,,,,,,,,,,,,,,,,,,
1935,,directmemory_phase,1095041,,GW/hanover.png,,,,51,,,1,0.9411764705882353,GW/racine.png,GW/carmel.png,GW/boulder.png,GW/boulder.png,GW/carmel.png,GW/racine.png,1,,,,,,,,,
null,,html-keyboard-response,1096056,,<p></p>,,,,null,,,,,,,,,,,,,,,,,,,,
3915,,directmemory_phase,1099973,,GW/peoria.png,,,,51,,,1,0.9444444444444444,GW/hotsprings.png,GW/hanover.png,GW/racine.png,GW/racine.png,GW/hanover.png,GW/hotsprings.png,1,,,,,,,,,
null,,html-keyboard-response,1100986,,<p></p>,,,,null,,,,,,,,,,,,,,,,,,,,
null,,directmemory_phase,1107500,,GW/shreveport.png,,,,null,,,0,0.8947368421052632,GW/boulder.png,GW/hanover.png,GW/leesburg.png,GW/hanover.png,GW/boulder.png,GW/leesburg.png,0,,,,,,,,,
null,,warning_page,1110515,,warning,,,,null,,,,,,,,,,,,,,,,,,,,
null,,html-keyboard-response,1111521,,<p></p>,,,,null,,,,,,,,,,,,,,,,,,,,
2672,,directmemory_phase,1114194,,GW/boulder.png,,,,51,,,0,0.85,GW/huntsville.png,GW/leesburg.png,GW/shreveport.png,GW/huntsville.png,GW/shreveport.png,GW/leesburg.png,0.5,closer,,,,,,,,
null,,html-keyboard-response,1115208,,<p></p>,,,,null,,,,,,,,,,,,,,,,,,,,
3249,,directmemory_phase,1118457,,GW/hanover.png,,,,51,,,0,0.8095238095238095,GW/shreveport.png,GW/cornwall.png,GW/carmel.png,GW/shreveport.png,GW/carmel.png,GW/cornwall.png,0.5,closer,,,,,,,,
null,,html-keyboard-response,1119473,,<p></p>,,,,null,,,,,,,,,,,,,,,,,,,,
2761,,directmemory_phase,1122237,,GW/boulder.png,,,,51,,,0,0.7727272727272727,GW/carmel.png,GW/racine.png,GW/westpalmbeach.png,GW/carmel.png,GW/westpalmbeach.png,GW/racine.png,0.5,closer,,,,,,,,
null,,html-keyboard-response,1123249,,<p></p>,,,,null,,,,,,,,,,,,,,,,,,,,
1241,,directmemory_phase,1124491,,GW/gatlinburg.png,,,,50,,,1,0.782608695652174,GW/hanover.png,GW/leesburg.png,GW/hotsprings.png,GW/leesburg.png,GW/hanover.png,GW/hotsprings.png,1,,,,,,,,,
null,,html-keyboard-response,1125505,,<p></p>,,,,null,,,,,,,,,,,,,,,,,,,,
1591,,directmemory_phase,1127098,,GW/cornwall.png,,,,49,,,1,0.7916666666666666,GW/racine.png,GW/hanover.png,GW/newhope.png,GW/racine.png,GW/newhope.png,GW/hanover.png,1,,,,,,,,,
null,,html-keyboard-response,1128110,,<p></p>,,,,null,,,,,,,,,,,,,,,,,,,,
1827,,directmemory_phase,1129938,,GW/leesburg.png,,,,51,,,1,0.8,GW/hanover.png,GW/huntsville.png,GW/gatlinburg.png,GW/gatlinburg.png,GW/huntsville.png,GW/hanover.png,1,,,,,,,,,
null,,html-keyboard-response,1130952,,<p></p>,,,,null,,,,,,,,,,,,,,,,,,,,
1631,,directmemory_phase,1132585,,GW/hanover.png,,,,49,,,1,0.8076923076923077,GW/westpalmbeach.png,GW/leesburg.png,GW/carmel.png,GW/westpalmbeach.png,GW/carmel.png,GW/leesburg.png,1,,,,,,,,,
null,,html-keyboard-response,1133597,,<p></p>,,,,null,,,,,,,,,,,,,,,,,,,,
1610,,directmemory_phase,1135210,,GW/huntsville.png,,,,51,,,1,0.8148148148148148,GW/newhope.png,GW/carmel.png,GW/shreveport.png,GW/shreveport.png,GW/carmel.png,GW/newhope.png,1,,,,,,,,,
null,,html-keyboard-response,1136227,,<p></p>,,,,null,,,,,,,,,,,,,,,,,,,,
2517,,directmemory_phase,1138746,,GW/newhope.png,,,,51,,,1,0.8214285714285714,GW/shreveport.png,GW/cornwall.png,GW/racine.png,GW/racine.png,GW/cornwall.png,GW/shreveport.png,1,,,,,,,,,
null,,html-keyboard-response,1139756,,<p></p>,,,,null,,,,,,,,,,,,,,,,,,,,
3244,,directmemory_phase,1143001,,GW/huntsville.png,,,,51,,,1,0.8275862068965517,GW/newhope.png,GW/leesburg.png,GW/boulder.png,GW/boulder.png,GW/leesburg.png,GW/newhope.png,1,,,,,,,,,
null,,html-keyboard-response,1144019,,<p></p>,,,,null,,,,,,,,,,,,,,,,,,,,
2449,,directmemory_phase,1146470,,GW/racine.png,,,,50,,,1,0.8333333333333334,GW/leesburg.png,GW/newhope.png,GW/hanover.png,GW/newhope.png,GW/leesburg.png,GW/hanover.png,1,,,,,,,,,
null,,html-keyboard-response,1147483,,<p></p>,,,,null,,,,,,,,,,,,,,,,,,,,
3032,,directmemory_phase,1150517,,GW/huntsville.png,,,,49,,,1,0.8387096774193549,GW/gatlinburg.png,GW/cornwall.png,GW/westpalmbeach.png,GW/gatlinburg.png,GW/westpalmbeach.png,GW/cornwall.png,1,,,,,,,,,
null,,html-keyboard-response,1151529,,<p></p>,,,,null,,,,,,,,,,,,,,,,,,,,
3427,,directmemory_phase,1154957,,GW/racine.png,,,,51,,,1,0.84375,GW/westpalmbeach.png,GW/gatlinburg.png,GW/cornwall.png,GW/cornwall.png,GW/gatlinburg.png,GW/westpalmbeach.png,1,,,,,,,,,
null,,html-keyboard-response,1156051,,<p></p>,,,,null,,,,,,,,,,,,,,,,,,,,
13172,,intro_1,1169224,,instruct,,0,,,,,,,,,,,,,,,,,,,,,,
5213,,intro_2,1174439,,instruct,,1,Next,,,,,,,,,,,,,,,,,,,,,
2139,,intro_3,1176579,,instruct,,1,Next,,,,,,,,,,,,,,,,,,,,,
3383,,intro_4,1179963,,instruct,,1,Next,,,,,,,,,,,,,,,,,,,,,
8556,,intro_5,1188521,,instruct,,1,Next,,,,,,,,,,,,,,,,,,,,,
12251,,intro_6,1200773,,instruct,,1,Next,,,,,,,,,,,,,,,,,,,,,
6613,,intro_7,1207387,,instruct,,1,Next,,,,,,,,,,,,,,,,,,,,,
15996,,intro_8,1223384,,instruct,,1,Next,,,,,,,,,,,,,,,,,,,,,
2046,,shortestpath_phase,1225432,,GW/racine.png,,,,50,GW/huntsville.png,GW/carmel.png,0,0,,,,GW/huntsville.png,,,,,Two Edge Diff,Three Edge Five Edge,,,,,,
null,,html-keyboard-response,1226451,,<p></p>,,,,null,,,,,,,,,,,,,,,,,,,,
2892,,shortestpath_phase,1229342,,GW/hotsprings.png,,,,49,GW/boulder.png,GW/leesburg.png,0,0,,,,GW/leesburg.png,,,,,Three Edge Diff,Three Edge Six Edge,,,,,,
null,,html-keyboard-response,1230364,,<p></p>,,,,null,,,,,,,,,,,,,,,,,,,,
3135,,shortestpath_phase,1233500,,GW/westpalmbeach.png,,,,49,GW/racine.png,GW/hotsprings.png,1,0.3333333333333333,,,,GW/racine.png,,,,,Two Edge Diff,Four Edge Six Edge,,,,,,
null,,html-keyboard-response,1234512,,<p></p>,,,,null,,,,,,,,,,,,,,,,,,,,
3363,,shortestpath_phase,1237876,,GW/hotsprings.png,,,,49,GW/boulder.png,GW/westpalmbeach.png,1,0.5,,,,GW/boulder.png,,,,,One Edge Diff,Five Edge Six Edge,,,,,,
null,,html-keyboard-response,1238890,,<p></p>,,,,null,,,,,,,,,,,,,,,,,,,,
3860,,shortestpath_phase,1242751,,GW/westpalmbeach.png,,,,49,GW/newhope.png,GW/leesburg.png,0,0.4,,,,GW/leesburg.png,,,,,One Edge Diff,Four Edge Five Edge,,,,,,
null,,html-keyboard-response,1243758,,<p></p>,,,,null,,,,,,,,,,,,,,,,,,,,
3151,,shortestpath_phase,1246909,,GW/racine.png,,,,50,GW/carmel.png,GW/hotsprings.png,1,0.5,,,,GW/hotsprings.png,,,,,Three Edge Diff,Two Edge Five Edge,,,,,,
null,,html-keyboard-response,1247926,,<p></p>,,,,null,,,,,,,,,,,,,,,,,,,,
4207,,shortestpath_phase,1252135,,GW/newhope.png,,,,49,GW/westpalmbeach.png,GW/gatlinburg.png,0,0.42857142857142855,,,,GW/gatlinburg.png,,,,,Three Edge Diff,Two Edge Five Edge,,,,,,
null,,html-keyboard-response,1253141,,<p></p>,,,,null,,,,,,,,,,,,,,,,,,,,
3867,,shortestpath_phase,1257010,,GW/cornwall.png,,,,50,GW/leesburg.png,GW/boulder.png,0,0.375,,,,GW/leesburg.png,,,,,Two Edge Diff,Three Edge Five Edge,,,,,,
null,,html-keyboard-response,1258015,,<p></p>,,,,null,,,,,,,,,,,,,,,,,,,,
3542,,shortestpath_phase,1261560,,GW/westpalmbeach.png,,,,50,GW/hotsprings.png,GW/huntsville.png,1,0.4444444444444444,,,,GW/huntsville.png,,,,,Four Edge Diff,Two Edge Six Edge,,,,,,
null,,html-keyboard-response,1262568,,<p></p>,,,,null,,,,,,,,,,,,,,,,,,,,
4032,,shortestpath_phase,1266600,,GW/carmel.png,,,,49,GW/newhope.png,GW/hotsprings.png,1,0.5,,,,GW/newhope.png,,,,,One Edge Diff,Five Edge Six Edge,,,,,,
null,,html-keyboard-response,1267614,,<p></p>,,,,null,,,,,,,,,,,,,,,,,,,,
2995,,shortestpath_phase,1270612,,GW/cornwall.png,,,,50,GW/huntsville.png,GW/westpalmbeach.png,0,0.45454545454545453,,,,GW/huntsville.png,,,,,One Edge Diff,Four Edge Five Edge,,,,,,
null,,html-keyboard-response,1271618,,<p></p>,,,,null,,,,,,,,,,,,,,,,,,,,
4672,,shortestpath_phase,1276291,,GW/westpalmbeach.png,,,,50,GW/shreveport.png,GW/peoria.png,0,0.4166666666666667,,,,GW/shreveport.png,,,,,One Edge Diff,Two Edge Three Edge,,,,,,
null,,html-keyboard-response,1277303,,<p></p>,,,,null,,,,,,,,,,,,,,,,,,,,
3843,,shortestpath_phase,1281149,,GW/racine.png,,,,49,GW/gatlinburg.png,GW/carmel.png,1,0.46153846153846156,,,,GW/gatlinburg.png,,,,,Three Edge Diff,Three Edge Six Edge,,,,,,
null,,html-keyboard-response,1282165,,<p></p>,,,,null,,,,,,,,,,,,,,,,,,,,
3721,,shortestpath_phase,1285890,,GW/huntsville.png,,,,49,GW/peoria.png,GW/cornwall.png,1,0.5,,,,GW/peoria.png,,,,,Two Edge Diff,Two Edge Four Edge,,,,,,
null,,html-keyboard-response,1286909,,<p></p>,,,,null,,,,,,,,,,,,,,,,,,,,
4250,,shortestpath_phase,1291160,,GW/racine.png,,,,49,GW/hanover.png,GW/carmel.png,1,0.5333333333333333,,,,GW/hanover.png,,,,,Two Edge Diff,Three Edge Five Edge,,,,,,
null,,html-keyboard-response,1292167,,<p></p>,,,,null,,,,,,,,,,,,,,,,,,,,
3392,,shortestpath_phase,1295561,,GW/carmel.png,,,,49,GW/hotsprings.png,GW/peoria.png,0,0.5,,,,GW/peoria.png,,,,,Two Edge Diff,Four Edge Six Edge,,,,,,
null,,html-keyboard-response,1296572,,<p></p>,,,,null,,,,,,,,,,,,,,,,,,,,
2228,,shortestpath_phase,1298800,,GW/westpalmbeach.png,,,,49,GW/boulder.png,GW/hotsprings.png,1,0.5294117647058824,,,,GW/boulder.png,,,,,Four Edge Diff,Two Edge Six Edge,,,,,,
null,,html-keyboard-response,1299812,,<p></p>,,,,null,,,,,,,,,,,,,,,,,,,,
4391,,shortestpath_phase,1304204,,GW/newhope.png,,,,49,GW/hanover.png,GW/westpalmbeach.png,1,0.5555555555555556,,,,GW/hanover.png,,,,,One Edge Diff,Four Edge Five Edge,,,,,,
null,,html-keyboard-response,1305211,,<p></p>,,,,null,,,,,,,,,,,,,,,,,,,,
3849,,shortestpath_phase,1309063,,GW/westpalmbeach.png,,,,49,GW/shreveport.png,GW/hotsprings.png,1,0.5789473684210527,,,,GW/shreveport.png,,,,,Four Edge Diff,Two Edge Six Edge,,,,,,
null,,html-keyboard-response,1310080,,<p></p>,,,,null,,,,,,,,,,,,,,,,,,,,
3962,,shortestpath_phase,1314043,,GW/newhope.png,,,,50,GW/huntsville.png,GW/gatlinburg.png,1,0.6,,,,GW/gatlinburg.png,,,,,One Edge Diff,Two Edge Three Edge,,,,,,
null,,html-keyboard-response,1315048,,<p></p>,,,,null,,,,,,,,,,,,,,,,,,,,
5126,,shortestpath_phase,1320175,,GW/cornwall.png,,,,49,GW/carmel.png,GW/peoria.png,0,0.5714285714285714,,,,GW/peoria.png,,,,,Four Edge Diff,Two Edge Six Edge,,,,,,
null,,html-keyboard-response,1321192,,<p></p>,,,,null,,,,,,,,,,,,,,,,,,,,
2410,,shortestpath_phase,1323604,,GW/carmel.png,,,,49,GW/racine.png,GW/cornwall.png,1,0.5909090909090909,,,,GW/racine.png,,,,,One Edge Diff,Five Edge Six Edge,,,,,,
null,,html-keyboard-response,1324609,,<p></p>,,,,null,,,,,,,,,,,,,,,,,,,,
1790,,shortestpath_phase,1326400,,GW/cornwall.png,,,,50,GW/peoria.png,GW/boulder.png,0,0.5652173913043478,,,,GW/peoria.png,,,,,Three Edge Diff,Three Edge Six Edge,,,,,,
null,,html-keyboard-response,1327422,,<p></p>,,,,null,,,,,,,,,,,,,,,,,,,,
4701,,shortestpath_phase,1332126,,GW/newhope.png,,,,50,GW/huntsville.png,GW/hanover.png,0,0.5416666666666666,,,,GW/huntsville.png,,,,,One Edge Diff,Three Edge Four Edge,,,,,,
null,,html-keyboard-response,1333136,,<p></p>,,,,null,,,,,,,,,,,,,,,,,,,,
3284,,shortestpath_phase,1336421,,GW/boulder.png,,,,49,GW/shreveport.png,GW/cornwall.png,1,0.56,,,,GW/shreveport.png,,,,,Three Edge Diff,Two Edge Five Edge,,,,,,
null,,html-keyboard-response,1337436,,<p></p>,,,,null,,,,,,,,,,,,,,,,,,,,
1581,,shortestpath_phase,1339018,,GW/racine.png,,,,49,GW/leesburg.png,GW/carmel.png,1,0.5769230769230769,,,,GW/leesburg.png,,,,,Three Edge Diff,Three Edge Six Edge,,,,,,
null,,html-keyboard-response,1340033,,<p></p>,,,,null,,,,,,,,,,,,,,,,,,,,
4044,,shortestpath_phase,1344079,,GW/shreveport.png,,,,50,GW/cornwall.png,GW/hotsprings.png,0,0.5555555555555556,,,,GW/cornwall.png,,,,,One Edge Diff,Three Edge Four Edge,,,,,,
null,,html-keyboard-response,1345092,,<p></p>,,,,null,,,,,,,,,,,,,,,,,,,,
2496,,shortestpath_phase,1347588,,GW/leesburg.png,,,,50,GW/shreveport.png,GW/racine.png,1,0.5714285714285714,,,,GW/racine.png,,,,,One Edge Diff,Two Edge Three Edge,,,,,,
null,,html-keyboard-response,1348605,,<p></p>,,,,null,,,,,,,,,,,,,,,,,,,,
3410,,shortestpath_phase,1352017,,GW/hanover.png,,,,49,GW/hotsprings.png,GW/gatlinburg.png,0,0.5517241379310345,,,,GW/gatlinburg.png,,,,,Three Edge Diff,Two Edge Five Edge,,,,,,
null,,html-keyboard-response,1353028,,<p></p>,,,,null,,,,,,,,,,,,,,,,,,,,
3660,,shortestpath_phase,1356689,,GW/shreveport.png,,,,49,GW/racine.png,GW/carmel.png,1,0.5666666666666667,,,,GW/racine.png,,,,,One Edge Diff,Two Edge Three Edge,,,,,,
null,,html-keyboard-response,1357700,,<p></p>,,,,null,,,,,,,,,,,,,,,,,,,,
4558,,shortestpath_phase,1362258,,GW/cornwall.png,,,,50,GW/westpalmbeach.png,GW/leesburg.png,1,0.5806451612903226,,,,GW/leesburg.png,,,,,Two Edge Diff,Three Edge Five Edge,,,,,,
null,,html-keyboard-response,1363263,,<p></p>,,,,null,,,,,,,,,,,,,,,,,,,,
4155,,shortestpath_phase,1367419,,GW/hotsprings.png,,,,49,GW/racine.png,GW/hanover.png,1,0.59375,,,,GW/racine.png,,,,,Three Edge Diff,Three Edge Six Edge,,,,,,
null,,html-keyboard-response,1368428,,<p></p>,,,,null,,,,,,,,,,,,,,,,,,,,
3936,,shortestpath_phase,1372367,,GW/boulder.png,,,,49,GW/cornwall.png,GW/gatlinburg.png,0,0.5757575757575758,,,,GW/gatlinburg.png,,,,,Three Edge Diff,Two Edge Five Edge,,,,,,
null,,html-keyboard-response,1373376,,<p></p>,,,,null,,,,,,,,,,,,,,,,,,,,
4326,,shortestpath_phase,1377702,,GW/westpalmbeach.png,,,,49,GW/peoria.png,GW/cornwall.png,1,0.5882352941176471,,,,GW/peoria.png,,,,,Two Edge Diff,Three Edge Five Edge,,,,,,
null,,html-keyboard-response,1378712,,<p></p>,,,,null,,,,,,,,,,,,,,,,,,,,
4862,,shortestpath_phase,1383578,,GW/boulder.png,,,,50,GW/shreveport.png,GW/hotsprings.png,0,0.5714285714285714,,,,GW/shreveport.png,,,,,Three Edge Diff,Three Edge Six Edge,,,,,,
null,,html-keyboard-response,1384595,,<p></p>,,,,null,,,,,,,,,,,,,,,,,,,,
4345,,shortestpath_phase,1388941,,GW/gatlinburg.png,,,,49,GW/hanover.png,GW/cornwall.png,1,0.5833333333333334,,,,GW/hanover.png,,,,,One Edge Diff,Two Edge Three Edge,,,,,,
null,,html-keyboard-response,1389953,,<p></p>,,,,null,,,,,,,,,,,,,,,,,,,,
1233,,shortestpath_phase,1391190,,GW/hotsprings.png,,,,49,GW/racine.png,GW/huntsville.png,1,0.5945945945945946,,,,GW/racine.png,,,,,Two Edge Diff,Two Edge Four Edge,,,,,,
null,,html-keyboard-response,1392204,,<p></p>,,,,null,,,,,,,,,,,,,,,,,,,,
4993,,shortestpath_phase,1397197,,GW/boulder.png,,,,49,GW/hotsprings.png,GW/gatlinburg.png,0,0.5789473684210527,,,,GW/gatlinburg.png,,,,,Three Edge Diff,Three Edge Six Edge,,,,,,
null,,html-keyboard-response,1398210,,<p></p>,,,,null,,,,,,,,,,,,,,,,,,,,
2502,,shortestpath_phase,1400714,,GW/carmel.png,,,,49,GW/westpalmbeach.png,GW/leesburg.png,1,0.5897435897435898,,,,GW/westpalmbeach.png,,,,,One Edge Diff,Three Edge Four Edge,,,,,,
null,,html-keyboard-response,1401734,,<p></p>,,,,null,,,,,,,,,,,,,,,,,,,,
4642,,shortestpath_phase,1406376,,GW/hotsprings.png,,,,49,GW/shreveport.png,GW/carmel.png,1,0.6,,,,GW/shreveport.png,,,,,Two Edge Diff,Four Edge Six Edge,,,,,,
null,,html-keyboard-response,1407382,,<p></p>,,,,null,,,,,,,,,,,,,,,,,,,,
3906,,shortestpath_phase,1411290,,GW/cornwall.png,,,,50,GW/leesburg.png,GW/hanover.png,0,0.5853658536585366,,,,GW/leesburg.png,,,,,One Edge Diff,Three Edge Four Edge,,,,,,
null,,html-keyboard-response,1412297,,<p></p>,,,,null,,,,,,,,,,,,,,,,,,,,
2916,,shortestpath_phase,1415214,,GW/hotsprings.png,,,,49,GW/hanover.png,GW/shreveport.png,0,0.5714285714285714,,,,GW/shreveport.png,,,,,One Edge Diff,Four Edge Five Edge,,,,,,
null,,html-keyboard-response,1416224,,<p></p>,,,,null,,,,,,,,,,,,,,,,,,,,
2965,,shortestpath_phase,1419191,,GW/carmel.png,,,,50,GW/hanover.png,GW/cornwall.png,0,0.5581395348837209,,,,GW/hanover.png,,,,,Four Edge Diff,Two Edge Six Edge,,,,,,
null,,html-keyboard-response,1420203,,<p></p>,,,,null,,,,,,,,,,,,,,,,,,,,
3525,,shortestpath_phase,1423730,,GW/huntsville.png,,,,49,GW/cornwall.png,GW/racine.png,0,0.5454545454545454,,,,GW/racine.png,,,,,One Edge Diff,Three Edge Four Edge,,,,,,
null,,html-keyboard-response,1424745,,<p></p>,,,,null,,,,,,,,,,,,,,,,,,,,
4739,,shortestpath_phase,1429486,,GW/cornwall.png,,,,49,GW/hanover.png,GW/westpalmbeach.png,1,0.5555555555555556,,,,GW/hanover.png,,,,,One Edge Diff,Four Edge Five Edge,,,,,,
null,,html-keyboard-response,1430491,,<p></p>,,,,null,,,,,,,,,,,,,,,,,,,,
4315,,shortestpath_phase,1434807,,GW/carmel.png,,,,50,GW/huntsville.png,GW/cornwall.png,0,0.5434782608695652,,,,GW/huntsville.png,,,,,Four Edge Diff,Two Edge Six Edge,,,,,,
null,,html-keyboard-response,1435815,,<p></p>,,,,null,,,,,,,,,,,,,,,,,,,,
4307,,shortestpath_phase,1440122,,GW/racine.png,,,,50,GW/westpalmbeach.png,GW/carmel.png,0,0.5319148936170213,,,,GW/westpalmbeach.png,,,,,One Edge Diff,Four Edge Five Edge,,,,,,
null,,html-keyboard-response,1441128,,<p></p>,,,,null,,,,,,,,,,,,,,,,,,,,
4640,,shortestpath_phase,1445769,,GW/carmel.png,,,,49,GW/hotsprings.png,GW/huntsville.png,0,0.5208333333333334,,,,GW/huntsville.png,,,,,Four Edge Diff,Two Edge Six Edge,,,,,,
null,,html-keyboard-response,1446850,,<p></p>,,,,null,,,,,,,,,,,,,,,,,,,,
6295,,shortestpath_phase,1453146,,GW/hotsprings.png,,,,50,GW/leesburg.png,GW/shreveport.png,0,0.5102040816326531,,,,GW/leesburg.png,,,,,Two Edge Diff,Two Edge Four Edge,,,,,,
null,,html-keyboard-response,1454151,,<p></p>,,,,null,,,,,,,,,,,,,,,,,,,,
3677,,shortestpath_phase,1457829,,GW/cornwall.png,,,,49,GW/shreveport.png,GW/boulder.png,1,0.52,,,,GW/shreveport.png,,,,,Two Edge Diff,Three Edge Five Edge,,,,,,
null,,html-keyboard-response,1458848,,<p></p>,,,,null,,,,,,,,,,,,,,,,,,,,
4335,,shortestpath_phase,1463183,,GW/hotsprings.png,,,,49,GW/huntsville.png,GW/westpalmbeach.png,1,0.5294117647058824,,,,GW/huntsville.png,,,,,Two Edge Diff,Four Edge Six Edge,,,,,,
null,,html-keyboard-response,1464200,,<p></p>,,,,null,,,,,,,,,,,,,,,,,,,,
4638,,shortestpath_phase,1468840,,GW/racine.png,,,,50,GW/carmel.png,GW/gatlinburg.png,1,0.5384615384615384,,,,GW/gatlinburg.png,,,,,Three Edge Diff,Two Edge Five Edge,,,,,,
null,,html-keyboard-response,1469857,,<p></p>,,,,null,,,,,,,,,,,,,,,,,,,,
1603,,shortestpath_phase,1471463,,GW/hotsprings.png,,,,49,GW/leesburg.png,GW/westpalmbeach.png,1,0.5471698113207547,,,,GW/leesburg.png,,,,,Four Edge Diff,Two Edge Six Edge,,,,,,
null,,html-keyboard-response,1472477,,<p></p>,,,,null,,,,,,,,,,,,,,,,,,,,
2442,,shortestpath_phase,1474921,,GW/carmel.png,,,,49,GW/hanover.png,GW/hotsprings.png,1,0.5555555555555556,,,,GW/hanover.png,,,,,Four Edge Diff,Two Edge Six Edge,,,,,,
null,,html-keyboard-response,1475935,,<p></p>,,,,null,,,,,,,,,,,,,,,,,,,,
5662,,shortestpath_phase,1481598,,GW/racine.png,,,,50,GW/westpalmbeach.png,GW/shreveport.png,1,0.5636363636363636,,,,GW/shreveport.png,,,,,Two Edge Diff,Two Edge Four Edge,,,,,,
null,,html-keyboard-response,1482617,,<p></p>,,,,null,,,,,,,,,,,,,,,,,,,,
3519,,shortestpath_phase,1486139,,GW/hotsprings.png,,,,50,GW/carmel.png,GW/boulder.png,1,0.5714285714285714,,,,GW/boulder.png,,,,,One Edge Diff,Five Edge Six Edge,,,,,,
null,,html-keyboard-response,1487146,,<p></p>,,,,null,,,,,,,,,,,,,,,,,,,,
3662,,shortestpath_phase,1490810,,GW/westpalmbeach.png,,,,50,GW/huntsville.png,GW/newhope.png,0,0.5614035087719298,,,,GW/huntsville.png,,,,,Three Edge Diff,Two Edge Five Edge,,,,,,
null,,html-keyboard-response,1491817,,<p></p>,,,,null,,,,,,,,,,,,,,,,,,,,
2182,,shortestpath_phase,1494000,,GW/hotsprings.png,,,,49,GW/shreveport.png,GW/westpalmbeach.png,1,0.5689655172413793,,,,GW/shreveport.png,,,,,Two Edge Diff,Four Edge Six Edge,,,,,,
null,,html-keyboard-response,1495015,,<p></p>,,,,null,,,,,,,,,,,,,,,,,,,,
4530,,shortestpath_phase,1499548,,GW/cornwall.png,,,,49,GW/peoria.png,GW/huntsville.png,1,0.576271186440678,,,,GW/peoria.png,,,,,Two Edge Diff,Two Edge Four Edge,,,,,,
null,,html-keyboard-response,1500560,,<p></p>,,,,null,,,,,,,,,,,,,,,,,,,,
3463,,shortestpath_phase,1504026,,GW/boulder.png,,,,49,GW/westpalmbeach.png,GW/cornwall.png,1,0.5833333333333334,,,,GW/westpalmbeach.png,,,,,Three Edge Diff,Two Edge Five Edge,,,,,,
null,,html-keyboard-response,1505042,,<p></p>,,,,null,,,,,,,,,,,,,,,,,,,,
5628,,shortestpath_phase,1510670,,GW/newhope.png,,,,50,GW/peoria.png,GW/westpalmbeach.png,0,0.5737704918032787,,,,GW/peoria.png,,,,,Three Edge Diff,Two Edge Five Edge,,,,,,
null,,html-keyboard-response,1511685,,<p></p>,,,,null,,,,,,,,,,,,,,,,,,,,
5302,,shortestpath_phase,1516989,,GW/carmel.png,,,,49,GW/hanover.png,GW/peoria.png,1,0.5806451612903226,,,,GW/hanover.png,,,,,Two Edge Diff,Two Edge Four Edge,,,,,,
null,,html-keyboard-response,1518002,,<p></p>,,,,null,,,,,,,,,,,,,,,,,,,,
3317,,shortestpath_phase,1521321,,GW/cornwall.png,,,,50,GW/carmel.png,GW/newhope.png,1,0.5873015873015873,,,,GW/newhope.png,,,,,Four Edge Diff,Two Edge Six Edge,,,,,,
null,,html-keyboard-response,1522329,,<p></p>,,,,null,,,,,,,,,,,,,,,,,,,,
2506,,shortestpath_phase,1524837,,GW/boulder.png,,,,50,GW/cornwall.png,GW/shreveport.png,1,0.59375,,,,GW/shreveport.png,,,,,Three Edge Diff,Three Edge Six Edge,,,,,,
null,,html-keyboard-response,1525852,,<p></p>,,,,null,,,,,,,,,,,,,,,,,,,,
1798,,shortestpath_phase,1527651,,GW/hotsprings.png,,,,50,GW/hanover.png,GW/racine.png,1,0.6,,,,GW/racine.png,,,,,Three Edge Diff,Two Edge Five Edge,,,,,,
null,,html-keyboard-response,1528659,,<p></p>,,,,null,,,,,,,,,,,,,,,,,,,,
1972,,shortestpath_phase,1530633,,GW/carmel.png,,,,50,GW/newhope.png,GW/hanover.png,1,0.6060606060606061,,,,GW/hanover.png,,,,,Three Edge Diff,Three Edge Six Edge,,,,,,
null,,html-keyboard-response,1531648,,<p></p>,,,,null,,,,,,,,,,,,,,,,,,,,
3185,,shortestpath_phase,1534835,,GW/boulder.png,,,,50,GW/hotsprings.png,GW/shreveport.png,1,0.6119402985074627,,,,GW/shreveport.png,,,,,Three Edge Diff,Two Edge Five Edge,,,,,,
null,,html-keyboard-response,1535853,,<p></p>,,,,null,,,,,,,,,,,,,,,,,,,,
5090,,shortestpath_phase,1540944,,GW/hotsprings.png,,,,49,GW/westpalmbeach.png,GW/hanover.png,0,0.6029411764705882,,,,GW/hanover.png,,,,,One Edge Diff,Five Edge Six Edge,,,,,,
null,,html-keyboard-response,1541959,,<p></p>,,,,null,,,,,,,,,,,,,,,,,,,,
5209,,shortestpath_phase,1547171,,GW/leesburg.png,,,,49,GW/shreveport.png,GW/westpalmbeach.png,1,0.6086956521739131,,,,GW/shreveport.png,,,,,One Edge Diff,Three Edge Four Edge,,,,,,
null,,html-keyboard-response,1548184,,<p></p>,,,,null,,,,,,,,,,,,,,,,,,,,
1665,,shortestpath_phase,1549851,,GW/newhope.png,,,,50,GW/westpalmbeach.png,GW/peoria.png,1,0.6142857142857143,,,,GW/peoria.png,,,,,Three Edge Diff,Three Edge Six Edge,,,,,,
null,,html-keyboard-response,1550871,,<p></p>,,,,null,,,,,,,,,,,,,,,,,,,,
1814,,shortestpath_phase,1552687,,GW/carmel.png,,,,50,GW/leesburg.png,GW/hotsprings.png,0,0.6056338028169014,,,,GW/leesburg.png,,,,,Two Edge Diff,Four Edge Six Edge,,,,,,
null,,html-keyboard-response,1553696,,<p></p>,,,,null,,,,,,,,,,,,,,,,,,,,
3486,,shortestpath_phase,1557184,,GW/newhope.png,,,,50,GW/carmel.png,GW/huntsville.png,1,0.6111111111111112,,,,GW/huntsville.png,,,,,Two Edge Diff,Three Edge Five Edge,,,,,,
null,,html-keyboard-response,1558193,,<p></p>,,,,null,,,,,,,,,,,,,,,,,,,,
3335,,shortestpath_phase,1561527,,GW/carmel.png,,,,49,GW/leesburg.png,GW/cornwall.png,1,0.6164383561643836,,,,GW/leesburg.png,,,,,Two Edge Diff,Four Edge Six Edge,,,,,,
null,,html-keyboard-response,1562540,,<p></p>,,,,null,,,,,,,,,,,,,,,,,,,,
4565,,shortestpath_phase,1567109,,GW/cornwall.png,,,,49,GW/hanover.png,GW/carmel.png,1,0.6216216216216216,,,,GW/hanover.png,,,,,Two Edge Diff,Four Edge Six Edge,,,,,,
null,,html-keyboard-response,1568114,,<p></p>,,,,null,,,,,,,,,,,,,,,,,,,,
3457,,shortestpath_phase,1571573,,GW/boulder.png,,,,50,GW/hotsprings.png,GW/peoria.png,1,0.6266666666666667,,,,GW/peoria.png,,,,,Two Edge Diff,Three Edge Five Edge,,,,,,
null,,html-keyboard-response,1572591,,<p></p>,,,,null,,,,,,,,,,,,,,,,,,,,
2702,,shortestpath_phase,1575294,,GW/westpalmbeach.png,,,,49,GW/newhope.png,GW/hotsprings.png,1,0.631578947368421,,,,GW/newhope.png,,,,,One Edge Diff,Five Edge Six Edge,,,,,,
null,,html-keyboard-response,1576304,,<p></p>,,,,null,,,,,,,,,,,,,,,,,,,,
3699,,shortestpath_phase,1580004,,GW/peoria.png,,,,50,GW/hanover.png,GW/carmel.png,0,0.6233766233766234,,,,GW/hanover.png,,,,,Two Edge Diff,Two Edge Four Edge,,,,,,
null,,html-keyboard-response,1581024,,<p></p>,,,,null,,,,,,,,,,,,,,,,,,,,
2455,,shortestpath_phase,1583481,,GW/hotsprings.png,,,,49,GW/racine.png,GW/westpalmbeach.png,1,0.6282051282051282,,,,GW/racine.png,,,,,Four Edge Diff,Two Edge Six Edge,,,,,,
null,,html-keyboard-response,1584493,,<p></p>,,,,null,,,,,,,,,,,,,,,,,,,,
2328,,shortestpath_phase,1586823,,GW/shreveport.png,,,,49,GW/westpalmbeach.png,GW/hotsprings.png,1,0.6329113924050633,,,,GW/westpalmbeach.png,,,,,Two Edge Diff,Two Edge Four Edge,,,,,,
null,,html-keyboard-response,1587844,,<p></p>,,,,null,,,,,,,,,,,,,,,,,,,,
2566,,shortestpath_phase,1590411,,GW/hotsprings.png,,,,50,GW/leesburg.png,GW/hanover.png,0,0.625,,,,GW/leesburg.png,,,,,Three Edge Diff,Three Edge Six Edge,,,,,,
null,,html-keyboard-response,1591420,,<p></p>,,,,null,,,,,,,,,,,,,,,,,,,,
3392,,shortestpath_phase,1594813,,GW/gatlinburg.png,,,,50,GW/carmel.png,GW/shreveport.png,1,0.6296296296296297,,,,GW/shreveport.png,,,,,One Edge Diff,Two Edge Three Edge,,,,,,
null,,html-keyboard-response,1595831,,<p></p>,,,,null,,,,,,,,,,,,,,,,,,,,
3662,,shortestpath_phase,1599495,,GW/hotsprings.png,,,,50,GW/boulder.png,GW/leesburg.png,1,0.6341463414634146,,,,GW/leesburg.png,,,,,Three Edge Diff,Two Edge Five Edge,,,,,,
null,,html-keyboard-response,1600507,,<p></p>,,,,null,,,,,,,,,,,,,,,,,,,,
3737,,shortestpath_phase,1604247,,GW/westpalmbeach.png,,,,49,GW/newhope.png,GW/shreveport.png,0,0.6265060240963856,,,,GW/shreveport.png,,,,,Three Edge Diff,Three Edge Six Edge,,,,,,
null,,html-keyboard-response,1605254,,<p></p>,,,,null,,,,,,,,,,,,,,,,,,,,
2254,,shortestpath_phase,1607510,,GW/hotsprings.png,,,,49,GW/racine.png,GW/carmel.png,1,0.6309523809523809,,,,GW/racine.png,,,,,Four Edge Diff,Two Edge Six Edge,,,,,,
null,,html-keyboard-response,1608521,,<p></p>,,,,null,,,,,,,,,,,,,,,,,,,,
2694,,intro_1,1611215,,instruct,,0,,,,,,,,,,,,,,,,,,,,,,
82041,,intro_2,1693258,,instruct,,1,Next,,,,,,,,,,,,,,,,,,,,,
11412,,intro_3,1704671,,instruct,,1,Next,,,,,,,,,,,,,,,,,,,,,
4157,,intro_4,1708828,,instruct,,1,Next,,,,,,,,,,,,,,,,,,,,,
2997,,intro_5,1711827,,instruct,,1,Next,,,,,,,,,,,,,,,,,,,,,
7012,,intro_6,1718841,,instruct,,1,Next,,,,,,,,,,,,,,,,,,,,,
,,Goal Directed Planning,1903098,,GDP-0,,,,,,,,,,,,,,,,,,,peoria.png,leesburg.png,,undefinedimgLdrag06:[x1:74 x2:212 y1:210 y2:218]imgRdrag11:[x1:1074 x2:954 y1:210 y2:181.5999755859375]drag11drag09:[x1:954 x2:846 y1:181.5999755859375 y2:154.5999755859375]drag09drag13:[x1:846 x2:718 y1:154.5999755859375 y2:106]drag13drag02:[x1:718 x2:587 y1:106 y2:101]drag05drag04:[x1:446 x2:596 y1:259.5999755859375 y2:263]drag02drag04:[x1:587 x2:596 y1:101 y2:263]drag07drag08:[x1:436 x2:420 y1:111.5999755859375 y2:245.5999755859375]drag05drag07:[x1:563 x2:436 y1:263 y2:111.5999755859375]drag08drag01:[x1:464 x2:362 y1:283 y2:296]drag01drag10:[x1:362 x2:316 y1:296.0000305175781 y2:145.00003051757812]drag06drag10:[x1:212 x2:316 y1:218.00003051757812 y2:145.00003051757812],false,
,,Goal Directed Planning,2097651,,GDP-1,,,,,,,,,,,,,,,,,,,cornwall.png,huntsville.png,,undefinedimgLdrag02:[x1:74 x2:190 y1:210 y2:207]drag02drag03:[x1:190 x2:352 y1:207 y2:138.5999755859375]drag03drag11:[x1:352 x2:501 y1:138.5999755859375 y2:133.5999755859375]drag11drag12:[x1:447 x2:579 y1:177 y2:137]drag07drag12:[x1:706 x2:579 y1:127.5999755859375 y2:137]drag07drag13:[x1:706 x2:703 y1:127.5999755859375 y2:293]drag13drag08:[x1:699 x2:801 y1:294 y2:281]drag06imgR:[x1:948 x2:1074 y1:169 y2:210]drag10drag05:[x1:883 x2:742 y1:87.5999755859375 y2:60]drag08drag05:[x1:782 x2:758 y1:187 y2:62]drag10drag04:[x1:877 x2:949 y1:63 y2:219.60000610351562]drag06drag04:[x1:1041 x2:949 y1:340.0000305175781 y2:219.60000610351562],false,
,,Goal Directed Planning,2211422,,GDP-2,,,,,,,,,,,,,,,,,,,hanover.png,carmel.png,,undefineddrag12imgL:[x1:197 x2:74 y1:221 y2:210]drag12drag11:[x1:197 x2:303 y1:221 y2:122]imgRdrag05:[x1:1074 x2:972 y1:210 y2:184]drag03drag11:[x1:408 x2:278 y1:193.5999755859375 y2:214]drag02drag03:[x1:496 x2:384 y1:203.5999755859375 y2:205]drag04drag02:[x1:634 x2:496 y1:80 y2:205]drag06drag04:[x1:764 x2:597 y1:115.5999755859375 y2:103]drag06drag09:[x1:701 x2:727 y1:113 y2:257.5999755859375]drag08drag09:[x1:828 x2:727 y1:328.5999755859375 y2:257.5999755859375]drag13drag05:[x1:854 x2:972 y1:60 y2:184]drag13drag01:[x1:952 x2:833 y1:60 y2:135.60000610351562]drag01drag08:[x1:833 x2:828 y1:135.60000610351562 y2:330.0000305175781],false,
,,Goal Directed Planning,2289736,,GDP-3,,,,,,,,,,,,,,,,,,,cornwall.png,hotsprings.png,,undefineddrag02imgL:[x1:200 x2:74 y1:210.5999755859375 y2:210]drag03drag02:[x1:330 x2:198 y1:124.5999755859375 y2:214]drag03drag11:[x1:276 x2:417 y1:136 y2:119.5999755859375]drag11drag12:[x1:377 x2:537 y1:127 y2:156]drag07drag12:[x1:594 x2:463 y1:268.5999755859375 y2:281]drag08drag07:[x1:608 x2:564 y1:137.5999755859375 y2:291]drag09drag08:[x1:732 x2:574 y1:98.5999755859375 y2:151]drag09drag06:[x1:675 x2:795 y1:63 y2:78]drag06drag04:[x1:776 x2:796 y1:60 y2:206]drag10imgR:[x1:912 x2:1074 y1:209.5999755859375 y2:210]drag10drag13:[x1:973 x2:833 y1:214.00003051757812 y2:326.0000305175781]drag13drag04:[x1:833 x2:776 y1:326.0000305175781 y2:181.00003051757812],false,
