rt,responses,trial_type,time_elapsed,sequence,stimulus,graphorder,button_pressed,response,key_press,stimulus_left,stimulus_right,accuracy,cumulative_accuracy,stimulus_down_left,stimulus_down_mid,stimulus_down_right,stimulus_correct,stimulus_short,stimulus_far,weighted_accuracy,missedtrial,condition,specific_pairs,imgL_ID,imgR_ID,linedress,linedressed,detour_trial,linedressed_detor
15303,{worker_id:64014527b3cff9215591758d},id_enter,16524,interleaved,replication,GW/newhope.png; GW/leesburg.png; GW/hotsprings.png; GW/cornwall.png; GW/carmel.png; GW/gatlinburg.png; GW/hanover.png; GW/shreveport.png; GW/westpalmbeach.png; GW/huntsville.png; GW/peoria.png; GW/racine.png; GW/boulder.png,,,,,,,,,,,,,,,,,,,,,,,
7137.5,,fullscreen,23666,,fullscreen,,0,,,,,,,,,,,,,,,,,,,,,,
7196.0999999940395,,intro_1,30862,,instruct,,0,,,,,,,,,,,,,,,,,,,,,,
13081.199999988079,,intro_2,43945,,instruct,,1,Next,,,,,,,,,,,,,,,,,,,,,
6864.799999982119,,intro_3,50810,,instruct,,1,Next,,,,,,,,,,,,,,,,,,,,,
null,,learn_prac_1,53811,,lean_prac_1,,,,null,,,,,,,,,,,,,,,,,,,,
null,,html-keyboard-response,54812,,<p></p>,,,,null,,,,,,,,,,,,,,,,,,,,
2890.100000023842,,intro_1,57702,,instruct,,0,,,,,,,,,,,,,,,,,,,,,,
3376.199999988079,,intro_2,61079,,instruct,,1,Next,,,,,,,,,,,,,,,,,,,,,
null,,learn_prac_2,64081,,lean_prac_2,,,,null,,,,,,,,,,,,,,,,,,,,
null,,html-keyboard-response,65082,,<p></p>,,,,null,,,,,,,,,,,,,,,,,,,,
1657.199999988079,,intro_1,66740,,instruct,,0,,,,,,,,,,,,,,,,,,,,,,
2975.9000000059605,,intro_2,69716,,instruct,,1,Next,,,,,,,,,,,,,,,,,,,,,
18384.70000001788,,intro_3,88102,,instruct,,1,Next,,,,,,,,,,,,,,,,,,,,,
null,,prac_atten_color_black,88604,,black_plus_sign,,,,null,,,,,,,,,,,,,,,,,,,,
876.5999999940395,,prac_atten_color,89504,,prac_stop_color,,,,49,,,,,,,,,,,,,,,,,,,,
null,,prac_atten_color_black,91506,,black_plus_sign,,,,null,,,,,,,,,,,,,,,,,,,,
null,,prac_atten_color_black,92008,,black_plus_sign,,,,null,,,,,,,,,,,,,,,,,,,,
428.59999999403954,,prac_atten_color,92761,,prac_stop_color,,,,50,,,,,,,,,,,,,,,,,,,,
null,,prac_atten_color_black,94762,,black_plus_sign,,,,null,,,,,,,,,,,,,,,,,,,,
null,,prac_atten_color_black,95416,,black_plus_sign,,,,null,,,,,,,,,,,,,,,,,,,,
381.09999999403954,,prac_atten_color,96115,,prac_stop_color,,,,50,,,,,,,,,,,,,,,,,,,,
null,,prac_atten_color_black,98117,,black_plus_sign,,,,null,,,,,,,,,,,,,,,,,,,,
null,,prac_atten_color_black,98821,,black_plus_sign,,,,null,,,,,,,,,,,,,,,,,,,,
483.7999999821186,,prac_atten_color,99360,,prac_stop_color,,,,49,,,,,,,,,,,,,,,,,,,,
null,,prac_atten_color_black,101362,,black_plus_sign,,,,null,,,,,,,,,,,,,,,,,,,,
null,,prac_atten_color_black,102225,,black_plus_sign,,,,null,,,,,,,,,,,,,,,,,,,,
null,,prac_atten_color,102798,,prac_stop_color,,,,null,,,,,,,,,,,,,,,,,,,,
36.10000002384186,,prac_atten_color_black,104799,,black_plus_sign,,,,50,,,,,,,,,,,,,,,,,,,,
null,,prac_atten_color_black,105629,,black_plus_sign,,,,null,,,,,,,,,,,,,,,,,,,,
null,,prac_atten_color,106235,,prac_stop_color,,,,null,,,,,,,,,,,,,,,,,,,,
128,,prac_atten_color_black,108236,,black_plus_sign,,,,50,,,,,,,,,,,,,,,,,,,,
null,,prac_atten_color_black,109032,,black_plus_sign,,,,null,,,,,,,,,,,,,,,,,,,,
476.09999999403954,,prac_atten_color,109958,,prac_stop_color,,,,49,,,,,,,,,,,,,,,,,,,,
null,,prac_atten_color_black,111960,,black_plus_sign,,,,null,,,,,,,,,,,,,,,,,,,,
null,,prac_atten_color_black,112437,,black_plus_sign,,,,null,,,,,,,,,,,,,,,,,,,,
null,,prac_atten_color,112890,,prac_stop_color,,,,null,,,,,,,,,,,,,,,,,,,,
26.100000023841858,,prac_atten_color_black,114892,,black_plus_sign,,,,50,,,,,,,,,,,,,,,,,,,,
null,,prac_atten_color_black,115840,,black_plus_sign,,,,null,,,,,,,,,,,,,,,,,,,,
null,,prac_atten_color,116397,,prac_stop_color,,,,null,,,,,,,,,,,,,,,,,,,,
166,,prac_atten_color_black,118398,,black_plus_sign,,,,49,,,,,,,,,,,,,,,,,,,,
null,,prac_atten_color_black,119244,,black_plus_sign,,,,null,,,,,,,,,,,,,,,,,,,,
666.0999999940395,,prac_atten_color,120253,,prac_stop_color,,,,49,,,,,,,,,,,,,,,,,,,,
null,,prac_atten_color_black,122254,,black_plus_sign,,,,null,,,,,,,,,,,,,,,,,,,,
5220.0999999940395,,attentioncheck_feedback,127475,,cross_check_feedback,,0,,,,,,,,,,,,,,,,,,,,,,
19226.69999998808,,last_instruct,146703,,instruct,,,,32,,,,,,,,,,,,,,,,,,,,
null,,learn_phase(without_color),149703,,black_plus_sign,,,,null,GW/gatlinburg.png,GW/hotsprings.png,,,,,,,,,,,,,,,,,,
null,,black_cross(without_color),150455,,yellow,,,,null,GW/gatlinburg.png,GW/hotsprings.png,,,,,,,,,,,,,,,,,,
479.7000000178814,,rt_plussign_withcolor,150956,,yellow,,,,50,GW/gatlinburg.png,GW/hotsprings.png,,,,,,,,,,,,,,,,,,
null,,rt_thecrossant_black,152207,,black_plus_sign,,,,null,,,1,1,,,,,,,,,,,,,,,,
null,,color_black,152309,,black_plus_sign,,,,null,,,,,,,,,,,,,,,,,,,,
null,,learn_phase(without_color),155310,,black_plus_sign,,,,null,GW/shreveport.png,GW/huntsville.png,,,,,,,,,,,,,,,,,,
null,,black_cross(without_color),155759,,blue,,,,null,GW/shreveport.png,GW/huntsville.png,,,,,,,,,,,,,,,,,,
null,,rt_plussign_withcolor,156260,,blue,,,,null,GW/shreveport.png,GW/huntsville.png,,,,,,,,,,,,,,,,,,
1157.0999999940395,,rt_thecrossant_black,157814,,black_plus_sign,,,,49,,,1,1,,,,,,,,,,,,,,,,
null,,color_black,157914,,black_plus_sign,,,,null,,,,,,,,,,,,,,,,,,,,
null,,learn_phase(without_color),160915,,black_plus_sign,,,,null,GW/leesburg.png,GW/newhope.png,,,,,,,,,,,,,,,,,,
null,,black_cross(without_color),161584,,yellow,,,,null,GW/leesburg.png,GW/newhope.png,,,,,,,,,,,,,,,,,,
424.59999999403954,,rt_plussign_withcolor,162085,,yellow,,,,50,GW/leesburg.png,GW/newhope.png,,,,,,,,,,,,,,,,,,
null,,rt_thecrossant_black,163418,,black_plus_sign,,,,null,,,1,1,,,,,,,,,,,,,,,,
null,,color_black,163520,,black_plus_sign,,,,null,,,,,,,,,,,,,,,,,,,,
null,,learn_phase(without_color),166521,,black_plus_sign,,,,null,GW/carmel.png,GW/cornwall.png,,,,,,,,,,,,,,,,,,
null,,black_cross(without_color),167210,,yellow,,,,null,GW/carmel.png,GW/cornwall.png,,,,,,,,,,,,,,,,,,
null,,rt_plussign_withcolor,167711,,yellow,,,,null,GW/carmel.png,GW/cornwall.png,,,,,,,,,,,,,,,,,,
1221.4000000059605,,rt_thecrossant_black,169025,,black_plus_sign,,,,50,,,1,1,,,,,,,,,,,,,,,,
null,,color_black,169127,,black_plus_sign,,,,null,,,,,,,,,,,,,,,,,,,,
null,,learn_phase(without_color),172139,,black_plus_sign,,,,null,GW/carmel.png,GW/cornwall.png,,,,,,,,,,,,,,,,,,
null,,black_cross(without_color),172540,,blue,,,,null,GW/carmel.png,GW/cornwall.png,,,,,,,,,,,,,,,,,,
null,,rt_plussign_withcolor,173041,,blue,,,,null,GW/carmel.png,GW/cornwall.png,,,,,,,,,,,,,,,,,,
1170.7999999821186,,rt_thecrossant_black,174641,,black_plus_sign,,,,49,,,1,1,,,,,,,,,,,,,,,,
null,,color_black,174743,,black_plus_sign,,,,null,,,,,,,,,,,,,,,,,,,,
null,,learn_phase(without_color),177743,,black_plus_sign,,,,null,GW/hanover.png,GW/shreveport.png,,,,,,,,,,,,,,,,,,
null,,black_cross(without_color),178280,,yellow,,,,null,GW/hanover.png,GW/shreveport.png,,,,,,,,,,,,,,,,,,
null,,rt_plussign_withcolor,178782,,yellow,,,,null,GW/hanover.png,GW/shreveport.png,,,,,,,,,,,,,,,,,,
772.6999999880791,,rt_thecrossant_black,180246,,black_plus_sign,,,,50,,,1,1,,,,,,,,,,,,,,,,
null,,color_black,180347,,black_plus_sign,,,,null,,,,,,,,,,,,,,,,,,,,
null,,learn_phase(without_color),183348,,black_plus_sign,,,,null,GW/hanover.png,GW/westpalmbeach.png,,,,,,,,,,,,,,,,,,
null,,black_cross(without_color),184242,,blue,,,,null,GW/hanover.png,GW/westpalmbeach.png,,,,,,,,,,,,,,,,,,
437,,rt_plussign_withcolor,184744,,blue,,,,49,GW/hanover.png,GW/westpalmbeach.png,,,,,,,,,,,,,,,,,,
null,,rt_thecrossant_black,185854,,black_plus_sign,,,,null,,,1,1,,,,,,,,,,,,,,,,
null,,color_black,185955,,black_plus_sign,,,,null,,,,,,,,,,,,,,,,,,,,
null,,learn_phase(without_color),188957,,black_plus_sign,,,,null,GW/shreveport.png,GW/hanover.png,,,,,,,,,,,,,,,,,,
null,,black_cross(without_color),189527,,yellow,,,,null,GW/shreveport.png,GW/hanover.png,,,,,,,,,,,,,,,,,,
null,,rt_plussign_withcolor,190029,,yellow,,,,null,GW/shreveport.png,GW/hanover.png,,,,,,,,,,,,,,,,,,
1191.4000000059605,,rt_thecrossant_black,191460,,black_plus_sign,,,,50,,,1,1,,,,,,,,,,,,,,,,
null,,color_black,191561,,black_plus_sign,,,,null,,,,,,,,,,,,,,,,,,,,
null,,learn_phase(without_color),194563,,black_plus_sign,,,,null,GW/boulder.png,GW/hanover.png,,,,,,,,,,,,,,,,,,
null,,black_cross(without_color),195125,,yellow,,,,null,GW/boulder.png,GW/hanover.png,,,,,,,,,,,,,,,,,,
null,,rt_plussign_withcolor,195626,,yellow,,,,null,GW/boulder.png,GW/hanover.png,,,,,,,,,,,,,,,,,,
1224.0999999940395,,rt_thecrossant_black,197067,,black_plus_sign,,,,50,,,1,1,,,,,,,,,,,,,,,,
null,,color_black,197169,,black_plus_sign,,,,null,,,,,,,,,,,,,,,,,,,,
null,,learn_phase(without_color),200170,,black_plus_sign,,,,null,GW/cornwall.png,GW/carmel.png,,,,,,,,,,,,,,,,,,
null,,black_cross(without_color),200669,,yellow,,,,null,GW/cornwall.png,GW/carmel.png,,,,,,,,,,,,,,,,,,
null,,rt_plussign_withcolor,201170,,yellow,,,,null,GW/cornwall.png,GW/carmel.png,,,,,,,,,,,,,,,,,,
754.0999999940395,,rt_thecrossant_black,202675,,black_plus_sign,,,,50,,,1,1,,,,,,,,,,,,,,,,
null,,color_black,202776,,black_plus_sign,,,,null,,,,,,,,,,,,,,,,,,,,
null,,learn_phase(without_color),205780,,black_plus_sign,,,,null,GW/racine.png,GW/peoria.png,,,,,,,,,,,,,,,,,,
null,,black_cross(without_color),206424,,blue,,,,null,GW/racine.png,GW/peoria.png,,,,,,,,,,,,,,,,,,
480.30000001192093,,rt_plussign_withcolor,206925,,blue,,,,49,GW/racine.png,GW/peoria.png,,,,,,,,,,,,,,,,,,
null,,rt_thecrossant_black,208283,,black_plus_sign,,,,null,,,1,1,,,,,,,,,,,,,,,,
null,,color_black,208384,,black_plus_sign,,,,null,,,,,,,,,,,,,,,,,,,,
null,,learn_phase(without_color),211385,,black_plus_sign,,,,null,GW/peoria.png,GW/westpalmbeach.png,,,,,,,,,,,,,,,,,,
null,,black_cross(without_color),212112,,blue,,,,null,GW/peoria.png,GW/westpalmbeach.png,,,,,,,,,,,,,,,,,,
null,,rt_plussign_withcolor,212612,,blue,,,,null,GW/peoria.png,GW/westpalmbeach.png,,,,,,,,,,,,,,,,,,
1182.5,,rt_thecrossant_black,213889,,black_plus_sign,,,,49,,,1,1,,,,,,,,,,,,,,,,
null,,color_black,213990,,black_plus_sign,,,,null,,,,,,,,,,,,,,,,,,,,
null,,learn_phase(without_color),216992,,black_plus_sign,,,,null,GW/leesburg.png,GW/newhope.png,,,,,,,,,,,,,,,,,,
null,,black_cross(without_color),218040,,blue,,,,null,GW/leesburg.png,GW/newhope.png,,,,,,,,,,,,,,,,,,
440.90000000596046,,rt_plussign_withcolor,218542,,blue,,,,49,GW/leesburg.png,GW/newhope.png,,,,,,,,,,,,,,,,,,
null,,rt_thecrossant_black,219496,,black_plus_sign,,,,null,,,1,1,,,,,,,,,,,,,,,,
null,,color_black,219597,,black_plus_sign,,,,null,,,,,,,,,,,,,,,,,,,,
null,,learn_phase(without_color),222598,,black_plus_sign,,,,null,GW/peoria.png,GW/westpalmbeach.png,,,,,,,,,,,,,,,,,,
null,,black_cross(without_color),223586,,blue,,,,null,GW/peoria.png,GW/westpalmbeach.png,,,,,,,,,,,,,,,,,,
null,,rt_plussign_withcolor,224086,,blue,,,,null,GW/peoria.png,GW/westpalmbeach.png,,,,,,,,,,,,,,,,,,
1149.5,,rt_thecrossant_black,225100,,black_plus_sign,,,,49,,,1,1,,,,,,,,,,,,,,,,
null,,color_black,225201,,black_plus_sign,,,,null,,,,,,,,,,,,,,,,,,,,
null,,learn_phase(without_color),228202,,black_plus_sign,,,,null,GW/peoria.png,GW/hotsprings.png,,,,,,,,,,,,,,,,,,
null,,black_cross(without_color),229248,,blue,,,,null,GW/peoria.png,GW/hotsprings.png,,,,,,,,,,,,,,,,,,
464.90000000596046,,rt_plussign_withcolor,229750,,blue,,,,50,GW/peoria.png,GW/hotsprings.png,,,,,,,,,,,,,,,,,,
null,,rt_thecrossant_black,230706,,black_plus_sign,,,,49,,,0,0.9333333333333333,,,,,,,,,,,,,,,,
null,,color_black,230808,,black_plus_sign,,,,null,,,,,,,,,,,,,,,,,,,,
null,,learn_phase(without_color),233809,,black_plus_sign,,,,null,GW/racine.png,GW/peoria.png,,,,,,,,,,,,,,,,,,
null,,black_cross(without_color),234410,,yellow,,,,null,GW/racine.png,GW/peoria.png,,,,,,,,,,,,,,,,,,
null,,rt_plussign_withcolor,234911,,yellow,,,,null,GW/racine.png,GW/peoria.png,,,,,,,,,,,,,,,,,,
1321.9000000059605,,rt_thecrossant_black,236313,,black_plus_sign,,,,50,,,1,0.9375,,,,,,,,,,,,,,,,
null,,color_black,236415,,black_plus_sign,,,,null,,,,,,,,,,,,,,,,,,,,
null,,learn_phase(without_color),239416,,black_plus_sign,,,,null,GW/hanover.png,GW/westpalmbeach.png,,,,,,,,,,,,,,,,,,
null,,black_cross(without_color),240286,,blue,,,,null,GW/hanover.png,GW/westpalmbeach.png,,,,,,,,,,,,,,,,,,
null,,rt_plussign_withcolor,240787,,blue,,,,null,GW/hanover.png,GW/westpalmbeach.png,,,,,,,,,,,,,,,,,,
912.7000000178814,,rt_thecrossant_black,241919,,black_plus_sign,,,,49,,,1,0.9411764705882353,,,,,,,,,,,,,,,,
null,,color_black,242021,,black_plus_sign,,,,null,,,,,,,,,,,,,,,,,,,,
null,,learn_phase(without_color),245022,,black_plus_sign,,,,null,GW/westpalmbeach.png,GW/hanover.png,,,,,,,,,,,,,,,,,,
null,,black_cross(without_color),245596,,blue,,,,null,GW/westpalmbeach.png,GW/hanover.png,,,,,,,,,,,,,,,,,,
null,,rt_plussign_withcolor,246096,,blue,,,,null,GW/westpalmbeach.png,GW/hanover.png,,,,,,,,,,,,,,,,,,
1358,,rt_thecrossant_black,247525,,black_plus_sign,,,,49,,,1,0.9444444444444444,,,,,,,,,,,,,,,,
null,,color_black,247626,,black_plus_sign,,,,null,,,,,,,,,,,,,,,,,,,,
null,,learn_phase(without_color),250627,,black_plus_sign,,,,null,GW/hotsprings.png,GW/leesburg.png,,,,,,,,,,,,,,,,,,
null,,black_cross(without_color),251519,,blue,,,,null,GW/hotsprings.png,GW/leesburg.png,,,,,,,,,,,,,,,,,,
null,,rt_plussign_withcolor,252020,,blue,,,,null,GW/hotsprings.png,GW/leesburg.png,,,,,,,,,,,,,,,,,,
708,,rt_thecrossant_black,253132,,black_plus_sign,,,,49,,,1,0.9473684210526315,,,,,,,,,,,,,,,,
null,,color_black,253234,,black_plus_sign,,,,null,,,,,,,,,,,,,,,,,,,,
null,,learn_phase(without_color),256236,,black_plus_sign,,,,null,GW/peoria.png,GW/racine.png,,,,,,,,,,,,,,,,,,
null,,black_cross(without_color),257139,,yellow,,,,null,GW/peoria.png,GW/racine.png,,,,,,,,,,,,,,,,,,
459.5,,rt_plussign_withcolor,257640,,yellow,,,,50,GW/peoria.png,GW/racine.png,,,,,,,,,,,,,,,,,,
null,,rt_thecrossant_black,258738,,black_plus_sign,,,,null,,,1,0.95,,,,,,,,,,,,,,,,
null,,color_black,258839,,black_plus_sign,,,,null,,,,,,,,,,,,,,,,,,,,
null,,learn_phase(without_color),261841,,black_plus_sign,,,,null,GW/westpalmbeach.png,GW/gatlinburg.png,,,,,,,,,,,,,,,,,,
null,,black_cross(without_color),262433,,blue,,,,null,GW/westpalmbeach.png,GW/gatlinburg.png,,,,,,,,,,,,,,,,,,
null,,rt_plussign_withcolor,262934,,blue,,,,null,GW/westpalmbeach.png,GW/gatlinburg.png,,,,,,,,,,,,,,,,,,
1029.9000000059605,,rt_thecrossant_black,264344,,black_plus_sign,,,,49,,,1,0.9523809523809523,,,,,,,,,,,,,,,,
null,,color_black,264446,,black_plus_sign,,,,null,,,,,,,,,,,,,,,,,,,,
null,,learn_phase(without_color),267447,,black_plus_sign,,,,null,GW/racine.png,GW/cornwall.png,,,,,,,,,,,,,,,,,,
null,,black_cross(without_color),268294,,yellow,,,,null,GW/racine.png,GW/cornwall.png,,,,,,,,,,,,,,,,,,
null,,rt_plussign_withcolor,268795,,yellow,,,,null,GW/racine.png,GW/cornwall.png,,,,,,,,,,,,,,,,,,
769.2000000178814,,rt_thecrossant_black,269951,,black_plus_sign,,,,50,,,1,0.9545454545454546,,,,,,,,,,,,,,,,
null,,color_black,270052,,black_plus_sign,,,,null,,,,,,,,,,,,,,,,,,,,
null,,learn_phase(without_color),273055,,black_plus_sign,,,,null,GW/shreveport.png,GW/westpalmbeach.png,,,,,,,,,,,,,,,,,,
null,,black_cross(without_color),273489,,yellow,,,,null,GW/shreveport.png,GW/westpalmbeach.png,,,,,,,,,,,,,,,,,,
null,,rt_plussign_withcolor,273990,,yellow,,,,null,GW/shreveport.png,GW/westpalmbeach.png,,,,,,,,,,,,,,,,,,
1173.0999999940395,,rt_thecrossant_black,275559,,black_plus_sign,,,,50,,,1,0.9565217391304348,,,,,,,,,,,,,,,,
null,,color_black,275661,,black_plus_sign,,,,null,,,,,,,,,,,,,,,,,,,,
null,,learn_phase(without_color),278663,,black_plus_sign,,,,null,GW/hotsprings.png,GW/peoria.png,,,,,,,,,,,,,,,,,,
null,,black_cross(without_color),279487,,yellow,,,,null,GW/hotsprings.png,GW/peoria.png,,,,,,,,,,,,,,,,,,
null,,rt_plussign_withcolor,279988,,yellow,,,,null,GW/hotsprings.png,GW/peoria.png,,,,,,,,,,,,,,,,,,
810.6999999880791,,rt_thecrossant_black,281166,,black_plus_sign,,,,50,,,1,0.9583333333333334,,,,,,,,,,,,,,,,
null,,color_black,281267,,black_plus_sign,,,,null,,,,,,,,,,,,,,,,,,,,
null,,learn_phase(without_color),284269,,black_plus_sign,,,,null,GW/leesburg.png,GW/cornwall.png,,,,,,,,,,,,,,,,,,
null,,black_cross(without_color),285260,,yellow,,,,null,GW/leesburg.png,GW/cornwall.png,,,,,,,,,,,,,,,,,,
null,,rt_plussign_withcolor,285762,,yellow,,,,null,GW/leesburg.png,GW/cornwall.png,,,,,,,,,,,,,,,,,,
1351.7000000178814,,rt_thecrossant_black,286773,,black_plus_sign,,,,50,,,1,0.96,,,,,,,,,,,,,,,,
null,,color_black,286874,,black_plus_sign,,,,null,,,,,,,,,,,,,,,,,,,,
null,,learn_phase(without_color),289876,,black_plus_sign,,,,null,GW/boulder.png,GW/hanover.png,,,,,,,,,,,,,,,,,,
null,,black_cross(without_color),290744,,blue,,,,null,GW/boulder.png,GW/hanover.png,,,,,,,,,,,,,,,,,,
null,,rt_plussign_withcolor,291245,,blue,,,,null,GW/boulder.png,GW/hanover.png,,,,,,,,,,,,,,,,,,
1542.6000000238419,,rt_thecrossant_black,292380,,black_plus_sign,,,,49,,,1,0.9615384615384616,,,,,,,,,,,,,,,,
null,,color_black,292480,,black_plus_sign,,,,null,,,,,,,,,,,,,,,,,,,,
null,,learn_phase(without_color),295482,,black_plus_sign,,,,null,GW/shreveport.png,GW/huntsville.png,,,,,,,,,,,,,,,,,,
null,,black_cross(without_color),296197,,yellow,,,,null,GW/shreveport.png,GW/huntsville.png,,,,,,,,,,,,,,,,,,
null,,rt_plussign_withcolor,296699,,yellow,,,,null,GW/shreveport.png,GW/huntsville.png,,,,,,,,,,,,,,,,,,
1270.7999999821186,,rt_thecrossant_black,297985,,black_plus_sign,,,,50,,,1,0.9629629629629629,,,,,,,,,,,,,,,,
null,,color_black,298086,,black_plus_sign,,,,null,,,,,,,,,,,,,,,,,,,,
null,,learn_phase(without_color),301087,,black_plus_sign,,,,null,GW/racine.png,GW/cornwall.png,,,,,,,,,,,,,,,,,,
null,,black_cross(without_color),302083,,blue,,,,null,GW/racine.png,GW/cornwall.png,,,,,,,,,,,,,,,,,,
null,,rt_plussign_withcolor,302585,,blue,,,,null,GW/racine.png,GW/cornwall.png,,,,,,,,,,,,,,,,,,
929.9000000059605,,rt_thecrossant_black,303591,,black_plus_sign,,,,49,,,1,0.9642857142857143,,,,,,,,,,,,,,,,
null,,color_black,303692,,black_plus_sign,,,,null,,,,,,,,,,,,,,,,,,,,
null,,learn_phase(without_color),306693,,black_plus_sign,,,,null,GW/shreveport.png,GW/huntsville.png,,,,,,,,,,,,,,,,,,
null,,black_cross(without_color),307101,,blue,,,,null,GW/shreveport.png,GW/huntsville.png,,,,,,,,,,,,,,,,,,
null,,rt_plussign_withcolor,307602,,blue,,,,null,GW/shreveport.png,GW/huntsville.png,,,,,,,,,,,,,,,,,,
1425.800000011921,,rt_thecrossant_black,309197,,black_plus_sign,,,,49,,,1,0.9655172413793104,,,,,,,,,,,,,,,,
null,,color_black,309299,,black_plus_sign,,,,null,,,,,,,,,,,,,,,,,,,,
null,,learn_phase(without_color),312300,,black_plus_sign,,,,null,GW/shreveport.png,GW/hanover.png,,,,,,,,,,,,,,,,,,
null,,black_cross(without_color),313007,,blue,,,,null,GW/shreveport.png,GW/hanover.png,,,,,,,,,,,,,,,,,,
null,,rt_plussign_withcolor,313508,,blue,,,,null,GW/shreveport.png,GW/hanover.png,,,,,,,,,,,,,,,,,,
599,,rt_thecrossant_black,314803,,black_plus_sign,,,,49,,,1,0.9666666666666667,,,,,,,,,,,,,,,,
null,,color_black,314905,,black_plus_sign,,,,null,,,,,,,,,,,,,,,,,,,,
null,,learn_phase(without_color),317907,,black_plus_sign,,,,null,GW/shreveport.png,GW/westpalmbeach.png,,,,,,,,,,,,,,,,,,
null,,black_cross(without_color),318634,,yellow,,,,null,GW/shreveport.png,GW/westpalmbeach.png,,,,,,,,,,,,,,,,,,
null,,rt_plussign_withcolor,319135,,yellow,,,,null,GW/shreveport.png,GW/westpalmbeach.png,,,,,,,,,,,,,,,,,,
1063.199999988079,,rt_thecrossant_black,320411,,black_plus_sign,,,,50,,,1,0.967741935483871,,,,,,,,,,,,,,,,
null,,color_black,320512,,black_plus_sign,,,,null,,,,,,,,,,,,,,,,,,,,
null,,learn_phase(without_color),323514,,black_plus_sign,,,,null,GW/peoria.png,GW/hotsprings.png,,,,,,,,,,,,,,,,,,
null,,black_cross(without_color),324147,,yellow,,,,null,GW/peoria.png,GW/hotsprings.png,,,,,,,,,,,,,,,,,,
null,,rt_plussign_withcolor,324655,,yellow,,,,null,GW/peoria.png,GW/hotsprings.png,,,,,,,,,,,,,,,,,,
1461,,rt_thecrossant_black,326023,,black_plus_sign,,,,50,,,1,0.96875,,,,,,,,,,,,,,,,
null,,color_black,326125,,black_plus_sign,,,,null,,,,,,,,,,,,,,,,,,,,
null,,learn_phase(without_color),329126,,black_plus_sign,,,,null,GW/hanover.png,GW/westpalmbeach.png,,,,,,,,,,,,,,,,,,
null,,black_cross(without_color),329867,,blue,,,,null,GW/hanover.png,GW/westpalmbeach.png,,,,,,,,,,,,,,,,,,
null,,rt_plussign_withcolor,330368,,blue,,,,null,GW/hanover.png,GW/westpalmbeach.png,,,,,,,,,,,,,,,,,,
844.6999999880791,,rt_thecrossant_black,331630,,black_plus_sign,,,,49,,,1,0.9696969696969697,,,,,,,,,,,,,,,,
null,,color_black,331732,,black_plus_sign,,,,null,,,,,,,,,,,,,,,,,,,,
null,,learn_phase(without_color),334733,,black_plus_sign,,,,null,GW/racine.png,GW/cornwall.png,,,,,,,,,,,,,,,,,,
null,,black_cross(without_color),335289,,yellow,,,,null,GW/racine.png,GW/cornwall.png,,,,,,,,,,,,,,,,,,
null,,rt_plussign_withcolor,335790,,yellow,,,,null,GW/racine.png,GW/cornwall.png,,,,,,,,,,,,,,,,,,
1260.699999988079,,rt_thecrossant_black,337235,,black_plus_sign,,,,50,,,1,0.9705882352941176,,,,,,,,,,,,,,,,
null,,color_black,337336,,black_plus_sign,,,,null,,,,,,,,,,,,,,,,,,,,
null,,learn_phase(without_color),340337,,black_plus_sign,,,,null,GW/westpalmbeach.png,GW/shreveport.png,,,,,,,,,,,,,,,,,,
null,,black_cross(without_color),341388,,blue,,,,null,GW/westpalmbeach.png,GW/shreveport.png,,,,,,,,,,,,,,,,,,
null,,rt_plussign_withcolor,341889,,blue,,,,null,GW/westpalmbeach.png,GW/shreveport.png,,,,,,,,,,,,,,,,,,
808.2999999821186,,rt_thecrossant_black,342841,,black_plus_sign,,,,49,,,1,0.9714285714285714,,,,,,,,,,,,,,,,
null,,color_black,342943,,black_plus_sign,,,,null,,,,,,,,,,,,,,,,,,,,
null,,learn_phase(without_color),345944,,black_plus_sign,,,,null,GW/westpalmbeach.png,GW/shreveport.png,,,,,,,,,,,,,,,,,,
null,,black_cross(without_color),346524,,yellow,,,,null,GW/westpalmbeach.png,GW/shreveport.png,,,,,,,,,,,,,,,,,,
null,,rt_plussign_withcolor,347025,,yellow,,,,null,GW/westpalmbeach.png,GW/shreveport.png,,,,,,,,,,,,,,,,,,
1421.4000000059605,,rt_thecrossant_black,348447,,black_plus_sign,,,,50,,,1,0.9722222222222222,,,,,,,,,,,,,,,,
null,,color_black,348549,,black_plus_sign,,,,null,,,,,,,,,,,,,,,,,,,,
null,,learn_phase(without_color),351551,,black_plus_sign,,,,null,GW/boulder.png,GW/hanover.png,,,,,,,,,,,,,,,,,,
null,,black_cross(without_color),352099,,yellow,,,,null,GW/boulder.png,GW/hanover.png,,,,,,,,,,,,,,,,,,
null,,rt_plussign_withcolor,352601,,yellow,,,,null,GW/boulder.png,GW/hanover.png,,,,,,,,,,,,,,,,,,
835.6999999880791,,rt_thecrossant_black,354054,,black_plus_sign,,,,50,,,1,0.972972972972973,,,,,,,,,,,,,,,,
null,,color_black,354154,,black_plus_sign,,,,null,,,,,,,,,,,,,,,,,,,,
null,,learn_phase(without_color),357156,,black_plus_sign,,,,null,GW/leesburg.png,GW/hotsprings.png,,,,,,,,,,,,,,,,,,
null,,black_cross(without_color),357945,,blue,,,,null,GW/leesburg.png,GW/hotsprings.png,,,,,,,,,,,,,,,,,,
null,,rt_plussign_withcolor,358446,,blue,,,,null,GW/leesburg.png,GW/hotsprings.png,,,,,,,,,,,,,,,,,,
687.1999999880791,,rt_thecrossant_black,359659,,black_plus_sign,,,,49,,,1,0.9736842105263158,,,,,,,,,,,,,,,,
null,,color_black,359760,,black_plus_sign,,,,null,,,,,,,,,,,,,,,,,,,,
null,,learn_phase(without_color),362762,,black_plus_sign,,,,null,GW/gatlinburg.png,GW/hanover.png,,,,,,,,,,,,,,,,,,
null,,black_cross(without_color),363606,,yellow,,,,null,GW/gatlinburg.png,GW/hanover.png,,,,,,,,,,,,,,,,,,
null,,rt_plussign_withcolor,364107,,yellow,,,,null,GW/gatlinburg.png,GW/hanover.png,,,,,,,,,,,,,,,,,,
1018.7000000178814,,rt_thecrossant_black,365264,,black_plus_sign,,,,50,,,1,0.9743589743589743,,,,,,,,,,,,,,,,
null,,color_black,365366,,black_plus_sign,,,,null,,,,,,,,,,,,,,,,,,,,
null,,learn_phase(without_color),368368,,black_plus_sign,,,,null,GW/racine.png,GW/cornwall.png,,,,,,,,,,,,,,,,,,
null,,black_cross(without_color),369139,,blue,,,,null,GW/racine.png,GW/cornwall.png,,,,,,,,,,,,,,,,,,
null,,rt_plussign_withcolor,369640,,blue,,,,null,GW/racine.png,GW/cornwall.png,,,,,,,,,,,,,,,,,,
1137.9000000059605,,rt_thecrossant_black,370872,,black_plus_sign,,,,49,,,1,0.975,,,,,,,,,,,,,,,,
null,,color_black,370973,,black_plus_sign,,,,null,,,,,,,,,,,,,,,,,,,,
null,,learn_phase(without_color),373974,,black_plus_sign,,,,null,GW/cornwall.png,GW/carmel.png,,,,,,,,,,,,,,,,,,
null,,black_cross(without_color),374760,,blue,,,,null,GW/cornwall.png,GW/carmel.png,,,,,,,,,,,,,,,,,,
null,,rt_plussign_withcolor,375260,,blue,,,,null,GW/cornwall.png,GW/carmel.png,,,,,,,,,,,,,,,,,,
1144.9000000059605,,rt_thecrossant_black,376476,,black_plus_sign,,,,49,,,1,0.975609756097561,,,,,,,,,,,,,,,,
null,,color_black,376578,,black_plus_sign,,,,null,,,,,,,,,,,,,,,,,,,,
null,,learn_phase(without_color),379579,,black_plus_sign,,,,null,GW/westpalmbeach.png,GW/hanover.png,,,,,,,,,,,,,,,,,,
null,,black_cross(without_color),380434,,blue,,,,null,GW/westpalmbeach.png,GW/hanover.png,,,,,,,,,,,,,,,,,,
null,,rt_plussign_withcolor,380934,,blue,,,,null,GW/westpalmbeach.png,GW/hanover.png,,,,,,,,,,,,,,,,,,
1068.5,,rt_thecrossant_black,382083,,black_plus_sign,,,,49,,,1,0.9761904761904762,,,,,,,,,,,,,,,,
null,,color_black,382184,,black_plus_sign,,,,null,,,,,,,,,,,,,,,,,,,,
null,,learn_phase(without_color),385186,,black_plus_sign,,,,null,GW/newhope.png,GW/leesburg.png,,,,,,,,,,,,,,,,,,
null,,black_cross(without_color),385815,,yellow,,,,null,GW/newhope.png,GW/leesburg.png,,,,,,,,,,,,,,,,,,
null,,rt_plussign_withcolor,386316,,yellow,,,,null,GW/newhope.png,GW/leesburg.png,,,,,,,,,,,,,,,,,,
1300.9000000059605,,rt_thecrossant_black,387689,,black_plus_sign,,,,50,,,1,0.9767441860465116,,,,,,,,,,,,,,,,
null,,color_black,387791,,black_plus_sign,,,,null,,,,,,,,,,,,,,,,,,,,
null,,learn_phase(without_color),390801,,black_plus_sign,,,,null,GW/hanover.png,GW/gatlinburg.png,,,,,,,,,,,,,,,,,,
null,,black_cross(without_color),391643,,yellow,,,,null,GW/hanover.png,GW/gatlinburg.png,,,,,,,,,,,,,,,,,,
null,,rt_plussign_withcolor,392144,,yellow,,,,null,GW/hanover.png,GW/gatlinburg.png,,,,,,,,,,,,,,,,,,
1248.699999988079,,rt_thecrossant_black,393306,,black_plus_sign,,,,49,,,0,0.9545454545454546,,,,,,,,,,,,,,,,
null,,color_black,393406,,black_plus_sign,,,,null,,,,,,,,,,,,,,,,,,,,
null,,learn_phase(without_color),396408,,black_plus_sign,,,,null,GW/carmel.png,GW/cornwall.png,,,,,,,,,,,,,,,,,,
null,,black_cross(without_color),397251,,blue,,,,null,GW/carmel.png,GW/cornwall.png,,,,,,,,,,,,,,,,,,
null,,rt_plussign_withcolor,397752,,blue,,,,null,GW/carmel.png,GW/cornwall.png,,,,,,,,,,,,,,,,,,
1344.4000000059605,,rt_thecrossant_black,398912,,black_plus_sign,,,,49,,,1,0.9555555555555556,,,,,,,,,,,,,,,,
null,,color_black,399014,,black_plus_sign,,,,null,,,,,,,,,,,,,,,,,,,,
null,,learn_phase(without_color),402015,,black_plus_sign,,,,null,GW/boulder.png,GW/hanover.png,,,,,,,,,,,,,,,,,,
null,,black_cross(without_color),402690,,blue,,,,null,GW/boulder.png,GW/hanover.png,,,,,,,,,,,,,,,,,,
null,,rt_plussign_withcolor,403191,,blue,,,,null,GW/boulder.png,GW/hanover.png,,,,,,,,,,,,,,,,,,
1467.2000000178814,,rt_thecrossant_black,404520,,black_plus_sign,,,,49,,,1,0.9565217391304348,,,,,,,,,,,,,,,,
null,,color_black,404621,,black_plus_sign,,,,null,,,,,,,,,,,,,,,,,,,,
null,,learn_phase(without_color),407626,,black_plus_sign,,,,null,GW/hotsprings.png,GW/leesburg.png,,,,,,,,,,,,,,,,,,
null,,black_cross(without_color),408439,,blue,,,,null,GW/hotsprings.png,GW/leesburg.png,,,,,,,,,,,,,,,,,,
null,,rt_plussign_withcolor,408940,,blue,,,,null,GW/hotsprings.png,GW/leesburg.png,,,,,,,,,,,,,,,,,,
1155.0999999940395,,rt_thecrossant_black,410129,,black_plus_sign,,,,49,,,1,0.9574468085106383,,,,,,,,,,,,,,,,
null,,color_black,410231,,black_plus_sign,,,,null,,,,,,,,,,,,,,,,,,,,
null,,learn_phase(without_color),413232,,black_plus_sign,,,,null,GW/peoria.png,GW/hotsprings.png,,,,,,,,,,,,,,,,,,
null,,black_cross(without_color),414261,,blue,,,,null,GW/peoria.png,GW/hotsprings.png,,,,,,,,,,,,,,,,,,
null,,rt_plussign_withcolor,414762,,blue,,,,null,GW/peoria.png,GW/hotsprings.png,,,,,,,,,,,,,,,,,,
1223.7999999821186,,rt_thecrossant_black,415736,,black_plus_sign,,,,49,,,1,0.9583333333333334,,,,,,,,,,,,,,,,
null,,color_black,415838,,black_plus_sign,,,,null,,,,,,,,,,,,,,,,,,,,
null,,learn_phase(without_color),418840,,black_plus_sign,,,,null,GW/leesburg.png,GW/newhope.png,,,,,,,,,,,,,,,,,,
null,,black_cross(without_color),419501,,blue,,,,null,GW/leesburg.png,GW/newhope.png,,,,,,,,,,,,,,,,,,
null,,rt_plussign_withcolor,420002,,blue,,,,null,GW/leesburg.png,GW/newhope.png,,,,,,,,,,,,,,,,,,
1174.199999988079,,rt_thecrossant_black,421343,,black_plus_sign,,,,49,,,1,0.9591836734693877,,,,,,,,,,,,,,,,
null,,color_black,421445,,black_plus_sign,,,,null,,,,,,,,,,,,,,,,,,,,
null,,learn_phase(without_color),424447,,black_plus_sign,,,,null,GW/hanover.png,GW/shreveport.png,,,,,,,,,,,,,,,,,,
null,,black_cross(without_color),424884,,blue,,,,null,GW/hanover.png,GW/shreveport.png,,,,,,,,,,,,,,,,,,
null,,rt_plussign_withcolor,425385,,blue,,,,null,GW/hanover.png,GW/shreveport.png,,,,,,,,,,,,,,,,,,
1100.0999999940395,,rt_thecrossant_black,426951,,black_plus_sign,,,,49,,,1,0.96,,,,,,,,,,,,,,,,
null,,color_black,427052,,black_plus_sign,,,,null,,,,,,,,,,,,,,,,,,,,
null,,learn_phase(without_color),430054,,black_plus_sign,,,,null,GW/gatlinburg.png,GW/westpalmbeach.png,,,,,,,,,,,,,,,,,,
null,,black_cross(without_color),430800,,yellow,,,,null,GW/gatlinburg.png,GW/westpalmbeach.png,,,,,,,,,,,,,,,,,,
493.40000000596046,,rt_plussign_withcolor,431300,,yellow,,,,50,GW/gatlinburg.png,GW/westpalmbeach.png,,,,,,,,,,,,,,,,,,
null,,rt_thecrossant_black,432561,,black_plus_sign,,,,null,,,1,0.9607843137254902,,,,,,,,,,,,,,,,
null,,color_black,432662,,black_plus_sign,,,,null,,,,,,,,,,,,,,,,,,,,
null,,learn_phase(without_color),435665,,black_plus_sign,,,,null,GW/shreveport.png,GW/westpalmbeach.png,,,,,,,,,,,,,,,,,,
null,,black_cross(without_color),436129,,blue,,,,null,GW/shreveport.png,GW/westpalmbeach.png,,,,,,,,,,,,,,,,,,
null,,rt_plussign_withcolor,436631,,blue,,,,null,GW/shreveport.png,GW/westpalmbeach.png,,,,,,,,,,,,,,,,,,
1333.5,,rt_thecrossant_black,438169,,black_plus_sign,,,,49,,,1,0.9615384615384616,,,,,,,,,,,,,,,,
null,,color_black,438272,,black_plus_sign,,,,null,,,,,,,,,,,,,,,,,,,,
null,,learn_phase(without_color),441289,,black_plus_sign,,,,null,GW/shreveport.png,GW/hanover.png,,,,,,,,,,,,,,,,,,
null,,black_cross(without_color),441767,,blue,,,,null,GW/shreveport.png,GW/hanover.png,,,,,,,,,,,,,,,,,,
null,,rt_plussign_withcolor,442268,,blue,,,,null,GW/shreveport.png,GW/hanover.png,,,,,,,,,,,,,,,,,,
802.7999999821186,,rt_thecrossant_black,443795,,black_plus_sign,,,,49,,,1,0.9622641509433962,,,,,,,,,,,,,,,,
null,,color_black,443896,,black_plus_sign,,,,null,,,,,,,,,,,,,,,,,,,,
null,,learn_phase(without_color),446898,,black_plus_sign,,,,null,GW/hanover.png,GW/gatlinburg.png,,,,,,,,,,,,,,,,,,
null,,black_cross(without_color),447508,,blue,,,,null,GW/hanover.png,GW/gatlinburg.png,,,,,,,,,,,,,,,,,,
null,,rt_plussign_withcolor,448010,,blue,,,,null,GW/hanover.png,GW/gatlinburg.png,,,,,,,,,,,,,,,,,,
746.7000000178814,,rt_thecrossant_black,449402,,black_plus_sign,,,,49,,,1,0.9629629629629629,,,,,,,,,,,,,,,,
null,,color_black,449503,,black_plus_sign,,,,null,,,,,,,,,,,,,,,,,,,,
null,,learn_phase(without_color),452505,,black_plus_sign,,,,null,GW/leesburg.png,GW/newhope.png,,,,,,,,,,,,,,,,,,
null,,black_cross(without_color),453309,,blue,,,,null,GW/leesburg.png,GW/newhope.png,,,,,,,,,,,,,,,,,,
null,,rt_plussign_withcolor,453810,,blue,,,,null,GW/leesburg.png,GW/newhope.png,,,,,,,,,,,,,,,,,,
1186,,rt_thecrossant_black,455021,,black_plus_sign,,,,49,,,1,0.9636363636363636,,,,,,,,,,,,,,,,
null,,color_black,455123,,black_plus_sign,,,,null,,,,,,,,,,,,,,,,,,,,
null,,learn_phase(without_color),458129,,black_plus_sign,,,,null,GW/racine.png,GW/peoria.png,,,,,,,,,,,,,,,,,,
null,,black_cross(without_color),459084,,yellow,,,,null,GW/racine.png,GW/peoria.png,,,,,,,,,,,,,,,,,,
null,,rt_plussign_withcolor,459585,,yellow,,,,null,GW/racine.png,GW/peoria.png,,,,,,,,,,,,,,,,,,
1117.300000011921,,rt_thecrossant_black,460634,,black_plus_sign,,,,50,,,1,0.9642857142857143,,,,,,,,,,,,,,,,
null,,color_black,460736,,black_plus_sign,,,,null,,,,,,,,,,,,,,,,,,,,
null,,learn_phase(without_color),463738,,black_plus_sign,,,,null,GW/peoria.png,GW/westpalmbeach.png,,,,,,,,,,,,,,,,,,
null,,black_cross(without_color),464412,,yellow,,,,null,GW/peoria.png,GW/westpalmbeach.png,,,,,,,,,,,,,,,,,,
null,,rt_plussign_withcolor,464913,,yellow,,,,null,GW/peoria.png,GW/westpalmbeach.png,,,,,,,,,,,,,,,,,,
1331.699999988079,,rt_thecrossant_black,466243,,black_plus_sign,,,,50,,,1,0.9649122807017544,,,,,,,,,,,,,,,,
null,,color_black,466344,,black_plus_sign,,,,null,,,,,,,,,,,,,,,,,,,,
null,,learn_phase(without_color),469345,,black_plus_sign,,,,null,GW/huntsville.png,GW/shreveport.png,,,,,,,,,,,,,,,,,,
null,,black_cross(without_color),469814,,blue,,,,null,GW/huntsville.png,GW/shreveport.png,,,,,,,,,,,,,,,,,,
null,,rt_plussign_withcolor,470314,,blue,,,,null,GW/huntsville.png,GW/shreveport.png,,,,,,,,,,,,,,,,,,
1172.199999988079,,rt_thecrossant_black,471849,,black_plus_sign,,,,49,,,1,0.9655172413793104,,,,,,,,,,,,,,,,
null,,color_black,471951,,black_plus_sign,,,,null,,,,,,,,,,,,,,,,,,,,
null,,learn_phase(without_color),474952,,black_plus_sign,,,,null,GW/peoria.png,GW/hotsprings.png,,,,,,,,,,,,,,,,,,
null,,black_cross(without_color),475571,,blue,,,,null,GW/peoria.png,GW/hotsprings.png,,,,,,,,,,,,,,,,,,
null,,rt_plussign_withcolor,476073,,blue,,,,null,GW/peoria.png,GW/hotsprings.png,,,,,,,,,,,,,,,,,,
609.0999999940395,,rt_thecrossant_black,477458,,black_plus_sign,,,,49,,,1,0.9661016949152542,,,,,,,,,,,,,,,,
null,,color_black,477559,,black_plus_sign,,,,null,,,,,,,,,,,,,,,,,,,,
null,,learn_phase(without_color),480562,,black_plus_sign,,,,null,GW/westpalmbeach.png,GW/peoria.png,,,,,,,,,,,,,,,,,,
null,,black_cross(without_color),481213,,yellow,,,,null,GW/westpalmbeach.png,GW/peoria.png,,,,,,,,,,,,,,,,,,
null,,rt_plussign_withcolor,481714,,yellow,,,,null,GW/westpalmbeach.png,GW/peoria.png,,,,,,,,,,,,,,,,,,
1169.199999988079,,rt_thecrossant_black,483065,,black_plus_sign,,,,50,,,1,0.9666666666666667,,,,,,,,,,,,,,,,
null,,color_black,483166,,black_plus_sign,,,,null,,,,,,,,,,,,,,,,,,,,
null,,learn_phase(without_color),486168,,black_plus_sign,,,,null,GW/cornwall.png,GW/carmel.png,,,,,,,,,,,,,,,,,,
null,,black_cross(without_color),486873,,yellow,,,,null,GW/cornwall.png,GW/carmel.png,,,,,,,,,,,,,,,,,,
null,,rt_plussign_withcolor,487374,,yellow,,,,null,GW/cornwall.png,GW/carmel.png,,,,,,,,,,,,,,,,,,
947.6999999880791,,rt_thecrossant_black,488672,,black_plus_sign,,,,50,,,1,0.9672131147540983,,,,,,,,,,,,,,,,
null,,color_black,488774,,black_plus_sign,,,,null,,,,,,,,,,,,,,,,,,,,
null,,learn_phase(without_color),491776,,black_plus_sign,,,,null,GW/peoria.png,GW/hotsprings.png,,,,,,,,,,,,,,,,,,
null,,black_cross(without_color),492200,,yellow,,,,null,GW/peoria.png,GW/hotsprings.png,,,,,,,,,,,,,,,,,,
null,,rt_plussign_withcolor,492700,,yellow,,,,null,GW/peoria.png,GW/hotsprings.png,,,,,,,,,,,,,,,,,,
1172.199999988079,,rt_thecrossant_black,494279,,black_plus_sign,,,,50,,,1,0.967741935483871,,,,,,,,,,,,,,,,
null,,color_black,494380,,black_plus_sign,,,,null,,,,,,,,,,,,,,,,,,,,
null,,learn_phase(without_color),497382,,black_plus_sign,,,,null,GW/newhope.png,GW/leesburg.png,,,,,,,,,,,,,,,,,,
null,,black_cross(without_color),498039,,yellow,,,,null,GW/newhope.png,GW/leesburg.png,,,,,,,,,,,,,,,,,,
null,,rt_plussign_withcolor,498540,,yellow,,,,null,GW/newhope.png,GW/leesburg.png,,,,,,,,,,,,,,,,,,
874.7000000178814,,rt_thecrossant_black,499887,,black_plus_sign,,,,50,,,1,0.9682539682539683,,,,,,,,,,,,,,,,
null,,color_black,499989,,black_plus_sign,,,,null,,,,,,,,,,,,,,,,,,,,
null,,learn_phase(without_color),502990,,black_plus_sign,,,,null,GW/leesburg.png,GW/cornwall.png,,,,,,,,,,,,,,,,,,
null,,black_cross(without_color),503713,,blue,,,,null,GW/leesburg.png,GW/cornwall.png,,,,,,,,,,,,,,,,,,
null,,rt_plussign_withcolor,504213,,blue,,,,null,GW/leesburg.png,GW/cornwall.png,,,,,,,,,,,,,,,,,,
1016.1999999880791,,rt_thecrossant_black,505493,,black_plus_sign,,,,49,,,1,0.96875,,,,,,,,,,,,,,,,
null,,color_black,505595,,black_plus_sign,,,,null,,,,,,,,,,,,,,,,,,,,
12405.699999988079,,learn_break,518001,,learn_break,,,,32,,,,,,,,,,,,,,,,,,,,
null,,html-keyboard-response,519003,,<p></p>,,,,null,,,,,,,,,,,,,,,,,,,,
null,,learn_phase(without_color),522005,,black_plus_sign,,,,null,GW/westpalmbeach.png,GW/peoria.png,,,,,,,,,,,,,,,,,,
null,,black_cross(without_color),522726,,blue,,,,null,GW/westpalmbeach.png,GW/peoria.png,,,,,,,,,,,,,,,,,,
null,,rt_plussign_withcolor,523227,,blue,,,,null,GW/westpalmbeach.png,GW/peoria.png,,,,,,,,,,,,,,,,,,
1372.9000000059605,,rt_thecrossant_black,524508,,black_plus_sign,,,,49,,,1,0.9692307692307692,,,,,,,,,,,,,,,,
null,,color_black,524610,,black_plus_sign,,,,null,,,,,,,,,,,,,,,,,,,,
null,,learn_phase(without_color),527611,,black_plus_sign,,,,null,GW/westpalmbeach.png,GW/gatlinburg.png,,,,,,,,,,,,,,,,,,
null,,black_cross(without_color),528438,,yellow,,,,null,GW/westpalmbeach.png,GW/gatlinburg.png,,,,,,,,,,,,,,,,,,
null,,rt_plussign_withcolor,528939,,yellow,,,,null,GW/westpalmbeach.png,GW/gatlinburg.png,,,,,,,,,,,,,,,,,,
1140.699999988079,,rt_thecrossant_black,530114,,black_plus_sign,,,,50,,,1,0.9696969696969697,,,,,,,,,,,,,,,,
null,,color_black,530215,,black_plus_sign,,,,null,,,,,,,,,,,,,,,,,,,,
null,,learn_phase(without_color),533220,,black_plus_sign,,,,null,GW/hotsprings.png,GW/gatlinburg.png,,,,,,,,,,,,,,,,,,
null,,black_cross(without_color),533896,,yellow,,,,null,GW/hotsprings.png,GW/gatlinburg.png,,,,,,,,,,,,,,,,,,
null,,rt_plussign_withcolor,534397,,yellow,,,,null,GW/hotsprings.png,GW/gatlinburg.png,,,,,,,,,,,,,,,,,,
1213.800000011921,,rt_thecrossant_black,535724,,black_plus_sign,,,,50,,,1,0.9701492537313433,,,,,,,,,,,,,,,,
null,,color_black,535826,,black_plus_sign,,,,null,,,,,,,,,,,,,,,,,,,,
null,,learn_phase(without_color),538827,,black_plus_sign,,,,null,GW/huntsville.png,GW/shreveport.png,,,,,,,,,,,,,,,,,,
null,,black_cross(without_color),539528,,yellow,,,,null,GW/huntsville.png,GW/shreveport.png,,,,,,,,,,,,,,,,,,
null,,rt_plussign_withcolor,540028,,yellow,,,,null,GW/huntsville.png,GW/shreveport.png,,,,,,,,,,,,,,,,,,
974.1999999880791,,rt_thecrossant_black,541330,,black_plus_sign,,,,50,,,1,0.9705882352941176,,,,,,,,,,,,,,,,
null,,color_black,541431,,black_plus_sign,,,,null,,,,,,,,,,,,,,,,,,,,
null,,learn_phase(without_color),544433,,black_plus_sign,,,,null,GW/gatlinburg.png,GW/westpalmbeach.png,,,,,,,,,,,,,,,,,,
null,,black_cross(without_color),544845,,blue,,,,null,GW/gatlinburg.png,GW/westpalmbeach.png,,,,,,,,,,,,,,,,,,
null,,rt_plussign_withcolor,545347,,blue,,,,null,GW/gatlinburg.png,GW/westpalmbeach.png,,,,,,,,,,,,,,,,,,
840.2999999821186,,rt_thecrossant_black,546948,,black_plus_sign,,,,49,,,1,0.9710144927536232,,,,,,,,,,,,,,,,
null,,color_black,547049,,black_plus_sign,,,,null,,,,,,,,,,,,,,,,,,,,
null,,learn_phase(without_color),550051,,black_plus_sign,,,,null,GW/leesburg.png,GW/hotsprings.png,,,,,,,,,,,,,,,,,,
null,,black_cross(without_color),550491,,yellow,,,,null,GW/leesburg.png,GW/hotsprings.png,,,,,,,,,,,,,,,,,,
null,,rt_plussign_withcolor,550993,,yellow,,,,null,GW/leesburg.png,GW/hotsprings.png,,,,,,,,,,,,,,,,,,
847.5,,rt_thecrossant_black,552556,,black_plus_sign,,,,50,,,1,0.9714285714285714,,,,,,,,,,,,,,,,
null,,color_black,552657,,black_plus_sign,,,,null,,,,,,,,,,,,,,,,,,,,
null,,learn_phase(without_color),555659,,black_plus_sign,,,,null,GW/cornwall.png,GW/racine.png,,,,,,,,,,,,,,,,,,
null,,black_cross(without_color),556272,,blue,,,,null,GW/cornwall.png,GW/racine.png,,,,,,,,,,,,,,,,,,
null,,rt_plussign_withcolor,556785,,blue,,,,null,GW/cornwall.png,GW/racine.png,,,,,,,,,,,,,,,,,,
1034.2999999821186,,rt_thecrossant_black,558174,,black_plus_sign,,,,49,,,1,0.971830985915493,,,,,,,,,,,,,,,,
null,,color_black,558275,,black_plus_sign,,,,null,,,,,,,,,,,,,,,,,,,,
null,,learn_phase(without_color),561277,,black_plus_sign,,,,null,GW/boulder.png,GW/hanover.png,,,,,,,,,,,,,,,,,,
null,,black_cross(without_color),561706,,blue,,,,null,GW/boulder.png,GW/hanover.png,,,,,,,,,,,,,,,,,,
null,,rt_plussign_withcolor,562207,,blue,,,,null,GW/boulder.png,GW/hanover.png,,,,,,,,,,,,,,,,,,
965.5999999940395,,rt_thecrossant_black,563781,,black_plus_sign,,,,49,,,1,0.9722222222222222,,,,,,,,,,,,,,,,
null,,color_black,563882,,black_plus_sign,,,,null,,,,,,,,,,,,,,,,,,,,
null,,learn_phase(without_color),566884,,black_plus_sign,,,,null,GW/peoria.png,GW/westpalmbeach.png,,,,,,,,,,,,,,,,,,
null,,black_cross(without_color),567336,,yellow,,,,null,GW/peoria.png,GW/westpalmbeach.png,,,,,,,,,,,,,,,,,,
null,,rt_plussign_withcolor,567837,,yellow,,,,null,GW/peoria.png,GW/westpalmbeach.png,,,,,,,,,,,,,,,,,,
944.0999999940395,,rt_thecrossant_black,569388,,black_plus_sign,,,,50,,,1,0.9726027397260274,,,,,,,,,,,,,,,,
null,,color_black,569489,,black_plus_sign,,,,null,,,,,,,,,,,,,,,,,,,,
null,,learn_phase(without_color),572490,,black_plus_sign,,,,null,GW/hotsprings.png,GW/gatlinburg.png,,,,,,,,,,,,,,,,,,
null,,black_cross(without_color),573411,,blue,,,,null,GW/hotsprings.png,GW/gatlinburg.png,,,,,,,,,,,,,,,,,,
null,,rt_plussign_withcolor,573913,,blue,,,,null,GW/hotsprings.png,GW/gatlinburg.png,,,,,,,,,,,,,,,,,,
814,,rt_thecrossant_black,574995,,black_plus_sign,,,,49,,,1,0.972972972972973,,,,,,,,,,,,,,,,
null,,color_black,575097,,black_plus_sign,,,,null,,,,,,,,,,,,,,,,,,,,
null,,learn_phase(without_color),578098,,black_plus_sign,,,,null,GW/leesburg.png,GW/cornwall.png,,,,,,,,,,,,,,,,,,
null,,black_cross(without_color),578591,,blue,,,,null,GW/leesburg.png,GW/cornwall.png,,,,,,,,,,,,,,,,,,
null,,rt_plussign_withcolor,579092,,blue,,,,null,GW/leesburg.png,GW/cornwall.png,,,,,,,,,,,,,,,,,,
1244.2000000178814,,rt_thecrossant_black,580603,,black_plus_sign,,,,49,,,1,0.9733333333333334,,,,,,,,,,,,,,,,
null,,color_black,580705,,black_plus_sign,,,,null,,,,,,,,,,,,,,,,,,,,
null,,learn_phase(without_color),583707,,black_plus_sign,,,,null,GW/hotsprings.png,GW/gatlinburg.png,,,,,,,,,,,,,,,,,,
null,,black_cross(without_color),584456,,blue,,,,null,GW/hotsprings.png,GW/gatlinburg.png,,,,,,,,,,,,,,,,,,
null,,rt_plussign_withcolor,584956,,blue,,,,null,GW/hotsprings.png,GW/gatlinburg.png,,,,,,,,,,,,,,,,,,
813.5,,rt_thecrossant_black,586210,,black_plus_sign,,,,49,,,1,0.9736842105263158,,,,,,,,,,,,,,,,
null,,color_black,586311,,black_plus_sign,,,,null,,,,,,,,,,,,,,,,,,,,
null,,learn_phase(without_color),589312,,black_plus_sign,,,,null,GW/westpalmbeach.png,GW/peoria.png,,,,,,,,,,,,,,,,,,
null,,black_cross(without_color),590216,,blue,,,,null,GW/westpalmbeach.png,GW/peoria.png,,,,,,,,,,,,,,,,,,
null,,rt_plussign_withcolor,590718,,blue,,,,null,GW/westpalmbeach.png,GW/peoria.png,,,,,,,,,,,,,,,,,,
895.2999999821186,,rt_thecrossant_black,591823,,black_plus_sign,,,,49,,,1,0.974025974025974,,,,,,,,,,,,,,,,
null,,color_black,591925,,black_plus_sign,,,,null,,,,,,,,,,,,,,,,,,,,
null,,learn_phase(without_color),594928,,black_plus_sign,,,,null,GW/westpalmbeach.png,GW/gatlinburg.png,,,,,,,,,,,,,,,,,,
null,,black_cross(without_color),595751,,blue,,,,null,GW/westpalmbeach.png,GW/gatlinburg.png,,,,,,,,,,,,,,,,,,
null,,rt_plussign_withcolor,596251,,blue,,,,null,GW/westpalmbeach.png,GW/gatlinburg.png,,,,,,,,,,,,,,,,,,
1087.4000000059605,,rt_thecrossant_black,597432,,black_plus_sign,,,,49,,,1,0.9743589743589743,,,,,,,,,,,,,,,,
null,,color_black,597533,,black_plus_sign,,,,null,,,,,,,,,,,,,,,,,,,,
null,,learn_phase(without_color),600535,,black_plus_sign,,,,null,GW/carmel.png,GW/cornwall.png,,,,,,,,,,,,,,,,,,
null,,black_cross(without_color),601606,,blue,,,,null,GW/carmel.png,GW/cornwall.png,,,,,,,,,,,,,,,,,,
null,,rt_plussign_withcolor,602107,,blue,,,,null,GW/carmel.png,GW/cornwall.png,,,,,,,,,,,,,,,,,,
1035.300000011921,,rt_thecrossant_black,603050,,black_plus_sign,,,,49,,,1,0.9746835443037974,,,,,,,,,,,,,,,,
null,,color_black,603152,,black_plus_sign,,,,null,,,,,,,,,,,,,,,,,,,,
null,,learn_phase(without_color),606154,,black_plus_sign,,,,null,GW/cornwall.png,GW/leesburg.png,,,,,,,,,,,,,,,,,,
null,,black_cross(without_color),606915,,blue,,,,null,GW/cornwall.png,GW/leesburg.png,,,,,,,,,,,,,,,,,,
null,,rt_plussign_withcolor,607416,,blue,,,,null,GW/cornwall.png,GW/leesburg.png,,,,,,,,,,,,,,,,,,
1229.199999988079,,rt_thecrossant_black,608659,,black_plus_sign,,,,49,,,1,0.975,,,,,,,,,,,,,,,,
null,,color_black,608760,,black_plus_sign,,,,null,,,,,,,,,,,,,,,,,,,,
null,,learn_phase(without_color),611762,,black_plus_sign,,,,null,GW/shreveport.png,GW/huntsville.png,,,,,,,,,,,,,,,,,,
null,,black_cross(without_color),612717,,yellow,,,,null,GW/shreveport.png,GW/huntsville.png,,,,,,,,,,,,,,,,,,
null,,rt_plussign_withcolor,613218,,yellow,,,,null,GW/shreveport.png,GW/huntsville.png,,,,,,,,,,,,,,,,,,
1006,,rt_thecrossant_black,614268,,black_plus_sign,,,,50,,,1,0.9753086419753086,,,,,,,,,,,,,,,,
null,,color_black,614370,,black_plus_sign,,,,null,,,,,,,,,,,,,,,,,,,,
null,,learn_phase(without_color),617372,,black_plus_sign,,,,null,GW/hanover.png,GW/gatlinburg.png,,,,,,,,,,,,,,,,,,
null,,black_cross(without_color),617844,,yellow,,,,null,GW/hanover.png,GW/gatlinburg.png,,,,,,,,,,,,,,,,,,
null,,rt_plussign_withcolor,618346,,yellow,,,,null,GW/hanover.png,GW/gatlinburg.png,,,,,,,,,,,,,,,,,,
1438.9000000059605,,rt_thecrossant_black,619877,,black_plus_sign,,,,49,,,0,0.9634146341463414,,,,,,,,,,,,,,,,
null,,color_black,619978,,black_plus_sign,,,,null,,,,,,,,,,,,,,,,,,,,
null,,learn_phase(without_color),622980,,black_plus_sign,,,,null,GW/hotsprings.png,GW/gatlinburg.png,,,,,,,,,,,,,,,,,,
null,,black_cross(without_color),623584,,blue,,,,null,GW/hotsprings.png,GW/gatlinburg.png,,,,,,,,,,,,,,,,,,
null,,rt_plussign_withcolor,624085,,blue,,,,null,GW/hotsprings.png,GW/gatlinburg.png,,,,,,,,,,,,,,,,,,
947.5,,rt_thecrossant_black,625484,,black_plus_sign,,,,49,,,1,0.963855421686747,,,,,,,,,,,,,,,,
null,,color_black,625586,,black_plus_sign,,,,null,,,,,,,,,,,,,,,,,,,,
null,,learn_phase(without_color),628589,,black_plus_sign,,,,null,GW/gatlinburg.png,GW/hotsprings.png,,,,,,,,,,,,,,,,,,
null,,black_cross(without_color),629482,,blue,,,,null,GW/gatlinburg.png,GW/hotsprings.png,,,,,,,,,,,,,,,,,,
null,,rt_plussign_withcolor,629983,,blue,,,,null,GW/gatlinburg.png,GW/hotsprings.png,,,,,,,,,,,,,,,,,,
1049.199999988079,,rt_thecrossant_black,631093,,black_plus_sign,,,,49,,,1,0.9642857142857143,,,,,,,,,,,,,,,,
null,,color_black,631194,,black_plus_sign,,,,null,,,,,,,,,,,,,,,,,,,,
null,,learn_phase(without_color),634196,,black_plus_sign,,,,null,GW/carmel.png,GW/cornwall.png,,,,,,,,,,,,,,,,,,
null,,black_cross(without_color),635273,,yellow,,,,null,GW/carmel.png,GW/cornwall.png,,,,,,,,,,,,,,,,,,
null,,rt_plussign_withcolor,635773,,yellow,,,,null,GW/carmel.png,GW/cornwall.png,,,,,,,,,,,,,,,,,,
1722,,rt_thecrossant_black,636700,,black_plus_sign,,,,50,,,1,0.9647058823529412,,,,,,,,,,,,,,,,
null,,color_black,636801,,black_plus_sign,,,,null,,,,,,,,,,,,,,,,,,,,
null,,learn_phase(without_color),639803,,black_plus_sign,,,,null,GW/hanover.png,GW/boulder.png,,,,,,,,,,,,,,,,,,
null,,black_cross(without_color),640710,,yellow,,,,null,GW/hanover.png,GW/boulder.png,,,,,,,,,,,,,,,,,,
390.19999998807907,,rt_plussign_withcolor,641212,,yellow,,,,50,GW/hanover.png,GW/boulder.png,,,,,,,,,,,,,,,,,,
null,,rt_thecrossant_black,642306,,black_plus_sign,,,,null,,,1,0.9651162790697675,,,,,,,,,,,,,,,,
null,,color_black,642408,,black_plus_sign,,,,null,,,,,,,,,,,,,,,,,,,,
null,,learn_phase(without_color),645410,,black_plus_sign,,,,null,GW/gatlinburg.png,GW/hanover.png,,,,,,,,,,,,,,,,,,
null,,black_cross(without_color),646353,,yellow,,,,null,GW/gatlinburg.png,GW/hanover.png,,,,,,,,,,,,,,,,,,
478.19999998807907,,rt_plussign_withcolor,646855,,yellow,,,,50,GW/gatlinburg.png,GW/hanover.png,,,,,,,,,,,,,,,,,,
null,,rt_thecrossant_black,647913,,black_plus_sign,,,,null,,,1,0.9655172413793104,,,,,,,,,,,,,,,,
null,,color_black,648015,,black_plus_sign,,,,null,,,,,,,,,,,,,,,,,,,,
null,,learn_phase(without_color),651017,,black_plus_sign,,,,null,GW/leesburg.png,GW/newhope.png,,,,,,,,,,,,,,,,,,
null,,black_cross(without_color),651986,,blue,,,,null,GW/leesburg.png,GW/newhope.png,,,,,,,,,,,,,,,,,,
null,,rt_plussign_withcolor,652487,,blue,,,,null,GW/leesburg.png,GW/newhope.png,,,,,,,,,,,,,,,,,,
1045.2999999821186,,rt_thecrossant_black,653520,,black_plus_sign,,,,49,,,1,0.9659090909090909,,,,,,,,,,,,,,,,
null,,color_black,653622,,black_plus_sign,,,,null,,,,,,,,,,,,,,,,,,,,
null,,learn_phase(without_color),656624,,black_plus_sign,,,,null,GW/peoria.png,GW/racine.png,,,,,,,,,,,,,,,,,,
null,,black_cross(without_color),657547,,yellow,,,,null,GW/peoria.png,GW/racine.png,,,,,,,,,,,,,,,,,,
null,,rt_plussign_withcolor,658048,,yellow,,,,null,GW/peoria.png,GW/racine.png,,,,,,,,,,,,,,,,,,
1529.0999999940395,,rt_thecrossant_black,659128,,black_plus_sign,,,,50,,,1,0.9662921348314607,,,,,,,,,,,,,,,,
null,,color_black,659229,,black_plus_sign,,,,null,,,,,,,,,,,,,,,,,,,,
null,,learn_phase(without_color),662231,,black_plus_sign,,,,null,GW/racine.png,GW/peoria.png,,,,,,,,,,,,,,,,,,
null,,black_cross(without_color),663114,,blue,,,,null,GW/racine.png,GW/peoria.png,,,,,,,,,,,,,,,,,,
null,,rt_plussign_withcolor,663615,,blue,,,,null,GW/racine.png,GW/peoria.png,,,,,,,,,,,,,,,,,,
1091.2999999821186,,rt_thecrossant_black,664736,,black_plus_sign,,,,49,,,1,0.9666666666666667,,,,,,,,,,,,,,,,
null,,color_black,664838,,black_plus_sign,,,,null,,,,,,,,,,,,,,,,,,,,
null,,learn_phase(without_color),667840,,black_plus_sign,,,,null,GW/leesburg.png,GW/newhope.png,,,,,,,,,,,,,,,,,,
null,,black_cross(without_color),668663,,blue,,,,null,GW/leesburg.png,GW/newhope.png,,,,,,,,,,,,,,,,,,
null,,rt_plussign_withcolor,669163,,blue,,,,null,GW/leesburg.png,GW/newhope.png,,,,,,,,,,,,,,,,,,
1132.0999999940395,,rt_thecrossant_black,670344,,black_plus_sign,,,,49,,,1,0.967032967032967,,,,,,,,,,,,,,,,
null,,color_black,670445,,black_plus_sign,,,,null,,,,,,,,,,,,,,,,,,,,
null,,learn_phase(without_color),673447,,black_plus_sign,,,,null,GW/racine.png,GW/cornwall.png,,,,,,,,,,,,,,,,,,
null,,black_cross(without_color),674156,,blue,,,,null,GW/racine.png,GW/cornwall.png,,,,,,,,,,,,,,,,,,
null,,rt_plussign_withcolor,674661,,blue,,,,null,GW/racine.png,GW/cornwall.png,,,,,,,,,,,,,,,,,,
969.6999999880791,,rt_thecrossant_black,675956,,black_plus_sign,,,,49,,,1,0.967391304347826,,,,,,,,,,,,,,,,
null,,color_black,676058,,black_plus_sign,,,,null,,,,,,,,,,,,,,,,,,,,
null,,learn_phase(without_color),679059,,black_plus_sign,,,,null,GW/westpalmbeach.png,GW/hanover.png,,,,,,,,,,,,,,,,,,
null,,black_cross(without_color),680033,,yellow,,,,null,GW/westpalmbeach.png,GW/hanover.png,,,,,,,,,,,,,,,,,,
null,,rt_plussign_withcolor,680550,,yellow,,,,null,GW/westpalmbeach.png,GW/hanover.png,,,,,,,,,,,,,,,,,,
898.5,,rt_thecrossant_black,681579,,black_plus_sign,,,,50,,,1,0.967741935483871,,,,,,,,,,,,,,,,
null,,color_black,681680,,black_plus_sign,,,,null,,,,,,,,,,,,,,,,,,,,
null,,learn_phase(without_color),684682,,black_plus_sign,,,,null,GW/gatlinburg.png,GW/westpalmbeach.png,,,,,,,,,,,,,,,,,,
null,,black_cross(without_color),685353,,yellow,,,,null,GW/gatlinburg.png,GW/westpalmbeach.png,,,,,,,,,,,,,,,,,,
null,,rt_plussign_withcolor,685855,,yellow,,,,null,GW/gatlinburg.png,GW/westpalmbeach.png,,,,,,,,,,,,,,,,,,
1452.4000000059605,,rt_thecrossant_black,687187,,black_plus_sign,,,,50,,,1,0.9680851063829787,,,,,,,,,,,,,,,,
null,,color_black,687289,,black_plus_sign,,,,null,,,,,,,,,,,,,,,,,,,,
null,,learn_phase(without_color),690290,,black_plus_sign,,,,null,GW/huntsville.png,GW/shreveport.png,,,,,,,,,,,,,,,,,,
null,,black_cross(without_color),691110,,blue,,,,null,GW/huntsville.png,GW/shreveport.png,,,,,,,,,,,,,,,,,,
null,,rt_plussign_withcolor,691611,,blue,,,,null,GW/huntsville.png,GW/shreveport.png,,,,,,,,,,,,,,,,,,
1236.5999999940395,,rt_thecrossant_black,692794,,black_plus_sign,,,,49,,,1,0.968421052631579,,,,,,,,,,,,,,,,
null,,color_black,692895,,black_plus_sign,,,,null,,,,,,,,,,,,,,,,,,,,
null,,learn_phase(without_color),695897,,black_plus_sign,,,,null,GW/hanover.png,GW/shreveport.png,,,,,,,,,,,,,,,,,,
null,,black_cross(without_color),696627,,blue,,,,null,GW/hanover.png,GW/shreveport.png,,,,,,,,,,,,,,,,,,
null,,rt_plussign_withcolor,697128,,blue,,,,null,GW/hanover.png,GW/shreveport.png,,,,,,,,,,,,,,,,,,
1071.7000000178814,,rt_thecrossant_black,698401,,black_plus_sign,,,,49,,,1,0.96875,,,,,,,,,,,,,,,,
null,,color_black,698502,,black_plus_sign,,,,null,,,,,,,,,,,,,,,,,,,,
null,,learn_phase(without_color),701505,,black_plus_sign,,,,null,GW/cornwall.png,GW/leesburg.png,,,,,,,,,,,,,,,,,,
null,,black_cross(without_color),702138,,blue,,,,null,GW/cornwall.png,GW/leesburg.png,,,,,,,,,,,,,,,,,,
null,,rt_plussign_withcolor,702640,,blue,,,,null,GW/cornwall.png,GW/leesburg.png,,,,,,,,,,,,,,,,,,
997,,rt_thecrossant_black,704010,,black_plus_sign,,,,49,,,1,0.9690721649484536,,,,,,,,,,,,,,,,
null,,color_black,704111,,black_plus_sign,,,,null,,,,,,,,,,,,,,,,,,,,
null,,learn_phase(without_color),707114,,black_plus_sign,,,,null,GW/peoria.png,GW/westpalmbeach.png,,,,,,,,,,,,,,,,,,
null,,black_cross(without_color),707515,,yellow,,,,null,GW/peoria.png,GW/westpalmbeach.png,,,,,,,,,,,,,,,,,,
null,,rt_plussign_withcolor,708016,,yellow,,,,null,GW/peoria.png,GW/westpalmbeach.png,,,,,,,,,,,,,,,,,,
1001.5999999940395,,rt_thecrossant_black,709617,,black_plus_sign,,,,50,,,1,0.9693877551020408,,,,,,,,,,,,,,,,
null,,color_black,709718,,black_plus_sign,,,,null,,,,,,,,,,,,,,,,,,,,
null,,learn_phase(without_color),712720,,black_plus_sign,,,,null,GW/hanover.png,GW/boulder.png,,,,,,,,,,,,,,,,,,
null,,black_cross(without_color),713123,,blue,,,,null,GW/hanover.png,GW/boulder.png,,,,,,,,,,,,,,,,,,
null,,rt_plussign_withcolor,713631,,blue,,,,null,GW/hanover.png,GW/boulder.png,,,,,,,,,,,,,,,,,,
729.7000000178814,,rt_thecrossant_black,715232,,black_plus_sign,,,,49,,,1,0.9696969696969697,,,,,,,,,,,,,,,,
null,,color_black,715333,,black_plus_sign,,,,null,,,,,,,,,,,,,,,,,,,,
null,,learn_phase(without_color),718335,,black_plus_sign,,,,null,GW/hotsprings.png,GW/leesburg.png,,,,,,,,,,,,,,,,,,
null,,black_cross(without_color),719137,,yellow,,,,null,GW/hotsprings.png,GW/leesburg.png,,,,,,,,,,,,,,,,,,
null,,rt_plussign_withcolor,719639,,yellow,,,,null,GW/hotsprings.png,GW/leesburg.png,,,,,,,,,,,,,,,,,,
561.6999999880791,,rt_thecrossant_black,720840,,black_plus_sign,,,,50,,,1,0.97,,,,,,,,,,,,,,,,
null,,color_black,720941,,black_plus_sign,,,,null,,,,,,,,,,,,,,,,,,,,
null,,learn_phase(without_color),723944,,black_plus_sign,,,,null,GW/westpalmbeach.png,GW/hanover.png,,,,,,,,,,,,,,,,,,
null,,black_cross(without_color),725012,,blue,,,,null,GW/westpalmbeach.png,GW/hanover.png,,,,,,,,,,,,,,,,,,
null,,rt_plussign_withcolor,725513,,blue,,,,null,GW/westpalmbeach.png,GW/hanover.png,,,,,,,,,,,,,,,,,,
1019.1999999880791,,rt_thecrossant_black,726449,,black_plus_sign,,,,49,,,1,0.9702970297029703,,,,,,,,,,,,,,,,
null,,color_black,726551,,black_plus_sign,,,,null,,,,,,,,,,,,,,,,,,,,
null,,learn_phase(without_color),729552,,black_plus_sign,,,,null,GW/leesburg.png,GW/cornwall.png,,,,,,,,,,,,,,,,,,
null,,black_cross(without_color),730352,,blue,,,,null,GW/leesburg.png,GW/cornwall.png,,,,,,,,,,,,,,,,,,
null,,rt_plussign_withcolor,730853,,blue,,,,null,GW/leesburg.png,GW/cornwall.png,,,,,,,,,,,,,,,,,,
1269.5999999940395,,rt_thecrossant_black,732058,,black_plus_sign,,,,49,,,1,0.9705882352941176,,,,,,,,,,,,,,,,
null,,color_black,732159,,black_plus_sign,,,,null,,,,,,,,,,,,,,,,,,,,
null,,learn_phase(without_color),735160,,black_plus_sign,,,,null,GW/westpalmbeach.png,GW/shreveport.png,,,,,,,,,,,,,,,,,,
null,,black_cross(without_color),735563,,yellow,,,,null,GW/westpalmbeach.png,GW/shreveport.png,,,,,,,,,,,,,,,,,,
null,,rt_plussign_withcolor,736080,,yellow,,,,null,GW/westpalmbeach.png,GW/shreveport.png,,,,,,,,,,,,,,,,,,
975.6000000238419,,rt_thecrossant_black,737680,,black_plus_sign,,,,50,,,1,0.970873786407767,,,,,,,,,,,,,,,,
null,,color_black,737781,,black_plus_sign,,,,null,,,,,,,,,,,,,,,,,,,,
null,,learn_phase(without_color),740783,,black_plus_sign,,,,null,GW/hanover.png,GW/gatlinburg.png,,,,,,,,,,,,,,,,,,
null,,black_cross(without_color),741873,,yellow,,,,null,GW/hanover.png,GW/gatlinburg.png,,,,,,,,,,,,,,,,,,
null,,rt_plussign_withcolor,742375,,yellow,,,,null,GW/hanover.png,GW/gatlinburg.png,,,,,,,,,,,,,,,,,,
661.5999999940395,,rt_thecrossant_black,743287,,black_plus_sign,,,,50,,,1,0.9711538461538461,,,,,,,,,,,,,,,,
null,,color_black,743389,,black_plus_sign,,,,null,,,,,,,,,,,,,,,,,,,,
null,,learn_phase(without_color),746391,,black_plus_sign,,,,null,GW/hotsprings.png,GW/leesburg.png,,,,,,,,,,,,,,,,,,
null,,black_cross(without_color),747097,,blue,,,,null,GW/hotsprings.png,GW/leesburg.png,,,,,,,,,,,,,,,,,,
null,,rt_plussign_withcolor,747599,,blue,,,,null,GW/hotsprings.png,GW/leesburg.png,,,,,,,,,,,,,,,,,,
1519.0999999940395,,rt_thecrossant_black,748894,,black_plus_sign,,,,49,,,1,0.9714285714285714,,,,,,,,,,,,,,,,
null,,color_black,748996,,black_plus_sign,,,,null,,,,,,,,,,,,,,,,,,,,
null,,learn_phase(without_color),751998,,black_plus_sign,,,,null,GW/cornwall.png,GW/racine.png,,,,,,,,,,,,,,,,,,
null,,black_cross(without_color),752460,,yellow,,,,null,GW/cornwall.png,GW/racine.png,,,,,,,,,,,,,,,,,,
null,,rt_plussign_withcolor,752961,,yellow,,,,null,GW/cornwall.png,GW/racine.png,,,,,,,,,,,,,,,,,,
1442.0999999940395,,rt_thecrossant_black,754502,,black_plus_sign,,,,50,,,1,0.9716981132075472,,,,,,,,,,,,,,,,
null,,color_black,754604,,black_plus_sign,,,,null,,,,,,,,,,,,,,,,,,,,
null,,learn_phase(without_color),757606,,black_plus_sign,,,,null,GW/hanover.png,GW/shreveport.png,,,,,,,,,,,,,,,,,,
null,,black_cross(without_color),758235,,blue,,,,null,GW/hanover.png,GW/shreveport.png,,,,,,,,,,,,,,,,,,
null,,rt_plussign_withcolor,758736,,blue,,,,null,GW/hanover.png,GW/shreveport.png,,,,,,,,,,,,,,,,,,
830.8000000119209,,rt_thecrossant_black,760111,,black_plus_sign,,,,49,,,1,0.9719626168224299,,,,,,,,,,,,,,,,
null,,color_black,760212,,black_plus_sign,,,,null,,,,,,,,,,,,,,,,,,,,
null,,learn_phase(without_color),763214,,black_plus_sign,,,,null,GW/gatlinburg.png,GW/hanover.png,,,,,,,,,,,,,,,,,,
null,,black_cross(without_color),764207,,yellow,,,,null,GW/gatlinburg.png,GW/hanover.png,,,,,,,,,,,,,,,,,,
null,,rt_plussign_withcolor,764708,,yellow,,,,null,GW/gatlinburg.png,GW/hanover.png,,,,,,,,,,,,,,,,,,
840.4000000059605,,rt_thecrossant_black,765718,,black_plus_sign,,,,50,,,1,0.9722222222222222,,,,,,,,,,,,,,,,
null,,color_black,765820,,black_plus_sign,,,,null,,,,,,,,,,,,,,,,,,,,
null,,learn_phase(without_color),768822,,black_plus_sign,,,,null,GW/hanover.png,GW/boulder.png,,,,,,,,,,,,,,,,,,
null,,black_cross(without_color),769313,,yellow,,,,null,GW/hanover.png,GW/boulder.png,,,,,,,,,,,,,,,,,,
null,,rt_plussign_withcolor,769814,,yellow,,,,null,GW/hanover.png,GW/boulder.png,,,,,,,,,,,,,,,,,,
1392.5,,rt_thecrossant_black,771326,,black_plus_sign,,,,50,,,1,0.9724770642201835,,,,,,,,,,,,,,,,
null,,color_black,771427,,black_plus_sign,,,,null,,,,,,,,,,,,,,,,,,,,
null,,learn_phase(without_color),774429,,black_plus_sign,,,,null,GW/peoria.png,GW/hotsprings.png,,,,,,,,,,,,,,,,,,
null,,black_cross(without_color),775318,,yellow,,,,null,GW/peoria.png,GW/hotsprings.png,,,,,,,,,,,,,,,,,,
null,,rt_plussign_withcolor,775819,,yellow,,,,null,GW/peoria.png,GW/hotsprings.png,,,,,,,,,,,,,,,,,,
781.5,,rt_thecrossant_black,776933,,black_plus_sign,,,,49,,,0,0.9636363636363636,,,,,,,,,,,,,,,,
null,,color_black,777035,,black_plus_sign,,,,null,,,,,,,,,,,,,,,,,,,,
null,,learn_phase(without_color),780036,,black_plus_sign,,,,null,GW/hanover.png,GW/shreveport.png,,,,,,,,,,,,,,,,,,
null,,black_cross(without_color),780713,,yellow,,,,null,GW/hanover.png,GW/shreveport.png,,,,,,,,,,,,,,,,,,
null,,rt_plussign_withcolor,781214,,yellow,,,,null,GW/hanover.png,GW/shreveport.png,,,,,,,,,,,,,,,,,,
1088.800000011921,,rt_thecrossant_black,782540,,black_plus_sign,,,,50,,,1,0.963963963963964,,,,,,,,,,,,,,,,
null,,color_black,782641,,black_plus_sign,,,,null,,,,,,,,,,,,,,,,,,,,
null,,learn_phase(without_color),785644,,black_plus_sign,,,,null,GW/westpalmbeach.png,GW/gatlinburg.png,,,,,,,,,,,,,,,,,,
null,,black_cross(without_color),786704,,blue,,,,null,GW/westpalmbeach.png,GW/gatlinburg.png,,,,,,,,,,,,,,,,,,
null,,rt_plussign_withcolor,787206,,blue,,,,null,GW/westpalmbeach.png,GW/gatlinburg.png,,,,,,,,,,,,,,,,,,
982.9000000059605,,rt_thecrossant_black,788148,,black_plus_sign,,,,49,,,1,0.9642857142857143,,,,,,,,,,,,,,,,
null,,color_black,788250,,black_plus_sign,,,,null,,,,,,,,,,,,,,,,,,,,
null,,learn_phase(without_color),791252,,black_plus_sign,,,,null,GW/racine.png,GW/peoria.png,,,,,,,,,,,,,,,,,,
null,,black_cross(without_color),791655,,blue,,,,null,GW/racine.png,GW/peoria.png,,,,,,,,,,,,,,,,,,
null,,rt_plussign_withcolor,792156,,blue,,,,null,GW/racine.png,GW/peoria.png,,,,,,,,,,,,,,,,,,
1435.0999999940395,,rt_thecrossant_black,793755,,black_plus_sign,,,,49,,,1,0.9646017699115044,,,,,,,,,,,,,,,,
null,,color_black,793862,,black_plus_sign,,,,null,,,,,,,,,,,,,,,,,,,,
null,,learn_phase(without_color),796863,,black_plus_sign,,,,null,GW/gatlinburg.png,GW/hotsprings.png,,,,,,,,,,,,,,,,,,
null,,black_cross(without_color),797839,,blue,,,,null,GW/gatlinburg.png,GW/hotsprings.png,,,,,,,,,,,,,,,,,,
null,,rt_plussign_withcolor,798340,,blue,,,,null,GW/gatlinburg.png,GW/hotsprings.png,,,,,,,,,,,,,,,,,,
533.1999999880791,,rt_thecrossant_black,799368,,black_plus_sign,,,,49,,,1,0.9649122807017544,,,,,,,,,,,,,,,,
null,,color_black,799470,,black_plus_sign,,,,null,,,,,,,,,,,,,,,,,,,,
null,,learn_phase(without_color),802472,,black_plus_sign,,,,null,GW/hotsprings.png,GW/leesburg.png,,,,,,,,,,,,,,,,,,
null,,black_cross(without_color),802946,,yellow,,,,null,GW/hotsprings.png,GW/leesburg.png,,,,,,,,,,,,,,,,,,
null,,rt_plussign_withcolor,803447,,yellow,,,,null,GW/hotsprings.png,GW/leesburg.png,,,,,,,,,,,,,,,,,,
1293.2999999821186,,rt_thecrossant_black,804977,,black_plus_sign,,,,50,,,1,0.9652173913043478,,,,,,,,,,,,,,,,
null,,color_black,805078,,black_plus_sign,,,,null,,,,,,,,,,,,,,,,,,,,
null,,learn_phase(without_color),808081,,black_plus_sign,,,,null,GW/cornwall.png,GW/leesburg.png,,,,,,,,,,,,,,,,,,
null,,black_cross(without_color),808770,,yellow,,,,null,GW/cornwall.png,GW/leesburg.png,,,,,,,,,,,,,,,,,,
null,,rt_plussign_withcolor,809272,,yellow,,,,null,GW/cornwall.png,GW/leesburg.png,,,,,,,,,,,,,,,,,,
735.3999999761581,,rt_thecrossant_black,810598,,black_plus_sign,,,,50,,,1,0.9655172413793104,,,,,,,,,,,,,,,,
null,,color_black,810699,,black_plus_sign,,,,null,,,,,,,,,,,,,,,,,,,,
null,,learn_phase(without_color),813702,,black_plus_sign,,,,null,GW/cornwall.png,GW/racine.png,,,,,,,,,,,,,,,,,,
null,,black_cross(without_color),814663,,yellow,,,,null,GW/cornwall.png,GW/racine.png,,,,,,,,,,,,,,,,,,
null,,rt_plussign_withcolor,815164,,yellow,,,,null,GW/cornwall.png,GW/racine.png,,,,,,,,,,,,,,,,,,
911,,rt_thecrossant_black,816216,,black_plus_sign,,,,50,,,1,0.9658119658119658,,,,,,,,,,,,,,,,
null,,color_black,816323,,black_plus_sign,,,,null,,,,,,,,,,,,,,,,,,,,
null,,learn_phase(without_color),819326,,black_plus_sign,,,,null,GW/westpalmbeach.png,GW/gatlinburg.png,,,,,,,,,,,,,,,,,,
null,,black_cross(without_color),820195,,yellow,,,,null,GW/westpalmbeach.png,GW/gatlinburg.png,,,,,,,,,,,,,,,,,,
null,,rt_plussign_withcolor,820696,,yellow,,,,null,GW/westpalmbeach.png,GW/gatlinburg.png,,,,,,,,,,,,,,,,,,
1118.7000000178814,,rt_thecrossant_black,821831,,black_plus_sign,,,,50,,,1,0.9661016949152542,,,,,,,,,,,,,,,,
null,,color_black,821933,,black_plus_sign,,,,null,,,,,,,,,,,,,,,,,,,,
null,,learn_phase(without_color),824935,,black_plus_sign,,,,null,GW/shreveport.png,GW/westpalmbeach.png,,,,,,,,,,,,,,,,,,
null,,black_cross(without_color),825813,,yellow,,,,null,GW/shreveport.png,GW/westpalmbeach.png,,,,,,,,,,,,,,,,,,
null,,rt_plussign_withcolor,826314,,yellow,,,,null,GW/shreveport.png,GW/westpalmbeach.png,,,,,,,,,,,,,,,,,,
1109.9000000059605,,rt_thecrossant_black,827440,,black_plus_sign,,,,50,,,1,0.9663865546218487,,,,,,,,,,,,,,,,
null,,color_black,827542,,black_plus_sign,,,,null,,,,,,,,,,,,,,,,,,,,
null,,learn_phase(without_color),830543,,black_plus_sign,,,,null,GW/cornwall.png,GW/leesburg.png,,,,,,,,,,,,,,,,,,
null,,black_cross(without_color),831365,,blue,,,,null,GW/cornwall.png,GW/leesburg.png,,,,,,,,,,,,,,,,,,
null,,rt_plussign_withcolor,831867,,blue,,,,null,GW/cornwall.png,GW/leesburg.png,,,,,,,,,,,,,,,,,,
1203.5999999940395,,rt_thecrossant_black,833049,,black_plus_sign,,,,49,,,1,0.9666666666666667,,,,,,,,,,,,,,,,
null,,color_black,833150,,black_plus_sign,,,,null,,,,,,,,,,,,,,,,,,,,
null,,learn_phase(without_color),836152,,black_plus_sign,,,,null,GW/hotsprings.png,GW/leesburg.png,,,,,,,,,,,,,,,,,,
null,,black_cross(without_color),837081,,yellow,,,,null,GW/hotsprings.png,GW/leesburg.png,,,,,,,,,,,,,,,,,,
null,,rt_plussign_withcolor,837582,,yellow,,,,null,GW/hotsprings.png,GW/leesburg.png,,,,,,,,,,,,,,,,,,
1601.800000011921,,rt_thecrossant_black,838658,,black_plus_sign,,,,50,,,1,0.9669421487603306,,,,,,,,,,,,,,,,
null,,color_black,838759,,black_plus_sign,,,,null,,,,,,,,,,,,,,,,,,,,
null,,learn_phase(without_color),841761,,black_plus_sign,,,,null,GW/hotsprings.png,GW/gatlinburg.png,,,,,,,,,,,,,,,,,,
null,,black_cross(without_color),842399,,yellow,,,,null,GW/hotsprings.png,GW/gatlinburg.png,,,,,,,,,,,,,,,,,,
null,,rt_plussign_withcolor,842900,,yellow,,,,null,GW/hotsprings.png,GW/gatlinburg.png,,,,,,,,,,,,,,,,,,
1262.5,,rt_thecrossant_black,844265,,black_plus_sign,,,,50,,,1,0.9672131147540983,,,,,,,,,,,,,,,,
null,,color_black,844380,,black_plus_sign,,,,null,,,,,,,,,,,,,,,,,,,,
null,,learn_phase(without_color),847383,,black_plus_sign,,,,null,GW/gatlinburg.png,GW/hanover.png,,,,,,,,,,,,,,,,,,
null,,black_cross(without_color),848470,,blue,,,,null,GW/gatlinburg.png,GW/hanover.png,,,,,,,,,,,,,,,,,,
null,,rt_plussign_withcolor,848971,,blue,,,,null,GW/gatlinburg.png,GW/hanover.png,,,,,,,,,,,,,,,,,,
879.1999999880791,,rt_thecrossant_black,849902,,black_plus_sign,,,,49,,,1,0.967479674796748,,,,,,,,,,,,,,,,
null,,color_black,850004,,black_plus_sign,,,,null,,,,,,,,,,,,,,,,,,,,
null,,learn_phase(without_color),853007,,black_plus_sign,,,,null,GW/hanover.png,GW/westpalmbeach.png,,,,,,,,,,,,,,,,,,
null,,black_cross(without_color),853949,,blue,,,,null,GW/hanover.png,GW/westpalmbeach.png,,,,,,,,,,,,,,,,,,
null,,rt_plussign_withcolor,854450,,blue,,,,null,GW/hanover.png,GW/westpalmbeach.png,,,,,,,,,,,,,,,,,,
1494.5,,rt_thecrossant_black,855511,,black_plus_sign,,,,49,,,1,0.967741935483871,,,,,,,,,,,,,,,,
null,,color_black,855613,,black_plus_sign,,,,null,,,,,,,,,,,,,,,,,,,,
null,,learn_phase(without_color),858615,,black_plus_sign,,,,null,GW/hotsprings.png,GW/peoria.png,,,,,,,,,,,,,,,,,,
null,,black_cross(without_color),859052,,blue,,,,null,GW/hotsprings.png,GW/peoria.png,,,,,,,,,,,,,,,,,,
null,,rt_plussign_withcolor,859568,,blue,,,,null,GW/hotsprings.png,GW/peoria.png,,,,,,,,,,,,,,,,,,
1205.4000000059605,,rt_thecrossant_black,861133,,black_plus_sign,,,,49,,,1,0.968,,,,,,,,,,,,,,,,
null,,color_black,861234,,black_plus_sign,,,,null,,,,,,,,,,,,,,,,,,,,
null,,learn_phase(without_color),864237,,black_plus_sign,,,,null,GW/huntsville.png,GW/shreveport.png,,,,,,,,,,,,,,,,,,
null,,black_cross(without_color),864859,,blue,,,,null,GW/huntsville.png,GW/shreveport.png,,,,,,,,,,,,,,,,,,
null,,rt_plussign_withcolor,865360,,blue,,,,null,GW/huntsville.png,GW/shreveport.png,,,,,,,,,,,,,,,,,,
949.6999999880791,,rt_thecrossant_black,866741,,black_plus_sign,,,,49,,,1,0.9682539682539683,,,,,,,,,,,,,,,,
null,,color_black,866843,,black_plus_sign,,,,null,,,,,,,,,,,,,,,,,,,,
null,,learn_phase(without_color),869845,,black_plus_sign,,,,null,GW/westpalmbeach.png,GW/shreveport.png,,,,,,,,,,,,,,,,,,
null,,black_cross(without_color),870644,,yellow,,,,null,GW/westpalmbeach.png,GW/shreveport.png,,,,,,,,,,,,,,,,,,
479.40000000596046,,rt_plussign_withcolor,871145,,yellow,,,,50,GW/westpalmbeach.png,GW/shreveport.png,,,,,,,,,,,,,,,,,,
null,,rt_thecrossant_black,872355,,black_plus_sign,,,,null,,,1,0.968503937007874,,,,,,,,,,,,,,,,
null,,color_black,872457,,black_plus_sign,,,,null,,,,,,,,,,,,,,,,,,,,
null,,learn_phase(without_color),875459,,black_plus_sign,,,,null,GW/peoria.png,GW/racine.png,,,,,,,,,,,,,,,,,,
null,,black_cross(without_color),875904,,yellow,,,,null,GW/peoria.png,GW/racine.png,,,,,,,,,,,,,,,,,,
null,,rt_plussign_withcolor,876406,,yellow,,,,null,GW/peoria.png,GW/racine.png,,,,,,,,,,,,,,,,,,
1179.2999999821186,,rt_thecrossant_black,877963,,black_plus_sign,,,,50,,,1,0.96875,,,,,,,,,,,,,,,,
null,,color_black,878065,,black_plus_sign,,,,null,,,,,,,,,,,,,,,,,,,,
20620,,learn_break,898686,,learn_break,,,,32,,,,,,,,,,,,,,,,,,,,
13950,,intro_1,912636,,instruct,,0,Start,,,,,,,,,,,,,,,,,,,,,
4080.5999999940395,,directmemory_phase,916718,,GW/hanover.png,,,,49,,,1,1,GW/shreveport.png,GW/cornwall.png,GW/hotsprings.png,GW/shreveport.png,GW/hotsprings.png,GW/cornwall.png,1,,,,,,,,,
null,,html-keyboard-response,917720,,<p></p>,,,,null,,,,,,,,,,,,,,,,,,,,
3242.7999999821186,,directmemory_phase,920964,,GW/peoria.png,,,,49,,,1,1,GW/racine.png,GW/boulder.png,GW/hanover.png,GW/racine.png,GW/hanover.png,GW/boulder.png,1,,,,,,,,,
null,,html-keyboard-response,921966,,<p></p>,,,,null,,,,,,,,,,,,,,,,,,,,
1954.699999988079,,directmemory_phase,923921,,GW/shreveport.png,,,,49,,,1,1,GW/huntsville.png,GW/hotsprings.png,GW/gatlinburg.png,GW/huntsville.png,GW/gatlinburg.png,GW/hotsprings.png,1,,,,,,,,,
null,,html-keyboard-response,924923,,<p></p>,,,,null,,,,,,,,,,,,,,,,,,,,
2364.7999999821186,,directmemory_phase,927288,,GW/hanover.png,,,,50,,,1,1,GW/peoria.png,GW/gatlinburg.png,GW/newhope.png,GW/gatlinburg.png,GW/peoria.png,GW/newhope.png,1,,,,,,,,,
null,,html-keyboard-response,928289,,<p></p>,,,,null,,,,,,,,,,,,,,,,,,,,
1608.7000000178814,,directmemory_phase,929899,,GW/huntsville.png,,,,51,,,1,1,GW/hotsprings.png,GW/westpalmbeach.png,GW/shreveport.png,GW/shreveport.png,GW/westpalmbeach.png,GW/hotsprings.png,1,,,,,,,,,
null,,html-keyboard-response,930901,,<p></p>,,,,null,,,,,,,,,,,,,,,,,,,,
2517,,directmemory_phase,933419,,GW/newhope.png,,,,49,,,1,1,GW/leesburg.png,GW/westpalmbeach.png,GW/cornwall.png,GW/leesburg.png,GW/cornwall.png,GW/westpalmbeach.png,1,,,,,,,,,
null,,html-keyboard-response,934421,,<p></p>,,,,null,,,,,,,,,,,,,,,,,,,,
1395.300000011921,,directmemory_phase,935816,,GW/boulder.png,,,,49,,,1,1,GW/hanover.png,GW/racine.png,GW/shreveport.png,GW/hanover.png,GW/shreveport.png,GW/racine.png,1,,,,,,,,,
null,,html-keyboard-response,936817,,<p></p>,,,,null,,,,,,,,,,,,,,,,,,,,
3604.7000000178814,,directmemory_phase,940423,,GW/leesburg.png,,,,51,,,1,1,GW/boulder.png,GW/gatlinburg.png,GW/newhope.png,GW/newhope.png,GW/gatlinburg.png,GW/boulder.png,1,,,,,,,,,
null,,html-keyboard-response,941425,,<p></p>,,,,null,,,,,,,,,,,,,,,,,,,,
3471.4000000059605,,directmemory_phase,944897,,GW/hanover.png,,,,49,,,1,1,GW/boulder.png,GW/racine.png,GW/hotsprings.png,GW/boulder.png,GW/hotsprings.png,GW/racine.png,1,,,,,,,,,
null,,html-keyboard-response,945898,,<p></p>,,,,null,,,,,,,,,,,,,,,,,,,,
2144.300000011921,,directmemory_phase,948043,,GW/leesburg.png,,,,49,,,1,1,GW/cornwall.png,GW/boulder.png,GW/gatlinburg.png,GW/cornwall.png,GW/gatlinburg.png,GW/boulder.png,1,,,,,,,,,
null,,html-keyboard-response,949045,,<p></p>,,,,null,,,,,,,,,,,,,,,,,,,,
4648.300000011921,,directmemory_phase,953694,,GW/gatlinburg.png,,,,51,,,1,1,GW/newhope.png,GW/boulder.png,GW/westpalmbeach.png,GW/westpalmbeach.png,GW/boulder.png,GW/newhope.png,1,,,,,,,,,
null,,html-keyboard-response,954695,,<p></p>,,,,null,,,,,,,,,,,,,,,,,,,,
3599.699999988079,,directmemory_phase,958296,,GW/cornwall.png,,,,51,,,1,1,GW/hanover.png,GW/peoria.png,GW/carmel.png,GW/carmel.png,GW/peoria.png,GW/hanover.png,1,,,,,,,,,
null,,html-keyboard-response,959297,,<p></p>,,,,null,,,,,,,,,,,,,,,,,,,,
2999.9000000059605,,directmemory_phase,962298,,GW/hanover.png,,,,49,,,1,1,GW/westpalmbeach.png,GW/newhope.png,GW/hotsprings.png,GW/westpalmbeach.png,GW/hotsprings.png,GW/newhope.png,1,,,,,,,,,
null,,html-keyboard-response,963299,,<p></p>,,,,null,,,,,,,,,,,,,,,,,,,,
1991.2000000178814,,directmemory_phase,965291,,GW/racine.png,,,,49,,,1,1,GW/peoria.png,GW/gatlinburg.png,GW/hotsprings.png,GW/peoria.png,GW/hotsprings.png,GW/gatlinburg.png,1,,,,,,,,,
null,,html-keyboard-response,966293,,<p></p>,,,,null,,,,,,,,,,,,,,,,,,,,
2184.199999988079,,directmemory_phase,968478,,GW/westpalmbeach.png,,,,49,,,1,1,GW/shreveport.png,GW/cornwall.png,GW/hotsprings.png,GW/shreveport.png,GW/hotsprings.png,GW/cornwall.png,1,,,,,,,,,
null,,html-keyboard-response,969479,,<p></p>,,,,null,,,,,,,,,,,,,,,,,,,,
2100.4000000059605,,directmemory_phase,971580,,GW/carmel.png,,,,51,,,1,1,GW/gatlinburg.png,GW/racine.png,GW/cornwall.png,GW/cornwall.png,GW/racine.png,GW/gatlinburg.png,1,,,,,,,,,
null,,html-keyboard-response,972582,,<p></p>,,,,null,,,,,,,,,,,,,,,,,,,,
3681.2000000178814,,directmemory_phase,976264,,GW/westpalmbeach.png,,,,51,,,1,1,GW/cornwall.png,GW/huntsville.png,GW/peoria.png,GW/peoria.png,GW/huntsville.png,GW/cornwall.png,1,,,,,,,,,
null,,html-keyboard-response,977265,,<p></p>,,,,null,,,,,,,,,,,,,,,,,,,,
2196.800000011921,,directmemory_phase,979463,,GW/gatlinburg.png,,,,50,,,1,1,GW/boulder.png,GW/hotsprings.png,GW/huntsville.png,GW/hotsprings.png,GW/boulder.png,GW/huntsville.png,1,,,,,,,,,
null,,html-keyboard-response,980464,,<p></p>,,,,null,,,,,,,,,,,,,,,,,,,,
1489.800000011921,,directmemory_phase,981954,,GW/peoria.png,,,,50,,,1,1,GW/cornwall.png,GW/westpalmbeach.png,GW/carmel.png,GW/westpalmbeach.png,GW/cornwall.png,GW/carmel.png,1,,,,,,,,,
null,,html-keyboard-response,982956,,<p></p>,,,,null,,,,,,,,,,,,,,,,,,,,
4024.800000011921,,directmemory_phase,986982,,GW/hotsprings.png,,,,51,,,1,1,GW/boulder.png,GW/cornwall.png,GW/gatlinburg.png,GW/gatlinburg.png,GW/cornwall.png,GW/boulder.png,1,,,,,,,,,
null,,html-keyboard-response,987984,,<p></p>,,,,null,,,,,,,,,,,,,,,,,,,,
3299.0999999940395,,directmemory_phase,991284,,GW/shreveport.png,,,,51,,,1,1,GW/cornwall.png,GW/boulder.png,GW/westpalmbeach.png,GW/westpalmbeach.png,GW/boulder.png,GW/cornwall.png,1,,,,,,,,,
null,,html-keyboard-response,992285,,<p></p>,,,,null,,,,,,,,,,,,,,,,,,,,
3901.5,,directmemory_phase,996188,,GW/leesburg.png,,,,51,,,1,1,GW/boulder.png,GW/peoria.png,GW/hotsprings.png,GW/hotsprings.png,GW/peoria.png,GW/boulder.png,1,,,,,,,,,
null,,html-keyboard-response,997189,,<p></p>,,,,null,,,,,,,,,,,,,,,,,,,,
4119.100000023842,,directmemory_phase,1001309,,GW/gatlinburg.png,,,,50,,,1,1,GW/peoria.png,GW/hanover.png,GW/newhope.png,GW/hanover.png,GW/peoria.png,GW/newhope.png,1,,,,,,,,,
null,,html-keyboard-response,1002311,,<p></p>,,,,null,,,,,,,,,,,,,,,,,,,,
1853,,directmemory_phase,1004164,,GW/cornwall.png,,,,49,,,1,1,GW/leesburg.png,GW/shreveport.png,GW/newhope.png,GW/leesburg.png,GW/newhope.png,GW/shreveport.png,1,,,,,,,,,
null,,html-keyboard-response,1005166,,<p></p>,,,,null,,,,,,,,,,,,,,,,,,,,
2865.899999976158,,directmemory_phase,1008032,,GW/westpalmbeach.png,,,,51,,,1,1,GW/carmel.png,GW/huntsville.png,GW/hanover.png,GW/hanover.png,GW/huntsville.png,GW/carmel.png,1,,,,,,,,,
null,,html-keyboard-response,1009033,,<p></p>,,,,null,,,,,,,,,,,,,,,,,,,,
1947.9000000059605,,directmemory_phase,1010982,,GW/hotsprings.png,,,,49,,,0,0.9615384615384616,GW/westpalmbeach.png,GW/peoria.png,GW/huntsville.png,GW/peoria.png,GW/westpalmbeach.png,GW/huntsville.png,0.5,closer,,,,,,,,
null,,html-keyboard-response,1011984,,<p></p>,,,,null,,,,,,,,,,,,,,,,,,,,
3254.7999999821186,,directmemory_phase,1015240,,GW/shreveport.png,,,,51,,,1,0.9629629629629629,GW/racine.png,GW/boulder.png,GW/hanover.png,GW/hanover.png,GW/boulder.png,GW/racine.png,1,,,,,,,,,
null,,html-keyboard-response,1016241,,<p></p>,,,,null,,,,,,,,,,,,,,,,,,,,
2728.5,,directmemory_phase,1018970,,GW/westpalmbeach.png,,,,50,,,1,0.9642857142857143,GW/huntsville.png,GW/gatlinburg.png,GW/carmel.png,GW/gatlinburg.png,GW/huntsville.png,GW/carmel.png,1,,,,,,,,,
null,,html-keyboard-response,1019972,,<p></p>,,,,null,,,,,,,,,,,,,,,,,,,,
4499.200000017881,,directmemory_phase,1024472,,GW/cornwall.png,,,,49,,,1,0.9655172413793104,GW/racine.png,GW/gatlinburg.png,GW/newhope.png,GW/racine.png,GW/newhope.png,GW/gatlinburg.png,1,,,,,,,,,
null,,html-keyboard-response,1025486,,<p></p>,,,,null,,,,,,,,,,,,,,,,,,,,
null,,directmemory_phase,1031988,,GW/peoria.png,,,,null,,,0,0.9333333333333333,GW/hotsprings.png,GW/huntsville.png,GW/cornwall.png,GW/hotsprings.png,GW/cornwall.png,GW/huntsville.png,0,,,,,,,,,
null,,warning_page,1034989,,warning,,,,null,,,,,,,,,,,,,,,,,,,,
null,,html-keyboard-response,1035990,,<p></p>,,,,null,,,,,,,,,,,,,,,,,,,,
2429.899999976158,,directmemory_phase,1038421,,GW/racine.png,,,,49,,,1,0.9354838709677419,GW/cornwall.png,GW/hanover.png,GW/carmel.png,GW/cornwall.png,GW/carmel.png,GW/hanover.png,1,,,,,,,,,
null,,html-keyboard-response,1039423,,<p></p>,,,,null,,,,,,,,,,,,,,,,,,,,
2093,,directmemory_phase,1041516,,GW/hotsprings.png,,,,51,,,0,0.90625,GW/leesburg.png,GW/huntsville.png,GW/hanover.png,GW/leesburg.png,GW/hanover.png,GW/huntsville.png,0.5,closer,,,,,,,,
null,,html-keyboard-response,1042530,,<p></p>,,,,null,,,,,,,,,,,,,,,,,,,,
32905.69999998808,,intro_1,1075436,,instruct,,0,,,,,,,,,,,,,,,,,,,,,,
12560.799999982119,,intro_2,1087998,,instruct,,1,Next,,,,,,,,,,,,,,,,,,,,,
3665.600000023842,,intro_3,1091665,,instruct,,1,Next,,,,,,,,,,,,,,,,,,,,,
7180.199999988079,,intro_4,1098846,,instruct,,1,Next,,,,,,,,,,,,,,,,,,,,,
7965.299999982119,,intro_5,1106813,,instruct,,1,Next,,,,,,,,,,,,,,,,,,,,,
3788.5,,intro_6,1110602,,instruct,,1,Next,,,,,,,,,,,,,,,,,,,,,
6013.700000017881,,intro_7,1116617,,instruct,,1,Next,,,,,,,,,,,,,,,,,,,,,
8079.199999988079,,intro_8,1124697,,instruct,,1,Next,,,,,,,,,,,,,,,,,,,,,
5219.5999999940395,,shortestpath_phase,1129918,,GW/boulder.png,,,,50,GW/carmel.png,GW/cornwall.png,1,1,,,,GW/cornwall.png,,,,,One Edge Diff,Five Edge Six Edge,,,,,,
null,,html-keyboard-response,1130920,,<p></p>,,,,null,,,,,,,,,,,,,,,,,,,,
6331.4000000059605,,shortestpath_phase,1137252,,GW/huntsville.png,,,,50,GW/hotsprings.png,GW/carmel.png,0,0.5,,,,GW/hotsprings.png,,,,,Two Edge Diff,Four Edge Six Edge,,,,,,
null,,html-keyboard-response,1138261,,<p></p>,,,,null,,,,,,,,,,,,,,,,,,,,
3631.2000000178814,,shortestpath_phase,1141893,,GW/newhope.png,,,,49,GW/cornwall.png,GW/shreveport.png,1,0.6666666666666666,,,,GW/cornwall.png,,,,,Three Edge Diff,Three Edge Six Edge,,,,,,
null,,html-keyboard-response,1142905,,<p></p>,,,,null,,,,,,,,,,,,,,,,,,,,
2143.300000011921,,shortestpath_phase,1145049,,GW/leesburg.png,,,,50,GW/peoria.png,GW/westpalmbeach.png,0,0.5,,,,GW/peoria.png,,,,,One Edge Diff,Two Edge Three Edge,,,,,,
null,,html-keyboard-response,1146051,,<p></p>,,,,null,,,,,,,,,,,,,,,,,,,,
2774,,shortestpath_phase,1148825,,GW/cornwall.png,,,,50,GW/boulder.png,GW/hotsprings.png,1,0.6,,,,GW/hotsprings.png,,,,,Three Edge Diff,Two Edge Five Edge,,,,,,
null,,html-keyboard-response,1149827,,<p></p>,,,,null,,,,,,,,,,,,,,,,,,,,
2780.5,,shortestpath_phase,1152608,,GW/boulder.png,,,,50,GW/newhope.png,GW/gatlinburg.png,1,0.6666666666666666,,,,GW/gatlinburg.png,,,,,Three Edge Diff,Two Edge Five Edge,,,,,,
null,,html-keyboard-response,1153610,,<p></p>,,,,null,,,,,,,,,,,,,,,,,,,,
3980.9000000059605,,shortestpath_phase,1157591,,GW/huntsville.png,,,,50,GW/cornwall.png,GW/carmel.png,0,0.5714285714285714,,,,GW/cornwall.png,,,,,One Edge Diff,Five Edge Six Edge,,,,,,
null,,html-keyboard-response,1158593,,<p></p>,,,,null,,,,,,,,,,,,,,,,,,,,
2992.7999999821186,,shortestpath_phase,1161586,,GW/boulder.png,,,,50,GW/carmel.png,GW/gatlinburg.png,1,0.625,,,,GW/gatlinburg.png,,,,,Four Edge Diff,Two Edge Six Edge,,,,,,
null,,html-keyboard-response,1162588,,<p></p>,,,,null,,,,,,,,,,,,,,,,,,,,
5159.800000011921,,shortestpath_phase,1167749,,GW/huntsville.png,,,,50,GW/newhope.png,GW/hotsprings.png,1,0.6666666666666666,,,,GW/hotsprings.png,,,,,Two Edge Diff,Four Edge Six Edge,,,,,,
null,,html-keyboard-response,1168751,,<p></p>,,,,null,,,,,,,,,,,,,,,,,,,,
5199.5999999940395,,shortestpath_phase,1173951,,GW/newhope.png,,,,49,GW/boulder.png,GW/huntsville.png,1,0.7,,,,GW/boulder.png,,,,,One Edge Diff,Five Edge Six Edge,,,,,,
null,,html-keyboard-response,1174952,,<p></p>,,,,null,,,,,,,,,,,,,,,,,,,,
5168.700000017881,,shortestpath_phase,1180121,,GW/leesburg.png,,,,49,GW/shreveport.png,GW/racine.png,0,0.6363636363636364,,,,GW/racine.png,,,,,Two Edge Diff,Two Edge Four Edge,,,,,,
null,,html-keyboard-response,1181123,,<p></p>,,,,null,,,,,,,,,,,,,,,,,,,,
6303.9000000059605,,shortestpath_phase,1187428,,GW/newhope.png,,,,49,GW/hotsprings.png,GW/shreveport.png,1,0.6666666666666666,,,,GW/hotsprings.png,,,,,Three Edge Diff,Three Edge Six Edge,,,,,,
null,,html-keyboard-response,1188430,,<p></p>,,,,null,,,,,,,,,,,,,,,,,,,,
6637.799999982119,,shortestpath_phase,1195068,,GW/leesburg.png,,,,49,GW/boulder.png,GW/huntsville.png,1,0.6923076923076923,,,,GW/boulder.png,,,,,One Edge Diff,Four Edge Five Edge,,,,,,
null,,html-keyboard-response,1196070,,<p></p>,,,,null,,,,,,,,,,,,,,,,,,,,
4948,,shortestpath_phase,1201019,,GW/newhope.png,,,,49,GW/cornwall.png,GW/huntsville.png,1,0.7142857142857143,,,,GW/cornwall.png,,,,,Four Edge Diff,Two Edge Six Edge,,,,,,
null,,html-keyboard-response,1202020,,<p></p>,,,,null,,,,,,,,,,,,,,,,,,,,
3347.7999999821186,,shortestpath_phase,1205368,,GW/hanover.png,,,,49,GW/cornwall.png,GW/huntsville.png,0,0.6666666666666666,,,,GW/huntsville.png,,,,,Two Edge Diff,Two Edge Four Edge,,,,,,
null,,html-keyboard-response,1206370,,<p></p>,,,,null,,,,,,,,,,,,,,,,,,,,
2328.4000000059605,,shortestpath_phase,1208699,,GW/newhope.png,,,,49,GW/hotsprings.png,GW/boulder.png,1,0.6875,,,,GW/hotsprings.png,,,,,Three Edge Diff,Two Edge Five Edge,,,,,,
null,,html-keyboard-response,1209700,,<p></p>,,,,null,,,,,,,,,,,,,,,,,,,,
5769.699999988079,,shortestpath_phase,1215471,,GW/carmel.png,,,,49,GW/leesburg.png,GW/boulder.png,1,0.7058823529411765,,,,GW/leesburg.png,,,,,Four Edge Diff,Two Edge Six Edge,,,,,,
null,,html-keyboard-response,1216472,,<p></p>,,,,null,,,,,,,,,,,,,,,,,,,,
null,,shortestpath_phase,1223974,,GW/boulder.png,,,,null,GW/newhope.png,GW/carmel.png,0,0.6666666666666666,,,,GW/newhope.png,,,,,One Edge Diff,Five Edge Six Edge,,,,,,
null,,warning_page,1226975,,warning,,,,null,,,,,,,,,,,,,,,,,,,,
null,,html-keyboard-response,1227976,,<p></p>,,,,null,,,,,,,,,,,,,,,,,,,,
2847.9000000059605,,shortestpath_phase,1230824,,GW/carmel.png,,,,49,GW/westpalmbeach.png,GW/boulder.png,1,0.6842105263157895,,,,GW/westpalmbeach.png,,,,,Two Edge Diff,Four Edge Six Edge,,,,,,
null,,html-keyboard-response,1231827,,<p></p>,,,,null,,,,,,,,,,,,,,,,,,,,
2922.4000000059605,,shortestpath_phase,1234750,,GW/newhope.png,,,,50,GW/racine.png,GW/hanover.png,0,0.65,,,,GW/racine.png,,,,,One Edge Diff,Three Edge Four Edge,,,,,,
null,,html-keyboard-response,1235751,,<p></p>,,,,null,,,,,,,,,,,,,,,,,,,,
1797.7999999821186,,shortestpath_phase,1237550,,GW/shreveport.png,,,,49,GW/carmel.png,GW/peoria.png,0,0.6190476190476191,,,,GW/peoria.png,,,,,Three Edge Diff,Three Edge Six Edge,,,,,,
null,,html-keyboard-response,1238552,,<p></p>,,,,null,,,,,,,,,,,,,,,,,,,,
2343,,shortestpath_phase,1240895,,GW/carmel.png,,,,50,GW/hanover.png,GW/racine.png,1,0.6363636363636364,,,,GW/racine.png,,,,,Three Edge Diff,Three Edge Six Edge,,,,,,
null,,html-keyboard-response,1241897,,<p></p>,,,,null,,,,,,,,,,,,,,,,,,,,
2433.300000011921,,shortestpath_phase,1244331,,GW/huntsville.png,,,,49,GW/newhope.png,GW/leesburg.png,0,0.6086956521739131,,,,GW/leesburg.png,,,,,One Edge Diff,Five Edge Six Edge,,,,,,
null,,html-keyboard-response,1245332,,<p></p>,,,,null,,,,,,,,,,,,,,,,,,,,
2231.699999988079,,shortestpath_phase,1247565,,GW/hanover.png,,,,50,GW/newhope.png,GW/hotsprings.png,1,0.625,,,,GW/hotsprings.png,,,,,Two Edge Diff,Two Edge Four Edge,,,,,,
null,,html-keyboard-response,1248567,,<p></p>,,,,null,,,,,,,,,,,,,,,,,,,,
2150,,shortestpath_phase,1250717,,GW/carmel.png,,,,49,GW/leesburg.png,GW/peoria.png,1,0.64,,,,GW/leesburg.png,,,,,One Edge Diff,Two Edge Three Edge,,,,,,
null,,html-keyboard-response,1251720,,<p></p>,,,,null,,,,,,,,,,,,,,,,,,,,
2201,,shortestpath_phase,1253921,,GW/huntsville.png,,,,49,GW/peoria.png,GW/cornwall.png,1,0.6538461538461539,,,,GW/peoria.png,,,,,Two Edge Diff,Three Edge Five Edge,,,,,,
null,,html-keyboard-response,1254922,,<p></p>,,,,null,,,,,,,,,,,,,,,,,,,,
2770,,shortestpath_phase,1257693,,GW/cornwall.png,,,,49,GW/shreveport.png,GW/hotsprings.png,0,0.6296296296296297,,,,GW/hotsprings.png,,,,,Two Edge Diff,Two Edge Four Edge,,,,,,
null,,html-keyboard-response,1258695,,<p></p>,,,,null,,,,,,,,,,,,,,,,,,,,
2307.800000011921,,shortestpath_phase,1261003,,GW/peoria.png,,,,49,GW/carmel.png,GW/leesburg.png,0,0.6071428571428571,,,,GW/leesburg.png,,,,,One Edge Diff,Two Edge Three Edge,,,,,,
null,,html-keyboard-response,1262005,,<p></p>,,,,null,,,,,,,,,,,,,,,,,,,,
2922.4000000059605,,shortestpath_phase,1264928,,GW/shreveport.png,,,,49,GW/boulder.png,GW/newhope.png,1,0.6206896551724138,,,,GW/boulder.png,,,,,Three Edge Diff,Two Edge Five Edge,,,,,,
null,,html-keyboard-response,1265930,,<p></p>,,,,null,,,,,,,,,,,,,,,,,,,,
2371.9000000059605,,shortestpath_phase,1268303,,GW/cornwall.png,,,,49,GW/hanover.png,GW/boulder.png,1,0.6333333333333333,,,,GW/hanover.png,,,,,One Edge Diff,Four Edge Five Edge,,,,,,
null,,html-keyboard-response,1269304,,<p></p>,,,,null,,,,,,,,,,,,,,,,,,,,
2596.5999999940395,,shortestpath_phase,1271902,,GW/boulder.png,,,,50,GW/gatlinburg.png,GW/racine.png,0,0.6129032258064516,,,,GW/gatlinburg.png,,,,,Two Edge Diff,Two Edge Four Edge,,,,,,
null,,html-keyboard-response,1272903,,<p></p>,,,,null,,,,,,,,,,,,,,,,,,,,
2438.5999999940395,,shortestpath_phase,1275343,,GW/shreveport.png,,,,49,GW/carmel.png,GW/hotsprings.png,0,0.59375,,,,GW/hotsprings.png,,,,,Two Edge Diff,Three Edge Five Edge,,,,,,
null,,html-keyboard-response,1276344,,<p></p>,,,,null,,,,,,,,,,,,,,,,,,,,
1897.7999999821186,,shortestpath_phase,1278242,,GW/huntsville.png,,,,49,GW/leesburg.png,GW/boulder.png,0,0.5757575757575758,,,,GW/boulder.png,,,,,Two Edge Diff,Three Edge Five Edge,,,,,,
null,,html-keyboard-response,1279244,,<p></p>,,,,null,,,,,,,,,,,,,,,,,,,,
3408.5,,shortestpath_phase,1282653,,GW/newhope.png,,,,50,GW/boulder.png,GW/hanover.png,1,0.5882352941176471,,,,GW/hanover.png,,,,,One Edge Diff,Four Edge Five Edge,,,,,,
null,,html-keyboard-response,1283655,,<p></p>,,,,null,,,,,,,,,,,,,,,,,,,,
2814,,shortestpath_phase,1286470,,GW/boulder.png,,,,50,GW/cornwall.png,GW/leesburg.png,1,0.6,,,,GW/leesburg.png,,,,,One Edge Diff,Four Edge Five Edge,,,,,,
null,,html-keyboard-response,1287471,,<p></p>,,,,null,,,,,,,,,,,,,,,,,,,,
2793.5999999940395,,shortestpath_phase,1290265,,GW/carmel.png,,,,49,GW/gatlinburg.png,GW/peoria.png,0,0.5833333333333334,,,,GW/peoria.png,,,,,One Edge Diff,Three Edge Four Edge,,,,,,
null,,html-keyboard-response,1291267,,<p></p>,,,,null,,,,,,,,,,,,,,,,,,,,
2919.9000000059605,,shortestpath_phase,1294188,,GW/boulder.png,,,,49,GW/westpalmbeach.png,GW/newhope.png,1,0.5945945945945946,,,,GW/westpalmbeach.png,,,,,Three Edge Diff,Three Edge Six Edge,,,,,,
null,,html-keyboard-response,1295190,,<p></p>,,,,null,,,,,,,,,,,,,,,,,,,,
1440,,shortestpath_phase,1296631,,GW/carmel.png,,,,49,GW/leesburg.png,GW/huntsville.png,1,0.6052631578947368,,,,GW/leesburg.png,,,,,Four Edge Diff,Two Edge Six Edge,,,,,,
null,,html-keyboard-response,1297632,,<p></p>,,,,null,,,,,,,,,,,,,,,,,,,,
1427.5999999940395,,shortestpath_phase,1299060,,GW/cornwall.png,,,,50,GW/hanover.png,GW/westpalmbeach.png,1,0.6153846153846154,,,,GW/westpalmbeach.png,,,,,One Edge Diff,Three Edge Four Edge,,,,,,
null,,html-keyboard-response,1300062,,<p></p>,,,,null,,,,,,,,,,,,,,,,,,,,
2846.699999988079,,shortestpath_phase,1302909,,GW/boulder.png,,,,49,GW/hotsprings.png,GW/newhope.png,1,0.625,,,,GW/hotsprings.png,,,,,Two Edge Diff,Three Edge Five Edge,,,,,,
null,,html-keyboard-response,1303910,,<p></p>,,,,null,,,,,,,,,,,,,,,,,,,,
1151.5,,shortestpath_phase,1305063,,GW/carmel.png,,,,50,GW/huntsville.png,GW/westpalmbeach.png,1,0.6341463414634146,,,,GW/westpalmbeach.png,,,,,Two Edge Diff,Four Edge Six Edge,,,,,,
null,,html-keyboard-response,1306066,,<p></p>,,,,null,,,,,,,,,,,,,,,,,,,,
3134.2999999821186,,shortestpath_phase,1309201,,GW/cornwall.png,,,,50,GW/peoria.png,GW/boulder.png,0,0.6190476190476191,,,,GW/peoria.png,,,,,Three Edge Diff,Three Edge Six Edge,,,,,,
null,,html-keyboard-response,1310203,,<p></p>,,,,null,,,,,,,,,,,,,,,,,,,,
2661.4000000059605,,shortestpath_phase,1312865,,GW/leesburg.png,,,,49,GW/shreveport.png,GW/hanover.png,0,0.6046511627906976,,,,GW/hanover.png,,,,,One Edge Diff,Three Edge Four Edge,,,,,,
null,,html-keyboard-response,1313866,,<p></p>,,,,null,,,,,,,,,,,,,,,,,,,,
2548.7000000178814,,shortestpath_phase,1316416,,GW/westpalmbeach.png,,,,49,GW/cornwall.png,GW/carmel.png,1,0.6136363636363636,,,,GW/cornwall.png,,,,,One Edge Diff,Three Edge Four Edge,,,,,,
null,,html-keyboard-response,1317418,,<p></p>,,,,null,,,,,,,,,,,,,,,,,,,,
1810.5999999940395,,shortestpath_phase,1319230,,GW/carmel.png,,,,50,GW/boulder.png,GW/racine.png,1,0.6222222222222222,,,,GW/racine.png,,,,,Four Edge Diff,Two Edge Six Edge,,,,,,
null,,html-keyboard-response,1320231,,<p></p>,,,,null,,,,,,,,,,,,,,,,,,,,
2819.100000023842,,shortestpath_phase,1323051,,GW/huntsville.png,,,,49,GW/newhope.png,GW/westpalmbeach.png,0,0.6086956521739131,,,,GW/westpalmbeach.png,,,,,Four Edge Diff,Two Edge Six Edge,,,,,,
null,,html-keyboard-response,1324058,,<p></p>,,,,null,,,,,,,,,,,,,,,,,,,,
1748.199999988079,,shortestpath_phase,1325807,,GW/cornwall.png,,,,49,GW/hanover.png,GW/huntsville.png,1,0.6170212765957447,,,,GW/hanover.png,,,,,One Edge Diff,Four Edge Five Edge,,,,,,
null,,html-keyboard-response,1326809,,<p></p>,,,,null,,,,,,,,,,,,,,,,,,,,
3042.800000011921,,shortestpath_phase,1329853,,GW/carmel.png,,,,49,GW/gatlinburg.png,GW/boulder.png,1,0.625,,,,GW/gatlinburg.png,,,,,Two Edge Diff,Four Edge Six Edge,,,,,,
null,,html-keyboard-response,1330855,,<p></p>,,,,null,,,,,,,,,,,,,,,,,,,,
2867.4000000059605,,shortestpath_phase,1333723,,GW/shreveport.png,,,,49,GW/hotsprings.png,GW/newhope.png,1,0.6326530612244898,,,,GW/hotsprings.png,,,,,Two Edge Diff,Three Edge Five Edge,,,,,,
null,,html-keyboard-response,1334725,,<p></p>,,,,null,,,,,,,,,,,,,,,,,,,,
1949.7999999821186,,shortestpath_phase,1336675,,GW/huntsville.png,,,,50,GW/cornwall.png,GW/hanover.png,1,0.64,,,,GW/hanover.png,,,,,Three Edge Diff,Three Edge Six Edge,,,,,,
null,,html-keyboard-response,1337678,,<p></p>,,,,null,,,,,,,,,,,,,,,,,,,,
2454.699999988079,,shortestpath_phase,1340133,,GW/cornwall.png,,,,50,GW/huntsville.png,GW/hotsprings.png,1,0.6470588235294118,,,,GW/hotsprings.png,,,,,Three Edge Diff,Two Edge Five Edge,,,,,,
null,,html-keyboard-response,1341135,,<p></p>,,,,null,,,,,,,,,,,,,,,,,,,,
2407.5999999940395,,shortestpath_phase,1343544,,GW/shreveport.png,,,,49,GW/gatlinburg.png,GW/newhope.png,1,0.6538461538461539,,,,GW/gatlinburg.png,,,,,Three Edge Diff,Three Edge Six Edge,,,,,,
null,,html-keyboard-response,1344545,,<p></p>,,,,null,,,,,,,,,,,,,,,,,,,,
3000.199999988079,,shortestpath_phase,1347546,,GW/newhope.png,,,,49,GW/hotsprings.png,GW/boulder.png,1,0.660377358490566,,,,GW/hotsprings.png,,,,,Three Edge Diff,Three Edge Six Edge,,,,,,
null,,html-keyboard-response,1348548,,<p></p>,,,,null,,,,,,,,,,,,,,,,,,,,
1999.0999999940395,,shortestpath_phase,1350548,,GW/leesburg.png,,,,50,GW/huntsville.png,GW/racine.png,1,0.6666666666666666,,,,GW/racine.png,,,,,Three Edge Diff,Three Edge Six Edge,,,,,,
null,,html-keyboard-response,1351549,,<p></p>,,,,null,,,,,,,,,,,,,,,,,,,,
2298.5999999940395,,shortestpath_phase,1353849,,GW/newhope.png,,,,50,GW/huntsville.png,GW/hotsprings.png,1,0.6727272727272727,,,,GW/hotsprings.png,,,,,Four Edge Diff,Two Edge Six Edge,,,,,,
null,,html-keyboard-response,1354851,,<p></p>,,,,null,,,,,,,,,,,,,,,,,,,,
3306.399999976158,,shortestpath_phase,1358158,,GW/carmel.png,,,,49,GW/shreveport.png,GW/racine.png,0,0.6607142857142857,,,,GW/racine.png,,,,,Three Edge Diff,Two Edge Five Edge,,,,,,
null,,html-keyboard-response,1359160,,<p></p>,,,,null,,,,,,,,,,,,,,,,,,,,
2260.2999999821186,,shortestpath_phase,1361421,,GW/newhope.png,,,,50,GW/shreveport.png,GW/hotsprings.png,1,0.6666666666666666,,,,GW/hotsprings.png,,,,,Three Edge Diff,Two Edge Five Edge,,,,,,
null,,html-keyboard-response,1362423,,<p></p>,,,,null,,,,,,,,,,,,,,,,,,,,
2695,,shortestpath_phase,1365119,,GW/huntsville.png,,,,50,GW/hanover.png,GW/carmel.png,0,0.6551724137931034,,,,GW/hanover.png,,,,,Four Edge Diff,Two Edge Six Edge,,,,,,
null,,html-keyboard-response,1366121,,<p></p>,,,,null,,,,,,,,,,,,,,,,,,,,
2586,,shortestpath_phase,1368707,,GW/cornwall.png,,,,50,GW/boulder.png,GW/hotsprings.png,1,0.6610169491525424,,,,GW/hotsprings.png,,,,,Three Edge Diff,Three Edge Six Edge,,,,,,
null,,html-keyboard-response,1369710,,<p></p>,,,,null,,,,,,,,,,,,,,,,,,,,
3195.699999988079,,shortestpath_phase,1372906,,GW/boulder.png,,,,50,GW/leesburg.png,GW/carmel.png,0,0.65,,,,GW/leesburg.png,,,,,Two Edge Diff,Four Edge Six Edge,,,,,,
null,,html-keyboard-response,1373913,,<p></p>,,,,null,,,,,,,,,,,,,,,,,,,,
2875.199999988079,,shortestpath_phase,1376789,,GW/hotsprings.png,,,,49,GW/westpalmbeach.png,GW/huntsville.png,1,0.6557377049180327,,,,GW/westpalmbeach.png,,,,,Two Edge Diff,Two Edge Four Edge,,,,,,
null,,html-keyboard-response,1377791,,<p></p>,,,,null,,,,,,,,,,,,,,,,,,,,
3427.600000023842,,shortestpath_phase,1381219,,GW/huntsville.png,,,,50,GW/hanover.png,GW/cornwall.png,0,0.6451612903225806,,,,GW/hanover.png,,,,,Three Edge Diff,Two Edge Five Edge,,,,,,
null,,html-keyboard-response,1382221,,<p></p>,,,,null,,,,,,,,,,,,,,,,,,,,
3274.199999988079,,shortestpath_phase,1385496,,GW/leesburg.png,,,,50,GW/huntsville.png,GW/gatlinburg.png,1,0.6507936507936508,,,,GW/gatlinburg.png,,,,,Three Edge Diff,Two Edge Five Edge,,,,,,
null,,html-keyboard-response,1386497,,<p></p>,,,,null,,,,,,,,,,,,,,,,,,,,
3154.5999999940395,,shortestpath_phase,1389653,,GW/boulder.png,,,,49,GW/carmel.png,GW/shreveport.png,0,0.640625,,,,GW/shreveport.png,,,,,Four Edge Diff,Two Edge Six Edge,,,,,,
null,,html-keyboard-response,1390654,,<p></p>,,,,null,,,,,,,,,,,,,,,,,,,,
3708.5,,shortestpath_phase,1394363,,GW/cornwall.png,,,,49,GW/newhope.png,GW/boulder.png,1,0.6461538461538462,,,,GW/newhope.png,,,,,Three Edge Diff,Two Edge Five Edge,,,,,,
null,,html-keyboard-response,1395365,,<p></p>,,,,null,,,,,,,,,,,,,,,,,,,,
1760.4000000059605,,shortestpath_phase,1397126,,GW/carmel.png,,,,50,GW/leesburg.png,GW/shreveport.png,0,0.6363636363636364,,,,GW/leesburg.png,,,,,Three Edge Diff,Three Edge Six Edge,,,,,,
null,,html-keyboard-response,1398128,,<p></p>,,,,null,,,,,,,,,,,,,,,,,,,,
3335.4000000059605,,shortestpath_phase,1401465,,GW/boulder.png,,,,50,GW/cornwall.png,GW/hotsprings.png,1,0.6417910447761194,,,,GW/hotsprings.png,,,,,Two Edge Diff,Three Edge Five Edge,,,,,,
null,,html-keyboard-response,1402467,,<p></p>,,,,null,,,,,,,,,,,,,,,,,,,,
2637.100000023842,,shortestpath_phase,1405104,,GW/hanover.png,,,,50,GW/huntsville.png,GW/carmel.png,0,0.6323529411764706,,,,GW/huntsville.png,,,,,Three Edge Diff,Two Edge Five Edge,,,,,,
null,,html-keyboard-response,1406105,,<p></p>,,,,null,,,,,,,,,,,,,,,,,,,,
3440.0999999940395,,shortestpath_phase,1409546,,GW/newhope.png,,,,50,GW/huntsville.png,GW/westpalmbeach.png,1,0.6376811594202898,,,,GW/westpalmbeach.png,,,,,Two Edge Diff,Four Edge Six Edge,,,,,,
null,,html-keyboard-response,1410547,,<p></p>,,,,null,,,,,,,,,,,,,,,,,,,,
3341.2000000178814,,shortestpath_phase,1413889,,GW/peoria.png,,,,49,GW/huntsville.png,GW/hanover.png,0,0.6285714285714286,,,,GW/hanover.png,,,,,One Edge Diff,Two Edge Three Edge,,,,,,
null,,html-keyboard-response,1414891,,<p></p>,,,,null,,,,,,,,,,,,,,,,,,,,
3747.4000000059605,,shortestpath_phase,1418639,,GW/cornwall.png,,,,50,GW/huntsville.png,GW/shreveport.png,1,0.6338028169014085,,,,GW/shreveport.png,,,,,One Edge Diff,Four Edge Five Edge,,,,,,
null,,html-keyboard-response,1419641,,<p></p>,,,,null,,,,,,,,,,,,,,,,,,,,
2390.699999988079,,shortestpath_phase,1422032,,GW/huntsville.png,,,,50,GW/newhope.png,GW/hanover.png,1,0.6388888888888888,,,,GW/hanover.png,,,,,Four Edge Diff,Two Edge Six Edge,,,,,,
null,,html-keyboard-response,1423036,,<p></p>,,,,null,,,,,,,,,,,,,,,,,,,,
3808.300000011921,,shortestpath_phase,1426845,,GW/racine.png,,,,50,GW/gatlinburg.png,GW/boulder.png,0,0.6301369863013698,,,,GW/gatlinburg.png,,,,,One Edge Diff,Three Edge Four Edge,,,,,,
null,,html-keyboard-response,1427847,,<p></p>,,,,null,,,,,,,,,,,,,,,,,,,,
2466.2999999821186,,shortestpath_phase,1430314,,GW/hotsprings.png,,,,49,GW/hanover.png,GW/carmel.png,1,0.6351351351351351,,,,GW/hanover.png,,,,,One Edge Diff,Two Edge Three Edge,,,,,,
null,,html-keyboard-response,1431316,,<p></p>,,,,null,,,,,,,,,,,,,,,,,,,,
1734.800000011921,,shortestpath_phase,1433051,,GW/carmel.png,,,,49,GW/racine.png,GW/huntsville.png,1,0.64,,,,GW/racine.png,,,,,Four Edge Diff,Two Edge Six Edge,,,,,,
null,,html-keyboard-response,1434054,,<p></p>,,,,null,,,,,,,,,,,,,,,,,,,,
2339.199999988079,,shortestpath_phase,1436394,,GW/boulder.png,,,,50,GW/leesburg.png,GW/westpalmbeach.png,1,0.6447368421052632,,,,GW/westpalmbeach.png,,,,,Two Edge Diff,Two Edge Four Edge,,,,,,
null,,html-keyboard-response,1437396,,<p></p>,,,,null,,,,,,,,,,,,,,,,,,,,
3204.199999988079,,shortestpath_phase,1440601,,GW/huntsville.png,,,,50,GW/racine.png,GW/newhope.png,0,0.6363636363636364,,,,GW/racine.png,,,,,Two Edge Diff,Four Edge Six Edge,,,,,,
null,,html-keyboard-response,1441603,,<p></p>,,,,null,,,,,,,,,,,,,,,,,,,,
2852.5999999940395,,shortestpath_phase,1444456,,GW/carmel.png,,,,49,GW/hanover.png,GW/leesburg.png,0,0.6282051282051282,,,,GW/leesburg.png,,,,,Three Edge Diff,Two Edge Five Edge,,,,,,
null,,html-keyboard-response,1445458,,<p></p>,,,,null,,,,,,,,,,,,,,,,,,,,
2480.199999988079,,shortestpath_phase,1447939,,GW/racine.png,,,,49,GW/westpalmbeach.png,GW/shreveport.png,1,0.6329113924050633,,,,GW/westpalmbeach.png,,,,,One Edge Diff,Two Edge Three Edge,,,,,,
null,,html-keyboard-response,1448941,,<p></p>,,,,null,,,,,,,,,,,,,,,,,,,,
3448.0999999940395,,shortestpath_phase,1452390,,GW/huntsville.png,,,,49,GW/leesburg.png,GW/carmel.png,1,0.6375,,,,GW/leesburg.png,,,,,One Edge Diff,Five Edge Six Edge,,,,,,
null,,html-keyboard-response,1453392,,<p></p>,,,,null,,,,,,,,,,,,,,,,,,,,
2632.0999999940395,,shortestpath_phase,1456025,,GW/boulder.png,,,,49,GW/carmel.png,GW/westpalmbeach.png,0,0.6296296296296297,,,,GW/westpalmbeach.png,,,,,Four Edge Diff,Two Edge Six Edge,,,,,,
null,,html-keyboard-response,1457028,,<p></p>,,,,null,,,,,,,,,,,,,,,,,,,,
2521.2999999821186,,shortestpath_phase,1459550,,GW/racine.png,,,,49,GW/leesburg.png,GW/huntsville.png,1,0.6341463414634146,,,,GW/leesburg.png,,,,,Two Edge Diff,Two Edge Four Edge,,,,,,
null,,html-keyboard-response,1460551,,<p></p>,,,,null,,,,,,,,,,,,,,,,,,,,
2250.5,,shortestpath_phase,1462802,,GW/carmel.png,,,,50,GW/peoria.png,GW/hanover.png,0,0.6265060240963856,,,,GW/peoria.png,,,,,Two Edge Diff,Three Edge Five Edge,,,,,,
null,,html-keyboard-response,1463813,,<p></p>,,,,null,,,,,,,,,,,,,,,,,,,,
3133.2999999821186,,shortestpath_phase,1466947,,GW/boulder.png,,,,50,GW/huntsville.png,GW/newhope.png,0,0.6190476190476191,,,,GW/huntsville.png,,,,,Two Edge Diff,Three Edge Five Edge,,,,,,
null,,html-keyboard-response,1467949,,<p></p>,,,,null,,,,,,,,,,,,,,,,,,,,
3596,,intro_1,1471546,,instruct,,0,,,,,,,,,,,,,,,,,,,,,,
2536.5,,intro_2,1474083,,instruct,,1,Next,,,,,,,,,,,,,,,,,,,,,
7353.300000011921,,intro_3,1481438,,instruct,,1,Next,,,,,,,,,,,,,,,,,,,,,
2690.699999988079,,intro_4,1484130,,instruct,,1,Next,,,,,,,,,,,,,,,,,,,,,
3421.7999999821186,,intro_5,1487552,,instruct,,1,Next,,,,,,,,,,,,,,,,,,,,,
