rt,responses,trial_type,time_elapsed,sequence,stimulus,graphorder,button_pressed,response,key_press,stimulus_left,stimulus_right,accuracy,cumulative_accuracy,stimulus_down_left,stimulus_down_mid,stimulus_down_right,stimulus_correct,stimulus_short,stimulus_far,weighted_accuracy,missedtrial,condition,specific_pairs,imgL_ID,imgR_ID,linedress,linedressed,detour_trial,linedressed_detor
34345.299999952316,{worker_id:65d563ecf8df20ade2f17888},id_enter,34349,blocked,replication,GW/shreveport.png; GW/peoria.png; GW/westpalmbeach.png; GW/gatlinburg.png; GW/racine.png; GW/cornwall.png; GW/newhope.png; GW/huntsville.png; GW/hotsprings.png; GW/leesburg.png; GW/hanover.png; GW/boulder.png; GW/carmel.png,,,,,,,,,,,,,,,,,,,,,,,
34217,,fullscreen,68570,,fullscreen,,0,,,,,,,,,,,,,,,,,,,,,,
57820.300000071526,,intro_1,126392,,instruct,,0,,,,,,,,,,,,,,,,,,,,,,
19845.700000047684,,intro_2,146239,,instruct,,1,Next,,,,,,,,,,,,,,,,,,,,,
12482,,intro_3,158722,,instruct,,1,Next,,,,,,,,,,,,,,,,,,,,,
null,,learn_prac_1,161732,,lean_prac_1,,,,null,,,,,,,,,,,,,,,,,,,,
null,,html-keyboard-response,162741,,<p></p>,,,,null,,,,,,,,,,,,,,,,,,,,
8299.600000023842,,intro_1,171043,,instruct,,0,,,,,,,,,,,,,,,,,,,,,,
14302.899999976158,,intro_2,185346,,instruct,,1,Next,,,,,,,,,,,,,,,,,,,,,
null,,learn_prac_2,188349,,lean_prac_2,,,,null,,,,,,,,,,,,,,,,,,,,
null,,html-keyboard-response,189353,,<p></p>,,,,null,,,,,,,,,,,,,,,,,,,,
5852.199999928474,,intro_1,195207,,instruct,,0,,,,,,,,,,,,,,,,,,,,,,
6821.5,,intro_2,202030,,instruct,,1,Next,,,,,,,,,,,,,,,,,,,,,
48981.90000009537,,intro_3,251013,,instruct,,1,Next,,,,,,,,,,,,,,,,,,,,,
null,,prac_atten_color_black,251493,,black_plus_sign,,,,null,,,,,,,,,,,,,,,,,,,,
345.39999997615814,,prac_atten_color,252423,,prac_stop_color,,,,49,,,,,,,,,,,,,,,,,,,,
null,,prac_atten_color_black,254426,,black_plus_sign,,,,null,,,,,,,,,,,,,,,,,,,,
null,,prac_atten_color_black,254901,,black_plus_sign,,,,null,,,,,,,,,,,,,,,,,,,,
474.89999997615814,,prac_atten_color,255640,,prac_stop_color,,,,50,,,,,,,,,,,,,,,,,,,,
null,,prac_atten_color_black,257642,,black_plus_sign,,,,null,,,,,,,,,,,,,,,,,,,,
null,,prac_atten_color_black,258309,,black_plus_sign,,,,null,,,,,,,,,,,,,,,,,,,,
576,,prac_atten_color,259093,,prac_stop_color,,,,50,,,,,,,,,,,,,,,,,,,,
null,,prac_atten_color_black,261095,,black_plus_sign,,,,null,,,,,,,,,,,,,,,,,,,,
null,,prac_atten_color_black,261724,,black_plus_sign,,,,null,,,,,,,,,,,,,,,,,,,,
544.3999999761581,,prac_atten_color,262789,,prac_stop_color,,,,49,,,,,,,,,,,,,,,,,,,,
null,,prac_atten_color_black,264793,,black_plus_sign,,,,null,,,,,,,,,,,,,,,,,,,,
null,,prac_atten_color_black,265141,,black_plus_sign,,,,null,,,,,,,,,,,,,,,,,,,,
566.2000000476837,,prac_atten_color,266076,,prac_stop_color,,,,50,,,,,,,,,,,,,,,,,,,,
null,,prac_atten_color_black,268085,,black_plus_sign,,,,null,,,,,,,,,,,,,,,,,,,,
null,,prac_atten_color_black,268565,,black_plus_sign,,,,null,,,,,,,,,,,,,,,,,,,,
386.7000000476837,,prac_atten_color,269659,,prac_stop_color,,,,50,,,,,,,,,,,,,,,,,,,,
null,,prac_atten_color_black,271669,,black_plus_sign,,,,null,,,,,,,,,,,,,,,,,,,,
null,,prac_atten_color_black,271989,,black_plus_sign,,,,null,,,,,,,,,,,,,,,,,,,,
601.8999999761581,,prac_atten_color,273015,,prac_stop_color,,,,49,,,,,,,,,,,,,,,,,,,,
null,,prac_atten_color_black,275016,,black_plus_sign,,,,null,,,,,,,,,,,,,,,,,,,,
null,,prac_atten_color_black,275397,,black_plus_sign,,,,null,,,,,,,,,,,,,,,,,,,,
null,,prac_atten_color,275812,,prac_stop_color,,,,null,,,,,,,,,,,,,,,,,,,,
82.29999995231628,,prac_atten_color_black,277813,,black_plus_sign,,,,50,,,,,,,,,,,,,,,,,,,,
null,,prac_atten_color_black,278805,,black_plus_sign,,,,null,,,,,,,,,,,,,,,,,,,,
518.8999999761581,,prac_atten_color,279749,,prac_stop_color,,,,49,,,,,,,,,,,,,,,,,,,,
null,,prac_atten_color_black,281752,,black_plus_sign,,,,null,,,,,,,,,,,,,,,,,,,,
null,,prac_atten_color_black,282218,,black_plus_sign,,,,null,,,,,,,,,,,,,,,,,,,,
null,,prac_atten_color,282630,,prac_stop_color,,,,null,,,,,,,,,,,,,,,,,,,,
40.10000002384186,,prac_atten_color_black,284631,,black_plus_sign,,,,49,,,,,,,,,,,,,,,,,,,,
7413.399999976158,,attentioncheck_feedback,292046,,cross_check_feedback,,0,,,,,,,,,,,,,,,,,,,,,,
21284.600000023842,,last_instruct,313331,,instruct,,,,32,,,,,,,,,,,,,,,,,,,,
null,,learn_phase(without_color),316340,,black_plus_sign,,,,null,GW/hotsprings.png,GW/huntsville.png,,,,,,,,,,,,,,,,,,
null,,black_cross(without_color),317061,,yellow,,,,null,GW/hotsprings.png,GW/huntsville.png,,,,,,,,,,,,,,,,,,
null,,rt_plussign_withcolor,317563,,yellow,,,,null,GW/hotsprings.png,GW/huntsville.png,,,,,,,,,,,,,,,,,,
1974.1999999284744,,rt_thecrossant_black,318854,,black_plus_sign,,,,50,,,1,1,,,,,,,,,,,,,,,,
null,,color_black,318965,,black_plus_sign,,,,null,,,,,,,,,,,,,,,,,,,,
null,,learn_phase(without_color),321973,,black_plus_sign,,,,null,GW/newhope.png,GW/cornwall.png,,,,,,,,,,,,,,,,,,
null,,black_cross(without_color),322555,,blue,,,,null,GW/newhope.png,GW/cornwall.png,,,,,,,,,,,,,,,,,,
448.60000002384186,,rt_plussign_withcolor,323061,,blue,,,,49,GW/newhope.png,GW/cornwall.png,,,,,,,,,,,,,,,,,,
null,,rt_thecrossant_black,324485,,black_plus_sign,,,,null,,,1,1,,,,,,,,,,,,,,,,
null,,color_black,324589,,black_plus_sign,,,,null,,,,,,,,,,,,,,,,,,,,
null,,learn_phase(without_color),327591,,black_plus_sign,,,,null,GW/gatlinburg.png,GW/racine.png,,,,,,,,,,,,,,,,,,
null,,black_cross(without_color),328549,,blue,,,,null,GW/gatlinburg.png,GW/racine.png,,,,,,,,,,,,,,,,,,
null,,rt_plussign_withcolor,329053,,blue,,,,null,GW/gatlinburg.png,GW/racine.png,,,,,,,,,,,,,,,,,,
851.8999999761581,,rt_thecrossant_black,330101,,black_plus_sign,,,,49,,,1,1,,,,,,,,,,,,,,,,
null,,color_black,330204,,black_plus_sign,,,,null,,,,,,,,,,,,,,,,,,,,
null,,learn_phase(without_color),333209,,black_plus_sign,,,,null,GW/huntsville.png,GW/hotsprings.png,,,,,,,,,,,,,,,,,,
null,,black_cross(without_color),334150,,blue,,,,null,GW/huntsville.png,GW/hotsprings.png,,,,,,,,,,,,,,,,,,
null,,rt_plussign_withcolor,334653,,blue,,,,null,GW/huntsville.png,GW/hotsprings.png,,,,,,,,,,,,,,,,,,
1307.7999999523163,,rt_thecrossant_black,335719,,black_plus_sign,,,,49,,,1,1,,,,,,,,,,,,,,,,
null,,color_black,335821,,black_plus_sign,,,,null,,,,,,,,,,,,,,,,,,,,
null,,learn_phase(without_color),338822,,black_plus_sign,,,,null,GW/westpalmbeach.png,GW/peoria.png,,,,,,,,,,,,,,,,,,
null,,black_cross(without_color),339894,,yellow,,,,null,GW/westpalmbeach.png,GW/peoria.png,,,,,,,,,,,,,,,,,,
null,,rt_plussign_withcolor,340397,,yellow,,,,null,GW/westpalmbeach.png,GW/peoria.png,,,,,,,,,,,,,,,,,,
1091.6999999284744,,rt_thecrossant_black,341333,,black_plus_sign,,,,50,,,1,1,,,,,,,,,,,,,,,,
null,,color_black,341435,,black_plus_sign,,,,null,,,,,,,,,,,,,,,,,,,,
null,,learn_phase(without_color),344437,,black_plus_sign,,,,null,GW/gatlinburg.png,GW/racine.png,,,,,,,,,,,,,,,,,,
null,,black_cross(without_color),345307,,yellow,,,,null,GW/gatlinburg.png,GW/racine.png,,,,,,,,,,,,,,,,,,
null,,rt_plussign_withcolor,345813,,yellow,,,,null,GW/gatlinburg.png,GW/racine.png,,,,,,,,,,,,,,,,,,
1355.8000000715256,,rt_thecrossant_black,346949,,black_plus_sign,,,,50,,,1,1,,,,,,,,,,,,,,,,
null,,color_black,347051,,black_plus_sign,,,,null,,,,,,,,,,,,,,,,,,,,
null,,learn_phase(without_color),350054,,black_plus_sign,,,,null,GW/hotsprings.png,GW/huntsville.png,,,,,,,,,,,,,,,,,,
null,,black_cross(without_color),350501,,blue,,,,null,GW/hotsprings.png,GW/huntsville.png,,,,,,,,,,,,,,,,,,
464.89999997615814,,rt_plussign_withcolor,351002,,blue,,,,49,GW/hotsprings.png,GW/huntsville.png,,,,,,,,,,,,,,,,,,
null,,rt_thecrossant_black,352565,,black_plus_sign,,,,null,,,1,1,,,,,,,,,,,,,,,,
null,,color_black,352668,,black_plus_sign,,,,null,,,,,,,,,,,,,,,,,,,,
null,,learn_phase(without_color),355671,,black_plus_sign,,,,null,GW/peoria.png,GW/westpalmbeach.png,,,,,,,,,,,,,,,,,,
null,,black_cross(without_color),356757,,yellow,,,,null,GW/peoria.png,GW/westpalmbeach.png,,,,,,,,,,,,,,,,,,
null,,rt_plussign_withcolor,357259,,yellow,,,,null,GW/peoria.png,GW/westpalmbeach.png,,,,,,,,,,,,,,,,,,
670.5,,rt_thecrossant_black,358182,,black_plus_sign,,,,50,,,1,1,,,,,,,,,,,,,,,,
null,,color_black,358293,,black_plus_sign,,,,null,,,,,,,,,,,,,,,,,,,,
null,,learn_phase(without_color),361301,,black_plus_sign,,,,null,GW/racine.png,GW/gatlinburg.png,,,,,,,,,,,,,,,,,,
null,,black_cross(without_color),361851,,blue,,,,null,GW/racine.png,GW/gatlinburg.png,,,,,,,,,,,,,,,,,,
null,,rt_plussign_withcolor,362357,,blue,,,,null,GW/racine.png,GW/gatlinburg.png,,,,,,,,,,,,,,,,,,
1258.1000000238419,,rt_thecrossant_black,363814,,black_plus_sign,,,,50,,,0,0.8888888888888888,,,,,,,,,,,,,,,,
null,,color_black,363925,,black_plus_sign,,,,null,,,,,,,,,,,,,,,,,,,,
null,,learn_phase(without_color),366933,,black_plus_sign,,,,null,GW/huntsville.png,GW/hotsprings.png,,,,,,,,,,,,,,,,,,
null,,black_cross(without_color),367493,,blue,,,,null,GW/huntsville.png,GW/hotsprings.png,,,,,,,,,,,,,,,,,,
null,,rt_plussign_withcolor,367996,,blue,,,,null,GW/huntsville.png,GW/hotsprings.png,,,,,,,,,,,,,,,,,,
866.1000000238419,,rt_thecrossant_black,369446,,black_plus_sign,,,,49,,,1,0.9,,,,,,,,,,,,,,,,
null,,color_black,369548,,black_plus_sign,,,,null,,,,,,,,,,,,,,,,,,,,
null,,learn_phase(without_color),372549,,black_plus_sign,,,,null,GW/cornwall.png,GW/newhope.png,,,,,,,,,,,,,,,,,,
null,,black_cross(without_color),373622,,blue,,,,null,GW/cornwall.png,GW/newhope.png,,,,,,,,,,,,,,,,,,
null,,rt_plussign_withcolor,374134,,blue,,,,null,GW/cornwall.png,GW/newhope.png,,,,,,,,,,,,,,,,,,
912.5,,rt_thecrossant_black,375067,,black_plus_sign,,,,49,,,1,0.9090909090909091,,,,,,,,,,,,,,,,
null,,color_black,375174,,black_plus_sign,,,,null,,,,,,,,,,,,,,,,,,,,
null,,learn_phase(without_color),378182,,black_plus_sign,,,,null,GW/gatlinburg.png,GW/racine.png,,,,,,,,,,,,,,,,,,
null,,black_cross(without_color),378773,,yellow,,,,null,GW/gatlinburg.png,GW/racine.png,,,,,,,,,,,,,,,,,,
null,,rt_plussign_withcolor,379276,,yellow,,,,null,GW/gatlinburg.png,GW/racine.png,,,,,,,,,,,,,,,,,,
1940.6999999284744,,rt_thecrossant_black,380693,,black_plus_sign,,,,50,,,1,0.9166666666666666,,,,,,,,,,,,,,,,
null,,color_black,380795,,black_plus_sign,,,,null,,,,,,,,,,,,,,,,,,,,
null,,learn_phase(without_color),383797,,black_plus_sign,,,,null,GW/huntsville.png,GW/hotsprings.png,,,,,,,,,,,,,,,,,,
null,,black_cross(without_color),384533,,yellow,,,,null,GW/huntsville.png,GW/hotsprings.png,,,,,,,,,,,,,,,,,,
null,,rt_plussign_withcolor,385035,,yellow,,,,null,GW/huntsville.png,GW/hotsprings.png,,,,,,,,,,,,,,,,,,
879.3000000715256,,rt_thecrossant_black,386309,,black_plus_sign,,,,50,,,1,0.9230769230769231,,,,,,,,,,,,,,,,
null,,color_black,386411,,black_plus_sign,,,,null,,,,,,,,,,,,,,,,,,,,
null,,learn_phase(without_color),389413,,black_plus_sign,,,,null,GW/westpalmbeach.png,GW/peoria.png,,,,,,,,,,,,,,,,,,
null,,black_cross(without_color),390408,,yellow,,,,null,GW/westpalmbeach.png,GW/peoria.png,,,,,,,,,,,,,,,,,,
null,,rt_plussign_withcolor,390917,,yellow,,,,null,GW/westpalmbeach.png,GW/peoria.png,,,,,,,,,,,,,,,,,,
1319.7000000476837,,rt_thecrossant_black,391925,,black_plus_sign,,,,50,,,1,0.9285714285714286,,,,,,,,,,,,,,,,
null,,color_black,392027,,black_plus_sign,,,,null,,,,,,,,,,,,,,,,,,,,
null,,learn_phase(without_color),395030,,black_plus_sign,,,,null,GW/cornwall.png,GW/newhope.png,,,,,,,,,,,,,,,,,,
null,,black_cross(without_color),395878,,blue,,,,null,GW/cornwall.png,GW/newhope.png,,,,,,,,,,,,,,,,,,
null,,rt_plussign_withcolor,396380,,blue,,,,null,GW/cornwall.png,GW/newhope.png,,,,,,,,,,,,,,,,,,
1466.4000000953674,,rt_thecrossant_black,397541,,black_plus_sign,,,,49,,,1,0.9333333333333333,,,,,,,,,,,,,,,,
null,,color_black,397644,,black_plus_sign,,,,null,,,,,,,,,,,,,,,,,,,,
null,,learn_phase(without_color),400645,,black_plus_sign,,,,null,GW/hotsprings.png,GW/huntsville.png,,,,,,,,,,,,,,,,,,
null,,black_cross(without_color),401079,,blue,,,,null,GW/hotsprings.png,GW/huntsville.png,,,,,,,,,,,,,,,,,,
null,,rt_plussign_withcolor,401581,,blue,,,,null,GW/hotsprings.png,GW/huntsville.png,,,,,,,,,,,,,,,,,,
970.7999999523163,,rt_thecrossant_black,403156,,black_plus_sign,,,,49,,,1,0.9375,,,,,,,,,,,,,,,,
null,,color_black,403258,,black_plus_sign,,,,null,,,,,,,,,,,,,,,,,,,,
null,,learn_phase(without_color),406262,,black_plus_sign,,,,null,GW/westpalmbeach.png,GW/peoria.png,,,,,,,,,,,,,,,,,,
null,,black_cross(without_color),406663,,blue,,,,null,GW/westpalmbeach.png,GW/peoria.png,,,,,,,,,,,,,,,,,,
null,,rt_plussign_withcolor,407174,,blue,,,,null,GW/westpalmbeach.png,GW/peoria.png,,,,,,,,,,,,,,,,,,
780.6000000238419,,rt_thecrossant_black,408776,,black_plus_sign,,,,49,,,1,0.9411764705882353,,,,,,,,,,,,,,,,
null,,color_black,408886,,black_plus_sign,,,,null,,,,,,,,,,,,,,,,,,,,
null,,learn_phase(without_color),411894,,black_plus_sign,,,,null,GW/gatlinburg.png,GW/racine.png,,,,,,,,,,,,,,,,,,
null,,black_cross(without_color),412699,,yellow,,,,null,GW/gatlinburg.png,GW/racine.png,,,,,,,,,,,,,,,,,,
null,,rt_plussign_withcolor,413206,,yellow,,,,null,GW/gatlinburg.png,GW/racine.png,,,,,,,,,,,,,,,,,,
748.3999999761581,,rt_thecrossant_black,414407,,black_plus_sign,,,,50,,,1,0.9444444444444444,,,,,,,,,,,,,,,,
null,,color_black,414517,,black_plus_sign,,,,null,,,,,,,,,,,,,,,,,,,,
null,,learn_phase(without_color),417526,,black_plus_sign,,,,null,GW/hotsprings.png,GW/huntsville.png,,,,,,,,,,,,,,,,,,
null,,black_cross(without_color),418326,,blue,,,,null,GW/hotsprings.png,GW/huntsville.png,,,,,,,,,,,,,,,,,,
null,,rt_plussign_withcolor,418838,,blue,,,,null,GW/hotsprings.png,GW/huntsville.png,,,,,,,,,,,,,,,,,,
911.2000000476837,,rt_thecrossant_black,420043,,black_plus_sign,,,,49,,,1,0.9473684210526315,,,,,,,,,,,,,,,,
null,,color_black,420150,,black_plus_sign,,,,null,,,,,,,,,,,,,,,,,,,,
null,,learn_phase(without_color),423158,,black_plus_sign,,,,null,GW/peoria.png,GW/westpalmbeach.png,,,,,,,,,,,,,,,,,,
null,,black_cross(without_color),423592,,blue,,,,null,GW/peoria.png,GW/westpalmbeach.png,,,,,,,,,,,,,,,,,,
null,,rt_plussign_withcolor,424101,,blue,,,,null,GW/peoria.png,GW/westpalmbeach.png,,,,,,,,,,,,,,,,,,
1051.5,,rt_thecrossant_black,425674,,black_plus_sign,,,,49,,,1,0.95,,,,,,,,,,,,,,,,
null,,color_black,425781,,black_plus_sign,,,,null,,,,,,,,,,,,,,,,,,,,
null,,learn_phase(without_color),428790,,black_plus_sign,,,,null,GW/cornwall.png,GW/newhope.png,,,,,,,,,,,,,,,,,,
null,,black_cross(without_color),429686,,yellow,,,,null,GW/cornwall.png,GW/newhope.png,,,,,,,,,,,,,,,,,,
null,,rt_plussign_withcolor,430189,,yellow,,,,null,GW/cornwall.png,GW/newhope.png,,,,,,,,,,,,,,,,,,
823,,rt_thecrossant_black,431308,,black_plus_sign,,,,50,,,1,0.9523809523809523,,,,,,,,,,,,,,,,
null,,color_black,431413,,black_plus_sign,,,,null,,,,,,,,,,,,,,,,,,,,
null,,learn_phase(without_color),434421,,black_plus_sign,,,,null,GW/hotsprings.png,GW/huntsville.png,,,,,,,,,,,,,,,,,,
null,,black_cross(without_color),434982,,blue,,,,null,GW/hotsprings.png,GW/huntsville.png,,,,,,,,,,,,,,,,,,
null,,rt_plussign_withcolor,435484,,blue,,,,null,GW/hotsprings.png,GW/huntsville.png,,,,,,,,,,,,,,,,,,
1174.3999999761581,,rt_thecrossant_black,436933,,black_plus_sign,,,,49,,,1,0.9545454545454546,,,,,,,,,,,,,,,,
null,,color_black,437034,,black_plus_sign,,,,null,,,,,,,,,,,,,,,,,,,,
null,,learn_phase(without_color),440038,,black_plus_sign,,,,null,GW/cornwall.png,GW/newhope.png,,,,,,,,,,,,,,,,,,
null,,black_cross(without_color),441002,,blue,,,,null,GW/cornwall.png,GW/newhope.png,,,,,,,,,,,,,,,,,,
null,,rt_plussign_withcolor,441510,,blue,,,,null,GW/cornwall.png,GW/newhope.png,,,,,,,,,,,,,,,,,,
1096.8000000715256,,rt_thecrossant_black,442551,,black_plus_sign,,,,49,,,1,0.9565217391304348,,,,,,,,,,,,,,,,
null,,color_black,442662,,black_plus_sign,,,,null,,,,,,,,,,,,,,,,,,,,
null,,learn_phase(without_color),445669,,black_plus_sign,,,,null,GW/racine.png,GW/gatlinburg.png,,,,,,,,,,,,,,,,,,
null,,black_cross(without_color),446380,,blue,,,,null,GW/racine.png,GW/gatlinburg.png,,,,,,,,,,,,,,,,,,
null,,rt_plussign_withcolor,446885,,blue,,,,null,GW/racine.png,GW/gatlinburg.png,,,,,,,,,,,,,,,,,,
1205.7999999523163,,rt_thecrossant_black,448182,,black_plus_sign,,,,49,,,1,0.9583333333333334,,,,,,,,,,,,,,,,
null,,color_black,448294,,black_plus_sign,,,,null,,,,,,,,,,,,,,,,,,,,
null,,learn_phase(without_color),451302,,black_plus_sign,,,,null,GW/peoria.png,GW/westpalmbeach.png,,,,,,,,,,,,,,,,,,
null,,black_cross(without_color),452150,,blue,,,,null,GW/peoria.png,GW/westpalmbeach.png,,,,,,,,,,,,,,,,,,
null,,rt_plussign_withcolor,452653,,blue,,,,null,GW/peoria.png,GW/westpalmbeach.png,,,,,,,,,,,,,,,,,,
864.5,,rt_thecrossant_black,453815,,black_plus_sign,,,,49,,,1,0.96,,,,,,,,,,,,,,,,
null,,color_black,453926,,black_plus_sign,,,,null,,,,,,,,,,,,,,,,,,,,
null,,learn_phase(without_color),456933,,black_plus_sign,,,,null,GW/newhope.png,GW/cornwall.png,,,,,,,,,,,,,,,,,,
null,,black_cross(without_color),457878,,blue,,,,null,GW/newhope.png,GW/cornwall.png,,,,,,,,,,,,,,,,,,
null,,rt_plussign_withcolor,458390,,blue,,,,null,GW/newhope.png,GW/cornwall.png,,,,,,,,,,,,,,,,,,
972.3000000715256,,rt_thecrossant_black,459451,,black_plus_sign,,,,49,,,1,0.9615384615384616,,,,,,,,,,,,,,,,
null,,color_black,459558,,black_plus_sign,,,,null,,,,,,,,,,,,,,,,,,,,
null,,learn_phase(without_color),462565,,black_plus_sign,,,,null,GW/gatlinburg.png,GW/racine.png,,,,,,,,,,,,,,,,,,
null,,black_cross(without_color),463577,,yellow,,,,null,GW/gatlinburg.png,GW/racine.png,,,,,,,,,,,,,,,,,,
null,,rt_plussign_withcolor,464086,,yellow,,,,null,GW/gatlinburg.png,GW/racine.png,,,,,,,,,,,,,,,,,,
1227.1000000238419,,rt_thecrossant_black,465079,,black_plus_sign,,,,50,,,1,0.9629629629629629,,,,,,,,,,,,,,,,
null,,color_black,465189,,black_plus_sign,,,,null,,,,,,,,,,,,,,,,,,,,
null,,learn_phase(without_color),468198,,black_plus_sign,,,,null,GW/newhope.png,GW/cornwall.png,,,,,,,,,,,,,,,,,,
null,,black_cross(without_color),469190,,blue,,,,null,GW/newhope.png,GW/cornwall.png,,,,,,,,,,,,,,,,,,
null,,rt_plussign_withcolor,469694,,blue,,,,null,GW/newhope.png,GW/cornwall.png,,,,,,,,,,,,,,,,,,
1498.3999999761581,,rt_thecrossant_black,470713,,black_plus_sign,,,,49,,,1,0.9642857142857143,,,,,,,,,,,,,,,,
null,,color_black,470822,,black_plus_sign,,,,null,,,,,,,,,,,,,,,,,,,,
null,,learn_phase(without_color),473830,,black_plus_sign,,,,null,GW/gatlinburg.png,GW/racine.png,,,,,,,,,,,,,,,,,,
null,,black_cross(without_color),474678,,blue,,,,null,GW/gatlinburg.png,GW/racine.png,,,,,,,,,,,,,,,,,,
421.10000002384186,,rt_plussign_withcolor,475181,,blue,,,,49,GW/gatlinburg.png,GW/racine.png,,,,,,,,,,,,,,,,,,
null,,rt_thecrossant_black,476346,,black_plus_sign,,,,null,,,1,0.9655172413793104,,,,,,,,,,,,,,,,
null,,color_black,476453,,black_plus_sign,,,,null,,,,,,,,,,,,,,,,,,,,
null,,learn_phase(without_color),479462,,black_plus_sign,,,,null,GW/westpalmbeach.png,GW/peoria.png,,,,,,,,,,,,,,,,,,
null,,black_cross(without_color),480134,,yellow,,,,null,GW/westpalmbeach.png,GW/peoria.png,,,,,,,,,,,,,,,,,,
null,,rt_plussign_withcolor,480636,,yellow,,,,null,GW/westpalmbeach.png,GW/peoria.png,,,,,,,,,,,,,,,,,,
1313.8000000715256,,rt_thecrossant_black,481974,,black_plus_sign,,,,50,,,1,0.9666666666666667,,,,,,,,,,,,,,,,
null,,color_black,482075,,black_plus_sign,,,,null,,,,,,,,,,,,,,,,,,,,
null,,learn_phase(without_color),485077,,black_plus_sign,,,,null,GW/cornwall.png,GW/newhope.png,,,,,,,,,,,,,,,,,,
null,,black_cross(without_color),485782,,yellow,,,,null,GW/cornwall.png,GW/newhope.png,,,,,,,,,,,,,,,,,,
null,,rt_plussign_withcolor,486283,,yellow,,,,null,GW/cornwall.png,GW/newhope.png,,,,,,,,,,,,,,,,,,
1283,,rt_thecrossant_black,487590,,black_plus_sign,,,,50,,,1,0.967741935483871,,,,,,,,,,,,,,,,
null,,color_black,487694,,black_plus_sign,,,,null,,,,,,,,,,,,,,,,,,,,
null,,learn_phase(without_color),490698,,black_plus_sign,,,,null,GW/westpalmbeach.png,GW/peoria.png,,,,,,,,,,,,,,,,,,
null,,black_cross(without_color),491629,,blue,,,,null,GW/westpalmbeach.png,GW/peoria.png,,,,,,,,,,,,,,,,,,
null,,rt_plussign_withcolor,492134,,blue,,,,null,GW/westpalmbeach.png,GW/peoria.png,,,,,,,,,,,,,,,,,,
958.2999999523163,,rt_thecrossant_black,493207,,black_plus_sign,,,,49,,,1,0.96875,,,,,,,,,,,,,,,,
null,,color_black,493310,,black_plus_sign,,,,null,,,,,,,,,,,,,,,,,,,,
null,,learn_phase(without_color),496313,,black_plus_sign,,,,null,GW/boulder.png,GW/gatlinburg.png,,,,,,,,,,,,,,,,,,
null,,black_cross(without_color),496790,,yellow,,,,null,GW/boulder.png,GW/gatlinburg.png,,,,,,,,,,,,,,,,,,
null,,rt_plussign_withcolor,497291,,yellow,,,,null,GW/boulder.png,GW/gatlinburg.png,,,,,,,,,,,,,,,,,,
1029.7000000476837,,rt_thecrossant_black,498822,,black_plus_sign,,,,50,,,1,0.9696969696969697,,,,,,,,,,,,,,,,
null,,color_black,498934,,black_plus_sign,,,,null,,,,,,,,,,,,,,,,,,,,
null,,learn_phase(without_color),501941,,black_plus_sign,,,,null,GW/hanover.png,GW/westpalmbeach.png,,,,,,,,,,,,,,,,,,
null,,black_cross(without_color),502392,,yellow,,,,null,GW/hanover.png,GW/westpalmbeach.png,,,,,,,,,,,,,,,,,,
null,,rt_plussign_withcolor,502903,,yellow,,,,null,GW/hanover.png,GW/westpalmbeach.png,,,,,,,,,,,,,,,,,,
752.6999999284744,,rt_thecrossant_black,504458,,black_plus_sign,,,,50,,,1,0.9705882352941176,,,,,,,,,,,,,,,,
null,,color_black,504565,,black_plus_sign,,,,null,,,,,,,,,,,,,,,,,,,,
null,,learn_phase(without_color),507575,,black_plus_sign,,,,null,GW/gatlinburg.png,GW/boulder.png,,,,,,,,,,,,,,,,,,
null,,black_cross(without_color),508358,,blue,,,,null,GW/gatlinburg.png,GW/boulder.png,,,,,,,,,,,,,,,,,,
null,,rt_plussign_withcolor,508862,,blue,,,,null,GW/gatlinburg.png,GW/boulder.png,,,,,,,,,,,,,,,,,,
718.1000000238419,,rt_thecrossant_black,510087,,black_plus_sign,,,,49,,,1,0.9714285714285714,,,,,,,,,,,,,,,,
null,,color_black,510198,,black_plus_sign,,,,null,,,,,,,,,,,,,,,,,,,,
null,,learn_phase(without_color),513206,,black_plus_sign,,,,null,GW/peoria.png,GW/shreveport.png,,,,,,,,,,,,,,,,,,
null,,black_cross(without_color),514118,,yellow,,,,null,GW/peoria.png,GW/shreveport.png,,,,,,,,,,,,,,,,,,
null,,rt_plussign_withcolor,514621,,yellow,,,,null,GW/peoria.png,GW/shreveport.png,,,,,,,,,,,,,,,,,,
1041.6999999284744,,rt_thecrossant_black,515721,,black_plus_sign,,,,50,,,1,0.9722222222222222,,,,,,,,,,,,,,,,
null,,color_black,515830,,black_plus_sign,,,,null,,,,,,,,,,,,,,,,,,,,
null,,learn_phase(without_color),518838,,black_plus_sign,,,,null,GW/newhope.png,GW/hotsprings.png,,,,,,,,,,,,,,,,,,
null,,black_cross(without_color),519354,,yellow,,,,null,GW/newhope.png,GW/hotsprings.png,,,,,,,,,,,,,,,,,,
465,,rt_plussign_withcolor,519863,,yellow,,,,49,GW/newhope.png,GW/hotsprings.png,,,,,,,,,,,,,,,,,,
null,,rt_thecrossant_black,521353,,black_plus_sign,,,,50,,,0,0.9459459459459459,,,,,,,,,,,,,,,,
null,,color_black,521462,,black_plus_sign,,,,null,,,,,,,,,,,,,,,,,,,,
null,,learn_phase(without_color),524470,,black_plus_sign,,,,null,GW/shreveport.png,GW/peoria.png,,,,,,,,,,,,,,,,,,
null,,black_cross(without_color),525430,,yellow,,,,null,GW/shreveport.png,GW/peoria.png,,,,,,,,,,,,,,,,,,
null,,rt_plussign_withcolor,525931,,yellow,,,,null,GW/shreveport.png,GW/peoria.png,,,,,,,,,,,,,,,,,,
771.1000000238419,,rt_thecrossant_black,526982,,black_plus_sign,,,,50,,,1,0.9473684210526315,,,,,,,,,,,,,,,,
null,,color_black,527084,,black_plus_sign,,,,null,,,,,,,,,,,,,,,,,,,,
null,,learn_phase(without_color),530087,,black_plus_sign,,,,null,GW/newhope.png,GW/hotsprings.png,,,,,,,,,,,,,,,,,,
null,,black_cross(without_color),530646,,yellow,,,,null,GW/newhope.png,GW/hotsprings.png,,,,,,,,,,,,,,,,,,
null,,rt_plussign_withcolor,531147,,yellow,,,,null,GW/newhope.png,GW/hotsprings.png,,,,,,,,,,,,,,,,,,
1158.4000000953674,,rt_thecrossant_black,532600,,black_plus_sign,,,,50,,,1,0.9487179487179487,,,,,,,,,,,,,,,,
null,,color_black,532710,,black_plus_sign,,,,null,,,,,,,,,,,,,,,,,,,,
null,,learn_phase(without_color),535718,,black_plus_sign,,,,null,GW/shreveport.png,GW/peoria.png,,,,,,,,,,,,,,,,,,
null,,black_cross(without_color),536812,,blue,,,,null,GW/shreveport.png,GW/peoria.png,,,,,,,,,,,,,,,,,,
null,,rt_plussign_withcolor,537318,,blue,,,,null,GW/shreveport.png,GW/peoria.png,,,,,,,,,,,,,,,,,,
695.1000000238419,,rt_thecrossant_black,538230,,black_plus_sign,,,,49,,,1,0.95,,,,,,,,,,,,,,,,
null,,color_black,538343,,black_plus_sign,,,,null,,,,,,,,,,,,,,,,,,,,
null,,learn_phase(without_color),541349,,black_plus_sign,,,,null,GW/westpalmbeach.png,GW/hanover.png,,,,,,,,,,,,,,,,,,
null,,black_cross(without_color),541803,,yellow,,,,null,GW/westpalmbeach.png,GW/hanover.png,,,,,,,,,,,,,,,,,,
null,,rt_plussign_withcolor,542310,,yellow,,,,null,GW/westpalmbeach.png,GW/hanover.png,,,,,,,,,,,,,,,,,,
1329,,rt_thecrossant_black,543863,,black_plus_sign,,,,50,,,1,0.9512195121951219,,,,,,,,,,,,,,,,
null,,color_black,543974,,black_plus_sign,,,,null,,,,,,,,,,,,,,,,,,,,
null,,learn_phase(without_color),546981,,black_plus_sign,,,,null,GW/hotsprings.png,GW/newhope.png,,,,,,,,,,,,,,,,,,
null,,black_cross(without_color),547959,,yellow,,,,null,GW/hotsprings.png,GW/newhope.png,,,,,,,,,,,,,,,,,,
null,,rt_plussign_withcolor,548462,,yellow,,,,null,GW/hotsprings.png,GW/newhope.png,,,,,,,,,,,,,,,,,,
687.4000000953674,,rt_thecrossant_black,549497,,black_plus_sign,,,,50,,,1,0.9523809523809523,,,,,,,,,,,,,,,,
null,,color_black,549607,,black_plus_sign,,,,null,,,,,,,,,,,,,,,,,,,,
null,,learn_phase(without_color),552614,,black_plus_sign,,,,null,GW/westpalmbeach.png,GW/hanover.png,,,,,,,,,,,,,,,,,,
null,,black_cross(without_color),553146,,yellow,,,,null,GW/westpalmbeach.png,GW/hanover.png,,,,,,,,,,,,,,,,,,
null,,rt_plussign_withcolor,553655,,yellow,,,,null,GW/westpalmbeach.png,GW/hanover.png,,,,,,,,,,,,,,,,,,
1106.7999999523163,,rt_thecrossant_black,555130,,black_plus_sign,,,,50,,,1,0.9534883720930233,,,,,,,,,,,,,,,,
null,,color_black,555238,,black_plus_sign,,,,null,,,,,,,,,,,,,,,,,,,,
null,,learn_phase(without_color),558247,,black_plus_sign,,,,null,GW/newhope.png,GW/hotsprings.png,,,,,,,,,,,,,,,,,,
null,,black_cross(without_color),558775,,yellow,,,,null,GW/newhope.png,GW/hotsprings.png,,,,,,,,,,,,,,,,,,
null,,rt_plussign_withcolor,559278,,yellow,,,,null,GW/newhope.png,GW/hotsprings.png,,,,,,,,,,,,,,,,,,
639.7999999523163,,rt_thecrossant_black,560764,,black_plus_sign,,,,50,,,1,0.9545454545454546,,,,,,,,,,,,,,,,
null,,color_black,560870,,black_plus_sign,,,,null,,,,,,,,,,,,,,,,,,,,
null,,learn_phase(without_color),563878,,black_plus_sign,,,,null,GW/boulder.png,GW/gatlinburg.png,,,,,,,,,,,,,,,,,,
null,,black_cross(without_color),564790,,yellow,,,,null,GW/boulder.png,GW/gatlinburg.png,,,,,,,,,,,,,,,,,,
null,,rt_plussign_withcolor,565293,,yellow,,,,null,GW/boulder.png,GW/gatlinburg.png,,,,,,,,,,,,,,,,,,
736.8999999761581,,rt_thecrossant_black,566391,,black_plus_sign,,,,50,,,1,0.9555555555555556,,,,,,,,,,,,,,,,
null,,color_black,566492,,black_plus_sign,,,,null,,,,,,,,,,,,,,,,,,,,
null,,learn_phase(without_color),569494,,black_plus_sign,,,,null,GW/westpalmbeach.png,GW/hanover.png,,,,,,,,,,,,,,,,,,
null,,black_cross(without_color),570505,,yellow,,,,null,GW/westpalmbeach.png,GW/hanover.png,,,,,,,,,,,,,,,,,,
461.2000000476837,,rt_plussign_withcolor,571013,,yellow,,,,50,GW/westpalmbeach.png,GW/hanover.png,,,,,,,,,,,,,,,,,,
null,,rt_thecrossant_black,572006,,black_plus_sign,,,,null,,,1,0.9565217391304348,,,,,,,,,,,,,,,,
null,,color_black,572107,,black_plus_sign,,,,null,,,,,,,,,,,,,,,,,,,,
null,,learn_phase(without_color),575111,,black_plus_sign,,,,null,GW/newhope.png,GW/hotsprings.png,,,,,,,,,,,,,,,,,,
null,,black_cross(without_color),575846,,yellow,,,,null,GW/newhope.png,GW/hotsprings.png,,,,,,,,,,,,,,,,,,
481.10000002384186,,rt_plussign_withcolor,576347,,yellow,,,,50,GW/newhope.png,GW/hotsprings.png,,,,,,,,,,,,,,,,,,
null,,rt_thecrossant_black,577623,,black_plus_sign,,,,null,,,1,0.9574468085106383,,,,,,,,,,,,,,,,
null,,color_black,577734,,black_plus_sign,,,,null,,,,,,,,,,,,,,,,,,,,
null,,learn_phase(without_color),580742,,black_plus_sign,,,,null,GW/hanover.png,GW/westpalmbeach.png,,,,,,,,,,,,,,,,,,
null,,black_cross(without_color),581574,,yellow,,,,null,GW/hanover.png,GW/westpalmbeach.png,,,,,,,,,,,,,,,,,,
null,,rt_plussign_withcolor,582075,,yellow,,,,null,GW/hanover.png,GW/westpalmbeach.png,,,,,,,,,,,,,,,,,,
1158.5,,rt_thecrossant_black,583255,,black_plus_sign,,,,50,,,1,0.9583333333333334,,,,,,,,,,,,,,,,
null,,color_black,583366,,black_plus_sign,,,,null,,,,,,,,,,,,,,,,,,,,
null,,learn_phase(without_color),586374,,black_plus_sign,,,,null,GW/peoria.png,GW/shreveport.png,,,,,,,,,,,,,,,,,,
null,,black_cross(without_color),587354,,yellow,,,,null,GW/peoria.png,GW/shreveport.png,,,,,,,,,,,,,,,,,,
null,,rt_plussign_withcolor,587863,,yellow,,,,null,GW/peoria.png,GW/shreveport.png,,,,,,,,,,,,,,,,,,
954.5,,rt_thecrossant_black,588890,,black_plus_sign,,,,50,,,1,0.9591836734693877,,,,,,,,,,,,,,,,
null,,color_black,588998,,black_plus_sign,,,,null,,,,,,,,,,,,,,,,,,,,
null,,learn_phase(without_color),592005,,black_plus_sign,,,,null,GW/gatlinburg.png,GW/boulder.png,,,,,,,,,,,,,,,,,,
null,,black_cross(without_color),592631,,blue,,,,null,GW/gatlinburg.png,GW/boulder.png,,,,,,,,,,,,,,,,,,
null,,rt_plussign_withcolor,593134,,blue,,,,null,GW/gatlinburg.png,GW/boulder.png,,,,,,,,,,,,,,,,,,
1312.5,,rt_thecrossant_black,594519,,black_plus_sign,,,,49,,,1,0.96,,,,,,,,,,,,,,,,
null,,color_black,594622,,black_plus_sign,,,,null,,,,,,,,,,,,,,,,,,,,
null,,learn_phase(without_color),597626,,black_plus_sign,,,,null,GW/westpalmbeach.png,GW/hanover.png,,,,,,,,,,,,,,,,,,
null,,black_cross(without_color),598278,,blue,,,,null,GW/westpalmbeach.png,GW/hanover.png,,,,,,,,,,,,,,,,,,
null,,rt_plussign_withcolor,598778,,blue,,,,null,GW/westpalmbeach.png,GW/hanover.png,,,,,,,,,,,,,,,,,,
874.1999999284744,,rt_thecrossant_black,600135,,black_plus_sign,,,,49,,,1,0.9607843137254902,,,,,,,,,,,,,,,,
null,,color_black,600247,,black_plus_sign,,,,null,,,,,,,,,,,,,,,,,,,,
null,,learn_phase(without_color),603254,,black_plus_sign,,,,null,GW/hotsprings.png,GW/newhope.png,,,,,,,,,,,,,,,,,,
null,,black_cross(without_color),604359,,blue,,,,null,GW/hotsprings.png,GW/newhope.png,,,,,,,,,,,,,,,,,,
null,,rt_plussign_withcolor,604862,,blue,,,,null,GW/hotsprings.png,GW/newhope.png,,,,,,,,,,,,,,,,,,
930.8999999761581,,rt_thecrossant_black,605771,,black_plus_sign,,,,49,,,1,0.9615384615384616,,,,,,,,,,,,,,,,
null,,color_black,605878,,black_plus_sign,,,,null,,,,,,,,,,,,,,,,,,,,
null,,learn_phase(without_color),608887,,black_plus_sign,,,,null,GW/westpalmbeach.png,GW/hanover.png,,,,,,,,,,,,,,,,,,
null,,black_cross(without_color),609461,,yellow,,,,null,GW/westpalmbeach.png,GW/hanover.png,,,,,,,,,,,,,,,,,,
null,,rt_plussign_withcolor,609965,,yellow,,,,null,GW/westpalmbeach.png,GW/hanover.png,,,,,,,,,,,,,,,,,,
1290.1000000238419,,rt_thecrossant_black,611401,,black_plus_sign,,,,50,,,1,0.9622641509433962,,,,,,,,,,,,,,,,
null,,color_black,611510,,black_plus_sign,,,,null,,,,,,,,,,,,,,,,,,,,
null,,learn_phase(without_color),614519,,black_plus_sign,,,,null,GW/newhope.png,GW/hotsprings.png,,,,,,,,,,,,,,,,,,
null,,black_cross(without_color),615494,,yellow,,,,null,GW/newhope.png,GW/hotsprings.png,,,,,,,,,,,,,,,,,,
null,,rt_plussign_withcolor,615995,,yellow,,,,null,GW/newhope.png,GW/hotsprings.png,,,,,,,,,,,,,,,,,,
719.2999999523163,,rt_thecrossant_black,617030,,black_plus_sign,,,,49,,,0,0.9444444444444444,,,,,,,,,,,,,,,,
null,,color_black,617132,,black_plus_sign,,,,null,,,,,,,,,,,,,,,,,,,,
null,,learn_phase(without_color),620136,,black_plus_sign,,,,null,GW/peoria.png,GW/shreveport.png,,,,,,,,,,,,,,,,,,
null,,black_cross(without_color),621162,,yellow,,,,null,GW/peoria.png,GW/shreveport.png,,,,,,,,,,,,,,,,,,
null,,rt_plussign_withcolor,621670,,yellow,,,,null,GW/peoria.png,GW/shreveport.png,,,,,,,,,,,,,,,,,,
1090.6000000238419,,rt_thecrossant_black,622649,,black_plus_sign,,,,50,,,1,0.9454545454545454,,,,,,,,,,,,,,,,
null,,color_black,622759,,black_plus_sign,,,,null,,,,,,,,,,,,,,,,,,,,
null,,learn_phase(without_color),625766,,black_plus_sign,,,,null,GW/boulder.png,GW/gatlinburg.png,,,,,,,,,,,,,,,,,,
null,,black_cross(without_color),626454,,yellow,,,,null,GW/boulder.png,GW/gatlinburg.png,,,,,,,,,,,,,,,,,,
420.2999999523163,,rt_plussign_withcolor,626956,,yellow,,,,50,GW/boulder.png,GW/gatlinburg.png,,,,,,,,,,,,,,,,,,
null,,rt_thecrossant_black,628278,,black_plus_sign,,,,null,,,1,0.9464285714285714,,,,,,,,,,,,,,,,
null,,color_black,628381,,black_plus_sign,,,,null,,,,,,,,,,,,,,,,,,,,
null,,learn_phase(without_color),631383,,black_plus_sign,,,,null,GW/peoria.png,GW/shreveport.png,,,,,,,,,,,,,,,,,,
null,,black_cross(without_color),632487,,blue,,,,null,GW/peoria.png,GW/shreveport.png,,,,,,,,,,,,,,,,,,
null,,rt_plussign_withcolor,632990,,blue,,,,null,GW/peoria.png,GW/shreveport.png,,,,,,,,,,,,,,,,,,
966.6000000238419,,rt_thecrossant_black,633898,,black_plus_sign,,,,49,,,1,0.9473684210526315,,,,,,,,,,,,,,,,
null,,color_black,634007,,black_plus_sign,,,,null,,,,,,,,,,,,,,,,,,,,
null,,learn_phase(without_color),637014,,black_plus_sign,,,,null,GW/hotsprings.png,GW/newhope.png,,,,,,,,,,,,,,,,,,
null,,black_cross(without_color),637511,,blue,,,,null,GW/hotsprings.png,GW/newhope.png,,,,,,,,,,,,,,,,,,
null,,rt_plussign_withcolor,638014,,blue,,,,null,GW/hotsprings.png,GW/newhope.png,,,,,,,,,,,,,,,,,,
1810.5,,rt_thecrossant_black,639530,,black_plus_sign,,,,49,,,1,0.9482758620689655,,,,,,,,,,,,,,,,
null,,color_black,639639,,black_plus_sign,,,,null,,,,,,,,,,,,,,,,,,,,
null,,learn_phase(without_color),642648,,black_plus_sign,,,,null,GW/shreveport.png,GW/peoria.png,,,,,,,,,,,,,,,,,,
null,,black_cross(without_color),643463,,blue,,,,null,GW/shreveport.png,GW/peoria.png,,,,,,,,,,,,,,,,,,
null,,rt_plussign_withcolor,643966,,blue,,,,null,GW/shreveport.png,GW/peoria.png,,,,,,,,,,,,,,,,,,
678.5,,rt_thecrossant_black,645166,,black_plus_sign,,,,49,,,1,0.9491525423728814,,,,,,,,,,,,,,,,
null,,color_black,645270,,black_plus_sign,,,,null,,,,,,,,,,,,,,,,,,,,
null,,learn_phase(without_color),648279,,black_plus_sign,,,,null,GW/boulder.png,GW/gatlinburg.png,,,,,,,,,,,,,,,,,,
null,,black_cross(without_color),649047,,yellow,,,,null,GW/boulder.png,GW/gatlinburg.png,,,,,,,,,,,,,,,,,,
null,,rt_plussign_withcolor,649551,,yellow,,,,null,GW/boulder.png,GW/gatlinburg.png,,,,,,,,,,,,,,,,,,
1207.2000000476837,,rt_thecrossant_black,650790,,black_plus_sign,,,,50,,,1,0.95,,,,,,,,,,,,,,,,
null,,color_black,650892,,black_plus_sign,,,,null,,,,,,,,,,,,,,,,,,,,
null,,learn_phase(without_color),653895,,black_plus_sign,,,,null,GW/hanover.png,GW/westpalmbeach.png,,,,,,,,,,,,,,,,,,
null,,black_cross(without_color),654711,,yellow,,,,null,GW/hanover.png,GW/westpalmbeach.png,,,,,,,,,,,,,,,,,,
null,,rt_plussign_withcolor,655215,,yellow,,,,null,GW/hanover.png,GW/westpalmbeach.png,,,,,,,,,,,,,,,,,,
1313.8999999761581,,rt_thecrossant_black,656407,,black_plus_sign,,,,50,,,1,0.9508196721311475,,,,,,,,,,,,,,,,
null,,color_black,656509,,black_plus_sign,,,,null,,,,,,,,,,,,,,,,,,,,
null,,learn_phase(without_color),659511,,black_plus_sign,,,,null,GW/gatlinburg.png,GW/boulder.png,,,,,,,,,,,,,,,,,,
null,,black_cross(without_color),660534,,blue,,,,null,GW/gatlinburg.png,GW/boulder.png,,,,,,,,,,,,,,,,,,
null,,rt_plussign_withcolor,661035,,blue,,,,null,GW/gatlinburg.png,GW/boulder.png,,,,,,,,,,,,,,,,,,
1521.2000000476837,,rt_thecrossant_black,662024,,black_plus_sign,,,,49,,,1,0.9516129032258065,,,,,,,,,,,,,,,,
null,,color_black,662126,,black_plus_sign,,,,null,,,,,,,,,,,,,,,,,,,,
null,,learn_phase(without_color),665127,,black_plus_sign,,,,null,GW/shreveport.png,GW/peoria.png,,,,,,,,,,,,,,,,,,
null,,black_cross(without_color),665718,,blue,,,,null,GW/shreveport.png,GW/peoria.png,,,,,,,,,,,,,,,,,,
null,,rt_plussign_withcolor,666219,,blue,,,,null,GW/shreveport.png,GW/peoria.png,,,,,,,,,,,,,,,,,,
2090.8000000715256,,rt_thecrossant_black,667639,,black_plus_sign,,,,49,,,1,0.9523809523809523,,,,,,,,,,,,,,,,
null,,color_black,667751,,black_plus_sign,,,,null,,,,,,,,,,,,,,,,,,,,
null,,learn_phase(without_color),670759,,black_plus_sign,,,,null,GW/boulder.png,GW/gatlinburg.png,,,,,,,,,,,,,,,,,,
null,,black_cross(without_color),671238,,blue,,,,null,GW/boulder.png,GW/gatlinburg.png,,,,,,,,,,,,,,,,,,
null,,rt_plussign_withcolor,671738,,blue,,,,null,GW/boulder.png,GW/gatlinburg.png,,,,,,,,,,,,,,,,,,
972.4000000953674,,rt_thecrossant_black,673270,,black_plus_sign,,,,49,,,1,0.953125,,,,,,,,,,,,,,,,
null,,color_black,673375,,black_plus_sign,,,,null,,,,,,,,,,,,,,,,,,,,
42700.60000002384,,learn_break,716079,,learn_break,,,,32,,,,,,,,,,,,,,,,,,,,
null,,html-keyboard-response,717080,,<p></p>,,,,null,,,,,,,,,,,,,,,,,,,,
null,,learn_phase(without_color),720087,,black_plus_sign,,,,null,GW/carmel.png,GW/newhope.png,,,,,,,,,,,,,,,,,,
null,,black_cross(without_color),720590,,blue,,,,null,GW/carmel.png,GW/newhope.png,,,,,,,,,,,,,,,,,,
null,,rt_plussign_withcolor,721095,,blue,,,,null,GW/carmel.png,GW/newhope.png,,,,,,,,,,,,,,,,,,
1121.7999999523163,,rt_thecrossant_black,722599,,black_plus_sign,,,,49,,,1,0.9538461538461539,,,,,,,,,,,,,,,,
null,,color_black,722702,,black_plus_sign,,,,null,,,,,,,,,,,,,,,,,,,,
null,,learn_phase(without_color),725706,,black_plus_sign,,,,null,GW/cornwall.png,GW/westpalmbeach.png,,,,,,,,,,,,,,,,,,
null,,black_cross(without_color),726567,,yellow,,,,null,GW/cornwall.png,GW/westpalmbeach.png,,,,,,,,,,,,,,,,,,
null,,rt_plussign_withcolor,727068,,yellow,,,,null,GW/cornwall.png,GW/westpalmbeach.png,,,,,,,,,,,,,,,,,,
914.6000000238419,,rt_thecrossant_black,728215,,black_plus_sign,,,,50,,,1,0.9545454545454546,,,,,,,,,,,,,,,,
null,,color_black,728328,,black_plus_sign,,,,null,,,,,,,,,,,,,,,,,,,,
null,,learn_phase(without_color),731334,,black_plus_sign,,,,null,GW/newhope.png,GW/carmel.png,,,,,,,,,,,,,,,,,,
null,,black_cross(without_color),732430,,yellow,,,,null,GW/newhope.png,GW/carmel.png,,,,,,,,,,,,,,,,,,
null,,rt_plussign_withcolor,732934,,yellow,,,,null,GW/newhope.png,GW/carmel.png,,,,,,,,,,,,,,,,,,
975.5,,rt_thecrossant_black,733848,,black_plus_sign,,,,50,,,1,0.9552238805970149,,,,,,,,,,,,,,,,
null,,color_black,733959,,black_plus_sign,,,,null,,,,,,,,,,,,,,,,,,,,
null,,learn_phase(without_color),736966,,black_plus_sign,,,,null,GW/cornwall.png,GW/westpalmbeach.png,,,,,,,,,,,,,,,,,,
null,,black_cross(without_color),737895,,blue,,,,null,GW/cornwall.png,GW/westpalmbeach.png,,,,,,,,,,,,,,,,,,
null,,rt_plussign_withcolor,738399,,blue,,,,null,GW/cornwall.png,GW/westpalmbeach.png,,,,,,,,,,,,,,,,,,
1699,,rt_thecrossant_black,739479,,black_plus_sign,,,,49,,,1,0.9558823529411765,,,,,,,,,,,,,,,,
null,,color_black,739592,,black_plus_sign,,,,null,,,,,,,,,,,,,,,,,,,,
null,,learn_phase(without_color),742600,,black_plus_sign,,,,null,GW/huntsville.png,GW/leesburg.png,,,,,,,,,,,,,,,,,,
null,,black_cross(without_color),743401,,blue,,,,null,GW/huntsville.png,GW/leesburg.png,,,,,,,,,,,,,,,,,,
null,,rt_plussign_withcolor,743911,,blue,,,,null,GW/huntsville.png,GW/leesburg.png,,,,,,,,,,,,,,,,,,
1537.7000000476837,,rt_thecrossant_black,745117,,black_plus_sign,,,,49,,,1,0.9565217391304348,,,,,,,,,,,,,,,,
null,,color_black,745222,,black_plus_sign,,,,null,,,,,,,,,,,,,,,,,,,,
null,,learn_phase(without_color),748232,,black_plus_sign,,,,null,GW/carmel.png,GW/newhope.png,,,,,,,,,,,,,,,,,,
null,,black_cross(without_color),749000,,blue,,,,null,GW/carmel.png,GW/newhope.png,,,,,,,,,,,,,,,,,,
null,,rt_plussign_withcolor,749510,,blue,,,,null,GW/carmel.png,GW/newhope.png,,,,,,,,,,,,,,,,,,
1136,,rt_thecrossant_black,750759,,black_plus_sign,,,,49,,,1,0.9571428571428572,,,,,,,,,,,,,,,,
null,,color_black,750860,,black_plus_sign,,,,null,,,,,,,,,,,,,,,,,,,,
null,,learn_phase(without_color),753864,,black_plus_sign,,,,null,GW/huntsville.png,GW/leesburg.png,,,,,,,,,,,,,,,,,,
null,,black_cross(without_color),754951,,yellow,,,,null,GW/huntsville.png,GW/leesburg.png,,,,,,,,,,,,,,,,,,
null,,rt_plussign_withcolor,755454,,yellow,,,,null,GW/huntsville.png,GW/leesburg.png,,,,,,,,,,,,,,,,,,
1151.3999999761581,,rt_thecrossant_black,756374,,black_plus_sign,,,,50,,,1,0.9577464788732394,,,,,,,,,,,,,,,,
null,,color_black,756476,,black_plus_sign,,,,null,,,,,,,,,,,,,,,,,,,,
null,,learn_phase(without_color),759480,,black_plus_sign,,,,null,GW/newhope.png,GW/carmel.png,,,,,,,,,,,,,,,,,,
null,,black_cross(without_color),760458,,blue,,,,null,GW/newhope.png,GW/carmel.png,,,,,,,,,,,,,,,,,,
null,,rt_plussign_withcolor,760967,,blue,,,,null,GW/newhope.png,GW/carmel.png,,,,,,,,,,,,,,,,,,
null,,rt_thecrossant_black,761993,,black_plus_sign,,,,null,,,,0.9577464788732394,,,,,,,,,,,,,,,,
null,,color_black,762094,,black_plus_sign,,,,null,,,,,,,,,,,,,,,,,,,,
null,,learn_phase(without_color),765097,,black_plus_sign,,,,null,GW/hotsprings.png,GW/hanover.png,,,,,,,,,,,,,,,,,,
null,,black_cross(without_color),766058,,yellow,,,,null,GW/hotsprings.png,GW/hanover.png,,,,,,,,,,,,,,,,,,
null,,rt_plussign_withcolor,766566,,yellow,,,,null,GW/hotsprings.png,GW/hanover.png,,,,,,,,,,,,,,,,,,
1168.7999999523163,,rt_thecrossant_black,767611,,black_plus_sign,,,,50,,,1,0.9583333333333334,,,,,,,,,,,,,,,,
null,,color_black,767720,,black_plus_sign,,,,null,,,,,,,,,,,,,,,,,,,,
null,,learn_phase(without_color),770726,,black_plus_sign,,,,null,GW/leesburg.png,GW/huntsville.png,,,,,,,,,,,,,,,,,,
null,,black_cross(without_color),771686,,blue,,,,null,GW/leesburg.png,GW/huntsville.png,,,,,,,,,,,,,,,,,,
null,,rt_plussign_withcolor,772189,,blue,,,,null,GW/leesburg.png,GW/huntsville.png,,,,,,,,,,,,,,,,,,
1277,,rt_thecrossant_black,773240,,black_plus_sign,,,,49,,,1,0.958904109589041,,,,,,,,,,,,,,,,
null,,color_black,773350,,black_plus_sign,,,,null,,,,,,,,,,,,,,,,,,,,
null,,learn_phase(without_color),776358,,black_plus_sign,,,,null,GW/newhope.png,GW/carmel.png,,,,,,,,,,,,,,,,,,
null,,black_cross(without_color),777159,,yellow,,,,null,GW/newhope.png,GW/carmel.png,,,,,,,,,,,,,,,,,,
null,,rt_plussign_withcolor,777662,,yellow,,,,null,GW/newhope.png,GW/carmel.png,,,,,,,,,,,,,,,,,,
1501.6000000238419,,rt_thecrossant_black,778871,,black_plus_sign,,,,50,,,1,0.9594594594594594,,,,,,,,,,,,,,,,
null,,color_black,778984,,black_plus_sign,,,,null,,,,,,,,,,,,,,,,,,,,
null,,learn_phase(without_color),781990,,black_plus_sign,,,,null,GW/westpalmbeach.png,GW/cornwall.png,,,,,,,,,,,,,,,,,,
null,,black_cross(without_color),782871,,blue,,,,null,GW/westpalmbeach.png,GW/cornwall.png,,,,,,,,,,,,,,,,,,
null,,rt_plussign_withcolor,783375,,blue,,,,null,GW/westpalmbeach.png,GW/cornwall.png,,,,,,,,,,,,,,,,,,
983.5999999046326,,rt_thecrossant_black,784508,,black_plus_sign,,,,49,,,1,0.96,,,,,,,,,,,,,,,,
null,,color_black,784616,,black_plus_sign,,,,null,,,,,,,,,,,,,,,,,,,,
null,,learn_phase(without_color),787623,,black_plus_sign,,,,null,GW/leesburg.png,GW/huntsville.png,,,,,,,,,,,,,,,,,,
null,,black_cross(without_color),788520,,yellow,,,,null,GW/leesburg.png,GW/huntsville.png,,,,,,,,,,,,,,,,,,
null,,rt_plussign_withcolor,789032,,yellow,,,,null,GW/leesburg.png,GW/huntsville.png,,,,,,,,,,,,,,,,,,
1121.6999999284744,,rt_thecrossant_black,790151,,black_plus_sign,,,,50,,,1,0.9605263157894737,,,,,,,,,,,,,,,,
null,,color_black,790264,,black_plus_sign,,,,null,,,,,,,,,,,,,,,,,,,,
null,,learn_phase(without_color),793271,,black_plus_sign,,,,null,GW/carmel.png,GW/newhope.png,,,,,,,,,,,,,,,,,,
null,,black_cross(without_color),794265,,blue,,,,null,GW/carmel.png,GW/newhope.png,,,,,,,,,,,,,,,,,,
null,,rt_plussign_withcolor,794775,,blue,,,,null,GW/carmel.png,GW/newhope.png,,,,,,,,,,,,,,,,,,
1024.2999999523163,,rt_thecrossant_black,795784,,black_plus_sign,,,,50,,,0,0.948051948051948,,,,,,,,,,,,,,,,
null,,color_black,795885,,black_plus_sign,,,,null,,,,,,,,,,,,,,,,,,,,
null,,learn_phase(without_color),798888,,black_plus_sign,,,,null,GW/hanover.png,GW/hotsprings.png,,,,,,,,,,,,,,,,,,
null,,black_cross(without_color),799543,,yellow,,,,null,GW/hanover.png,GW/hotsprings.png,,,,,,,,,,,,,,,,,,
null,,rt_plussign_withcolor,800047,,yellow,,,,null,GW/hanover.png,GW/hotsprings.png,,,,,,,,,,,,,,,,,,
1221,,rt_thecrossant_black,801406,,black_plus_sign,,,,50,,,1,0.9487179487179487,,,,,,,,,,,,,,,,
null,,color_black,801511,,black_plus_sign,,,,null,,,,,,,,,,,,,,,,,,,,
null,,learn_phase(without_color),804519,,black_plus_sign,,,,null,GW/huntsville.png,GW/leesburg.png,,,,,,,,,,,,,,,,,,
null,,black_cross(without_color),805165,,blue,,,,null,GW/huntsville.png,GW/leesburg.png,,,,,,,,,,,,,,,,,,
null,,rt_plussign_withcolor,805671,,blue,,,,null,GW/huntsville.png,GW/leesburg.png,,,,,,,,,,,,,,,,,,
790.6000000238419,,rt_thecrossant_black,807031,,black_plus_sign,,,,49,,,1,0.9493670886075949,,,,,,,,,,,,,,,,
null,,color_black,807133,,black_plus_sign,,,,null,,,,,,,,,,,,,,,,,,,,
null,,learn_phase(without_color),810136,,black_plus_sign,,,,null,GW/hanover.png,GW/hotsprings.png,,,,,,,,,,,,,,,,,,
null,,black_cross(without_color),810987,,yellow,,,,null,GW/hanover.png,GW/hotsprings.png,,,,,,,,,,,,,,,,,,
null,,rt_plussign_withcolor,811495,,yellow,,,,null,GW/hanover.png,GW/hotsprings.png,,,,,,,,,,,,,,,,,,
764.1000000238419,,rt_thecrossant_black,812648,,black_plus_sign,,,,50,,,1,0.95,,,,,,,,,,,,,,,,
null,,color_black,812760,,black_plus_sign,,,,null,,,,,,,,,,,,,,,,,,,,
null,,learn_phase(without_color),815767,,black_plus_sign,,,,null,GW/westpalmbeach.png,GW/cornwall.png,,,,,,,,,,,,,,,,,,
null,,black_cross(without_color),816823,,blue,,,,null,GW/westpalmbeach.png,GW/cornwall.png,,,,,,,,,,,,,,,,,,
null,,rt_plussign_withcolor,817325,,blue,,,,null,GW/westpalmbeach.png,GW/cornwall.png,,,,,,,,,,,,,,,,,,
1138.2999999523163,,rt_thecrossant_black,818280,,black_plus_sign,,,,49,,,1,0.9506172839506173,,,,,,,,,,,,,,,,
null,,color_black,818383,,black_plus_sign,,,,null,,,,,,,,,,,,,,,,,,,,
null,,learn_phase(without_color),821387,,black_plus_sign,,,,null,GW/leesburg.png,GW/huntsville.png,,,,,,,,,,,,,,,,,,
null,,black_cross(without_color),822375,,yellow,,,,null,GW/leesburg.png,GW/huntsville.png,,,,,,,,,,,,,,,,,,
null,,rt_plussign_withcolor,822878,,yellow,,,,null,GW/leesburg.png,GW/huntsville.png,,,,,,,,,,,,,,,,,,
1365.1000000238419,,rt_thecrossant_black,823898,,black_plus_sign,,,,50,,,1,0.9512195121951219,,,,,,,,,,,,,,,,
null,,color_black,824007,,black_plus_sign,,,,null,,,,,,,,,,,,,,,,,,,,
null,,learn_phase(without_color),827015,,black_plus_sign,,,,null,GW/hotsprings.png,GW/hanover.png,,,,,,,,,,,,,,,,,,
null,,black_cross(without_color),827920,,blue,,,,null,GW/hotsprings.png,GW/hanover.png,,,,,,,,,,,,,,,,,,
null,,rt_plussign_withcolor,828424,,blue,,,,null,GW/hotsprings.png,GW/hanover.png,,,,,,,,,,,,,,,,,,
1866,,rt_thecrossant_black,829528,,black_plus_sign,,,,49,,,1,0.9518072289156626,,,,,,,,,,,,,,,,
null,,color_black,829639,,black_plus_sign,,,,null,,,,,,,,,,,,,,,,,,,,
null,,learn_phase(without_color),832648,,black_plus_sign,,,,null,GW/leesburg.png,GW/huntsville.png,,,,,,,,,,,,,,,,,,
null,,black_cross(without_color),833274,,blue,,,,null,GW/leesburg.png,GW/huntsville.png,,,,,,,,,,,,,,,,,,
null,,rt_plussign_withcolor,833784,,blue,,,,null,GW/leesburg.png,GW/huntsville.png,,,,,,,,,,,,,,,,,,
1772.1000000238419,,rt_thecrossant_black,835166,,black_plus_sign,,,,49,,,1,0.9523809523809523,,,,,,,,,,,,,,,,
null,,color_black,835271,,black_plus_sign,,,,null,,,,,,,,,,,,,,,,,,,,
null,,learn_phase(without_color),838279,,black_plus_sign,,,,null,GW/hanover.png,GW/hotsprings.png,,,,,,,,,,,,,,,,,,
null,,black_cross(without_color),839016,,yellow,,,,null,GW/hanover.png,GW/hotsprings.png,,,,,,,,,,,,,,,,,,
null,,rt_plussign_withcolor,839528,,yellow,,,,null,GW/hanover.png,GW/hotsprings.png,,,,,,,,,,,,,,,,,,
890.5,,rt_thecrossant_black,840807,,black_plus_sign,,,,50,,,1,0.9529411764705882,,,,,,,,,,,,,,,,
null,,color_black,840909,,black_plus_sign,,,,null,,,,,,,,,,,,,,,,,,,,
null,,learn_phase(without_color),843912,,black_plus_sign,,,,null,GW/cornwall.png,GW/westpalmbeach.png,,,,,,,,,,,,,,,,,,
null,,black_cross(without_color),844652,,yellow,,,,null,GW/cornwall.png,GW/westpalmbeach.png,,,,,,,,,,,,,,,,,,
null,,rt_plussign_withcolor,845160,,yellow,,,,null,GW/cornwall.png,GW/westpalmbeach.png,,,,,,,,,,,,,,,,,,
1415.1000000238419,,rt_thecrossant_black,846427,,black_plus_sign,,,,49,,,0,0.9418604651162791,,,,,,,,,,,,,,,,
null,,color_black,846535,,black_plus_sign,,,,null,,,,,,,,,,,,,,,,,,,,
null,,learn_phase(without_color),849544,,black_plus_sign,,,,null,GW/carmel.png,GW/newhope.png,,,,,,,,,,,,,,,,,,
null,,black_cross(without_color),850248,,blue,,,,null,GW/carmel.png,GW/newhope.png,,,,,,,,,,,,,,,,,,
null,,rt_plussign_withcolor,850751,,blue,,,,null,GW/carmel.png,GW/newhope.png,,,,,,,,,,,,,,,,,,
919.1999999284744,,rt_thecrossant_black,852060,,black_plus_sign,,,,49,,,1,0.9425287356321839,,,,,,,,,,,,,,,,
null,,color_black,852167,,black_plus_sign,,,,null,,,,,,,,,,,,,,,,,,,,
null,,learn_phase(without_color),855176,,black_plus_sign,,,,null,GW/hotsprings.png,GW/hanover.png,,,,,,,,,,,,,,,,,,
null,,black_cross(without_color),856279,,blue,,,,null,GW/hotsprings.png,GW/hanover.png,,,,,,,,,,,,,,,,,,
null,,rt_plussign_withcolor,856781,,blue,,,,null,GW/hotsprings.png,GW/hanover.png,,,,,,,,,,,,,,,,,,
1141.2000000476837,,rt_thecrossant_black,857687,,black_plus_sign,,,,49,,,1,0.9431818181818182,,,,,,,,,,,,,,,,
null,,color_black,857790,,black_plus_sign,,,,null,,,,,,,,,,,,,,,,,,,,
null,,learn_phase(without_color),860791,,black_plus_sign,,,,null,GW/cornwall.png,GW/westpalmbeach.png,,,,,,,,,,,,,,,,,,
null,,black_cross(without_color),861767,,yellow,,,,null,GW/cornwall.png,GW/westpalmbeach.png,,,,,,,,,,,,,,,,,,
null,,rt_plussign_withcolor,862270,,yellow,,,,null,GW/cornwall.png,GW/westpalmbeach.png,,,,,,,,,,,,,,,,,,
1339.3000000715256,,rt_thecrossant_black,863304,,black_plus_sign,,,,50,,,1,0.9438202247191011,,,,,,,,,,,,,,,,
null,,color_black,863416,,black_plus_sign,,,,null,,,,,,,,,,,,,,,,,,,,
null,,learn_phase(without_color),866423,,black_plus_sign,,,,null,GW/hotsprings.png,GW/hanover.png,,,,,,,,,,,,,,,,,,
null,,black_cross(without_color),867100,,yellow,,,,null,GW/hotsprings.png,GW/hanover.png,,,,,,,,,,,,,,,,,,
null,,rt_plussign_withcolor,867608,,yellow,,,,null,GW/hotsprings.png,GW/hanover.png,,,,,,,,,,,,,,,,,,
1418.8999999761581,,rt_thecrossant_black,868936,,black_plus_sign,,,,49,,,0,0.9333333333333333,,,,,,,,,,,,,,,,
null,,color_black,869048,,black_plus_sign,,,,null,,,,,,,,,,,,,,,,,,,,
null,,learn_phase(without_color),872055,,black_plus_sign,,,,null,GW/cornwall.png,GW/westpalmbeach.png,,,,,,,,,,,,,,,,,,
null,,black_cross(without_color),872664,,blue,,,,null,GW/cornwall.png,GW/westpalmbeach.png,,,,,,,,,,,,,,,,,,
null,,rt_plussign_withcolor,873176,,blue,,,,null,GW/cornwall.png,GW/westpalmbeach.png,,,,,,,,,,,,,,,,,,
836.6000000238419,,rt_thecrossant_black,874574,,black_plus_sign,,,,49,,,1,0.9340659340659341,,,,,,,,,,,,,,,,
null,,color_black,874681,,black_plus_sign,,,,null,,,,,,,,,,,,,,,,,,,,
null,,learn_phase(without_color),877688,,black_plus_sign,,,,null,GW/hanover.png,GW/hotsprings.png,,,,,,,,,,,,,,,,,,
null,,black_cross(without_color),878268,,yellow,,,,null,GW/hanover.png,GW/hotsprings.png,,,,,,,,,,,,,,,,,,
null,,rt_plussign_withcolor,878776,,yellow,,,,null,GW/hanover.png,GW/hotsprings.png,,,,,,,,,,,,,,,,,,
1596.8999999761581,,rt_thecrossant_black,880204,,black_plus_sign,,,,50,,,1,0.9347826086956522,,,,,,,,,,,,,,,,
null,,color_black,880311,,black_plus_sign,,,,null,,,,,,,,,,,,,,,,,,,,
null,,learn_phase(without_color),883320,,black_plus_sign,,,,null,GW/newhope.png,GW/carmel.png,,,,,,,,,,,,,,,,,,
null,,black_cross(without_color),883752,,yellow,,,,null,GW/newhope.png,GW/carmel.png,,,,,,,,,,,,,,,,,,
null,,rt_plussign_withcolor,884264,,yellow,,,,null,GW/newhope.png,GW/carmel.png,,,,,,,,,,,,,,,,,,
1302.8000000715256,,rt_thecrossant_black,885847,,black_plus_sign,,,,50,,,1,0.9354838709677419,,,,,,,,,,,,,,,,
null,,color_black,885949,,black_plus_sign,,,,null,,,,,,,,,,,,,,,,,,,,
null,,learn_phase(without_color),888952,,black_plus_sign,,,,null,GW/cornwall.png,GW/westpalmbeach.png,,,,,,,,,,,,,,,,,,
null,,black_cross(without_color),889704,,blue,,,,null,GW/cornwall.png,GW/westpalmbeach.png,,,,,,,,,,,,,,,,,,
null,,rt_plussign_withcolor,890216,,blue,,,,null,GW/cornwall.png,GW/westpalmbeach.png,,,,,,,,,,,,,,,,,,
1664.9000000953674,,rt_thecrossant_black,891479,,black_plus_sign,,,,49,,,1,0.9361702127659575,,,,,,,,,,,,,,,,
null,,color_black,891580,,black_plus_sign,,,,null,,,,,,,,,,,,,,,,,,,,
null,,learn_phase(without_color),894585,,black_plus_sign,,,,null,GW/huntsville.png,GW/leesburg.png,,,,,,,,,,,,,,,,,,
null,,black_cross(without_color),895564,,blue,,,,null,GW/huntsville.png,GW/leesburg.png,,,,,,,,,,,,,,,,,,
null,,rt_plussign_withcolor,896072,,blue,,,,null,GW/huntsville.png,GW/leesburg.png,,,,,,,,,,,,,,,,,,
920.8000000715256,,rt_thecrossant_black,897097,,black_plus_sign,,,,49,,,1,0.9368421052631579,,,,,,,,,,,,,,,,
null,,color_black,897208,,black_plus_sign,,,,null,,,,,,,,,,,,,,,,,,,,
null,,learn_phase(without_color),900216,,black_plus_sign,,,,null,GW/huntsville.png,GW/newhope.png,,,,,,,,,,,,,,,,,,
null,,black_cross(without_color),901134,,blue,,,,null,GW/huntsville.png,GW/newhope.png,,,,,,,,,,,,,,,,,,
null,,rt_plussign_withcolor,901639,,blue,,,,null,GW/huntsville.png,GW/newhope.png,,,,,,,,,,,,,,,,,,
1405.7000000476837,,rt_thecrossant_black,902728,,black_plus_sign,,,,49,,,1,0.9375,,,,,,,,,,,,,,,,
null,,color_black,902840,,black_plus_sign,,,,null,,,,,,,,,,,,,,,,,,,,
null,,learn_phase(without_color),905847,,black_plus_sign,,,,null,GW/hotsprings.png,GW/cornwall.png,,,,,,,,,,,,,,,,,,
null,,black_cross(without_color),906584,,blue,,,,null,GW/hotsprings.png,GW/cornwall.png,,,,,,,,,,,,,,,,,,
null,,rt_plussign_withcolor,907086,,blue,,,,null,GW/hotsprings.png,GW/cornwall.png,,,,,,,,,,,,,,,,,,
1475.2999999523163,,rt_thecrossant_black,908360,,black_plus_sign,,,,49,,,1,0.9381443298969072,,,,,,,,,,,,,,,,
null,,color_black,908472,,black_plus_sign,,,,null,,,,,,,,,,,,,,,,,,,,
null,,learn_phase(without_color),911480,,black_plus_sign,,,,null,GW/huntsville.png,GW/newhope.png,,,,,,,,,,,,,,,,,,
null,,black_cross(without_color),911942,,blue,,,,null,GW/huntsville.png,GW/newhope.png,,,,,,,,,,,,,,,,,,
null,,rt_plussign_withcolor,912445,,blue,,,,null,GW/huntsville.png,GW/newhope.png,,,,,,,,,,,,,,,,,,
901.1000000238419,,rt_thecrossant_black,913993,,black_plus_sign,,,,49,,,1,0.9387755102040817,,,,,,,,,,,,,,,,
null,,color_black,914104,,black_plus_sign,,,,null,,,,,,,,,,,,,,,,,,,,
null,,learn_phase(without_color),917112,,black_plus_sign,,,,null,GW/cornwall.png,GW/hotsprings.png,,,,,,,,,,,,,,,,,,
null,,black_cross(without_color),917576,,blue,,,,null,GW/cornwall.png,GW/hotsprings.png,,,,,,,,,,,,,,,,,,
null,,rt_plussign_withcolor,918089,,blue,,,,null,GW/cornwall.png,GW/hotsprings.png,,,,,,,,,,,,,,,,,,
628.9000000953674,,rt_thecrossant_black,919639,,black_plus_sign,,,,49,,,1,0.9393939393939394,,,,,,,,,,,,,,,,
null,,color_black,919743,,black_plus_sign,,,,null,,,,,,,,,,,,,,,,,,,,
null,,learn_phase(without_color),922749,,black_plus_sign,,,,null,GW/peoria.png,GW/gatlinburg.png,,,,,,,,,,,,,,,,,,
null,,black_cross(without_color),923704,,yellow,,,,null,GW/peoria.png,GW/gatlinburg.png,,,,,,,,,,,,,,,,,,
null,,rt_plussign_withcolor,924217,,yellow,,,,null,GW/peoria.png,GW/gatlinburg.png,,,,,,,,,,,,,,,,,,
1523.5,,rt_thecrossant_black,925272,,black_plus_sign,,,,50,,,1,0.94,,,,,,,,,,,,,,,,
null,,color_black,925384,,black_plus_sign,,,,null,,,,,,,,,,,,,,,,,,,,
null,,learn_phase(without_color),928392,,black_plus_sign,,,,null,GW/boulder.png,GW/hanover.png,,,,,,,,,,,,,,,,,,
null,,black_cross(without_color),929336,,yellow,,,,null,GW/boulder.png,GW/hanover.png,,,,,,,,,,,,,,,,,,
null,,rt_plussign_withcolor,929838,,yellow,,,,null,GW/boulder.png,GW/hanover.png,,,,,,,,,,,,,,,,,,
1339.6000000238419,,rt_thecrossant_black,930903,,black_plus_sign,,,,50,,,1,0.9405940594059405,,,,,,,,,,,,,,,,
null,,color_black,931005,,black_plus_sign,,,,null,,,,,,,,,,,,,,,,,,,,
null,,learn_phase(without_color),934008,,black_plus_sign,,,,null,GW/gatlinburg.png,GW/peoria.png,,,,,,,,,,,,,,,,,,
null,,black_cross(without_color),935024,,blue,,,,null,GW/gatlinburg.png,GW/peoria.png,,,,,,,,,,,,,,,,,,
null,,rt_plussign_withcolor,935527,,blue,,,,null,GW/gatlinburg.png,GW/peoria.png,,,,,,,,,,,,,,,,,,
2023.8999999761581,,rt_thecrossant_black,936519,,black_plus_sign,,,,50,,,0,0.9313725490196079,,,,,,,,,,,,,,,,
null,,color_black,936621,,black_plus_sign,,,,null,,,,,,,,,,,,,,,,,,,,
null,,learn_phase(without_color),939625,,black_plus_sign,,,,null,GW/newhope.png,GW/huntsville.png,,,,,,,,,,,,,,,,,,
null,,black_cross(without_color),940584,,blue,,,,null,GW/newhope.png,GW/huntsville.png,,,,,,,,,,,,,,,,,,
479.59999990463257,,rt_plussign_withcolor,941086,,blue,,,,49,GW/newhope.png,GW/huntsville.png,,,,,,,,,,,,,,,,,,
null,,rt_thecrossant_black,942140,,black_plus_sign,,,,null,,,1,0.9320388349514563,,,,,,,,,,,,,,,,
null,,color_black,942247,,black_plus_sign,,,,null,,,,,,,,,,,,,,,,,,,,
null,,learn_phase(without_color),945256,,black_plus_sign,,,,null,GW/peoria.png,GW/gatlinburg.png,,,,,,,,,,,,,,,,,,
null,,black_cross(without_color),946055,,blue,,,,null,GW/peoria.png,GW/gatlinburg.png,,,,,,,,,,,,,,,,,,
null,,rt_plussign_withcolor,946556,,blue,,,,null,GW/peoria.png,GW/gatlinburg.png,,,,,,,,,,,,,,,,,,
1259.6000000238419,,rt_thecrossant_black,947768,,black_plus_sign,,,,49,,,1,0.9326923076923077,,,,,,,,,,,,,,,,
null,,color_black,947880,,black_plus_sign,,,,null,,,,,,,,,,,,,,,,,,,,
null,,learn_phase(without_color),950887,,black_plus_sign,,,,null,GW/hotsprings.png,GW/cornwall.png,,,,,,,,,,,,,,,,,,
null,,black_cross(without_color),951463,,yellow,,,,null,GW/hotsprings.png,GW/cornwall.png,,,,,,,,,,,,,,,,,,
null,,rt_plussign_withcolor,951965,,yellow,,,,null,GW/hotsprings.png,GW/cornwall.png,,,,,,,,,,,,,,,,,,
1061.5,,rt_thecrossant_black,953399,,black_plus_sign,,,,50,,,1,0.9333333333333333,,,,,,,,,,,,,,,,
null,,color_black,953501,,black_plus_sign,,,,null,,,,,,,,,,,,,,,,,,,,
null,,learn_phase(without_color),956504,,black_plus_sign,,,,null,GW/hanover.png,GW/boulder.png,,,,,,,,,,,,,,,,,,
null,,black_cross(without_color),957376,,blue,,,,null,GW/hanover.png,GW/boulder.png,,,,,,,,,,,,,,,,,,
null,,rt_plussign_withcolor,957881,,blue,,,,null,GW/hanover.png,GW/boulder.png,,,,,,,,,,,,,,,,,,
756.6000000238419,,rt_thecrossant_black,959016,,black_plus_sign,,,,49,,,1,0.9339622641509434,,,,,,,,,,,,,,,,
null,,color_black,959128,,black_plus_sign,,,,null,,,,,,,,,,,,,,,,,,,,
null,,learn_phase(without_color),962136,,black_plus_sign,,,,null,GW/newhope.png,GW/huntsville.png,,,,,,,,,,,,,,,,,,
null,,black_cross(without_color),962808,,blue,,,,null,GW/newhope.png,GW/huntsville.png,,,,,,,,,,,,,,,,,,
null,,rt_plussign_withcolor,963321,,blue,,,,null,GW/newhope.png,GW/huntsville.png,,,,,,,,,,,,,,,,,,
1019,,rt_thecrossant_black,964664,,black_plus_sign,,,,49,,,1,0.9345794392523364,,,,,,,,,,,,,,,,
null,,color_black,964776,,black_plus_sign,,,,null,,,,,,,,,,,,,,,,,,,,
null,,learn_phase(without_color),967784,,black_plus_sign,,,,null,GW/peoria.png,GW/gatlinburg.png,,,,,,,,,,,,,,,,,,
null,,black_cross(without_color),968797,,yellow,,,,null,GW/peoria.png,GW/gatlinburg.png,,,,,,,,,,,,,,,,,,
null,,rt_plussign_withcolor,969305,,yellow,,,,null,GW/peoria.png,GW/gatlinburg.png,,,,,,,,,,,,,,,,,,
1279,,rt_thecrossant_black,970299,,black_plus_sign,,,,50,,,1,0.9351851851851852,,,,,,,,,,,,,,,,
null,,color_black,970407,,black_plus_sign,,,,null,,,,,,,,,,,,,,,,,,,,
null,,learn_phase(without_color),973417,,black_plus_sign,,,,null,GW/newhope.png,GW/huntsville.png,,,,,,,,,,,,,,,,,,
null,,black_cross(without_color),973880,,blue,,,,null,GW/newhope.png,GW/huntsville.png,,,,,,,,,,,,,,,,,,
null,,rt_plussign_withcolor,974383,,blue,,,,null,GW/newhope.png,GW/huntsville.png,,,,,,,,,,,,,,,,,,
1168.7000000476837,,rt_thecrossant_black,975927,,black_plus_sign,,,,49,,,1,0.9357798165137615,,,,,,,,,,,,,,,,
null,,color_black,976029,,black_plus_sign,,,,null,,,,,,,,,,,,,,,,,,,,
null,,learn_phase(without_color),979032,,black_plus_sign,,,,null,GW/boulder.png,GW/hanover.png,,,,,,,,,,,,,,,,,,
null,,black_cross(without_color),979901,,blue,,,,null,GW/boulder.png,GW/hanover.png,,,,,,,,,,,,,,,,,,
502.5,,rt_plussign_withcolor,980406,,blue,,,,49,GW/boulder.png,GW/hanover.png,,,,,,,,,,,,,,,,,,
null,,rt_thecrossant_black,981544,,black_plus_sign,,,,null,,,1,0.9363636363636364,,,,,,,,,,,,,,,,
null,,color_black,981646,,black_plus_sign,,,,null,,,,,,,,,,,,,,,,,,,,
null,,learn_phase(without_color),984647,,black_plus_sign,,,,null,GW/hotsprings.png,GW/cornwall.png,,,,,,,,,,,,,,,,,,
null,,black_cross(without_color),985564,,blue,,,,null,GW/hotsprings.png,GW/cornwall.png,,,,,,,,,,,,,,,,,,
null,,rt_plussign_withcolor,986072,,blue,,,,null,GW/hotsprings.png,GW/cornwall.png,,,,,,,,,,,,,,,,,,
1060.8999999761581,,rt_thecrossant_black,987160,,black_plus_sign,,,,49,,,1,0.9369369369369369,,,,,,,,,,,,,,,,
null,,color_black,987264,,black_plus_sign,,,,null,,,,,,,,,,,,,,,,,,,,
null,,learn_phase(without_color),990267,,black_plus_sign,,,,null,GW/peoria.png,GW/gatlinburg.png,,,,,,,,,,,,,,,,,,
null,,black_cross(without_color),991208,,blue,,,,null,GW/peoria.png,GW/gatlinburg.png,,,,,,,,,,,,,,,,,,
null,,rt_plussign_withcolor,991709,,blue,,,,null,GW/peoria.png,GW/gatlinburg.png,,,,,,,,,,,,,,,,,,
1052.8999999761581,,rt_thecrossant_black,992777,,black_plus_sign,,,,49,,,1,0.9375,,,,,,,,,,,,,,,,
null,,color_black,992889,,black_plus_sign,,,,null,,,,,,,,,,,,,,,,,,,,
null,,learn_phase(without_color),995894,,black_plus_sign,,,,null,GW/boulder.png,GW/hanover.png,,,,,,,,,,,,,,,,,,
null,,black_cross(without_color),996536,,blue,,,,null,GW/boulder.png,GW/hanover.png,,,,,,,,,,,,,,,,,,
null,,rt_plussign_withcolor,997037,,blue,,,,null,GW/boulder.png,GW/hanover.png,,,,,,,,,,,,,,,,,,
1071.5,,rt_thecrossant_black,998409,,black_plus_sign,,,,49,,,1,0.9380530973451328,,,,,,,,,,,,,,,,
null,,color_black,998521,,black_plus_sign,,,,null,,,,,,,,,,,,,,,,,,,,
null,,learn_phase(without_color),1001528,,black_plus_sign,,,,null,GW/cornwall.png,GW/hotsprings.png,,,,,,,,,,,,,,,,,,
null,,black_cross(without_color),1002185,,blue,,,,null,GW/cornwall.png,GW/hotsprings.png,,,,,,,,,,,,,,,,,,
null,,rt_plussign_withcolor,1002697,,blue,,,,null,GW/cornwall.png,GW/hotsprings.png,,,,,,,,,,,,,,,,,,
925.7999999523163,,rt_thecrossant_black,1004057,,black_plus_sign,,,,49,,,1,0.9385964912280702,,,,,,,,,,,,,,,,
null,,color_black,1004168,,black_plus_sign,,,,null,,,,,,,,,,,,,,,,,,,,
null,,learn_phase(without_color),1007177,,black_plus_sign,,,,null,GW/boulder.png,GW/hanover.png,,,,,,,,,,,,,,,,,,
null,,black_cross(without_color),1007945,,blue,,,,null,GW/boulder.png,GW/hanover.png,,,,,,,,,,,,,,,,,,
null,,rt_plussign_withcolor,1008457,,blue,,,,null,GW/boulder.png,GW/hanover.png,,,,,,,,,,,,,,,,,,
1021.6000000238419,,rt_thecrossant_black,1009705,,black_plus_sign,,,,49,,,1,0.9391304347826087,,,,,,,,,,,,,,,,
null,,color_black,1009816,,black_plus_sign,,,,null,,,,,,,,,,,,,,,,,,,,
null,,learn_phase(without_color),1012825,,black_plus_sign,,,,null,GW/gatlinburg.png,GW/peoria.png,,,,,,,,,,,,,,,,,,
null,,black_cross(without_color),1013641,,blue,,,,null,GW/gatlinburg.png,GW/peoria.png,,,,,,,,,,,,,,,,,,
null,,rt_plussign_withcolor,1014152,,blue,,,,null,GW/gatlinburg.png,GW/peoria.png,,,,,,,,,,,,,,,,,,
1003.7999999523163,,rt_thecrossant_black,1015352,,black_plus_sign,,,,49,,,1,0.9396551724137931,,,,,,,,,,,,,,,,
null,,color_black,1015454,,black_plus_sign,,,,null,,,,,,,,,,,,,,,,,,,,
null,,learn_phase(without_color),1018457,,black_plus_sign,,,,null,GW/boulder.png,GW/hanover.png,,,,,,,,,,,,,,,,,,
null,,black_cross(without_color),1019112,,yellow,,,,null,GW/boulder.png,GW/hanover.png,,,,,,,,,,,,,,,,,,
null,,rt_plussign_withcolor,1019617,,yellow,,,,null,GW/boulder.png,GW/hanover.png,,,,,,,,,,,,,,,,,,
995.7999999523163,,rt_thecrossant_black,1020974,,black_plus_sign,,,,50,,,1,0.9401709401709402,,,,,,,,,,,,,,,,
null,,color_black,1021080,,black_plus_sign,,,,null,,,,,,,,,,,,,,,,,,,,
null,,learn_phase(without_color),1024089,,black_plus_sign,,,,null,GW/hotsprings.png,GW/cornwall.png,,,,,,,,,,,,,,,,,,
null,,black_cross(without_color),1024830,,blue,,,,null,GW/hotsprings.png,GW/cornwall.png,,,,,,,,,,,,,,,,,,
null,,rt_plussign_withcolor,1025335,,blue,,,,null,GW/hotsprings.png,GW/cornwall.png,,,,,,,,,,,,,,,,,,
838.2999999523163,,rt_thecrossant_black,1026601,,black_plus_sign,,,,49,,,1,0.940677966101695,,,,,,,,,,,,,,,,
null,,color_black,1026703,,black_plus_sign,,,,null,,,,,,,,,,,,,,,,,,,,
null,,learn_phase(without_color),1029705,,black_plus_sign,,,,null,GW/peoria.png,GW/gatlinburg.png,,,,,,,,,,,,,,,,,,
null,,black_cross(without_color),1030376,,yellow,,,,null,GW/peoria.png,GW/gatlinburg.png,,,,,,,,,,,,,,,,,,
null,,rt_plussign_withcolor,1030877,,yellow,,,,null,GW/peoria.png,GW/gatlinburg.png,,,,,,,,,,,,,,,,,,
1049.1000000238419,,rt_thecrossant_black,1032219,,black_plus_sign,,,,50,,,1,0.9411764705882353,,,,,,,,,,,,,,,,
null,,color_black,1032329,,black_plus_sign,,,,null,,,,,,,,,,,,,,,,,,,,
null,,learn_phase(without_color),1035336,,black_plus_sign,,,,null,GW/newhope.png,GW/huntsville.png,,,,,,,,,,,,,,,,,,
null,,black_cross(without_color),1036287,,yellow,,,,null,GW/newhope.png,GW/huntsville.png,,,,,,,,,,,,,,,,,,
null,,rt_plussign_withcolor,1036791,,yellow,,,,null,GW/newhope.png,GW/huntsville.png,,,,,,,,,,,,,,,,,,
970.5,,rt_thecrossant_black,1037849,,black_plus_sign,,,,50,,,1,0.9416666666666667,,,,,,,,,,,,,,,,
null,,color_black,1037961,,black_plus_sign,,,,null,,,,,,,,,,,,,,,,,,,,
null,,learn_phase(without_color),1040968,,black_plus_sign,,,,null,GW/peoria.png,GW/gatlinburg.png,,,,,,,,,,,,,,,,,,
null,,black_cross(without_color),1041916,,yellow,,,,null,GW/peoria.png,GW/gatlinburg.png,,,,,,,,,,,,,,,,,,
null,,rt_plussign_withcolor,1042425,,yellow,,,,null,GW/peoria.png,GW/gatlinburg.png,,,,,,,,,,,,,,,,,,
1154.2999999523163,,rt_thecrossant_black,1043483,,black_plus_sign,,,,50,,,1,0.9421487603305785,,,,,,,,,,,,,,,,
null,,color_black,1043593,,black_plus_sign,,,,null,,,,,,,,,,,,,,,,,,,,
null,,learn_phase(without_color),1046600,,black_plus_sign,,,,null,GW/boulder.png,GW/hanover.png,,,,,,,,,,,,,,,,,,
null,,black_cross(without_color),1047369,,yellow,,,,null,GW/boulder.png,GW/hanover.png,,,,,,,,,,,,,,,,,,
null,,rt_plussign_withcolor,1047881,,yellow,,,,null,GW/boulder.png,GW/hanover.png,,,,,,,,,,,,,,,,,,
1177.2999999523163,,rt_thecrossant_black,1049130,,black_plus_sign,,,,50,,,1,0.9426229508196722,,,,,,,,,,,,,,,,
null,,color_black,1049241,,black_plus_sign,,,,null,,,,,,,,,,,,,,,,,,,,
null,,learn_phase(without_color),1052249,,black_plus_sign,,,,null,GW/newhope.png,GW/huntsville.png,,,,,,,,,,,,,,,,,,
null,,black_cross(without_color),1053153,,yellow,,,,null,GW/newhope.png,GW/huntsville.png,,,,,,,,,,,,,,,,,,
498.10000002384186,,rt_plussign_withcolor,1053656,,yellow,,,,50,GW/newhope.png,GW/huntsville.png,,,,,,,,,,,,,,,,,,
null,,rt_thecrossant_black,1054761,,black_plus_sign,,,,null,,,1,0.943089430894309,,,,,,,,,,,,,,,,
null,,color_black,1054873,,black_plus_sign,,,,null,,,,,,,,,,,,,,,,,,,,
null,,learn_phase(without_color),1057882,,black_plus_sign,,,,null,GW/hotsprings.png,GW/cornwall.png,,,,,,,,,,,,,,,,,,
null,,black_cross(without_color),1058465,,yellow,,,,null,GW/hotsprings.png,GW/cornwall.png,,,,,,,,,,,,,,,,,,
null,,rt_plussign_withcolor,1058970,,yellow,,,,null,GW/hotsprings.png,GW/cornwall.png,,,,,,,,,,,,,,,,,,
1022,,rt_thecrossant_black,1060395,,black_plus_sign,,,,50,,,1,0.9435483870967742,,,,,,,,,,,,,,,,
null,,color_black,1060504,,black_plus_sign,,,,null,,,,,,,,,,,,,,,,,,,,
null,,learn_phase(without_color),1063512,,black_plus_sign,,,,null,GW/boulder.png,GW/hanover.png,,,,,,,,,,,,,,,,,,
null,,black_cross(without_color),1064108,,blue,,,,null,GW/boulder.png,GW/hanover.png,,,,,,,,,,,,,,,,,,
null,,rt_plussign_withcolor,1064617,,blue,,,,null,GW/boulder.png,GW/hanover.png,,,,,,,,,,,,,,,,,,
705.8999999761581,,rt_thecrossant_black,1066028,,black_plus_sign,,,,49,,,1,0.944,,,,,,,,,,,,,,,,
null,,color_black,1066136,,black_plus_sign,,,,null,,,,,,,,,,,,,,,,,,,,
null,,learn_phase(without_color),1069145,,black_plus_sign,,,,null,GW/huntsville.png,GW/newhope.png,,,,,,,,,,,,,,,,,,
null,,black_cross(without_color),1069673,,blue,,,,null,GW/huntsville.png,GW/newhope.png,,,,,,,,,,,,,,,,,,
null,,rt_plussign_withcolor,1070177,,blue,,,,null,GW/huntsville.png,GW/newhope.png,,,,,,,,,,,,,,,,,,
726.5,,rt_thecrossant_black,1071658,,black_plus_sign,,,,49,,,1,0.9444444444444444,,,,,,,,,,,,,,,,
null,,color_black,1071768,,black_plus_sign,,,,null,,,,,,,,,,,,,,,,,,,,
null,,learn_phase(without_color),1074776,,black_plus_sign,,,,null,GW/cornwall.png,GW/hotsprings.png,,,,,,,,,,,,,,,,,,
null,,black_cross(without_color),1075400,,blue,,,,null,GW/cornwall.png,GW/hotsprings.png,,,,,,,,,,,,,,,,,,
null,,rt_plussign_withcolor,1075902,,blue,,,,null,GW/cornwall.png,GW/hotsprings.png,,,,,,,,,,,,,,,,,,
638.3000000715256,,rt_thecrossant_black,1077288,,black_plus_sign,,,,49,,,1,0.9448818897637795,,,,,,,,,,,,,,,,
null,,color_black,1077392,,black_plus_sign,,,,null,,,,,,,,,,,,,,,,,,,,
27988.300000071526,,learn_break,1105384,,learn_break,,,,32,,,,,,,,,,,,,,,,,,,,
20228.299999952316,,intro_1,1125620,,instruct,,0,Start,,,,,,,,,,,,,,,,,,,,,
1901.8999999761581,,directmemory_phase,1127523,,GW/cornwall.png,,,,50,,,1,1,GW/carmel.png,GW/hotsprings.png,GW/shreveport.png,GW/hotsprings.png,GW/carmel.png,GW/shreveport.png,1,,,,,,,,,
null,,html-keyboard-response,1128529,,<p></p>,,,,null,,,,,,,,,,,,,,,,,,,,
2480.600000023842,,directmemory_phase,1131012,,GW/gatlinburg.png,,,,49,,,1,1,GW/racine.png,GW/newhope.png,GW/westpalmbeach.png,GW/racine.png,GW/westpalmbeach.png,GW/newhope.png,1,,,,,,,,,
null,,html-keyboard-response,1132017,,<p></p>,,,,null,,,,,,,,,,,,,,,,,,,,
2286.100000023842,,directmemory_phase,1134304,,GW/huntsville.png,,,,50,,,1,1,GW/carmel.png,GW/hotsprings.png,GW/peoria.png,GW/hotsprings.png,GW/carmel.png,GW/peoria.png,1,,,,,,,,,
null,,html-keyboard-response,1135313,,<p></p>,,,,null,,,,,,,,,,,,,,,,,,,,
5386.799999952316,,directmemory_phase,1140701,,GW/peoria.png,,,,49,,,1,1,GW/gatlinburg.png,GW/newhope.png,GW/hanover.png,GW/gatlinburg.png,GW/hanover.png,GW/newhope.png,1,,,,,,,,,
null,,html-keyboard-response,1141702,,<p></p>,,,,null,,,,,,,,,,,,,,,,,,,,
null,,directmemory_phase,1148212,,GW/newhope.png,,,,null,,,0,0.8,GW/shreveport.png,GW/westpalmbeach.png,GW/huntsville.png,GW/huntsville.png,GW/westpalmbeach.png,GW/shreveport.png,0,,,,,,,,,
null,,warning_page,1151218,,warning,,,,null,,,,,,,,,,,,,,,,,,,,
null,,html-keyboard-response,1152228,,<p></p>,,,,null,,,,,,,,,,,,,,,,,,,,
1676.6000000238419,,directmemory_phase,1153907,,GW/hanover.png,,,,50,,,0,0.6666666666666666,GW/hotsprings.png,GW/carmel.png,GW/cornwall.png,GW/hotsprings.png,GW/cornwall.png,GW/carmel.png,0.5,closer,,,,,,,,
null,,html-keyboard-response,1154914,,<p></p>,,,,null,,,,,,,,,,,,,,,,,,,,
2395.5,,directmemory_phase,1157312,,GW/leesburg.png,,,,51,,,1,0.7142857142857143,GW/hanover.png,GW/newhope.png,GW/huntsville.png,GW/huntsville.png,GW/newhope.png,GW/hanover.png,1,,,,,,,,,
null,,html-keyboard-response,1158323,,<p></p>,,,,null,,,,,,,,,,,,,,,,,,,,
2140,,directmemory_phase,1160466,,GW/newhope.png,,,,51,,,0,0.625,GW/carmel.png,GW/shreveport.png,GW/hanover.png,GW/carmel.png,GW/hanover.png,GW/shreveport.png,0.5,closer,,,,,,,,
null,,html-keyboard-response,1161474,,<p></p>,,,,null,,,,,,,,,,,,,,,,,,,,
2223.7999999523163,,directmemory_phase,1163700,,GW/peoria.png,,,,49,,,0,0.5555555555555556,GW/carmel.png,GW/boulder.png,GW/shreveport.png,GW/shreveport.png,GW/boulder.png,GW/carmel.png,0.5,closer,,,,,,,,
null,,html-keyboard-response,1164708,,<p></p>,,,,null,,,,,,,,,,,,,,,,,,,,
1767.6000000238419,,directmemory_phase,1166478,,GW/hotsprings.png,,,,50,,,0,0.5,GW/hanover.png,GW/peoria.png,GW/boulder.png,GW/hanover.png,GW/boulder.png,GW/peoria.png,0.5,closer,,,,,,,,
null,,html-keyboard-response,1167481,,<p></p>,,,,null,,,,,,,,,,,,,,,,,,,,
2360,,directmemory_phase,1169845,,GW/westpalmbeach.png,,,,51,,,1,0.5454545454545454,GW/huntsville.png,GW/boulder.png,GW/peoria.png,GW/peoria.png,GW/boulder.png,GW/huntsville.png,1,,,,,,,,,
null,,html-keyboard-response,1170851,,<p></p>,,,,null,,,,,,,,,,,,,,,,,,,,
2482,,directmemory_phase,1173334,,GW/hotsprings.png,,,,49,,,1,0.5833333333333334,GW/newhope.png,GW/shreveport.png,GW/carmel.png,GW/newhope.png,GW/carmel.png,GW/shreveport.png,1,,,,,,,,,
null,,html-keyboard-response,1174339,,<p></p>,,,,null,,,,,,,,,,,,,,,,,,,,
2761.899999976158,,directmemory_phase,1177104,,GW/westpalmbeach.png,,,,50,,,0,0.5384615384615384,GW/racine.png,GW/shreveport.png,GW/hanover.png,GW/hanover.png,GW/shreveport.png,GW/racine.png,0.5,closer,,,,,,,,
null,,html-keyboard-response,1178117,,<p></p>,,,,null,,,,,,,,,,,,,,,,,,,,
3190.2999999523163,,directmemory_phase,1181310,,GW/newhope.png,,,,50,,,0,0.5,GW/gatlinburg.png,GW/hanover.png,GW/hotsprings.png,GW/hotsprings.png,GW/hanover.png,GW/gatlinburg.png,0.5,closer,,,,,,,,
null,,html-keyboard-response,1182313,,<p></p>,,,,null,,,,,,,,,,,,,,,,,,,,
1584.6000000238419,,directmemory_phase,1183901,,GW/racine.png,,,,50,,,1,0.5333333333333333,GW/boulder.png,GW/gatlinburg.png,GW/hotsprings.png,GW/gatlinburg.png,GW/boulder.png,GW/hotsprings.png,1,,,,,,,,,
null,,html-keyboard-response,1184907,,<p></p>,,,,null,,,,,,,,,,,,,,,,,,,,
2682.100000023842,,directmemory_phase,1187592,,GW/carmel.png,,,,51,,,0,0.5,GW/newhope.png,GW/hanover.png,GW/cornwall.png,GW/newhope.png,GW/cornwall.png,GW/hanover.png,0.5,closer,,,,,,,,
null,,html-keyboard-response,1188596,,<p></p>,,,,null,,,,,,,,,,,,,,,,,,,,
1976.1000000238419,,directmemory_phase,1190574,,GW/cornwall.png,,,,50,,,1,0.5294117647058824,GW/huntsville.png,GW/westpalmbeach.png,GW/boulder.png,GW/westpalmbeach.png,GW/huntsville.png,GW/boulder.png,1,,,,,,,,,
null,,html-keyboard-response,1191576,,<p></p>,,,,null,,,,,,,,,,,,,,,,,,,,
2403.899999976158,,directmemory_phase,1193981,,GW/gatlinburg.png,,,,49,,,1,0.5555555555555556,GW/peoria.png,GW/huntsville.png,GW/westpalmbeach.png,GW/peoria.png,GW/westpalmbeach.png,GW/huntsville.png,1,,,,,,,,,
null,,html-keyboard-response,1194984,,<p></p>,,,,null,,,,,,,,,,,,,,,,,,,,
4076.7000000476837,,directmemory_phase,1199064,,GW/hotsprings.png,,,,50,,,0,0.5263157894736842,GW/cornwall.png,GW/shreveport.png,GW/boulder.png,GW/cornwall.png,GW/boulder.png,GW/shreveport.png,0.5,closer,,,,,,,,
null,,html-keyboard-response,1200068,,<p></p>,,,,null,,,,,,,,,,,,,,,,,,,,
2173.5,,directmemory_phase,1202246,,GW/peoria.png,,,,51,,,1,0.55,GW/carmel.png,GW/racine.png,GW/westpalmbeach.png,GW/westpalmbeach.png,GW/racine.png,GW/carmel.png,1,,,,,,,,,
null,,html-keyboard-response,1203251,,<p></p>,,,,null,,,,,,,,,,,,,,,,,,,,
2965,,directmemory_phase,1206217,,GW/newhope.png,,,,50,,,0,0.5238095238095238,GW/gatlinburg.png,GW/hanover.png,GW/cornwall.png,GW/cornwall.png,GW/hanover.png,GW/gatlinburg.png,0.5,closer,,,,,,,,
null,,html-keyboard-response,1207220,,<p></p>,,,,null,,,,,,,,,,,,,,,,,,,,
2646.4000000953674,,directmemory_phase,1209870,,GW/gatlinburg.png,,,,51,,,1,0.5454545454545454,GW/hotsprings.png,GW/shreveport.png,GW/boulder.png,GW/boulder.png,GW/shreveport.png,GW/hotsprings.png,1,,,,,,,,,
null,,html-keyboard-response,1210872,,<p></p>,,,,null,,,,,,,,,,,,,,,,,,,,
3366.100000023842,,directmemory_phase,1214239,,GW/cornwall.png,,,,51,,,1,0.5652173913043478,GW/boulder.png,GW/hanover.png,GW/newhope.png,GW/newhope.png,GW/hanover.png,GW/boulder.png,1,,,,,,,,,
null,,html-keyboard-response,1215243,,<p></p>,,,,null,,,,,,,,,,,,,,,,,,,,
2874.899999976158,,directmemory_phase,1218121,,GW/huntsville.png,,,,51,,,1,0.5833333333333334,GW/gatlinburg.png,GW/carmel.png,GW/leesburg.png,GW/leesburg.png,GW/carmel.png,GW/gatlinburg.png,1,,,,,,,,,
null,,html-keyboard-response,1219126,,<p></p>,,,,null,,,,,,,,,,,,,,,,,,,,
2816,,directmemory_phase,1221945,,GW/westpalmbeach.png,,,,51,,,1,0.6,GW/leesburg.png,GW/gatlinburg.png,GW/cornwall.png,GW/cornwall.png,GW/gatlinburg.png,GW/leesburg.png,1,,,,,,,,,
null,,html-keyboard-response,1222948,,<p></p>,,,,null,,,,,,,,,,,,,,,,,,,,
2386.100000023842,,directmemory_phase,1225337,,GW/hanover.png,,,,49,,,1,0.6153846153846154,GW/boulder.png,GW/carmel.png,GW/gatlinburg.png,GW/boulder.png,GW/gatlinburg.png,GW/carmel.png,1,,,,,,,,,
null,,html-keyboard-response,1226339,,<p></p>,,,,null,,,,,,,,,,,,,,,,,,,,
3751.7000000476837,,directmemory_phase,1230092,,GW/shreveport.png,,,,50,,,0,0.5925925925925926,GW/peoria.png,GW/hotsprings.png,GW/westpalmbeach.png,GW/peoria.png,GW/westpalmbeach.png,GW/hotsprings.png,0.5,closer,,,,,,,,
null,,html-keyboard-response,1231095,,<p></p>,,,,null,,,,,,,,,,,,,,,,,,,,
1644,,directmemory_phase,1232739,,GW/boulder.png,,,,51,,,1,0.6071428571428571,GW/huntsville.png,GW/peoria.png,GW/gatlinburg.png,GW/gatlinburg.png,GW/peoria.png,GW/huntsville.png,1,,,,,,,,,
null,,html-keyboard-response,1233749,,<p></p>,,,,null,,,,,,,,,,,,,,,,,,,,
2780.399999976158,,directmemory_phase,1236532,,GW/hanover.png,,,,49,,,1,0.6206896551724138,GW/westpalmbeach.png,GW/carmel.png,GW/cornwall.png,GW/westpalmbeach.png,GW/cornwall.png,GW/carmel.png,1,,,,,,,,,
null,,html-keyboard-response,1237539,,<p></p>,,,,null,,,,,,,,,,,,,,,,,,,,
2498.100000023842,,directmemory_phase,1240039,,GW/hotsprings.png,,,,51,,,1,0.6333333333333333,GW/peoria.png,GW/boulder.png,GW/huntsville.png,GW/huntsville.png,GW/boulder.png,GW/peoria.png,1,,,,,,,,,
null,,html-keyboard-response,1241043,,<p></p>,,,,null,,,,,,,,,,,,,,,,,,,,
2888.8000000715256,,directmemory_phase,1243933,,GW/boulder.png,,,,49,,,1,0.6451612903225806,GW/hanover.png,GW/huntsville.png,GW/hotsprings.png,GW/hanover.png,GW/hotsprings.png,GW/huntsville.png,1,,,,,,,,,
null,,html-keyboard-response,1244936,,<p></p>,,,,null,,,,,,,,,,,,,,,,,,,,
3798.399999976158,,directmemory_phase,1248736,,GW/huntsville.png,,,,50,,,0,0.625,GW/newhope.png,GW/peoria.png,GW/hanover.png,GW/newhope.png,GW/hanover.png,GW/peoria.png,0.5,closer,,,,,,,,
null,,html-keyboard-response,1249748,,<p></p>,,,,null,,,,,,,,,,,,,,,,,,,,
28417,,intro_1,1278168,,instruct,,0,,,,,,,,,,,,,,,,,,,,,,
37906.700000047684,,intro_2,1316077,,instruct,,1,Next,,,,,,,,,,,,,,,,,,,,,
9155.5,,intro_3,1325234,,instruct,,1,Next,,,,,,,,,,,,,,,,,,,,,
7952.900000095367,,intro_4,1333189,,instruct,,1,Next,,,,,,,,,,,,,,,,,,,,,
10812,,intro_5,1344004,,instruct,,1,Next,,,,,,,,,,,,,,,,,,,,,
20765.599999904633,,intro_6,1364772,,instruct,,1,Next,,,,,,,,,,,,,,,,,,,,,
10740.200000047684,,intro_7,1375514,,instruct,,1,Next,,,,,,,,,,,,,,,,,,,,,
14009.700000047684,,intro_8,1389525,,instruct,,1,Next,,,,,,,,,,,,,,,,,,,,,
2026.2999999523163,,shortestpath_phase,1391554,,GW/carmel.png,,,,49,GW/gatlinburg.png,GW/huntsville.png,0,0,,,,GW/huntsville.png,,,,,Three Edge Diff,Two Edge Five Edge,,,,,,
null,,html-keyboard-response,1392556,,<p></p>,,,,null,,,,,,,,,,,,,,,,,,,,
2212.0999999046326,,shortestpath_phase,1394770,,GW/shreveport.png,,,,49,GW/hanover.png,GW/carmel.png,1,0.5,,,,GW/hanover.png,,,,,Two Edge Diff,Three Edge Five Edge,,,,,,
null,,html-keyboard-response,1395780,,<p></p>,,,,null,,,,,,,,,,,,,,,,,,,,
3352.899999976158,,shortestpath_phase,1399134,,GW/cornwall.png,,,,50,GW/leesburg.png,GW/huntsville.png,1,0.6666666666666666,,,,GW/huntsville.png,,,,,One Edge Diff,Two Edge Three Edge,,,,,,
null,,html-keyboard-response,1400138,,<p></p>,,,,null,,,,,,,,,,,,,,,,,,,,
3218.100000023842,,shortestpath_phase,1403359,,GW/newhope.png,,,,49,GW/peoria.png,GW/racine.png,1,0.75,,,,GW/peoria.png,,,,,Two Edge Diff,Three Edge Five Edge,,,,,,
null,,html-keyboard-response,1404363,,<p></p>,,,,null,,,,,,,,,,,,,,,,,,,,
4329.199999928474,,shortestpath_phase,1408696,,GW/huntsville.png,,,,49,GW/carmel.png,GW/racine.png,1,0.8,,,,GW/carmel.png,,,,,Three Edge Diff,Three Edge Six Edge,,,,,,
null,,html-keyboard-response,1409701,,<p></p>,,,,null,,,,,,,,,,,,,,,,,,,,
3965,,shortestpath_phase,1413668,,GW/leesburg.png,,,,49,GW/shreveport.png,GW/peoria.png,0,0.6666666666666666,,,,GW/peoria.png,,,,,One Edge Diff,Five Edge Six Edge,,,,,,
null,,html-keyboard-response,1414678,,<p></p>,,,,null,,,,,,,,,,,,,,,,,,,,
3075.1999999284744,,shortestpath_phase,1417757,,GW/newhope.png,,,,50,GW/racine.png,GW/hanover.png,1,0.7142857142857143,,,,GW/hanover.png,,,,,Three Edge Diff,Three Edge Six Edge,,,,,,
null,,html-keyboard-response,1418762,,<p></p>,,,,null,,,,,,,,,,,,,,,,,,,,
2817.2999999523163,,shortestpath_phase,1421581,,GW/boulder.png,,,,49,GW/huntsville.png,GW/hotsprings.png,0,0.625,,,,GW/hotsprings.png,,,,,One Edge Diff,Two Edge Three Edge,,,,,,
null,,html-keyboard-response,1422584,,<p></p>,,,,null,,,,,,,,,,,,,,,,,,,,
2472,,shortestpath_phase,1425059,,GW/huntsville.png,,,,50,GW/hanover.png,GW/shreveport.png,0,0.5555555555555556,,,,GW/hanover.png,,,,,Three Edge Diff,Three Edge Six Edge,,,,,,
null,,html-keyboard-response,1426069,,<p></p>,,,,null,,,,,,,,,,,,,,,,,,,,
2786.1999999284744,,shortestpath_phase,1428856,,GW/leesburg.png,,,,50,GW/racine.png,GW/westpalmbeach.png,1,0.6,,,,GW/westpalmbeach.png,,,,,Two Edge Diff,Four Edge Six Edge,,,,,,
null,,html-keyboard-response,1429862,,<p></p>,,,,null,,,,,,,,,,,,,,,,,,,,
3947.600000023842,,shortestpath_phase,1433814,,GW/gatlinburg.png,,,,50,GW/carmel.png,GW/hotsprings.png,1,0.6363636363636364,,,,GW/hotsprings.png,,,,,Two Edge Diff,Three Edge Five Edge,,,,,,
null,,html-keyboard-response,1434822,,<p></p>,,,,null,,,,,,,,,,,,,,,,,,,,
2542.7999999523163,,shortestpath_phase,1437367,,GW/shreveport.png,,,,49,GW/carmel.png,GW/boulder.png,0,0.5833333333333334,,,,GW/boulder.png,,,,,Two Edge Diff,Three Edge Five Edge,,,,,,
null,,html-keyboard-response,1438374,,<p></p>,,,,null,,,,,,,,,,,,,,,,,,,,
1737.7000000476837,,shortestpath_phase,1440115,,GW/leesburg.png,,,,50,GW/racine.png,GW/hotsprings.png,1,0.6153846153846154,,,,GW/hotsprings.png,,,,,Four Edge Diff,Two Edge Six Edge,,,,,,
null,,html-keyboard-response,1441125,,<p></p>,,,,null,,,,,,,,,,,,,,,,,,,,
3143.4000000953674,,shortestpath_phase,1444271,,GW/cornwall.png,,,,50,GW/gatlinburg.png,GW/peoria.png,1,0.6428571428571429,,,,GW/peoria.png,,,,,One Edge Diff,Two Edge Three Edge,,,,,,
null,,html-keyboard-response,1445276,,<p></p>,,,,null,,,,,,,,,,,,,,,,,,,,
4691.5,,shortestpath_phase,1449971,,GW/leesburg.png,,,,50,GW/westpalmbeach.png,GW/hotsprings.png,1,0.6666666666666666,,,,GW/hotsprings.png,,,,,Two Edge Diff,Two Edge Four Edge,,,,,,
null,,html-keyboard-response,1450981,,<p></p>,,,,null,,,,,,,,,,,,,,,,,,,,
3080.2999999523163,,shortestpath_phase,1454064,,GW/gatlinburg.png,,,,50,GW/huntsville.png,GW/shreveport.png,1,0.6875,,,,GW/shreveport.png,,,,,Two Edge Diff,Two Edge Four Edge,,,,,,
null,,html-keyboard-response,1455069,,<p></p>,,,,null,,,,,,,,,,,,,,,,,,,,
2308.399999976158,,shortestpath_phase,1457380,,GW/leesburg.png,,,,49,GW/newhope.png,GW/shreveport.png,1,0.7058823529411765,,,,GW/newhope.png,,,,,Four Edge Diff,Two Edge Six Edge,,,,,,
null,,html-keyboard-response,1458389,,<p></p>,,,,null,,,,,,,,,,,,,,,,,,,,
2915.7999999523163,,shortestpath_phase,1461307,,GW/carmel.png,,,,49,GW/gatlinburg.png,GW/huntsville.png,0,0.6666666666666666,,,,GW/huntsville.png,,,,,Three Edge Diff,Three Edge Six Edge,,,,,,
null,,html-keyboard-response,1462309,,<p></p>,,,,null,,,,,,,,,,,,,,,,,,,,
3270.600000023842,,shortestpath_phase,1465581,,GW/shreveport.png,,,,49,GW/carmel.png,GW/newhope.png,0,0.631578947368421,,,,GW/newhope.png,,,,,One Edge Diff,Four Edge Five Edge,,,,,,
null,,html-keyboard-response,1466582,,<p></p>,,,,null,,,,,,,,,,,,,,,,,,,,
1735.6000000238419,,shortestpath_phase,1468319,,GW/racine.png,,,,50,GW/newhope.png,GW/peoria.png,1,0.65,,,,GW/peoria.png,,,,,Three Edge Diff,Two Edge Five Edge,,,,,,
null,,html-keyboard-response,1469324,,<p></p>,,,,null,,,,,,,,,,,,,,,,,,,,
3182.600000023842,,shortestpath_phase,1472509,,GW/newhope.png,,,,49,GW/hanover.png,GW/racine.png,1,0.6666666666666666,,,,GW/hanover.png,,,,,Three Edge Diff,Two Edge Five Edge,,,,,,
null,,html-keyboard-response,1473514,,<p></p>,,,,null,,,,,,,,,,,,,,,,,,,,
2768,,shortestpath_phase,1476284,,GW/huntsville.png,,,,49,GW/peoria.png,GW/racine.png,1,0.6818181818181818,,,,GW/peoria.png,,,,,One Edge Diff,Four Edge Five Edge,,,,,,
null,,html-keyboard-response,1477286,,<p></p>,,,,null,,,,,,,,,,,,,,,,,,,,
2536.600000023842,,shortestpath_phase,1479827,,GW/westpalmbeach.png,,,,50,GW/racine.png,GW/shreveport.png,1,0.6956521739130435,,,,GW/shreveport.png,,,,,One Edge Diff,Two Edge Three Edge,,,,,,
null,,html-keyboard-response,1480837,,<p></p>,,,,null,,,,,,,,,,,,,,,,,,,,
2239.8000000715256,,shortestpath_phase,1483078,,GW/newhope.png,,,,50,GW/shreveport.png,GW/peoria.png,1,0.7083333333333334,,,,GW/peoria.png,,,,,One Edge Diff,Three Edge Four Edge,,,,,,
null,,html-keyboard-response,1484086,,<p></p>,,,,null,,,,,,,,,,,,,,,,,,,,
2874.600000023842,,shortestpath_phase,1486963,,GW/huntsville.png,,,,49,GW/racine.png,GW/cornwall.png,0,0.68,,,,GW/cornwall.png,,,,,Three Edge Diff,Three Edge Six Edge,,,,,,
null,,html-keyboard-response,1487975,,<p></p>,,,,null,,,,,,,,,,,,,,,,,,,,
3028.899999976158,,shortestpath_phase,1491005,,GW/racine.png,,,,50,GW/huntsville.png,GW/peoria.png,1,0.6923076923076923,,,,GW/peoria.png,,,,,Three Edge Diff,Three Edge Six Edge,,,,,,
null,,html-keyboard-response,1492007,,<p></p>,,,,null,,,,,,,,,,,,,,,,,,,,
2977.600000023842,,shortestpath_phase,1494986,,GW/huntsville.png,,,,49,GW/gatlinburg.png,GW/hanover.png,0,0.6666666666666666,,,,GW/hanover.png,,,,,Two Edge Diff,Two Edge Four Edge,,,,,,
null,,html-keyboard-response,1495989,,<p></p>,,,,null,,,,,,,,,,,,,,,,,,,,
2591.2999999523163,,shortestpath_phase,1498581,,GW/carmel.png,,,,49,GW/shreveport.png,GW/racine.png,1,0.6785714285714286,,,,GW/shreveport.png,,,,,One Edge Diff,Five Edge Six Edge,,,,,,
null,,html-keyboard-response,1499589,,<p></p>,,,,null,,,,,,,,,,,,,,,,,,,,
2601.7999999523163,,shortestpath_phase,1502192,,GW/leesburg.png,,,,49,GW/hotsprings.png,GW/gatlinburg.png,1,0.6896551724137931,,,,GW/hotsprings.png,,,,,Three Edge Diff,Two Edge Five Edge,,,,,,
null,,html-keyboard-response,1503196,,<p></p>,,,,null,,,,,,,,,,,,,,,,,,,,
2183,,shortestpath_phase,1505381,,GW/peoria.png,,,,50,GW/leesburg.png,GW/hanover.png,1,0.7,,,,GW/hanover.png,,,,,Three Edge Diff,Two Edge Five Edge,,,,,,
null,,html-keyboard-response,1506389,,<p></p>,,,,null,,,,,,,,,,,,,,,,,,,,
2561.9000000953674,,shortestpath_phase,1508952,,GW/shreveport.png,,,,50,GW/newhope.png,GW/gatlinburg.png,1,0.7096774193548387,,,,GW/gatlinburg.png,,,,,Two Edge Diff,Two Edge Four Edge,,,,,,
null,,html-keyboard-response,1509959,,<p></p>,,,,null,,,,,,,,,,,,,,,,,,,,
2491.5,,shortestpath_phase,1512454,,GW/racine.png,,,,49,GW/leesburg.png,GW/peoria.png,0,0.6875,,,,GW/peoria.png,,,,,Four Edge Diff,Two Edge Six Edge,,,,,,
null,,html-keyboard-response,1513462,,<p></p>,,,,null,,,,,,,,,,,,,,,,,,,,
2310.600000023842,,shortestpath_phase,1515774,,GW/carmel.png,,,,50,GW/racine.png,GW/huntsville.png,1,0.696969696969697,,,,GW/huntsville.png,,,,,Four Edge Diff,Two Edge Six Edge,,,,,,
null,,html-keyboard-response,1516776,,<p></p>,,,,null,,,,,,,,,,,,,,,,,,,,
2983,,shortestpath_phase,1519760,,GW/racine.png,,,,49,GW/boulder.png,GW/huntsville.png,1,0.7058823529411765,,,,GW/boulder.png,,,,,Three Edge Diff,Three Edge Six Edge,,,,,,
null,,html-keyboard-response,1520763,,<p></p>,,,,null,,,,,,,,,,,,,,,,,,,,
3852.7999999523163,,shortestpath_phase,1524616,,GW/carmel.png,,,,49,GW/cornwall.png,GW/shreveport.png,1,0.7142857142857143,,,,GW/cornwall.png,,,,,Three Edge Diff,Three Edge Six Edge,,,,,,
null,,html-keyboard-response,1525621,,<p></p>,,,,null,,,,,,,,,,,,,,,,,,,,
4575.599999904633,,shortestpath_phase,1530197,,GW/shreveport.png,,,,49,GW/carmel.png,GW/westpalmbeach.png,0,0.6944444444444444,,,,GW/westpalmbeach.png,,,,,Three Edge Diff,Three Edge Six Edge,,,,,,
null,,html-keyboard-response,1531205,,<p></p>,,,,null,,,,,,,,,,,,,,,,,,,,
4083.8000000715256,,shortestpath_phase,1535290,,GW/huntsville.png,,,,50,GW/carmel.png,GW/racine.png,0,0.6756756756756757,,,,GW/carmel.png,,,,,Three Edge Diff,Two Edge Five Edge,,,,,,
null,,html-keyboard-response,1536293,,<p></p>,,,,null,,,,,,,,,,,,,,,,,,,,
3640.600000023842,,shortestpath_phase,1539936,,GW/racine.png,,,,49,GW/hotsprings.png,GW/leesburg.png,1,0.6842105263157895,,,,GW/hotsprings.png,,,,,Two Edge Diff,Four Edge Six Edge,,,,,,
null,,html-keyboard-response,1540938,,<p></p>,,,,null,,,,,,,,,,,,,,,,,,,,
3934.899999976158,,shortestpath_phase,1544874,,GW/carmel.png,,,,49,GW/huntsville.png,GW/shreveport.png,1,0.6923076923076923,,,,GW/huntsville.png,,,,,Three Edge Diff,Two Edge Five Edge,,,,,,
null,,html-keyboard-response,1545878,,<p></p>,,,,null,,,,,,,,,,,,,,,,,,,,
3143.2000000476837,,shortestpath_phase,1549023,,GW/leesburg.png,,,,50,GW/gatlinburg.png,GW/boulder.png,1,0.7,,,,GW/boulder.png,,,,,One Edge Diff,Four Edge Five Edge,,,,,,
null,,html-keyboard-response,1550028,,<p></p>,,,,null,,,,,,,,,,,,,,,,,,,,
3086.7000000476837,,shortestpath_phase,1553117,,GW/shreveport.png,,,,50,GW/carmel.png,GW/westpalmbeach.png,1,0.7073170731707317,,,,GW/westpalmbeach.png,,,,,Three Edge Diff,Two Edge Five Edge,,,,,,
null,,html-keyboard-response,1554120,,<p></p>,,,,null,,,,,,,,,,,,,,,,,,,,
3046.7000000476837,,shortestpath_phase,1557170,,GW/racine.png,,,,49,GW/boulder.png,GW/carmel.png,1,0.7142857142857143,,,,GW/boulder.png,,,,,Four Edge Diff,Two Edge Six Edge,,,,,,
null,,html-keyboard-response,1558172,,<p></p>,,,,null,,,,,,,,,,,,,,,,,,,,
2629.4000000953674,,shortestpath_phase,1560802,,GW/leesburg.png,,,,50,GW/peoria.png,GW/newhope.png,1,0.7209302325581395,,,,GW/newhope.png,,,,,Three Edge Diff,Two Edge Five Edge,,,,,,
null,,html-keyboard-response,1561804,,<p></p>,,,,null,,,,,,,,,,,,,,,,,,,,
2265.2000000476837,,shortestpath_phase,1564071,,GW/shreveport.png,,,,49,GW/leesburg.png,GW/westpalmbeach.png,0,0.7045454545454546,,,,GW/westpalmbeach.png,,,,,Four Edge Diff,Two Edge Six Edge,,,,,,
null,,html-keyboard-response,1565079,,<p></p>,,,,null,,,,,,,,,,,,,,,,,,,,
2990.899999976158,,shortestpath_phase,1568074,,GW/racine.png,,,,50,GW/peoria.png,GW/carmel.png,0,0.6888888888888889,,,,GW/peoria.png,,,,,Four Edge Diff,Two Edge Six Edge,,,,,,
null,,html-keyboard-response,1569079,,<p></p>,,,,null,,,,,,,,,,,,,,,,,,,,
2361.6999999284744,,shortestpath_phase,1571443,,GW/shreveport.png,,,,50,GW/newhope.png,GW/leesburg.png,0,0.6739130434782609,,,,GW/newhope.png,,,,,Two Edge Diff,Four Edge Six Edge,,,,,,
null,,html-keyboard-response,1572447,,<p></p>,,,,null,,,,,,,,,,,,,,,,,,,,
2352.3000000715256,,shortestpath_phase,1574802,,GW/carmel.png,,,,50,GW/cornwall.png,GW/shreveport.png,0,0.6595744680851063,,,,GW/cornwall.png,,,,,Three Edge Diff,Two Edge Five Edge,,,,,,
null,,html-keyboard-response,1575805,,<p></p>,,,,null,,,,,,,,,,,,,,,,,,,,
3096.100000023842,,shortestpath_phase,1578903,,GW/huntsville.png,,,,49,GW/hanover.png,GW/racine.png,1,0.6666666666666666,,,,GW/hanover.png,,,,,Three Edge Diff,Three Edge Six Edge,,,,,,
null,,html-keyboard-response,1579912,,<p></p>,,,,null,,,,,,,,,,,,,,,,,,,,
2592.7000000476837,,shortestpath_phase,1582507,,GW/racine.png,,,,50,GW/cornwall.png,GW/peoria.png,1,0.673469387755102,,,,GW/peoria.png,,,,,Two Edge Diff,Two Edge Four Edge,,,,,,
null,,html-keyboard-response,1583512,,<p></p>,,,,null,,,,,,,,,,,,,,,,,,,,
2923.5999999046326,,shortestpath_phase,1586438,,GW/shreveport.png,,,,49,GW/hotsprings.png,GW/carmel.png,1,0.68,,,,GW/hotsprings.png,,,,,One Edge Diff,Four Edge Five Edge,,,,,,
null,,html-keyboard-response,1587448,,<p></p>,,,,null,,,,,,,,,,,,,,,,,,,,
2383,,shortestpath_phase,1589834,,GW/carmel.png,,,,49,GW/shreveport.png,GW/huntsville.png,0,0.6666666666666666,,,,GW/huntsville.png,,,,,Three Edge Diff,Three Edge Six Edge,,,,,,
null,,html-keyboard-response,1590837,,<p></p>,,,,null,,,,,,,,,,,,,,,,,,,,
890.2000000476837,,shortestpath_phase,1591728,,GW/shreveport.png,,,,50,GW/gatlinburg.png,GW/leesburg.png,0,0.6538461538461539,,,,GW/gatlinburg.png,,,,,Four Edge Diff,Two Edge Six Edge,,,,,,
null,,html-keyboard-response,1592729,,<p></p>,,,,null,,,,,,,,,,,,,,,,,,,,
3053.100000023842,,shortestpath_phase,1595783,,GW/carmel.png,,,,50,GW/hotsprings.png,GW/racine.png,0,0.6415094339622641,,,,GW/hotsprings.png,,,,,Four Edge Diff,Two Edge Six Edge,,,,,,
null,,html-keyboard-response,1596790,,<p></p>,,,,null,,,,,,,,,,,,,,,,,,,,
3380.7999999523163,,shortestpath_phase,1600172,,GW/gatlinburg.png,,,,50,GW/westpalmbeach.png,GW/carmel.png,0,0.6296296296296297,,,,GW/westpalmbeach.png,,,,,Three Edge Diff,Two Edge Five Edge,,,,,,
null,,html-keyboard-response,1601175,,<p></p>,,,,null,,,,,,,,,,,,,,,,,,,,
2919.100000023842,,shortestpath_phase,1604095,,GW/leesburg.png,,,,50,GW/boulder.png,GW/shreveport.png,0,0.6181818181818182,,,,GW/boulder.png,,,,,Two Edge Diff,Four Edge Six Edge,,,,,,
null,,html-keyboard-response,1605100,,<p></p>,,,,null,,,,,,,,,,,,,,,,,,,,
2131.6999999284744,,shortestpath_phase,1607235,,GW/hanover.png,,,,49,GW/huntsville.png,GW/carmel.png,1,0.625,,,,GW/huntsville.png,,,,,One Edge Diff,Two Edge Three Edge,,,,,,
null,,html-keyboard-response,1608247,,<p></p>,,,,null,,,,,,,,,,,,,,,,,,,,
2952.8000000715256,,shortestpath_phase,1611202,,GW/carmel.png,,,,49,GW/cornwall.png,GW/gatlinburg.png,1,0.631578947368421,,,,GW/cornwall.png,,,,,Three Edge Diff,Three Edge Six Edge,,,,,,
null,,html-keyboard-response,1612205,,<p></p>,,,,null,,,,,,,,,,,,,,,,,,,,
2852.2000000476837,,shortestpath_phase,1615060,,GW/leesburg.png,,,,49,GW/westpalmbeach.png,GW/gatlinburg.png,1,0.6379310344827587,,,,GW/westpalmbeach.png,,,,,One Edge Diff,Four Edge Five Edge,,,,,,
null,,html-keyboard-response,1616070,,<p></p>,,,,null,,,,,,,,,,,,,,,,,,,,
2394.5,,shortestpath_phase,1618467,,GW/carmel.png,,,,50,GW/racine.png,GW/gatlinburg.png,1,0.6440677966101694,,,,GW/gatlinburg.png,,,,,One Edge Diff,Five Edge Six Edge,,,,,,
null,,html-keyboard-response,1619480,,<p></p>,,,,null,,,,,,,,,,,,,,,,,,,,
4717,,shortestpath_phase,1624200,,GW/leesburg.png,,,,50,GW/peoria.png,GW/hotsprings.png,1,0.65,,,,GW/hotsprings.png,,,,,Three Edge Diff,Two Edge Five Edge,,,,,,
null,,html-keyboard-response,1625208,,<p></p>,,,,null,,,,,,,,,,,,,,,,,,,,
2980.2999999523163,,shortestpath_phase,1628192,,GW/carmel.png,,,,49,GW/peoria.png,GW/racine.png,1,0.6557377049180327,,,,GW/peoria.png,,,,,Two Edge Diff,Four Edge Six Edge,,,,,,
null,,html-keyboard-response,1629197,,<p></p>,,,,null,,,,,,,,,,,,,,,,,,,,
1921.2999999523163,,shortestpath_phase,1631121,,GW/huntsville.png,,,,49,GW/hanover.png,GW/westpalmbeach.png,1,0.6612903225806451,,,,GW/hanover.png,,,,,One Edge Diff,Two Edge Three Edge,,,,,,
null,,html-keyboard-response,1632123,,<p></p>,,,,null,,,,,,,,,,,,,,,,,,,,
4375.700000047684,,shortestpath_phase,1636500,,GW/shreveport.png,,,,50,GW/leesburg.png,GW/hotsprings.png,1,0.6666666666666666,,,,GW/hotsprings.png,,,,,Two Edge Diff,Four Edge Six Edge,,,,,,
null,,html-keyboard-response,1637504,,<p></p>,,,,null,,,,,,,,,,,,,,,,,,,,
2788.5,,shortestpath_phase,1640296,,GW/carmel.png,,,,50,GW/boulder.png,GW/shreveport.png,0,0.65625,,,,GW/boulder.png,,,,,One Edge Diff,Four Edge Five Edge,,,,,,
null,,html-keyboard-response,1641302,,<p></p>,,,,null,,,,,,,,,,,,,,,,,,,,
2560,,shortestpath_phase,1643864,,GW/leesburg.png,,,,49,GW/hotsprings.png,GW/shreveport.png,1,0.6615384615384615,,,,GW/hotsprings.png,,,,,Four Edge Diff,Two Edge Six Edge,,,,,,
null,,html-keyboard-response,1644872,,<p></p>,,,,null,,,,,,,,,,,,,,,,,,,,
2143.100000023842,,shortestpath_phase,1647018,,GW/carmel.png,,,,49,GW/racine.png,GW/cornwall.png,0,0.6515151515151515,,,,GW/cornwall.png,,,,,Four Edge Diff,Two Edge Six Edge,,,,,,
null,,html-keyboard-response,1648024,,<p></p>,,,,null,,,,,,,,,,,,,,,,,,,,
3255,,shortestpath_phase,1651282,,GW/peoria.png,,,,49,GW/newhope.png,GW/huntsville.png,1,0.6567164179104478,,,,GW/newhope.png,,,,,One Edge Diff,Three Edge Four Edge,,,,,,
null,,html-keyboard-response,1652286,,<p></p>,,,,null,,,,,,,,,,,,,,,,,,,,
2105.0999999046326,,shortestpath_phase,1654394,,GW/carmel.png,,,,50,GW/boulder.png,GW/leesburg.png,1,0.6617647058823529,,,,GW/leesburg.png,,,,,One Edge Diff,Three Edge Four Edge,,,,,,
null,,html-keyboard-response,1655398,,<p></p>,,,,null,,,,,,,,,,,,,,,,,,,,
5451.600000023842,,shortestpath_phase,1660850,,GW/racine.png,,,,50,GW/boulder.png,GW/leesburg.png,0,0.6521739130434783,,,,GW/boulder.png,,,,,Four Edge Diff,Two Edge Six Edge,,,,,,
null,,html-keyboard-response,1661852,,<p></p>,,,,null,,,,,,,,,,,,,,,,,,,,
1988.8999999761581,,shortestpath_phase,1663842,,GW/shreveport.png,,,,50,GW/leesburg.png,GW/carmel.png,1,0.6571428571428571,,,,GW/carmel.png,,,,,One Edge Diff,Five Edge Six Edge,,,,,,
null,,html-keyboard-response,1664845,,<p></p>,,,,null,,,,,,,,,,,,,,,,,,,,
3002.8000000715256,,shortestpath_phase,1667851,,GW/boulder.png,,,,50,GW/newhope.png,GW/leesburg.png,0,0.647887323943662,,,,GW/newhope.png,,,,,One Edge Diff,Three Edge Four Edge,,,,,,
null,,html-keyboard-response,1668855,,<p></p>,,,,null,,,,,,,,,,,,,,,,,,,,
3372.399999976158,,shortestpath_phase,1672231,,GW/gatlinburg.png,,,,50,GW/cornwall.png,GW/newhope.png,0,0.6388888888888888,,,,GW/cornwall.png,,,,,One Edge Diff,Three Edge Four Edge,,,,,,
null,,html-keyboard-response,1673238,,<p></p>,,,,null,,,,,,,,,,,,,,,,,,,,
3076.5999999046326,,shortestpath_phase,1676316,,GW/leesburg.png,,,,50,GW/westpalmbeach.png,GW/newhope.png,1,0.6438356164383562,,,,GW/newhope.png,,,,,Two Edge Diff,Two Edge Four Edge,,,,,,
null,,html-keyboard-response,1677319,,<p></p>,,,,null,,,,,,,,,,,,,,,,,,,,
3276.100000023842,,shortestpath_phase,1680597,,GW/racine.png,,,,49,GW/cornwall.png,GW/carmel.png,1,0.6486486486486487,,,,GW/cornwall.png,,,,,Two Edge Diff,Four Edge Six Edge,,,,,,
null,,html-keyboard-response,1681606,,<p></p>,,,,null,,,,,,,,,,,,,,,,,,,,
2407.5,,shortestpath_phase,1684015,,GW/leesburg.png,,,,50,GW/gatlinburg.png,GW/racine.png,0,0.64,,,,GW/gatlinburg.png,,,,,One Edge Diff,Five Edge Six Edge,,,,,,
null,,html-keyboard-response,1685020,,<p></p>,,,,null,,,,,,,,,,,,,,,,,,,,
3009,,shortestpath_phase,1688032,,GW/peoria.png,,,,49,GW/leesburg.png,GW/hotsprings.png,0,0.631578947368421,,,,GW/hotsprings.png,,,,,Two Edge Diff,Three Edge Five Edge,,,,,,
null,,html-keyboard-response,1689037,,<p></p>,,,,null,,,,,,,,,,,,,,,,,,,,
2459.399999976158,,shortestpath_phase,1691498,,GW/carmel.png,,,,49,GW/westpalmbeach.png,GW/gatlinburg.png,1,0.6363636363636364,,,,GW/westpalmbeach.png,,,,,Two Edge Diff,Three Edge Five Edge,,,,,,
null,,html-keyboard-response,1692505,,<p></p>,,,,null,,,,,,,,,,,,,,,,,,,,
2608.5,,shortestpath_phase,1695117,,GW/racine.png,,,,49,GW/carmel.png,GW/hotsprings.png,0,0.6282051282051282,,,,GW/hotsprings.png,,,,,Two Edge Diff,Four Edge Six Edge,,,,,,
null,,html-keyboard-response,1696120,,<p></p>,,,,null,,,,,,,,,,,,,,,,,,,,
1883,,shortestpath_phase,1698004,,GW/shreveport.png,,,,50,GW/huntsville.png,GW/leesburg.png,0,0.620253164556962,,,,GW/huntsville.png,,,,,One Edge Diff,Five Edge Six Edge,,,,,,
null,,html-keyboard-response,1699017,,<p></p>,,,,null,,,,,,,,,,,,,,,,,,,,
2313.600000023842,,shortestpath_phase,1701333,,GW/carmel.png,,,,49,GW/peoria.png,GW/hotsprings.png,0,0.6125,,,,GW/hotsprings.png,,,,,Two Edge Diff,Two Edge Four Edge,,,,,,
null,,html-keyboard-response,1702343,,<p></p>,,,,null,,,,,,,,,,,,,,,,,,,,
2319.3000000715256,,shortestpath_phase,1704664,,GW/racine.png,,,,49,GW/huntsville.png,GW/shreveport.png,0,0.6049382716049383,,,,GW/shreveport.png,,,,,Two Edge Diff,Three Edge Five Edge,,,,,,
null,,html-keyboard-response,1705670,,<p></p>,,,,null,,,,,,,,,,,,,,,,,,,,
2890.2999999523163,,shortestpath_phase,1708562,,GW/boulder.png,,,,50,GW/leesburg.png,GW/westpalmbeach.png,1,0.6097560975609756,,,,GW/westpalmbeach.png,,,,,Two Edge Diff,Two Edge Four Edge,,,,,,
null,,html-keyboard-response,1709565,,<p></p>,,,,null,,,,,,,,,,,,,,,,,,,,
2827.5,,shortestpath_phase,1712396,,GW/gatlinburg.png,,,,49,GW/carmel.png,GW/cornwall.png,0,0.6024096385542169,,,,GW/cornwall.png,,,,,Two Edge Diff,Three Edge Five Edge,,,,,,
null,,html-keyboard-response,1713400,,<p></p>,,,,null,,,,,,,,,,,,,,,,,,,,
2955.9000000953674,,shortestpath_phase,1716358,,GW/carmel.png,,,,50,GW/westpalmbeach.png,GW/peoria.png,0,0.5952380952380952,,,,GW/westpalmbeach.png,,,,,One Edge Diff,Three Edge Four Edge,,,,,,
null,,html-keyboard-response,1717368,,<p></p>,,,,null,,,,,,,,,,,,,,,,,,,,
33225.800000071526,,intro_1,1750596,,instruct,,0,,,,,,,,,,,,,,,,,,,,,,
