rt,responses,trial_type,time_elapsed,sequence,stimulus,graphorder,button_pressed,response,key_press,stimulus_left,stimulus_right,accuracy,cumulative_accuracy,stimulus_down_left,stimulus_down_mid,stimulus_down_right,stimulus_correct,stimulus_short,stimulus_far,weighted_accuracy,missedtrial,condition,specific_pairs,imgL_ID,imgR_ID,linedress,linedressed,linedressed_detor,detour_trial
6634.199999809265,{worker_id:6595938bf754e3013651e556},id_enter,6637,blocked,replication,GW/boulder.png; GW/huntsville.png; GW/carmel.png; GW/peoria.png; GW/shreveport.png; GW/gatlinburg.png; GW/hanover.png; GW/hotsprings.png; GW/westpalmbeach.png; GW/leesburg.png; GW/newhope.png; GW/cornwall.png; GW/racine.png,,,,,,,,,,,,,,,,,,,,,,,
3478.9000000953674,,fullscreen,10122,,fullscreen,,0,,,,,,,,,,,,,,,,,,,,,,
78806.69999980927,,intro_1,88932,,instruct,,0,,,,,,,,,,,,,,,,,,,,,,
43035.60000014305,,intro_2,131969,,instruct,,1,Next,,,,,,,,,,,,,,,,,,,,,
10809.799999952316,,intro_3,142781,,instruct,,1,Next,,,,,,,,,,,,,,,,,,,,,
null,,learn_prac_1,145784,,lean_prac_1,,,,null,,,,,,,,,,,,,,,,,,,,
null,,html-keyboard-response,146801,,<p></p>,,,,null,,,,,,,,,,,,,,,,,,,,
2353.2000000476837,,intro_1,149155,,instruct,,0,,,,,,,,,,,,,,,,,,,,,,
2206.7000000476837,,intro_2,151363,,instruct,,1,Next,,,,,,,,,,,,,,,,,,,,,
null,,learn_prac_2,154366,,lean_prac_2,,,,null,,,,,,,,,,,,,,,,,,,,
null,,html-keyboard-response,155367,,<p></p>,,,,null,,,,,,,,,,,,,,,,,,,,
1742.7999999523163,,intro_1,157111,,instruct,,0,,,,,,,,,,,,,,,,,,,,,,
1670.7999999523163,,intro_2,158783,,instruct,,1,Next,,,,,,,,,,,,,,,,,,,,,
76222.09999990463,,intro_3,235007,,instruct,,1,Next,,,,,,,,,,,,,,,,,,,,,
null,,prac_atten_color_black,235802,,black_plus_sign,,,,null,,,,,,,,,,,,,,,,,,,,
null,,prac_atten_color,236431,,prac_stop_color,,,,null,,,,,,,,,,,,,,,,,,,,
null,,prac_atten_color_black,238433,,black_plus_sign,,,,null,,,,,,,,,,,,,,,,,,,,
20842.699999809265,,attentioncheck_help,259277,,instruct,,,,32,,,,,,,,,,,,,,,,,,,,
null,,prac_atten_color_black,260069,,black_plus_sign,,,,null,,,,,,,,,,,,,,,,,,,,
null,,prac_atten_color,260810,,prac_stop_color,,,,null,,,,,,,,,,,,,,,,,,,,
null,,prac_atten_color_black,262811,,black_plus_sign,,,,null,,,,,,,,,,,,,,,,,,,,
10815.900000095367,,attentioncheck_help,273629,,instruct,,,,32,,,,,,,,,,,,,,,,,,,,
null,,prac_atten_color_black,274292,,black_plus_sign,,,,null,,,,,,,,,,,,,,,,,,,,
480,,prac_atten_color,275082,,prac_stop_color,,,,50,,,,,,,,,,,,,,,,,,,,
914.0999999046326,,prac_atten_color_black,277084,,black_plus_sign,,,,50,,,,,,,,,,,,,,,,,,,,
null,,prac_atten_color_black,277698,,black_plus_sign,,,,null,,,,,,,,,,,,,,,,,,,,
null,,prac_atten_color,278216,,prac_stop_color,,,,null,,,,,,,,,,,,,,,,,,,,
43.60000014305115,,prac_atten_color_black,280219,,black_plus_sign,,,,49,,,,,,,,,,,,,,,,,,,,
null,,prac_atten_color_black,281105,,black_plus_sign,,,,null,,,,,,,,,,,,,,,,,,,,
458.60000014305115,,prac_atten_color,281650,,prac_stop_color,,,,50,,,,,,,,,,,,,,,,,,,,
null,,prac_atten_color_black,283652,,black_plus_sign,,,,null,,,,,,,,,,,,,,,,,,,,
null,,prac_atten_color_black,284511,,black_plus_sign,,,,null,,,,,,,,,,,,,,,,,,,,
445.19999980926514,,prac_atten_color,285188,,prac_stop_color,,,,50,,,,,,,,,,,,,,,,,,,,
null,,prac_atten_color_black,287190,,black_plus_sign,,,,null,,,,,,,,,,,,,,,,,,,,
null,,prac_atten_color_black,287918,,black_plus_sign,,,,null,,,,,,,,,,,,,,,,,,,,
621.7000000476837,,prac_atten_color,288963,,prac_stop_color,,,,49,,,,,,,,,,,,,,,,,,,,
null,,prac_atten_color_black,290964,,black_plus_sign,,,,null,,,,,,,,,,,,,,,,,,,,
null,,prac_atten_color_black,291322,,black_plus_sign,,,,null,,,,,,,,,,,,,,,,,,,,
616.9000000953674,,prac_atten_color,292363,,prac_stop_color,,,,50,,,,,,,,,,,,,,,,,,,,
null,,prac_atten_color_black,294365,,black_plus_sign,,,,null,,,,,,,,,,,,,,,,,,,,
null,,prac_atten_color_black,294737,,black_plus_sign,,,,null,,,,,,,,,,,,,,,,,,,,
451.19999980926514,,prac_atten_color,295263,,prac_stop_color,,,,49,,,,,,,,,,,,,,,,,,,,
null,,prac_atten_color_black,297265,,black_plus_sign,,,,null,,,,,,,,,,,,,,,,,,,,
null,,prac_atten_color_black,298142,,black_plus_sign,,,,null,,,,,,,,,,,,,,,,,,,,
549.5,,prac_atten_color,298955,,prac_stop_color,,,,50,,,,,,,,,,,,,,,,,,,,
null,,prac_atten_color_black,300957,,black_plus_sign,,,,null,,,,,,,,,,,,,,,,,,,,
22439,,attentioncheck_feedback,323397,,cross_check_feedback,,0,,,,,,,,,,,,,,,,,,,,,,
56134.5,,last_instruct,379533,,instruct,,,,32,,,,,,,,,,,,,,,,,,,,
null,,learn_phase(without_color),382535,,black_plus_sign,,,,null,GW/newhope.png,GW/carmel.png,,,,,,,,,,,,,,,,,,
null,,black_cross(without_color),383242,,yellow,,,,null,GW/newhope.png,GW/carmel.png,,,,,,,,,,,,,,,,,,
null,,rt_plussign_withcolor,383744,,yellow,,,,null,GW/newhope.png,GW/carmel.png,,,,,,,,,,,,,,,,,,
1063.7999999523163,,rt_thecrossant_black,385045,,black_plus_sign,,,,50,,,1,1,,,,,,,,,,,,,,,,
null,,color_black,385148,,black_plus_sign,,,,null,,,,,,,,,,,,,,,,,,,,
null,,learn_phase(without_color),388151,,black_plus_sign,,,,null,GW/peoria.png,GW/huntsville.png,,,,,,,,,,,,,,,,,,
null,,black_cross(without_color),388578,,yellow,,,,null,GW/peoria.png,GW/huntsville.png,,,,,,,,,,,,,,,,,,
401.2999999523163,,rt_plussign_withcolor,389080,,yellow,,,,50,GW/peoria.png,GW/huntsville.png,,,,,,,,,,,,,,,,,,
null,,rt_thecrossant_black,390657,,black_plus_sign,,,,null,,,1,1,,,,,,,,,,,,,,,,
null,,color_black,390758,,black_plus_sign,,,,null,,,,,,,,,,,,,,,,,,,,
null,,learn_phase(without_color),393761,,black_plus_sign,,,,null,GW/hotsprings.png,GW/hanover.png,,,,,,,,,,,,,,,,,,
null,,black_cross(without_color),394650,,yellow,,,,null,GW/hotsprings.png,GW/hanover.png,,,,,,,,,,,,,,,,,,
457.90000009536743,,rt_plussign_withcolor,395152,,yellow,,,,50,GW/hotsprings.png,GW/hanover.png,,,,,,,,,,,,,,,,,,
null,,rt_thecrossant_black,396267,,black_plus_sign,,,,null,,,1,1,,,,,,,,,,,,,,,,
null,,color_black,396369,,black_plus_sign,,,,null,,,,,,,,,,,,,,,,,,,,
null,,learn_phase(without_color),399372,,black_plus_sign,,,,null,GW/peoria.png,GW/huntsville.png,,,,,,,,,,,,,,,,,,
null,,black_cross(without_color),399931,,blue,,,,null,GW/peoria.png,GW/huntsville.png,,,,,,,,,,,,,,,,,,
null,,rt_plussign_withcolor,400432,,blue,,,,null,GW/peoria.png,GW/huntsville.png,,,,,,,,,,,,,,,,,,
997.9000000953674,,rt_thecrossant_black,401877,,black_plus_sign,,,,49,,,1,1,,,,,,,,,,,,,,,,
null,,color_black,401979,,black_plus_sign,,,,null,,,,,,,,,,,,,,,,,,,,
null,,learn_phase(without_color),404981,,black_plus_sign,,,,null,GW/hanover.png,GW/hotsprings.png,,,,,,,,,,,,,,,,,,
null,,black_cross(without_color),405744,,blue,,,,null,GW/hanover.png,GW/hotsprings.png,,,,,,,,,,,,,,,,,,
459.7999999523163,,rt_plussign_withcolor,406246,,blue,,,,50,GW/hanover.png,GW/hotsprings.png,,,,,,,,,,,,,,,,,,
null,,rt_thecrossant_black,407487,,black_plus_sign,,,,null,,,0,0.8,,,,,,,,,,,,,,,,
null,,color_black,407590,,black_plus_sign,,,,null,,,,,,,,,,,,,,,,,,,,
null,,learn_phase(without_color),410592,,black_plus_sign,,,,null,GW/peoria.png,GW/huntsville.png,,,,,,,,,,,,,,,,,,
null,,black_cross(without_color),411495,,yellow,,,,null,GW/peoria.png,GW/huntsville.png,,,,,,,,,,,,,,,,,,
null,,rt_plussign_withcolor,411997,,yellow,,,,null,GW/peoria.png,GW/huntsville.png,,,,,,,,,,,,,,,,,,
899.2999999523163,,rt_thecrossant_black,413098,,black_plus_sign,,,,50,,,1,0.8333333333333334,,,,,,,,,,,,,,,,
null,,color_black,413199,,black_plus_sign,,,,null,,,,,,,,,,,,,,,,,,,,
null,,learn_phase(without_color),416202,,black_plus_sign,,,,null,GW/hotsprings.png,GW/hanover.png,,,,,,,,,,,,,,,,,,
null,,black_cross(without_color),416902,,blue,,,,null,GW/hotsprings.png,GW/hanover.png,,,,,,,,,,,,,,,,,,
null,,rt_plussign_withcolor,417403,,blue,,,,null,GW/hotsprings.png,GW/hanover.png,,,,,,,,,,,,,,,,,,
1034.7000000476837,,rt_thecrossant_black,418707,,black_plus_sign,,,,49,,,1,0.8571428571428571,,,,,,,,,,,,,,,,
null,,color_black,418810,,black_plus_sign,,,,null,,,,,,,,,,,,,,,,,,,,
null,,learn_phase(without_color),421813,,black_plus_sign,,,,null,GW/peoria.png,GW/huntsville.png,,,,,,,,,,,,,,,,,,
null,,black_cross(without_color),422780,,yellow,,,,null,GW/peoria.png,GW/huntsville.png,,,,,,,,,,,,,,,,,,
367.2999999523163,,rt_plussign_withcolor,423283,,yellow,,,,50,GW/peoria.png,GW/huntsville.png,,,,,,,,,,,,,,,,,,
null,,rt_thecrossant_black,424319,,black_plus_sign,,,,null,,,1,0.875,,,,,,,,,,,,,,,,
null,,color_black,424421,,black_plus_sign,,,,null,,,,,,,,,,,,,,,,,,,,
null,,learn_phase(without_color),427423,,black_plus_sign,,,,null,GW/westpalmbeach.png,GW/gatlinburg.png,,,,,,,,,,,,,,,,,,
null,,black_cross(without_color),428035,,yellow,,,,null,GW/westpalmbeach.png,GW/gatlinburg.png,,,,,,,,,,,,,,,,,,
null,,rt_plussign_withcolor,428537,,yellow,,,,null,GW/westpalmbeach.png,GW/gatlinburg.png,,,,,,,,,,,,,,,,,,
1148.1000001430511,,rt_thecrossant_black,429930,,black_plus_sign,,,,50,,,1,0.8888888888888888,,,,,,,,,,,,,,,,
null,,color_black,430032,,black_plus_sign,,,,null,,,,,,,,,,,,,,,,,,,,
null,,learn_phase(without_color),433034,,black_plus_sign,,,,null,GW/huntsville.png,GW/peoria.png,,,,,,,,,,,,,,,,,,
null,,black_cross(without_color),433950,,blue,,,,null,GW/huntsville.png,GW/peoria.png,,,,,,,,,,,,,,,,,,
461.90000009536743,,rt_plussign_withcolor,434452,,blue,,,,49,GW/huntsville.png,GW/peoria.png,,,,,,,,,,,,,,,,,,
null,,rt_thecrossant_black,435541,,black_plus_sign,,,,null,,,1,0.9,,,,,,,,,,,,,,,,
null,,color_black,435643,,black_plus_sign,,,,null,,,,,,,,,,,,,,,,,,,,
null,,learn_phase(without_color),438645,,black_plus_sign,,,,null,GW/gatlinburg.png,GW/westpalmbeach.png,,,,,,,,,,,,,,,,,,
null,,black_cross(without_color),439368,,yellow,,,,null,GW/gatlinburg.png,GW/westpalmbeach.png,,,,,,,,,,,,,,,,,,
332,,rt_plussign_withcolor,439869,,yellow,,,,50,GW/gatlinburg.png,GW/westpalmbeach.png,,,,,,,,,,,,,,,,,,
null,,rt_thecrossant_black,441152,,black_plus_sign,,,,null,,,1,0.9090909090909091,,,,,,,,,,,,,,,,
null,,color_black,441253,,black_plus_sign,,,,null,,,,,,,,,,,,,,,,,,,,
null,,learn_phase(without_color),444255,,black_plus_sign,,,,null,GW/peoria.png,GW/huntsville.png,,,,,,,,,,,,,,,,,,
null,,black_cross(without_color),445195,,yellow,,,,null,GW/peoria.png,GW/huntsville.png,,,,,,,,,,,,,,,,,,
null,,rt_plussign_withcolor,445702,,yellow,,,,null,GW/peoria.png,GW/huntsville.png,,,,,,,,,,,,,,,,,,
857.8000001907349,,rt_thecrossant_black,446767,,black_plus_sign,,,,50,,,1,0.9166666666666666,,,,,,,,,,,,,,,,
null,,color_black,446869,,black_plus_sign,,,,null,,,,,,,,,,,,,,,,,,,,
null,,learn_phase(without_color),449871,,black_plus_sign,,,,null,GW/hanover.png,GW/hotsprings.png,,,,,,,,,,,,,,,,,,
null,,black_cross(without_color),450477,,blue,,,,null,GW/hanover.png,GW/hotsprings.png,,,,,,,,,,,,,,,,,,
470.60000014305115,,rt_plussign_withcolor,450979,,blue,,,,49,GW/hanover.png,GW/hotsprings.png,,,,,,,,,,,,,,,,,,
null,,rt_thecrossant_black,452376,,black_plus_sign,,,,null,,,1,0.9230769230769231,,,,,,,,,,,,,,,,
null,,color_black,452478,,black_plus_sign,,,,null,,,,,,,,,,,,,,,,,,,,
null,,learn_phase(without_color),455481,,black_plus_sign,,,,null,GW/westpalmbeach.png,GW/gatlinburg.png,,,,,,,,,,,,,,,,,,
null,,black_cross(without_color),456320,,yellow,,,,null,GW/westpalmbeach.png,GW/gatlinburg.png,,,,,,,,,,,,,,,,,,
419.2000000476837,,rt_plussign_withcolor,456822,,yellow,,,,50,GW/westpalmbeach.png,GW/gatlinburg.png,,,,,,,,,,,,,,,,,,
null,,rt_thecrossant_black,457987,,black_plus_sign,,,,null,,,1,0.9285714285714286,,,,,,,,,,,,,,,,
null,,color_black,458089,,black_plus_sign,,,,null,,,,,,,,,,,,,,,,,,,,
null,,learn_phase(without_color),461092,,black_plus_sign,,,,null,GW/peoria.png,GW/huntsville.png,,,,,,,,,,,,,,,,,,
null,,black_cross(without_color),462119,,yellow,,,,null,GW/peoria.png,GW/huntsville.png,,,,,,,,,,,,,,,,,,
452.5,,rt_plussign_withcolor,462621,,yellow,,,,50,GW/peoria.png,GW/huntsville.png,,,,,,,,,,,,,,,,,,
null,,rt_thecrossant_black,463597,,black_plus_sign,,,,null,,,1,0.9333333333333333,,,,,,,,,,,,,,,,
null,,color_black,463700,,black_plus_sign,,,,null,,,,,,,,,,,,,,,,,,,,
null,,learn_phase(without_color),466703,,black_plus_sign,,,,null,GW/gatlinburg.png,GW/westpalmbeach.png,,,,,,,,,,,,,,,,,,
null,,black_cross(without_color),467605,,yellow,,,,null,GW/gatlinburg.png,GW/westpalmbeach.png,,,,,,,,,,,,,,,,,,
414.59999990463257,,rt_plussign_withcolor,468106,,yellow,,,,50,GW/gatlinburg.png,GW/westpalmbeach.png,,,,,,,,,,,,,,,,,,
null,,rt_thecrossant_black,469208,,black_plus_sign,,,,null,,,1,0.9375,,,,,,,,,,,,,,,,
null,,color_black,469310,,black_plus_sign,,,,null,,,,,,,,,,,,,,,,,,,,
null,,learn_phase(without_color),472313,,black_plus_sign,,,,null,GW/hanover.png,GW/hotsprings.png,,,,,,,,,,,,,,,,,,
null,,black_cross(without_color),473354,,yellow,,,,null,GW/hanover.png,GW/hotsprings.png,,,,,,,,,,,,,,,,,,
null,,rt_plussign_withcolor,473856,,yellow,,,,null,GW/hanover.png,GW/hotsprings.png,,,,,,,,,,,,,,,,,,
1027.2000000476837,,rt_thecrossant_black,474818,,black_plus_sign,,,,50,,,1,0.9411764705882353,,,,,,,,,,,,,,,,
null,,color_black,474920,,black_plus_sign,,,,null,,,,,,,,,,,,,,,,,,,,
null,,learn_phase(without_color),477922,,black_plus_sign,,,,null,GW/newhope.png,GW/carmel.png,,,,,,,,,,,,,,,,,,
null,,black_cross(without_color),478964,,blue,,,,null,GW/newhope.png,GW/carmel.png,,,,,,,,,,,,,,,,,,
407.7999999523163,,rt_plussign_withcolor,479465,,blue,,,,49,GW/newhope.png,GW/carmel.png,,,,,,,,,,,,,,,,,,
null,,rt_thecrossant_black,480428,,black_plus_sign,,,,null,,,1,0.9444444444444444,,,,,,,,,,,,,,,,
null,,color_black,480531,,black_plus_sign,,,,null,,,,,,,,,,,,,,,,,,,,
null,,learn_phase(without_color),483533,,black_plus_sign,,,,null,GW/westpalmbeach.png,GW/gatlinburg.png,,,,,,,,,,,,,,,,,,
null,,black_cross(without_color),484189,,yellow,,,,null,GW/westpalmbeach.png,GW/gatlinburg.png,,,,,,,,,,,,,,,,,,
350.90000009536743,,rt_plussign_withcolor,484691,,yellow,,,,50,GW/westpalmbeach.png,GW/gatlinburg.png,,,,,,,,,,,,,,,,,,
null,,rt_thecrossant_black,486039,,black_plus_sign,,,,null,,,1,0.9473684210526315,,,,,,,,,,,,,,,,
null,,color_black,486141,,black_plus_sign,,,,null,,,,,,,,,,,,,,,,,,,,
null,,learn_phase(without_color),489143,,black_plus_sign,,,,null,GW/carmel.png,GW/newhope.png,,,,,,,,,,,,,,,,,,
null,,black_cross(without_color),489856,,yellow,,,,null,GW/carmel.png,GW/newhope.png,,,,,,,,,,,,,,,,,,
419.2999999523163,,rt_plussign_withcolor,490358,,yellow,,,,50,GW/carmel.png,GW/newhope.png,,,,,,,,,,,,,,,,,,
null,,rt_thecrossant_black,491649,,black_plus_sign,,,,null,,,1,0.95,,,,,,,,,,,,,,,,
null,,color_black,491751,,black_plus_sign,,,,null,,,,,,,,,,,,,,,,,,,,
null,,learn_phase(without_color),494754,,black_plus_sign,,,,null,GW/gatlinburg.png,GW/westpalmbeach.png,,,,,,,,,,,,,,,,,,
null,,black_cross(without_color),495664,,yellow,,,,null,GW/gatlinburg.png,GW/westpalmbeach.png,,,,,,,,,,,,,,,,,,
403.7000000476837,,rt_plussign_withcolor,496177,,yellow,,,,50,GW/gatlinburg.png,GW/westpalmbeach.png,,,,,,,,,,,,,,,,,,
null,,rt_thecrossant_black,497271,,black_plus_sign,,,,null,,,1,0.9523809523809523,,,,,,,,,,,,,,,,
null,,color_black,497373,,black_plus_sign,,,,null,,,,,,,,,,,,,,,,,,,,
null,,learn_phase(without_color),500375,,black_plus_sign,,,,null,GW/newhope.png,GW/carmel.png,,,,,,,,,,,,,,,,,,
null,,black_cross(without_color),501088,,yellow,,,,null,GW/newhope.png,GW/carmel.png,,,,,,,,,,,,,,,,,,
379,,rt_plussign_withcolor,501590,,yellow,,,,50,GW/newhope.png,GW/carmel.png,,,,,,,,,,,,,,,,,,
null,,rt_thecrossant_black,502881,,black_plus_sign,,,,null,,,1,0.9545454545454546,,,,,,,,,,,,,,,,
null,,color_black,502983,,black_plus_sign,,,,null,,,,,,,,,,,,,,,,,,,,
null,,learn_phase(without_color),505986,,black_plus_sign,,,,null,GW/hanover.png,GW/hotsprings.png,,,,,,,,,,,,,,,,,,
null,,black_cross(without_color),506785,,blue,,,,null,GW/hanover.png,GW/hotsprings.png,,,,,,,,,,,,,,,,,,
434.69999980926514,,rt_plussign_withcolor,507286,,blue,,,,49,GW/hanover.png,GW/hotsprings.png,,,,,,,,,,,,,,,,,,
null,,rt_thecrossant_black,508492,,black_plus_sign,,,,null,,,1,0.9565217391304348,,,,,,,,,,,,,,,,
null,,color_black,508594,,black_plus_sign,,,,null,,,,,,,,,,,,,,,,,,,,
null,,learn_phase(without_color),511597,,black_plus_sign,,,,null,GW/westpalmbeach.png,GW/gatlinburg.png,,,,,,,,,,,,,,,,,,
null,,black_cross(without_color),512086,,yellow,,,,null,GW/westpalmbeach.png,GW/gatlinburg.png,,,,,,,,,,,,,,,,,,
462,,rt_plussign_withcolor,512587,,yellow,,,,50,GW/westpalmbeach.png,GW/gatlinburg.png,,,,,,,,,,,,,,,,,,
null,,rt_thecrossant_black,514103,,black_plus_sign,,,,null,,,1,0.9583333333333334,,,,,,,,,,,,,,,,
null,,color_black,514205,,black_plus_sign,,,,null,,,,,,,,,,,,,,,,,,,,
null,,learn_phase(without_color),517208,,black_plus_sign,,,,null,GW/carmel.png,GW/newhope.png,,,,,,,,,,,,,,,,,,
null,,black_cross(without_color),517659,,blue,,,,null,GW/carmel.png,GW/newhope.png,,,,,,,,,,,,,,,,,,
408.7999999523163,,rt_plussign_withcolor,518161,,blue,,,,49,GW/carmel.png,GW/newhope.png,,,,,,,,,,,,,,,,,,
null,,rt_thecrossant_black,519714,,black_plus_sign,,,,null,,,1,0.96,,,,,,,,,,,,,,,,
null,,color_black,519816,,black_plus_sign,,,,null,,,,,,,,,,,,,,,,,,,,
null,,learn_phase(without_color),522818,,black_plus_sign,,,,null,GW/huntsville.png,GW/peoria.png,,,,,,,,,,,,,,,,,,
null,,black_cross(without_color),523785,,blue,,,,null,GW/huntsville.png,GW/peoria.png,,,,,,,,,,,,,,,,,,
466,,rt_plussign_withcolor,524287,,blue,,,,49,GW/huntsville.png,GW/peoria.png,,,,,,,,,,,,,,,,,,
null,,rt_thecrossant_black,525322,,black_plus_sign,,,,null,,,1,0.9615384615384616,,,,,,,,,,,,,,,,
null,,color_black,525426,,black_plus_sign,,,,null,,,,,,,,,,,,,,,,,,,,
null,,learn_phase(without_color),528429,,black_plus_sign,,,,null,GW/carmel.png,GW/newhope.png,,,,,,,,,,,,,,,,,,
null,,black_cross(without_color),529157,,yellow,,,,null,GW/carmel.png,GW/newhope.png,,,,,,,,,,,,,,,,,,
414.39999985694885,,rt_plussign_withcolor,529659,,yellow,,,,50,GW/carmel.png,GW/newhope.png,,,,,,,,,,,,,,,,,,
null,,rt_thecrossant_black,530933,,black_plus_sign,,,,null,,,1,0.9629629629629629,,,,,,,,,,,,,,,,
null,,color_black,531036,,black_plus_sign,,,,null,,,,,,,,,,,,,,,,,,,,
null,,learn_phase(without_color),534038,,black_plus_sign,,,,null,GW/hotsprings.png,GW/hanover.png,,,,,,,,,,,,,,,,,,
null,,black_cross(without_color),534515,,blue,,,,null,GW/hotsprings.png,GW/hanover.png,,,,,,,,,,,,,,,,,,
464.40000009536743,,rt_plussign_withcolor,535017,,blue,,,,49,GW/hotsprings.png,GW/hanover.png,,,,,,,,,,,,,,,,,,
null,,rt_thecrossant_black,536545,,black_plus_sign,,,,null,,,1,0.9642857142857143,,,,,,,,,,,,,,,,
null,,color_black,536648,,black_plus_sign,,,,null,,,,,,,,,,,,,,,,,,,,
null,,learn_phase(without_color),539650,,black_plus_sign,,,,null,GW/gatlinburg.png,GW/westpalmbeach.png,,,,,,,,,,,,,,,,,,
null,,black_cross(without_color),540624,,blue,,,,null,GW/gatlinburg.png,GW/westpalmbeach.png,,,,,,,,,,,,,,,,,,
412,,rt_plussign_withcolor,541125,,blue,,,,49,GW/gatlinburg.png,GW/westpalmbeach.png,,,,,,,,,,,,,,,,,,
null,,rt_thecrossant_black,542157,,black_plus_sign,,,,null,,,1,0.9655172413793104,,,,,,,,,,,,,,,,
null,,color_black,542259,,black_plus_sign,,,,null,,,,,,,,,,,,,,,,,,,,
null,,learn_phase(without_color),545261,,black_plus_sign,,,,null,GW/carmel.png,GW/newhope.png,,,,,,,,,,,,,,,,,,
null,,black_cross(without_color),545905,,yellow,,,,null,GW/carmel.png,GW/newhope.png,,,,,,,,,,,,,,,,,,
386.2999999523163,,rt_plussign_withcolor,546407,,yellow,,,,50,GW/carmel.png,GW/newhope.png,,,,,,,,,,,,,,,,,,
null,,rt_thecrossant_black,547767,,black_plus_sign,,,,null,,,1,0.9666666666666667,,,,,,,,,,,,,,,,
null,,color_black,547869,,black_plus_sign,,,,null,,,,,,,,,,,,,,,,,,,,
null,,learn_phase(without_color),550873,,black_plus_sign,,,,null,GW/carmel.png,GW/newhope.png,,,,,,,,,,,,,,,,,,
null,,black_cross(without_color),551912,,blue,,,,null,GW/carmel.png,GW/newhope.png,,,,,,,,,,,,,,,,,,
419.2000000476837,,rt_plussign_withcolor,552414,,blue,,,,49,GW/carmel.png,GW/newhope.png,,,,,,,,,,,,,,,,,,
null,,rt_thecrossant_black,553378,,black_plus_sign,,,,null,,,1,0.967741935483871,,,,,,,,,,,,,,,,
null,,color_black,553480,,black_plus_sign,,,,null,,,,,,,,,,,,,,,,,,,,
null,,learn_phase(without_color),556482,,black_plus_sign,,,,null,GW/hanover.png,GW/hotsprings.png,,,,,,,,,,,,,,,,,,
null,,black_cross(without_color),557209,,yellow,,,,null,GW/hanover.png,GW/hotsprings.png,,,,,,,,,,,,,,,,,,
498.5,,rt_plussign_withcolor,557710,,yellow,,,,50,GW/hanover.png,GW/hotsprings.png,,,,,,,,,,,,,,,,,,
null,,rt_thecrossant_black,558996,,black_plus_sign,,,,null,,,1,0.96875,,,,,,,,,,,,,,,,
null,,color_black,559098,,black_plus_sign,,,,null,,,,,,,,,,,,,,,,,,,,
null,,learn_phase(without_color),562101,,black_plus_sign,,,,null,GW/newhope.png,GW/cornwall.png,,,,,,,,,,,,,,,,,,
null,,black_cross(without_color),562609,,yellow,,,,null,GW/newhope.png,GW/cornwall.png,,,,,,,,,,,,,,,,,,
null,,rt_plussign_withcolor,563111,,yellow,,,,null,GW/newhope.png,GW/cornwall.png,,,,,,,,,,,,,,,,,,
1140.8000001907349,,rt_thecrossant_black,564608,,black_plus_sign,,,,49,,,0,0.9393939393939394,,,,,,,,,,,,,,,,
null,,color_black,564709,,black_plus_sign,,,,null,,,,,,,,,,,,,,,,,,,,
null,,learn_phase(without_color),567712,,black_plus_sign,,,,null,GW/racine.png,GW/hanover.png,,,,,,,,,,,,,,,,,,
null,,black_cross(without_color),568448,,blue,,,,null,GW/racine.png,GW/hanover.png,,,,,,,,,,,,,,,,,,
498.69999980926514,,rt_plussign_withcolor,568950,,blue,,,,49,GW/racine.png,GW/hanover.png,,,,,,,,,,,,,,,,,,
null,,rt_thecrossant_black,570217,,black_plus_sign,,,,null,,,1,0.9411764705882353,,,,,,,,,,,,,,,,
null,,color_black,570320,,black_plus_sign,,,,null,,,,,,,,,,,,,,,,,,,,
null,,learn_phase(without_color),573322,,black_plus_sign,,,,null,GW/cornwall.png,GW/newhope.png,,,,,,,,,,,,,,,,,,
null,,black_cross(without_color),574210,,blue,,,,null,GW/cornwall.png,GW/newhope.png,,,,,,,,,,,,,,,,,,
null,,rt_plussign_withcolor,574712,,blue,,,,null,GW/cornwall.png,GW/newhope.png,,,,,,,,,,,,,,,,,,
1109.5,,rt_thecrossant_black,575828,,black_plus_sign,,,,49,,,1,0.9428571428571428,,,,,,,,,,,,,,,,
null,,color_black,575930,,black_plus_sign,,,,null,,,,,,,,,,,,,,,,,,,,
null,,learn_phase(without_color),578933,,black_plus_sign,,,,null,GW/westpalmbeach.png,GW/hotsprings.png,,,,,,,,,,,,,,,,,,
null,,black_cross(without_color),579539,,yellow,,,,null,GW/westpalmbeach.png,GW/hotsprings.png,,,,,,,,,,,,,,,,,,
null,,rt_plussign_withcolor,580041,,yellow,,,,null,GW/westpalmbeach.png,GW/hotsprings.png,,,,,,,,,,,,,,,,,,
1483.2000000476837,,rt_thecrossant_black,581443,,black_plus_sign,,,,50,,,1,0.9444444444444444,,,,,,,,,,,,,,,,
null,,color_black,581545,,black_plus_sign,,,,null,,,,,,,,,,,,,,,,,,,,
null,,learn_phase(without_color),584548,,black_plus_sign,,,,null,GW/newhope.png,GW/cornwall.png,,,,,,,,,,,,,,,,,,
null,,black_cross(without_color),585570,,blue,,,,null,GW/newhope.png,GW/cornwall.png,,,,,,,,,,,,,,,,,,
null,,rt_plussign_withcolor,586072,,blue,,,,null,GW/newhope.png,GW/cornwall.png,,,,,,,,,,,,,,,,,,
713.2000000476837,,rt_thecrossant_black,587055,,black_plus_sign,,,,49,,,1,0.9459459459459459,,,,,,,,,,,,,,,,
null,,color_black,587157,,black_plus_sign,,,,null,,,,,,,,,,,,,,,,,,,,
null,,learn_phase(without_color),590160,,black_plus_sign,,,,null,GW/huntsville.png,GW/carmel.png,,,,,,,,,,,,,,,,,,
null,,black_cross(without_color),591044,,yellow,,,,null,GW/huntsville.png,GW/carmel.png,,,,,,,,,,,,,,,,,,
null,,rt_plussign_withcolor,591546,,yellow,,,,null,GW/huntsville.png,GW/carmel.png,,,,,,,,,,,,,,,,,,
1121.1000001430511,,rt_thecrossant_black,592665,,black_plus_sign,,,,50,,,1,0.9473684210526315,,,,,,,,,,,,,,,,
null,,color_black,592768,,black_plus_sign,,,,null,,,,,,,,,,,,,,,,,,,,
null,,learn_phase(without_color),595771,,black_plus_sign,,,,null,GW/westpalmbeach.png,GW/hotsprings.png,,,,,,,,,,,,,,,,,,
null,,black_cross(without_color),596333,,blue,,,,null,GW/westpalmbeach.png,GW/hotsprings.png,,,,,,,,,,,,,,,,,,
406.40000009536743,,rt_plussign_withcolor,596835,,blue,,,,49,GW/westpalmbeach.png,GW/hotsprings.png,,,,,,,,,,,,,,,,,,
null,,rt_thecrossant_black,598277,,black_plus_sign,,,,null,,,1,0.9487179487179487,,,,,,,,,,,,,,,,
null,,color_black,598380,,black_plus_sign,,,,null,,,,,,,,,,,,,,,,,,,,
null,,learn_phase(without_color),601383,,black_plus_sign,,,,null,GW/cornwall.png,GW/newhope.png,,,,,,,,,,,,,,,,,,
null,,black_cross(without_color),602048,,blue,,,,null,GW/cornwall.png,GW/newhope.png,,,,,,,,,,,,,,,,,,
null,,rt_plussign_withcolor,602550,,blue,,,,null,GW/cornwall.png,GW/newhope.png,,,,,,,,,,,,,,,,,,
728.8000001907349,,rt_thecrossant_black,603890,,black_plus_sign,,,,49,,,1,0.95,,,,,,,,,,,,,,,,
null,,color_black,604001,,black_plus_sign,,,,null,,,,,,,,,,,,,,,,,,,,
null,,learn_phase(without_color),607004,,black_plus_sign,,,,null,GW/carmel.png,GW/huntsville.png,,,,,,,,,,,,,,,,,,
null,,black_cross(without_color),607939,,blue,,,,null,GW/carmel.png,GW/huntsville.png,,,,,,,,,,,,,,,,,,
null,,rt_plussign_withcolor,608441,,blue,,,,null,GW/carmel.png,GW/huntsville.png,,,,,,,,,,,,,,,,,,
852.1000001430511,,rt_thecrossant_black,609510,,black_plus_sign,,,,49,,,1,0.9512195121951219,,,,,,,,,,,,,,,,
null,,color_black,609612,,black_plus_sign,,,,null,,,,,,,,,,,,,,,,,,,,
null,,learn_phase(without_color),612615,,black_plus_sign,,,,null,GW/hanover.png,GW/racine.png,,,,,,,,,,,,,,,,,,
null,,black_cross(without_color),613439,,blue,,,,null,GW/hanover.png,GW/racine.png,,,,,,,,,,,,,,,,,,
null,,rt_plussign_withcolor,613941,,blue,,,,null,GW/hanover.png,GW/racine.png,,,,,,,,,,,,,,,,,,
1206.9000000953674,,rt_thecrossant_black,615121,,black_plus_sign,,,,49,,,1,0.9523809523809523,,,,,,,,,,,,,,,,
null,,color_black,615223,,black_plus_sign,,,,null,,,,,,,,,,,,,,,,,,,,
null,,learn_phase(without_color),618226,,black_plus_sign,,,,null,GW/hotsprings.png,GW/westpalmbeach.png,,,,,,,,,,,,,,,,,,
null,,black_cross(without_color),619232,,blue,,,,null,GW/hotsprings.png,GW/westpalmbeach.png,,,,,,,,,,,,,,,,,,
null,,rt_plussign_withcolor,619734,,blue,,,,null,GW/hotsprings.png,GW/westpalmbeach.png,,,,,,,,,,,,,,,,,,
951.4000000953674,,rt_thecrossant_black,620731,,black_plus_sign,,,,49,,,1,0.9534883720930233,,,,,,,,,,,,,,,,
null,,color_black,620834,,black_plus_sign,,,,null,,,,,,,,,,,,,,,,,,,,
null,,learn_phase(without_color),623836,,black_plus_sign,,,,null,GW/carmel.png,GW/huntsville.png,,,,,,,,,,,,,,,,,,
null,,black_cross(without_color),624480,,yellow,,,,null,GW/carmel.png,GW/huntsville.png,,,,,,,,,,,,,,,,,,
null,,rt_plussign_withcolor,624982,,yellow,,,,null,GW/carmel.png,GW/huntsville.png,,,,,,,,,,,,,,,,,,
1460.5,,rt_thecrossant_black,626342,,black_plus_sign,,,,50,,,1,0.9545454545454546,,,,,,,,,,,,,,,,
null,,color_black,626444,,black_plus_sign,,,,null,,,,,,,,,,,,,,,,,,,,
null,,learn_phase(without_color),629446,,black_plus_sign,,,,null,GW/hanover.png,GW/racine.png,,,,,,,,,,,,,,,,,,
null,,black_cross(without_color),630507,,yellow,,,,null,GW/hanover.png,GW/racine.png,,,,,,,,,,,,,,,,,,
null,,rt_plussign_withcolor,631009,,yellow,,,,null,GW/hanover.png,GW/racine.png,,,,,,,,,,,,,,,,,,
807.8999998569489,,rt_thecrossant_black,631953,,black_plus_sign,,,,50,,,1,0.9555555555555556,,,,,,,,,,,,,,,,
null,,color_black,632055,,black_plus_sign,,,,null,,,,,,,,,,,,,,,,,,,,
null,,learn_phase(without_color),635058,,black_plus_sign,,,,null,GW/carmel.png,GW/huntsville.png,,,,,,,,,,,,,,,,,,
null,,black_cross(without_color),635738,,blue,,,,null,GW/carmel.png,GW/huntsville.png,,,,,,,,,,,,,,,,,,
null,,rt_plussign_withcolor,636239,,blue,,,,null,GW/carmel.png,GW/huntsville.png,,,,,,,,,,,,,,,,,,
1290.0999999046326,,rt_thecrossant_black,637565,,black_plus_sign,,,,49,,,1,0.9565217391304348,,,,,,,,,,,,,,,,
null,,color_black,637667,,black_plus_sign,,,,null,,,,,,,,,,,,,,,,,,,,
null,,learn_phase(without_color),640669,,black_plus_sign,,,,null,GW/hotsprings.png,GW/westpalmbeach.png,,,,,,,,,,,,,,,,,,
null,,black_cross(without_color),641618,,yellow,,,,null,GW/hotsprings.png,GW/westpalmbeach.png,,,,,,,,,,,,,,,,,,
null,,rt_plussign_withcolor,642120,,yellow,,,,null,GW/hotsprings.png,GW/westpalmbeach.png,,,,,,,,,,,,,,,,,,
899.8999998569489,,rt_thecrossant_black,643175,,black_plus_sign,,,,50,,,1,0.9574468085106383,,,,,,,,,,,,,,,,
null,,color_black,643277,,black_plus_sign,,,,null,,,,,,,,,,,,,,,,,,,,
null,,learn_phase(without_color),646279,,black_plus_sign,,,,null,GW/hanover.png,GW/racine.png,,,,,,,,,,,,,,,,,,
null,,black_cross(without_color),646916,,blue,,,,null,GW/hanover.png,GW/racine.png,,,,,,,,,,,,,,,,,,
null,,rt_plussign_withcolor,647418,,blue,,,,null,GW/hanover.png,GW/racine.png,,,,,,,,,,,,,,,,,,
1279.5999999046326,,rt_thecrossant_black,648785,,black_plus_sign,,,,49,,,1,0.9583333333333334,,,,,,,,,,,,,,,,
null,,color_black,648886,,black_plus_sign,,,,null,,,,,,,,,,,,,,,,,,,,
null,,learn_phase(without_color),651889,,black_plus_sign,,,,null,GW/carmel.png,GW/huntsville.png,,,,,,,,,,,,,,,,,,
null,,black_cross(without_color),652366,,blue,,,,null,GW/carmel.png,GW/huntsville.png,,,,,,,,,,,,,,,,,,
485.09999990463257,,rt_plussign_withcolor,652868,,blue,,,,49,GW/carmel.png,GW/huntsville.png,,,,,,,,,,,,,,,,,,
null,,rt_thecrossant_black,654395,,black_plus_sign,,,,null,,,1,0.9591836734693877,,,,,,,,,,,,,,,,
null,,color_black,654497,,black_plus_sign,,,,null,,,,,,,,,,,,,,,,,,,,
null,,learn_phase(without_color),657500,,black_plus_sign,,,,null,GW/westpalmbeach.png,GW/hotsprings.png,,,,,,,,,,,,,,,,,,
null,,black_cross(without_color),657983,,yellow,,,,null,GW/westpalmbeach.png,GW/hotsprings.png,,,,,,,,,,,,,,,,,,
null,,rt_plussign_withcolor,658491,,yellow,,,,null,GW/westpalmbeach.png,GW/hotsprings.png,,,,,,,,,,,,,,,,,,
613.7999999523163,,rt_thecrossant_black,660013,,black_plus_sign,,,,50,,,1,0.96,,,,,,,,,,,,,,,,
null,,color_black,660115,,black_plus_sign,,,,null,,,,,,,,,,,,,,,,,,,,
null,,learn_phase(without_color),663117,,black_plus_sign,,,,null,GW/hanover.png,GW/racine.png,,,,,,,,,,,,,,,,,,
null,,black_cross(without_color),664030,,yellow,,,,null,GW/hanover.png,GW/racine.png,,,,,,,,,,,,,,,,,,
469.5,,rt_plussign_withcolor,664531,,yellow,,,,50,GW/hanover.png,GW/racine.png,,,,,,,,,,,,,,,,,,
null,,rt_thecrossant_black,665634,,black_plus_sign,,,,null,,,1,0.9607843137254902,,,,,,,,,,,,,,,,
null,,color_black,665736,,black_plus_sign,,,,null,,,,,,,,,,,,,,,,,,,,
null,,learn_phase(without_color),668739,,black_plus_sign,,,,null,GW/westpalmbeach.png,GW/hotsprings.png,,,,,,,,,,,,,,,,,,
null,,black_cross(without_color),669601,,blue,,,,null,GW/westpalmbeach.png,GW/hotsprings.png,,,,,,,,,,,,,,,,,,
null,,rt_plussign_withcolor,670104,,blue,,,,null,GW/westpalmbeach.png,GW/hotsprings.png,,,,,,,,,,,,,,,,,,
1228.6000001430511,,rt_thecrossant_black,671246,,black_plus_sign,,,,49,,,1,0.9615384615384616,,,,,,,,,,,,,,,,
null,,color_black,671348,,black_plus_sign,,,,null,,,,,,,,,,,,,,,,,,,,
null,,learn_phase(without_color),674350,,black_plus_sign,,,,null,GW/cornwall.png,GW/newhope.png,,,,,,,,,,,,,,,,,,
null,,black_cross(without_color),674889,,yellow,,,,null,GW/cornwall.png,GW/newhope.png,,,,,,,,,,,,,,,,,,
null,,rt_plussign_withcolor,675391,,yellow,,,,null,GW/cornwall.png,GW/newhope.png,,,,,,,,,,,,,,,,,,
1243.7999999523163,,rt_thecrossant_black,676857,,black_plus_sign,,,,50,,,1,0.9622641509433962,,,,,,,,,,,,,,,,
null,,color_black,676959,,black_plus_sign,,,,null,,,,,,,,,,,,,,,,,,,,
null,,learn_phase(without_color),679962,,black_plus_sign,,,,null,GW/hotsprings.png,GW/westpalmbeach.png,,,,,,,,,,,,,,,,,,
null,,black_cross(without_color),680940,,blue,,,,null,GW/hotsprings.png,GW/westpalmbeach.png,,,,,,,,,,,,,,,,,,
null,,rt_plussign_withcolor,681443,,blue,,,,null,GW/hotsprings.png,GW/westpalmbeach.png,,,,,,,,,,,,,,,,,,
716.3999998569489,,rt_thecrossant_black,682476,,black_plus_sign,,,,49,,,1,0.9629629629629629,,,,,,,,,,,,,,,,
null,,color_black,682578,,black_plus_sign,,,,null,,,,,,,,,,,,,,,,,,,,
null,,learn_phase(without_color),685580,,black_plus_sign,,,,null,GW/carmel.png,GW/huntsville.png,,,,,,,,,,,,,,,,,,
null,,black_cross(without_color),686034,,yellow,,,,null,GW/carmel.png,GW/huntsville.png,,,,,,,,,,,,,,,,,,
null,,rt_plussign_withcolor,686536,,yellow,,,,null,GW/carmel.png,GW/huntsville.png,,,,,,,,,,,,,,,,,,
1408.2999999523163,,rt_thecrossant_black,688085,,black_plus_sign,,,,50,,,1,0.9636363636363636,,,,,,,,,,,,,,,,
null,,color_black,688187,,black_plus_sign,,,,null,,,,,,,,,,,,,,,,,,,,
null,,learn_phase(without_color),691190,,black_plus_sign,,,,null,GW/newhope.png,GW/cornwall.png,,,,,,,,,,,,,,,,,,
null,,black_cross(without_color),691720,,yellow,,,,null,GW/newhope.png,GW/cornwall.png,,,,,,,,,,,,,,,,,,
null,,rt_plussign_withcolor,692221,,yellow,,,,null,GW/newhope.png,GW/cornwall.png,,,,,,,,,,,,,,,,,,
621.2999999523163,,rt_thecrossant_black,693695,,black_plus_sign,,,,50,,,1,0.9642857142857143,,,,,,,,,,,,,,,,
null,,color_black,693798,,black_plus_sign,,,,null,,,,,,,,,,,,,,,,,,,,
null,,learn_phase(without_color),696801,,black_plus_sign,,,,null,GW/racine.png,GW/hanover.png,,,,,,,,,,,,,,,,,,
null,,black_cross(without_color),697317,,blue,,,,null,GW/racine.png,GW/hanover.png,,,,,,,,,,,,,,,,,,
null,,rt_plussign_withcolor,697819,,blue,,,,null,GW/racine.png,GW/hanover.png,,,,,,,,,,,,,,,,,,
644.4000000953674,,rt_thecrossant_black,699306,,black_plus_sign,,,,49,,,1,0.9649122807017544,,,,,,,,,,,,,,,,
null,,color_black,699408,,black_plus_sign,,,,null,,,,,,,,,,,,,,,,,,,,
null,,learn_phase(without_color),702410,,black_plus_sign,,,,null,GW/cornwall.png,GW/newhope.png,,,,,,,,,,,,,,,,,,
null,,black_cross(without_color),703240,,blue,,,,null,GW/cornwall.png,GW/newhope.png,,,,,,,,,,,,,,,,,,
null,,rt_plussign_withcolor,703741,,blue,,,,null,GW/cornwall.png,GW/newhope.png,,,,,,,,,,,,,,,,,,
636.2999999523163,,rt_thecrossant_black,704916,,black_plus_sign,,,,49,,,1,0.9655172413793104,,,,,,,,,,,,,,,,
null,,color_black,705018,,black_plus_sign,,,,null,,,,,,,,,,,,,,,,,,,,
null,,learn_phase(without_color),708022,,black_plus_sign,,,,null,GW/hanover.png,GW/racine.png,,,,,,,,,,,,,,,,,,
null,,black_cross(without_color),708972,,yellow,,,,null,GW/hanover.png,GW/racine.png,,,,,,,,,,,,,,,,,,
null,,rt_plussign_withcolor,709474,,yellow,,,,null,GW/hanover.png,GW/racine.png,,,,,,,,,,,,,,,,,,
1048,,rt_thecrossant_black,710536,,black_plus_sign,,,,50,,,1,0.9661016949152542,,,,,,,,,,,,,,,,
null,,color_black,710638,,black_plus_sign,,,,null,,,,,,,,,,,,,,,,,,,,
null,,learn_phase(without_color),713641,,black_plus_sign,,,,null,GW/huntsville.png,GW/carmel.png,,,,,,,,,,,,,,,,,,
null,,black_cross(without_color),714596,,blue,,,,null,GW/huntsville.png,GW/carmel.png,,,,,,,,,,,,,,,,,,
null,,rt_plussign_withcolor,715097,,blue,,,,null,GW/huntsville.png,GW/carmel.png,,,,,,,,,,,,,,,,,,
1073.5,,rt_thecrossant_black,716147,,black_plus_sign,,,,49,,,1,0.9666666666666667,,,,,,,,,,,,,,,,
null,,color_black,716249,,black_plus_sign,,,,null,,,,,,,,,,,,,,,,,,,,
null,,learn_phase(without_color),719252,,black_plus_sign,,,,null,GW/cornwall.png,GW/newhope.png,,,,,,,,,,,,,,,,,,
null,,black_cross(without_color),719809,,yellow,,,,null,GW/cornwall.png,GW/newhope.png,,,,,,,,,,,,,,,,,,
386.40000009536743,,rt_plussign_withcolor,720310,,yellow,,,,50,GW/cornwall.png,GW/newhope.png,,,,,,,,,,,,,,,,,,
null,,rt_thecrossant_black,721757,,black_plus_sign,,,,null,,,1,0.9672131147540983,,,,,,,,,,,,,,,,
null,,color_black,721859,,black_plus_sign,,,,null,,,,,,,,,,,,,,,,,,,,
null,,learn_phase(without_color),724861,,black_plus_sign,,,,null,GW/racine.png,GW/hanover.png,,,,,,,,,,,,,,,,,,
null,,black_cross(without_color),725343,,blue,,,,null,GW/racine.png,GW/hanover.png,,,,,,,,,,,,,,,,,,
null,,rt_plussign_withcolor,725848,,blue,,,,null,GW/racine.png,GW/hanover.png,,,,,,,,,,,,,,,,,,
696.3999998569489,,rt_thecrossant_black,727370,,black_plus_sign,,,,49,,,1,0.967741935483871,,,,,,,,,,,,,,,,
null,,color_black,727472,,black_plus_sign,,,,null,,,,,,,,,,,,,,,,,,,,
null,,learn_phase(without_color),730474,,black_plus_sign,,,,null,GW/westpalmbeach.png,GW/hotsprings.png,,,,,,,,,,,,,,,,,,
null,,black_cross(without_color),731381,,blue,,,,null,GW/westpalmbeach.png,GW/hotsprings.png,,,,,,,,,,,,,,,,,,
null,,rt_plussign_withcolor,731883,,blue,,,,null,GW/westpalmbeach.png,GW/hotsprings.png,,,,,,,,,,,,,,,,,,
635.2000000476837,,rt_thecrossant_black,732981,,black_plus_sign,,,,49,,,1,0.9682539682539683,,,,,,,,,,,,,,,,
null,,color_black,733083,,black_plus_sign,,,,null,,,,,,,,,,,,,,,,,,,,
null,,learn_phase(without_color),736085,,black_plus_sign,,,,null,GW/carmel.png,GW/huntsville.png,,,,,,,,,,,,,,,,,,
null,,black_cross(without_color),737087,,yellow,,,,null,GW/carmel.png,GW/huntsville.png,,,,,,,,,,,,,,,,,,
null,,rt_plussign_withcolor,737588,,yellow,,,,null,GW/carmel.png,GW/huntsville.png,,,,,,,,,,,,,,,,,,
1466.7999999523163,,rt_thecrossant_black,738592,,black_plus_sign,,,,50,,,1,0.96875,,,,,,,,,,,,,,,,
null,,color_black,738694,,black_plus_sign,,,,null,,,,,,,,,,,,,,,,,,,,
null,,learn_break,798697,,learn_break,,,,null,,,,,,,,,,,,,,,,,,,,
null,,html-keyboard-response,799698,,<p></p>,,,,null,,,,,,,,,,,,,,,,,,,,
null,,learn_phase(without_color),802700,,black_plus_sign,,,,null,GW/cornwall.png,GW/peoria.png,,,,,,,,,,,,,,,,,,
null,,black_cross(without_color),803117,,yellow,,,,null,GW/cornwall.png,GW/peoria.png,,,,,,,,,,,,,,,,,,
null,,rt_plussign_withcolor,803619,,yellow,,,,null,GW/cornwall.png,GW/peoria.png,,,,,,,,,,,,,,,,,,
1442.5999999046326,,rt_thecrossant_black,805206,,black_plus_sign,,,,50,,,1,0.9692307692307692,,,,,,,,,,,,,,,,
null,,color_black,805308,,black_plus_sign,,,,null,,,,,,,,,,,,,,,,,,,,
null,,learn_phase(without_color),808311,,black_plus_sign,,,,null,GW/westpalmbeach.png,GW/hanover.png,,,,,,,,,,,,,,,,,,
null,,black_cross(without_color),809137,,blue,,,,null,GW/westpalmbeach.png,GW/hanover.png,,,,,,,,,,,,,,,,,,
null,,rt_plussign_withcolor,809639,,blue,,,,null,GW/westpalmbeach.png,GW/hanover.png,,,,,,,,,,,,,,,,,,
590.2999999523163,,rt_thecrossant_black,810818,,black_plus_sign,,,,49,,,1,0.9696969696969697,,,,,,,,,,,,,,,,
null,,color_black,810920,,black_plus_sign,,,,null,,,,,,,,,,,,,,,,,,,,
null,,learn_phase(without_color),813922,,black_plus_sign,,,,null,GW/cornwall.png,GW/peoria.png,,,,,,,,,,,,,,,,,,
null,,black_cross(without_color),814857,,yellow,,,,null,GW/cornwall.png,GW/peoria.png,,,,,,,,,,,,,,,,,,
450.2999999523163,,rt_plussign_withcolor,815358,,yellow,,,,50,GW/cornwall.png,GW/peoria.png,,,,,,,,,,,,,,,,,,
null,,rt_thecrossant_black,816427,,black_plus_sign,,,,null,,,1,0.9701492537313433,,,,,,,,,,,,,,,,
null,,color_black,816530,,black_plus_sign,,,,null,,,,,,,,,,,,,,,,,,,,
null,,learn_phase(without_color),819533,,black_plus_sign,,,,null,GW/huntsville.png,GW/boulder.png,,,,,,,,,,,,,,,,,,
null,,black_cross(without_color),820167,,blue,,,,null,GW/huntsville.png,GW/boulder.png,,,,,,,,,,,,,,,,,,
null,,rt_plussign_withcolor,820668,,blue,,,,null,GW/huntsville.png,GW/boulder.png,,,,,,,,,,,,,,,,,,
1189.2999999523163,,rt_thecrossant_black,822038,,black_plus_sign,,,,49,,,1,0.9705882352941176,,,,,,,,,,,,,,,,
null,,color_black,822140,,black_plus_sign,,,,null,,,,,,,,,,,,,,,,,,,,
null,,learn_phase(without_color),825143,,black_plus_sign,,,,null,GW/gatlinburg.png,GW/carmel.png,,,,,,,,,,,,,,,,,,
null,,black_cross(without_color),825560,,yellow,,,,null,GW/gatlinburg.png,GW/carmel.png,,,,,,,,,,,,,,,,,,
null,,rt_plussign_withcolor,826062,,yellow,,,,null,GW/gatlinburg.png,GW/carmel.png,,,,,,,,,,,,,,,,,,
1000.2000000476837,,rt_thecrossant_black,827654,,black_plus_sign,,,,50,,,1,0.9710144927536232,,,,,,,,,,,,,,,,
null,,color_black,827757,,black_plus_sign,,,,null,,,,,,,,,,,,,,,,,,,,
null,,learn_phase(without_color),830759,,black_plus_sign,,,,null,GW/peoria.png,GW/cornwall.png,,,,,,,,,,,,,,,,,,
null,,black_cross(without_color),831559,,yellow,,,,null,GW/peoria.png,GW/cornwall.png,,,,,,,,,,,,,,,,,,
null,,rt_plussign_withcolor,832061,,yellow,,,,null,GW/peoria.png,GW/cornwall.png,,,,,,,,,,,,,,,,,,
795.7999999523163,,rt_thecrossant_black,833266,,black_plus_sign,,,,50,,,1,0.9714285714285714,,,,,,,,,,,,,,,,
null,,color_black,833368,,black_plus_sign,,,,null,,,,,,,,,,,,,,,,,,,,
null,,learn_phase(without_color),836371,,black_plus_sign,,,,null,GW/carmel.png,GW/gatlinburg.png,,,,,,,,,,,,,,,,,,
null,,black_cross(without_color),837406,,yellow,,,,null,GW/carmel.png,GW/gatlinburg.png,,,,,,,,,,,,,,,,,,
null,,rt_plussign_withcolor,837908,,yellow,,,,null,GW/carmel.png,GW/gatlinburg.png,,,,,,,,,,,,,,,,,,
991.1999998092651,,rt_thecrossant_black,838877,,black_plus_sign,,,,50,,,1,0.971830985915493,,,,,,,,,,,,,,,,
null,,color_black,838979,,black_plus_sign,,,,null,,,,,,,,,,,,,,,,,,,,
null,,learn_phase(without_color),841981,,black_plus_sign,,,,null,GW/peoria.png,GW/cornwall.png,,,,,,,,,,,,,,,,,,
null,,black_cross(without_color),842565,,yellow,,,,null,GW/peoria.png,GW/cornwall.png,,,,,,,,,,,,,,,,,,
461.59999990463257,,rt_plussign_withcolor,843066,,yellow,,,,50,GW/peoria.png,GW/cornwall.png,,,,,,,,,,,,,,,,,,
null,,rt_thecrossant_black,844487,,black_plus_sign,,,,null,,,1,0.9722222222222222,,,,,,,,,,,,,,,,
null,,color_black,844589,,black_plus_sign,,,,null,,,,,,,,,,,,,,,,,,,,
null,,learn_phase(without_color),847592,,black_plus_sign,,,,null,GW/boulder.png,GW/huntsville.png,,,,,,,,,,,,,,,,,,
null,,black_cross(without_color),848045,,blue,,,,null,GW/boulder.png,GW/huntsville.png,,,,,,,,,,,,,,,,,,
null,,rt_plussign_withcolor,848547,,blue,,,,null,GW/boulder.png,GW/huntsville.png,,,,,,,,,,,,,,,,,,
792.0999999046326,,rt_thecrossant_black,850099,,black_plus_sign,,,,49,,,1,0.9726027397260274,,,,,,,,,,,,,,,,
null,,color_black,850201,,black_plus_sign,,,,null,,,,,,,,,,,,,,,,,,,,
null,,learn_phase(without_color),853204,,black_plus_sign,,,,null,GW/gatlinburg.png,GW/carmel.png,,,,,,,,,,,,,,,,,,
null,,black_cross(without_color),854074,,blue,,,,null,GW/gatlinburg.png,GW/carmel.png,,,,,,,,,,,,,,,,,,
null,,rt_plussign_withcolor,854576,,blue,,,,null,GW/gatlinburg.png,GW/carmel.png,,,,,,,,,,,,,,,,,,
920.9000000953674,,rt_thecrossant_black,855710,,black_plus_sign,,,,49,,,1,0.972972972972973,,,,,,,,,,,,,,,,
null,,color_black,855824,,black_plus_sign,,,,null,,,,,,,,,,,,,,,,,,,,
null,,learn_phase(without_color),858827,,black_plus_sign,,,,null,GW/hanover.png,GW/westpalmbeach.png,,,,,,,,,,,,,,,,,,
null,,black_cross(without_color),859323,,blue,,,,null,GW/hanover.png,GW/westpalmbeach.png,,,,,,,,,,,,,,,,,,
null,,rt_plussign_withcolor,859825,,blue,,,,null,GW/hanover.png,GW/westpalmbeach.png,,,,,,,,,,,,,,,,,,
1241,,rt_thecrossant_black,861333,,black_plus_sign,,,,49,,,1,0.9733333333333334,,,,,,,,,,,,,,,,
null,,color_black,861434,,black_plus_sign,,,,null,,,,,,,,,,,,,,,,,,,,
null,,learn_phase(without_color),864436,,black_plus_sign,,,,null,GW/huntsville.png,GW/boulder.png,,,,,,,,,,,,,,,,,,
null,,black_cross(without_color),865057,,yellow,,,,null,GW/huntsville.png,GW/boulder.png,,,,,,,,,,,,,,,,,,
null,,rt_plussign_withcolor,865559,,yellow,,,,null,GW/huntsville.png,GW/boulder.png,,,,,,,,,,,,,,,,,,
797,,rt_thecrossant_black,866942,,black_plus_sign,,,,50,,,1,0.9736842105263158,,,,,,,,,,,,,,,,
null,,color_black,867044,,black_plus_sign,,,,null,,,,,,,,,,,,,,,,,,,,
null,,learn_phase(without_color),870048,,black_plus_sign,,,,null,GW/gatlinburg.png,GW/carmel.png,,,,,,,,,,,,,,,,,,
null,,black_cross(without_color),870778,,blue,,,,null,GW/gatlinburg.png,GW/carmel.png,,,,,,,,,,,,,,,,,,
null,,rt_plussign_withcolor,871280,,blue,,,,null,GW/gatlinburg.png,GW/carmel.png,,,,,,,,,,,,,,,,,,
761.0999999046326,,rt_thecrossant_black,872553,,black_plus_sign,,,,49,,,1,0.974025974025974,,,,,,,,,,,,,,,,
null,,color_black,872655,,black_plus_sign,,,,null,,,,,,,,,,,,,,,,,,,,
null,,learn_phase(without_color),875659,,black_plus_sign,,,,null,GW/hanover.png,GW/westpalmbeach.png,,,,,,,,,,,,,,,,,,
null,,black_cross(without_color),876532,,yellow,,,,null,GW/hanover.png,GW/westpalmbeach.png,,,,,,,,,,,,,,,,,,
486.5,,rt_plussign_withcolor,877034,,yellow,,,,50,GW/hanover.png,GW/westpalmbeach.png,,,,,,,,,,,,,,,,,,
null,,rt_thecrossant_black,878165,,black_plus_sign,,,,null,,,1,0.9743589743589743,,,,,,,,,,,,,,,,
null,,color_black,878267,,black_plus_sign,,,,null,,,,,,,,,,,,,,,,,,,,
null,,learn_phase(without_color),881269,,black_plus_sign,,,,null,GW/huntsville.png,GW/boulder.png,,,,,,,,,,,,,,,,,,
null,,black_cross(without_color),881841,,blue,,,,null,GW/huntsville.png,GW/boulder.png,,,,,,,,,,,,,,,,,,
489.7000000476837,,rt_plussign_withcolor,882342,,blue,,,,49,GW/huntsville.png,GW/boulder.png,,,,,,,,,,,,,,,,,,
null,,rt_thecrossant_black,883775,,black_plus_sign,,,,null,,,1,0.9746835443037974,,,,,,,,,,,,,,,,
null,,color_black,883878,,black_plus_sign,,,,null,,,,,,,,,,,,,,,,,,,,
null,,learn_phase(without_color),886881,,black_plus_sign,,,,null,GW/westpalmbeach.png,GW/hanover.png,,,,,,,,,,,,,,,,,,
null,,black_cross(without_color),887838,,yellow,,,,null,GW/westpalmbeach.png,GW/hanover.png,,,,,,,,,,,,,,,,,,
null,,rt_plussign_withcolor,888340,,yellow,,,,null,GW/westpalmbeach.png,GW/hanover.png,,,,,,,,,,,,,,,,,,
818.6999998092651,,rt_thecrossant_black,889388,,black_plus_sign,,,,50,,,1,0.975,,,,,,,,,,,,,,,,
null,,color_black,889490,,black_plus_sign,,,,null,,,,,,,,,,,,,,,,,,,,
null,,learn_phase(without_color),892492,,black_plus_sign,,,,null,GW/huntsville.png,GW/boulder.png,,,,,,,,,,,,,,,,,,
null,,black_cross(without_color),893226,,yellow,,,,null,GW/huntsville.png,GW/boulder.png,,,,,,,,,,,,,,,,,,
440.09999990463257,,rt_plussign_withcolor,893728,,yellow,,,,50,GW/huntsville.png,GW/boulder.png,,,,,,,,,,,,,,,,,,
null,,rt_thecrossant_black,894999,,black_plus_sign,,,,null,,,1,0.9753086419753086,,,,,,,,,,,,,,,,
null,,color_black,895101,,black_plus_sign,,,,null,,,,,,,,,,,,,,,,,,,,
null,,learn_phase(without_color),898104,,black_plus_sign,,,,null,GW/cornwall.png,GW/peoria.png,,,,,,,,,,,,,,,,,,
null,,black_cross(without_color),899079,,yellow,,,,null,GW/cornwall.png,GW/peoria.png,,,,,,,,,,,,,,,,,,
null,,rt_plussign_withcolor,899580,,yellow,,,,null,GW/cornwall.png,GW/peoria.png,,,,,,,,,,,,,,,,,,
837.5,,rt_thecrossant_black,900609,,black_plus_sign,,,,50,,,1,0.975609756097561,,,,,,,,,,,,,,,,
null,,color_black,900711,,black_plus_sign,,,,null,,,,,,,,,,,,,,,,,,,,
null,,learn_phase(without_color),903714,,black_plus_sign,,,,null,GW/carmel.png,GW/gatlinburg.png,,,,,,,,,,,,,,,,,,
null,,black_cross(without_color),904457,,blue,,,,null,GW/carmel.png,GW/gatlinburg.png,,,,,,,,,,,,,,,,,,
null,,rt_plussign_withcolor,904960,,blue,,,,null,GW/carmel.png,GW/gatlinburg.png,,,,,,,,,,,,,,,,,,
1155.2999999523163,,rt_thecrossant_black,906222,,black_plus_sign,,,,49,,,1,0.9759036144578314,,,,,,,,,,,,,,,,
null,,color_black,906325,,black_plus_sign,,,,null,,,,,,,,,,,,,,,,,,,,
null,,learn_phase(without_color),909327,,black_plus_sign,,,,null,GW/peoria.png,GW/cornwall.png,,,,,,,,,,,,,,,,,,
null,,black_cross(without_color),910109,,yellow,,,,null,GW/peoria.png,GW/cornwall.png,,,,,,,,,,,,,,,,,,
null,,rt_plussign_withcolor,910611,,yellow,,,,null,GW/peoria.png,GW/cornwall.png,,,,,,,,,,,,,,,,,,
974.5,,rt_thecrossant_black,911833,,black_plus_sign,,,,50,,,1,0.9761904761904762,,,,,,,,,,,,,,,,
null,,color_black,911936,,black_plus_sign,,,,null,,,,,,,,,,,,,,,,,,,,
null,,learn_phase(without_color),914938,,black_plus_sign,,,,null,GW/huntsville.png,GW/boulder.png,,,,,,,,,,,,,,,,,,
null,,black_cross(without_color),915760,,blue,,,,null,GW/huntsville.png,GW/boulder.png,,,,,,,,,,,,,,,,,,
null,,rt_plussign_withcolor,916261,,blue,,,,null,GW/huntsville.png,GW/boulder.png,,,,,,,,,,,,,,,,,,
909.1000001430511,,rt_thecrossant_black,917444,,black_plus_sign,,,,49,,,1,0.9764705882352941,,,,,,,,,,,,,,,,
null,,color_black,917546,,black_plus_sign,,,,null,,,,,,,,,,,,,,,,,,,,
null,,learn_phase(without_color),920550,,black_plus_sign,,,,null,GW/carmel.png,GW/gatlinburg.png,,,,,,,,,,,,,,,,,,
null,,black_cross(without_color),921316,,blue,,,,null,GW/carmel.png,GW/gatlinburg.png,,,,,,,,,,,,,,,,,,
null,,rt_plussign_withcolor,921818,,blue,,,,null,GW/carmel.png,GW/gatlinburg.png,,,,,,,,,,,,,,,,,,
1726.3000001907349,,rt_thecrossant_black,923056,,black_plus_sign,,,,49,,,1,0.9767441860465116,,,,,,,,,,,,,,,,
null,,color_black,923158,,black_plus_sign,,,,null,,,,,,,,,,,,,,,,,,,,
null,,learn_phase(without_color),926161,,black_plus_sign,,,,null,GW/hanover.png,GW/westpalmbeach.png,,,,,,,,,,,,,,,,,,
null,,black_cross(without_color),926864,,yellow,,,,null,GW/hanover.png,GW/westpalmbeach.png,,,,,,,,,,,,,,,,,,
426.59999990463257,,rt_plussign_withcolor,927365,,yellow,,,,50,GW/hanover.png,GW/westpalmbeach.png,,,,,,,,,,,,,,,,,,
null,,rt_thecrossant_black,928665,,black_plus_sign,,,,null,,,1,0.9770114942528736,,,,,,,,,,,,,,,,
null,,color_black,928767,,black_plus_sign,,,,null,,,,,,,,,,,,,,,,,,,,
null,,learn_phase(without_color),931771,,black_plus_sign,,,,null,GW/peoria.png,GW/cornwall.png,,,,,,,,,,,,,,,,,,
null,,black_cross(without_color),932725,,blue,,,,null,GW/peoria.png,GW/cornwall.png,,,,,,,,,,,,,,,,,,
null,,rt_plussign_withcolor,933227,,blue,,,,null,GW/peoria.png,GW/cornwall.png,,,,,,,,,,,,,,,,,,
991.5,,rt_thecrossant_black,934276,,black_plus_sign,,,,49,,,1,0.9772727272727273,,,,,,,,,,,,,,,,
null,,color_black,934378,,black_plus_sign,,,,null,,,,,,,,,,,,,,,,,,,,
null,,learn_phase(without_color),937381,,black_plus_sign,,,,null,GW/westpalmbeach.png,GW/hanover.png,,,,,,,,,,,,,,,,,,
null,,black_cross(without_color),937992,,blue,,,,null,GW/westpalmbeach.png,GW/hanover.png,,,,,,,,,,,,,,,,,,
null,,rt_plussign_withcolor,938493,,blue,,,,null,GW/westpalmbeach.png,GW/hanover.png,,,,,,,,,,,,,,,,,,
1841.2999999523163,,rt_thecrossant_black,939886,,black_plus_sign,,,,49,,,1,0.9775280898876404,,,,,,,,,,,,,,,,
null,,color_black,939989,,black_plus_sign,,,,null,,,,,,,,,,,,,,,,,,,,
null,,learn_phase(without_color),942993,,black_plus_sign,,,,null,GW/gatlinburg.png,GW/carmel.png,,,,,,,,,,,,,,,,,,
null,,black_cross(without_color),943651,,yellow,,,,null,GW/gatlinburg.png,GW/carmel.png,,,,,,,,,,,,,,,,,,
430.90000009536743,,rt_plussign_withcolor,944153,,yellow,,,,50,GW/gatlinburg.png,GW/carmel.png,,,,,,,,,,,,,,,,,,
null,,rt_thecrossant_black,945500,,black_plus_sign,,,,null,,,1,0.9777777777777777,,,,,,,,,,,,,,,,
null,,color_black,945611,,black_plus_sign,,,,null,,,,,,,,,,,,,,,,,,,,
null,,learn_phase(without_color),948614,,black_plus_sign,,,,null,GW/peoria.png,GW/cornwall.png,,,,,,,,,,,,,,,,,,
null,,black_cross(without_color),949091,,blue,,,,null,GW/peoria.png,GW/cornwall.png,,,,,,,,,,,,,,,,,,
null,,rt_plussign_withcolor,949593,,blue,,,,null,GW/peoria.png,GW/cornwall.png,,,,,,,,,,,,,,,,,,
860.8999998569489,,rt_thecrossant_black,951124,,black_plus_sign,,,,49,,,1,0.978021978021978,,,,,,,,,,,,,,,,
null,,color_black,951226,,black_plus_sign,,,,null,,,,,,,,,,,,,,,,,,,,
null,,learn_phase(without_color),954229,,black_plus_sign,,,,null,GW/westpalmbeach.png,GW/hanover.png,,,,,,,,,,,,,,,,,,
null,,black_cross(without_color),954798,,yellow,,,,null,GW/westpalmbeach.png,GW/hanover.png,,,,,,,,,,,,,,,,,,
null,,rt_plussign_withcolor,955299,,yellow,,,,null,GW/westpalmbeach.png,GW/hanover.png,,,,,,,,,,,,,,,,,,
576.8000001907349,,rt_thecrossant_black,956745,,black_plus_sign,,,,50,,,1,0.9782608695652174,,,,,,,,,,,,,,,,
null,,color_black,956848,,black_plus_sign,,,,null,,,,,,,,,,,,,,,,,,,,
null,,learn_phase(without_color),959852,,black_plus_sign,,,,null,GW/boulder.png,GW/huntsville.png,,,,,,,,,,,,,,,,,,
null,,black_cross(without_color),960416,,yellow,,,,null,GW/boulder.png,GW/huntsville.png,,,,,,,,,,,,,,,,,,
null,,rt_plussign_withcolor,960918,,yellow,,,,null,GW/boulder.png,GW/huntsville.png,,,,,,,,,,,,,,,,,,
964,,rt_thecrossant_black,962373,,black_plus_sign,,,,50,,,1,0.978494623655914,,,,,,,,,,,,,,,,
null,,color_black,962475,,black_plus_sign,,,,null,,,,,,,,,,,,,,,,,,,,
null,,learn_phase(without_color),965479,,black_plus_sign,,,,null,GW/hanover.png,GW/westpalmbeach.png,,,,,,,,,,,,,,,,,,
null,,black_cross(without_color),966292,,yellow,,,,null,GW/hanover.png,GW/westpalmbeach.png,,,,,,,,,,,,,,,,,,
null,,rt_plussign_withcolor,966793,,yellow,,,,null,GW/hanover.png,GW/westpalmbeach.png,,,,,,,,,,,,,,,,,,
862.8999998569489,,rt_thecrossant_black,967986,,black_plus_sign,,,,50,,,1,0.9787234042553191,,,,,,,,,,,,,,,,
null,,color_black,968089,,black_plus_sign,,,,null,,,,,,,,,,,,,,,,,,,,
null,,learn_phase(without_color),971093,,black_plus_sign,,,,null,GW/boulder.png,GW/huntsville.png,,,,,,,,,,,,,,,,,,
null,,black_cross(without_color),971814,,blue,,,,null,GW/boulder.png,GW/huntsville.png,,,,,,,,,,,,,,,,,,
null,,rt_plussign_withcolor,972316,,blue,,,,null,GW/boulder.png,GW/huntsville.png,,,,,,,,,,,,,,,,,,
1100.1000001430511,,rt_thecrossant_black,973599,,black_plus_sign,,,,49,,,1,0.9789473684210527,,,,,,,,,,,,,,,,
null,,color_black,973702,,black_plus_sign,,,,null,,,,,,,,,,,,,,,,,,,,
null,,learn_phase(without_color),976705,,black_plus_sign,,,,null,GW/carmel.png,GW/gatlinburg.png,,,,,,,,,,,,,,,,,,
null,,black_cross(without_color),977429,,yellow,,,,null,GW/carmel.png,GW/gatlinburg.png,,,,,,,,,,,,,,,,,,
null,,rt_plussign_withcolor,977930,,yellow,,,,null,GW/carmel.png,GW/gatlinburg.png,,,,,,,,,,,,,,,,,,
1001.8999998569489,,rt_thecrossant_black,979211,,black_plus_sign,,,,50,,,1,0.9791666666666666,,,,,,,,,,,,,,,,
null,,color_black,979313,,black_plus_sign,,,,null,,,,,,,,,,,,,,,,,,,,
null,,learn_phase(without_color),982316,,black_plus_sign,,,,null,GW/hanover.png,GW/gatlinburg.png,,,,,,,,,,,,,,,,,,
null,,black_cross(without_color),983191,,yellow,,,,null,GW/hanover.png,GW/gatlinburg.png,,,,,,,,,,,,,,,,,,
null,,rt_plussign_withcolor,983694,,yellow,,,,null,GW/hanover.png,GW/gatlinburg.png,,,,,,,,,,,,,,,,,,
850.2000000476837,,rt_thecrossant_black,984823,,black_plus_sign,,,,50,,,1,0.979381443298969,,,,,,,,,,,,,,,,
null,,color_black,984926,,black_plus_sign,,,,null,,,,,,,,,,,,,,,,,,,,
null,,learn_phase(without_color),987929,,black_plus_sign,,,,null,GW/newhope.png,GW/westpalmbeach.png,,,,,,,,,,,,,,,,,,
null,,black_cross(without_color),988371,,yellow,,,,null,GW/newhope.png,GW/westpalmbeach.png,,,,,,,,,,,,,,,,,,
null,,rt_plussign_withcolor,988873,,yellow,,,,null,GW/newhope.png,GW/westpalmbeach.png,,,,,,,,,,,,,,,,,,
1157.3000001907349,,rt_thecrossant_black,990434,,black_plus_sign,,,,50,,,1,0.9795918367346939,,,,,,,,,,,,,,,,
null,,color_black,990537,,black_plus_sign,,,,null,,,,,,,,,,,,,,,,,,,,
null,,learn_phase(without_color),993539,,black_plus_sign,,,,null,GW/hotsprings.png,GW/leesburg.png,,,,,,,,,,,,,,,,,,
null,,black_cross(without_color),994113,,yellow,,,,null,GW/hotsprings.png,GW/leesburg.png,,,,,,,,,,,,,,,,,,
457.60000014305115,,rt_plussign_withcolor,994615,,yellow,,,,50,GW/hotsprings.png,GW/leesburg.png,,,,,,,,,,,,,,,,,,
null,,rt_thecrossant_black,996046,,black_plus_sign,,,,null,,,1,0.9797979797979798,,,,,,,,,,,,,,,,
null,,color_black,996149,,black_plus_sign,,,,null,,,,,,,,,,,,,,,,,,,,
null,,learn_phase(without_color),999152,,black_plus_sign,,,,null,GW/peoria.png,GW/shreveport.png,,,,,,,,,,,,,,,,,,
null,,black_cross(without_color),999984,,yellow,,,,null,GW/peoria.png,GW/shreveport.png,,,,,,,,,,,,,,,,,,
null,,rt_plussign_withcolor,1000486,,yellow,,,,null,GW/peoria.png,GW/shreveport.png,,,,,,,,,,,,,,,,,,
690.4000000953674,,rt_thecrossant_black,1001657,,black_plus_sign,,,,50,,,1,0.98,,,,,,,,,,,,,,,,
null,,color_black,1001759,,black_plus_sign,,,,null,,,,,,,,,,,,,,,,,,,,
null,,learn_phase(without_color),1004763,,black_plus_sign,,,,null,GW/westpalmbeach.png,GW/newhope.png,,,,,,,,,,,,,,,,,,
null,,black_cross(without_color),1005602,,blue,,,,null,GW/westpalmbeach.png,GW/newhope.png,,,,,,,,,,,,,,,,,,
null,,rt_plussign_withcolor,1006105,,blue,,,,null,GW/westpalmbeach.png,GW/newhope.png,,,,,,,,,,,,,,,,,,
987.9000000953674,,rt_thecrossant_black,1007269,,black_plus_sign,,,,49,,,1,0.9801980198019802,,,,,,,,,,,,,,,,
null,,color_black,1007371,,black_plus_sign,,,,null,,,,,,,,,,,,,,,,,,,,
null,,learn_phase(without_color),1010373,,black_plus_sign,,,,null,GW/leesburg.png,GW/hotsprings.png,,,,,,,,,,,,,,,,,,
null,,black_cross(without_color),1011416,,blue,,,,null,GW/leesburg.png,GW/hotsprings.png,,,,,,,,,,,,,,,,,,
null,,rt_plussign_withcolor,1011918,,blue,,,,null,GW/leesburg.png,GW/hotsprings.png,,,,,,,,,,,,,,,,,,
1061.2999999523163,,rt_thecrossant_black,1012879,,black_plus_sign,,,,49,,,1,0.9803921568627451,,,,,,,,,,,,,,,,
null,,color_black,1012981,,black_plus_sign,,,,null,,,,,,,,,,,,,,,,,,,,
null,,learn_phase(without_color),1015984,,black_plus_sign,,,,null,GW/hanover.png,GW/gatlinburg.png,,,,,,,,,,,,,,,,,,
null,,black_cross(without_color),1016531,,yellow,,,,null,GW/hanover.png,GW/gatlinburg.png,,,,,,,,,,,,,,,,,,
null,,rt_plussign_withcolor,1017034,,yellow,,,,null,GW/hanover.png,GW/gatlinburg.png,,,,,,,,,,,,,,,,,,
1300.9000000953674,,rt_thecrossant_black,1018492,,black_plus_sign,,,,50,,,1,0.9805825242718447,,,,,,,,,,,,,,,,
null,,color_black,1018593,,black_plus_sign,,,,null,,,,,,,,,,,,,,,,,,,,
null,,learn_phase(without_color),1021596,,black_plus_sign,,,,null,GW/westpalmbeach.png,GW/newhope.png,,,,,,,,,,,,,,,,,,
null,,black_cross(without_color),1022045,,yellow,,,,null,GW/westpalmbeach.png,GW/newhope.png,,,,,,,,,,,,,,,,,,
null,,rt_plussign_withcolor,1022558,,yellow,,,,null,GW/westpalmbeach.png,GW/newhope.png,,,,,,,,,,,,,,,,,,
1112.2000000476837,,rt_thecrossant_black,1024113,,black_plus_sign,,,,50,,,1,0.9807692307692307,,,,,,,,,,,,,,,,
null,,color_black,1024216,,black_plus_sign,,,,null,,,,,,,,,,,,,,,,,,,,
null,,learn_phase(without_color),1027219,,black_plus_sign,,,,null,GW/peoria.png,GW/shreveport.png,,,,,,,,,,,,,,,,,,
null,,black_cross(without_color),1028039,,blue,,,,null,GW/peoria.png,GW/shreveport.png,,,,,,,,,,,,,,,,,,
null,,rt_plussign_withcolor,1028541,,blue,,,,null,GW/peoria.png,GW/shreveport.png,,,,,,,,,,,,,,,,,,
591.5,,rt_thecrossant_black,1029725,,black_plus_sign,,,,49,,,1,0.9809523809523809,,,,,,,,,,,,,,,,
null,,color_black,1029828,,black_plus_sign,,,,null,,,,,,,,,,,,,,,,,,,,
null,,learn_phase(without_color),1032831,,black_plus_sign,,,,null,GW/hanover.png,GW/gatlinburg.png,,,,,,,,,,,,,,,,,,
null,,black_cross(without_color),1033683,,yellow,,,,null,GW/hanover.png,GW/gatlinburg.png,,,,,,,,,,,,,,,,,,
null,,rt_plussign_withcolor,1034185,,yellow,,,,null,GW/hanover.png,GW/gatlinburg.png,,,,,,,,,,,,,,,,,,
1422.1999998092651,,rt_thecrossant_black,1035337,,black_plus_sign,,,,50,,,1,0.9811320754716981,,,,,,,,,,,,,,,,
null,,color_black,1035439,,black_plus_sign,,,,null,,,,,,,,,,,,,,,,,,,,
null,,learn_phase(without_color),1038442,,black_plus_sign,,,,null,GW/hotsprings.png,GW/leesburg.png,,,,,,,,,,,,,,,,,,
null,,black_cross(without_color),1039465,,blue,,,,null,GW/hotsprings.png,GW/leesburg.png,,,,,,,,,,,,,,,,,,
null,,rt_plussign_withcolor,1039967,,blue,,,,null,GW/hotsprings.png,GW/leesburg.png,,,,,,,,,,,,,,,,,,
1016.8999998569489,,rt_thecrossant_black,1040949,,black_plus_sign,,,,49,,,1,0.9813084112149533,,,,,,,,,,,,,,,,
null,,color_black,1041051,,black_plus_sign,,,,null,,,,,,,,,,,,,,,,,,,,
null,,learn_phase(without_color),1044055,,black_plus_sign,,,,null,GW/peoria.png,GW/shreveport.png,,,,,,,,,,,,,,,,,,
null,,black_cross(without_color),1045028,,blue,,,,null,GW/peoria.png,GW/shreveport.png,,,,,,,,,,,,,,,,,,
null,,rt_plussign_withcolor,1045530,,blue,,,,null,GW/peoria.png,GW/shreveport.png,,,,,,,,,,,,,,,,,,
1784.1999998092651,,rt_thecrossant_black,1046563,,black_plus_sign,,,,49,,,1,0.9814814814814815,,,,,,,,,,,,,,,,
null,,color_black,1046665,,black_plus_sign,,,,null,,,,,,,,,,,,,,,,,,,,
null,,learn_phase(without_color),1049669,,black_plus_sign,,,,null,GW/gatlinburg.png,GW/hanover.png,,,,,,,,,,,,,,,,,,
null,,black_cross(without_color),1050739,,blue,,,,null,GW/gatlinburg.png,GW/hanover.png,,,,,,,,,,,,,,,,,,
null,,rt_plussign_withcolor,1051240,,blue,,,,null,GW/gatlinburg.png,GW/hanover.png,,,,,,,,,,,,,,,,,,
1199.5999999046326,,rt_thecrossant_black,1052181,,black_plus_sign,,,,49,,,1,0.981651376146789,,,,,,,,,,,,,,,,
null,,color_black,1052283,,black_plus_sign,,,,null,,,,,,,,,,,,,,,,,,,,
null,,learn_phase(without_color),1055286,,black_plus_sign,,,,null,GW/hotsprings.png,GW/leesburg.png,,,,,,,,,,,,,,,,,,
null,,black_cross(without_color),1056378,,blue,,,,null,GW/hotsprings.png,GW/leesburg.png,,,,,,,,,,,,,,,,,,
null,,rt_plussign_withcolor,1056880,,blue,,,,null,GW/hotsprings.png,GW/leesburg.png,,,,,,,,,,,,,,,,,,
1264.7999999523163,,rt_thecrossant_black,1057793,,black_plus_sign,,,,49,,,1,0.9818181818181818,,,,,,,,,,,,,,,,
null,,color_black,1057895,,black_plus_sign,,,,null,,,,,,,,,,,,,,,,,,,,
null,,learn_phase(without_color),1060897,,black_plus_sign,,,,null,GW/newhope.png,GW/westpalmbeach.png,,,,,,,,,,,,,,,,,,
null,,black_cross(without_color),1061655,,blue,,,,null,GW/newhope.png,GW/westpalmbeach.png,,,,,,,,,,,,,,,,,,
null,,rt_plussign_withcolor,1062157,,blue,,,,null,GW/newhope.png,GW/westpalmbeach.png,,,,,,,,,,,,,,,,,,
1273.2000000476837,,rt_thecrossant_black,1063404,,black_plus_sign,,,,49,,,1,0.9819819819819819,,,,,,,,,,,,,,,,
null,,color_black,1063506,,black_plus_sign,,,,null,,,,,,,,,,,,,,,,,,,,
null,,learn_phase(without_color),1066510,,black_plus_sign,,,,null,GW/hotsprings.png,GW/leesburg.png,,,,,,,,,,,,,,,,,,
null,,black_cross(without_color),1067038,,yellow,,,,null,GW/hotsprings.png,GW/leesburg.png,,,,,,,,,,,,,,,,,,
443.39999985694885,,rt_plussign_withcolor,1067541,,yellow,,,,50,GW/hotsprings.png,GW/leesburg.png,,,,,,,,,,,,,,,,,,
null,,rt_thecrossant_black,1069021,,black_plus_sign,,,,null,,,1,0.9821428571428571,,,,,,,,,,,,,,,,
null,,color_black,1069124,,black_plus_sign,,,,null,,,,,,,,,,,,,,,,,,,,
null,,learn_phase(without_color),1072127,,black_plus_sign,,,,null,GW/peoria.png,GW/shreveport.png,,,,,,,,,,,,,,,,,,
null,,black_cross(without_color),1072625,,yellow,,,,null,GW/peoria.png,GW/shreveport.png,,,,,,,,,,,,,,,,,,
null,,rt_plussign_withcolor,1073127,,yellow,,,,null,GW/peoria.png,GW/shreveport.png,,,,,,,,,,,,,,,,,,
655.0999999046326,,rt_thecrossant_black,1074634,,black_plus_sign,,,,50,,,1,0.9823008849557522,,,,,,,,,,,,,,,,
null,,color_black,1074736,,black_plus_sign,,,,null,,,,,,,,,,,,,,,,,,,,
null,,learn_phase(without_color),1077740,,black_plus_sign,,,,null,GW/leesburg.png,GW/hotsprings.png,,,,,,,,,,,,,,,,,,
null,,black_cross(without_color),1078277,,blue,,,,null,GW/leesburg.png,GW/hotsprings.png,,,,,,,,,,,,,,,,,,
444.60000014305115,,rt_plussign_withcolor,1078780,,blue,,,,49,GW/leesburg.png,GW/hotsprings.png,,,,,,,,,,,,,,,,,,
null,,rt_thecrossant_black,1080246,,black_plus_sign,,,,null,,,1,0.9824561403508771,,,,,,,,,,,,,,,,
null,,color_black,1080348,,black_plus_sign,,,,null,,,,,,,,,,,,,,,,,,,,
null,,learn_phase(without_color),1083350,,black_plus_sign,,,,null,GW/newhope.png,GW/westpalmbeach.png,,,,,,,,,,,,,,,,,,
null,,black_cross(without_color),1084072,,blue,,,,null,GW/newhope.png,GW/westpalmbeach.png,,,,,,,,,,,,,,,,,,
null,,rt_plussign_withcolor,1084575,,blue,,,,null,GW/newhope.png,GW/westpalmbeach.png,,,,,,,,,,,,,,,,,,
766.5999999046326,,rt_thecrossant_black,1085870,,black_plus_sign,,,,49,,,1,0.9826086956521739,,,,,,,,,,,,,,,,
null,,color_black,1085972,,black_plus_sign,,,,null,,,,,,,,,,,,,,,,,,,,
null,,learn_phase(without_color),1088976,,black_plus_sign,,,,null,GW/gatlinburg.png,GW/hanover.png,,,,,,,,,,,,,,,,,,
null,,black_cross(without_color),1089920,,blue,,,,null,GW/gatlinburg.png,GW/hanover.png,,,,,,,,,,,,,,,,,,
465.2000000476837,,rt_plussign_withcolor,1090422,,blue,,,,49,GW/gatlinburg.png,GW/hanover.png,,,,,,,,,,,,,,,,,,
null,,rt_thecrossant_black,1091482,,black_plus_sign,,,,null,,,1,0.9827586206896551,,,,,,,,,,,,,,,,
null,,color_black,1091585,,black_plus_sign,,,,null,,,,,,,,,,,,,,,,,,,,
null,,learn_phase(without_color),1094588,,black_plus_sign,,,,null,GW/peoria.png,GW/shreveport.png,,,,,,,,,,,,,,,,,,
null,,black_cross(without_color),1095272,,blue,,,,null,GW/peoria.png,GW/shreveport.png,,,,,,,,,,,,,,,,,,
null,,rt_plussign_withcolor,1095774,,blue,,,,null,GW/peoria.png,GW/shreveport.png,,,,,,,,,,,,,,,,,,
1141,,rt_thecrossant_black,1097095,,black_plus_sign,,,,49,,,1,0.9829059829059829,,,,,,,,,,,,,,,,
null,,color_black,1097198,,black_plus_sign,,,,null,,,,,,,,,,,,,,,,,,,,
null,,learn_phase(without_color),1100200,,black_plus_sign,,,,null,GW/westpalmbeach.png,GW/newhope.png,,,,,,,,,,,,,,,,,,
null,,black_cross(without_color),1100868,,blue,,,,null,GW/westpalmbeach.png,GW/newhope.png,,,,,,,,,,,,,,,,,,
493.7000000476837,,rt_plussign_withcolor,1101369,,blue,,,,49,GW/westpalmbeach.png,GW/newhope.png,,,,,,,,,,,,,,,,,,
null,,rt_thecrossant_black,1102707,,black_plus_sign,,,,null,,,1,0.9830508474576272,,,,,,,,,,,,,,,,
null,,color_black,1102809,,black_plus_sign,,,,null,,,,,,,,,,,,,,,,,,,,
null,,learn_phase(without_color),1105812,,black_plus_sign,,,,null,GW/gatlinburg.png,GW/hanover.png,,,,,,,,,,,,,,,,,,
null,,black_cross(without_color),1106879,,blue,,,,null,GW/gatlinburg.png,GW/hanover.png,,,,,,,,,,,,,,,,,,
null,,rt_plussign_withcolor,1107381,,blue,,,,null,GW/gatlinburg.png,GW/hanover.png,,,,,,,,,,,,,,,,,,
801.5999999046326,,rt_thecrossant_black,1108319,,black_plus_sign,,,,49,,,1,0.9831932773109243,,,,,,,,,,,,,,,,
null,,color_black,1108422,,black_plus_sign,,,,null,,,,,,,,,,,,,,,,,,,,
null,,learn_phase(without_color),1111426,,black_plus_sign,,,,null,GW/peoria.png,GW/shreveport.png,,,,,,,,,,,,,,,,,,
null,,black_cross(without_color),1112356,,blue,,,,null,GW/peoria.png,GW/shreveport.png,,,,,,,,,,,,,,,,,,
null,,rt_plussign_withcolor,1112857,,blue,,,,null,GW/peoria.png,GW/shreveport.png,,,,,,,,,,,,,,,,,,
1275.5999999046326,,rt_thecrossant_black,1113937,,black_plus_sign,,,,49,,,1,0.9833333333333333,,,,,,,,,,,,,,,,
null,,color_black,1114040,,black_plus_sign,,,,null,,,,,,,,,,,,,,,,,,,,
null,,learn_phase(without_color),1117043,,black_plus_sign,,,,null,GW/hotsprings.png,GW/leesburg.png,,,,,,,,,,,,,,,,,,
null,,black_cross(without_color),1118137,,yellow,,,,null,GW/hotsprings.png,GW/leesburg.png,,,,,,,,,,,,,,,,,,
null,,rt_plussign_withcolor,1118639,,yellow,,,,null,GW/hotsprings.png,GW/leesburg.png,,,,,,,,,,,,,,,,,,
1294.5999999046326,,rt_thecrossant_black,1119550,,black_plus_sign,,,,50,,,1,0.9834710743801653,,,,,,,,,,,,,,,,
null,,color_black,1119652,,black_plus_sign,,,,null,,,,,,,,,,,,,,,,,,,,
null,,learn_phase(without_color),1122656,,black_plus_sign,,,,null,GW/hanover.png,GW/gatlinburg.png,,,,,,,,,,,,,,,,,,
null,,black_cross(without_color),1123165,,blue,,,,null,GW/hanover.png,GW/gatlinburg.png,,,,,,,,,,,,,,,,,,
null,,rt_plussign_withcolor,1123666,,blue,,,,null,GW/hanover.png,GW/gatlinburg.png,,,,,,,,,,,,,,,,,,
1246.3999998569489,,rt_thecrossant_black,1125161,,black_plus_sign,,,,49,,,1,0.9836065573770492,,,,,,,,,,,,,,,,
null,,color_black,1125263,,black_plus_sign,,,,null,,,,,,,,,,,,,,,,,,,,
null,,learn_phase(without_color),1128266,,black_plus_sign,,,,null,GW/westpalmbeach.png,GW/newhope.png,,,,,,,,,,,,,,,,,,
null,,black_cross(without_color),1128675,,yellow,,,,null,GW/westpalmbeach.png,GW/newhope.png,,,,,,,,,,,,,,,,,,
null,,rt_plussign_withcolor,1129177,,yellow,,,,null,GW/westpalmbeach.png,GW/newhope.png,,,,,,,,,,,,,,,,,,
950.5999999046326,,rt_thecrossant_black,1130773,,black_plus_sign,,,,50,,,1,0.983739837398374,,,,,,,,,,,,,,,,
null,,color_black,1130876,,black_plus_sign,,,,null,,,,,,,,,,,,,,,,,,,,
null,,learn_phase(without_color),1133880,,black_plus_sign,,,,null,GW/peoria.png,GW/shreveport.png,,,,,,,,,,,,,,,,,,
null,,black_cross(without_color),1134442,,yellow,,,,null,GW/peoria.png,GW/shreveport.png,,,,,,,,,,,,,,,,,,
null,,rt_plussign_withcolor,1134944,,yellow,,,,null,GW/peoria.png,GW/shreveport.png,,,,,,,,,,,,,,,,,,
530.7000000476837,,rt_thecrossant_black,1136400,,black_plus_sign,,,,50,,,1,0.9838709677419355,,,,,,,,,,,,,,,,
null,,color_black,1136502,,black_plus_sign,,,,null,,,,,,,,,,,,,,,,,,,,
null,,learn_phase(without_color),1139506,,black_plus_sign,,,,null,GW/hanover.png,GW/gatlinburg.png,,,,,,,,,,,,,,,,,,
null,,black_cross(without_color),1140466,,yellow,,,,null,GW/hanover.png,GW/gatlinburg.png,,,,,,,,,,,,,,,,,,
392.5,,rt_plussign_withcolor,1140967,,yellow,,,,50,GW/hanover.png,GW/gatlinburg.png,,,,,,,,,,,,,,,,,,
null,,rt_thecrossant_black,1142013,,black_plus_sign,,,,null,,,1,0.984,,,,,,,,,,,,,,,,
null,,color_black,1142116,,black_plus_sign,,,,null,,,,,,,,,,,,,,,,,,,,
null,,learn_phase(without_color),1145119,,black_plus_sign,,,,null,GW/newhope.png,GW/westpalmbeach.png,,,,,,,,,,,,,,,,,,
null,,black_cross(without_color),1145912,,blue,,,,null,GW/newhope.png,GW/westpalmbeach.png,,,,,,,,,,,,,,,,,,
null,,rt_plussign_withcolor,1146414,,blue,,,,null,GW/newhope.png,GW/westpalmbeach.png,,,,,,,,,,,,,,,,,,
1067.4000000953674,,rt_thecrossant_black,1147627,,black_plus_sign,,,,49,,,1,0.9841269841269841,,,,,,,,,,,,,,,,
null,,color_black,1147730,,black_plus_sign,,,,null,,,,,,,,,,,,,,,,,,,,
null,,learn_phase(without_color),1150734,,black_plus_sign,,,,null,GW/hotsprings.png,GW/leesburg.png,,,,,,,,,,,,,,,,,,
null,,black_cross(without_color),1151808,,blue,,,,null,GW/hotsprings.png,GW/leesburg.png,,,,,,,,,,,,,,,,,,
null,,rt_plussign_withcolor,1152310,,blue,,,,null,GW/hotsprings.png,GW/leesburg.png,,,,,,,,,,,,,,,,,,
965,,rt_thecrossant_black,1153242,,black_plus_sign,,,,49,,,1,0.984251968503937,,,,,,,,,,,,,,,,
null,,color_black,1153345,,black_plus_sign,,,,null,,,,,,,,,,,,,,,,,,,,
null,,learn_phase(without_color),1156348,,black_plus_sign,,,,null,GW/shreveport.png,GW/peoria.png,,,,,,,,,,,,,,,,,,
null,,black_cross(without_color),1157010,,yellow,,,,null,GW/shreveport.png,GW/peoria.png,,,,,,,,,,,,,,,,,,
null,,rt_plussign_withcolor,1157512,,yellow,,,,null,GW/shreveport.png,GW/peoria.png,,,,,,,,,,,,,,,,,,
1283.6999998092651,,rt_thecrossant_black,1158854,,black_plus_sign,,,,50,,,1,0.984375,,,,,,,,,,,,,,,,
null,,color_black,1158956,,black_plus_sign,,,,null,,,,,,,,,,,,,,,,,,,,
null,,learn_break,1218959,,learn_break,,,,null,,,,,,,,,,,,,,,,,,,,
84889.10000014305,,intro_1,1303850,,instruct,,0,Start,,,,,,,,,,,,,,,,,,,,,
3405.300000190735,,directmemory_phase,1307258,,GW/shreveport.png,,,,50,,,0,0,GW/peoria.png,GW/westpalmbeach.png,GW/cornwall.png,GW/peoria.png,GW/cornwall.png,GW/westpalmbeach.png,0.5,closer,,,,,,,,
null,,html-keyboard-response,1308267,,<p></p>,,,,null,,,,,,,,,,,,,,,,,,,,
1213.5,,directmemory_phase,1309482,,GW/hanover.png,,,,49,,,1,0.5,GW/gatlinburg.png,GW/huntsville.png,GW/newhope.png,GW/gatlinburg.png,GW/newhope.png,GW/huntsville.png,1,,,,,,,,,
null,,html-keyboard-response,1310485,,<p></p>,,,,null,,,,,,,,,,,,,,,,,,,,
1683.6000001430511,,directmemory_phase,1312170,,GW/westpalmbeach.png,,,,50,,,1,0.6666666666666666,GW/cornwall.png,GW/hotsprings.png,GW/boulder.png,GW/hotsprings.png,GW/cornwall.png,GW/boulder.png,1,,,,,,,,,
null,,html-keyboard-response,1313172,,<p></p>,,,,null,,,,,,,,,,,,,,,,,,,,
2796.7999999523163,,directmemory_phase,1315970,,GW/boulder.png,,,,50,,,0,0.5,GW/huntsville.png,GW/newhope.png,GW/carmel.png,GW/huntsville.png,GW/carmel.png,GW/newhope.png,0.5,closer,,,,,,,,
null,,html-keyboard-response,1316974,,<p></p>,,,,null,,,,,,,,,,,,,,,,,,,,
1226.4000000953674,,directmemory_phase,1318202,,GW/gatlinburg.png,,,,49,,,1,0.6,GW/westpalmbeach.png,GW/peoria.png,GW/hotsprings.png,GW/westpalmbeach.png,GW/hotsprings.png,GW/peoria.png,1,,,,,,,,,
null,,html-keyboard-response,1319204,,<p></p>,,,,null,,,,,,,,,,,,,,,,,,,,
2300.100000143051,,directmemory_phase,1321506,,GW/cornwall.png,,,,50,,,1,0.6666666666666666,GW/westpalmbeach.png,GW/newhope.png,GW/racine.png,GW/newhope.png,GW/westpalmbeach.png,GW/racine.png,1,,,,,,,,,
null,,html-keyboard-response,1322508,,<p></p>,,,,null,,,,,,,,,,,,,,,,,,,,
1596,,directmemory_phase,1324106,,GW/hotsprings.png,,,,50,,,1,0.7142857142857143,GW/racine.png,GW/hanover.png,GW/peoria.png,GW/hanover.png,GW/racine.png,GW/peoria.png,1,,,,,,,,,
null,,html-keyboard-response,1325109,,<p></p>,,,,null,,,,,,,,,,,,,,,,,,,,
1716.1999998092651,,directmemory_phase,1326826,,GW/westpalmbeach.png,,,,51,,,0,0.625,GW/racine.png,GW/newhope.png,GW/huntsville.png,GW/newhope.png,GW/racine.png,GW/huntsville.png,0.5,closer,,,,,,,,
null,,html-keyboard-response,1327829,,<p></p>,,,,null,,,,,,,,,,,,,,,,,,,,
2835.600000143051,,directmemory_phase,1330666,,GW/peoria.png,,,,49,,,0,0.5555555555555556,GW/westpalmbeach.png,GW/newhope.png,GW/huntsville.png,GW/huntsville.png,GW/newhope.png,GW/westpalmbeach.png,0.5,closer,,,,,,,,
null,,html-keyboard-response,1331668,,<p></p>,,,,null,,,,,,,,,,,,,,,,,,,,
2140.199999809265,,directmemory_phase,1333810,,GW/newhope.png,,,,49,,,0,0.5,GW/gatlinburg.png,GW/westpalmbeach.png,GW/shreveport.png,GW/westpalmbeach.png,GW/gatlinburg.png,GW/shreveport.png,0.5,closer,,,,,,,,
null,,html-keyboard-response,1334821,,<p></p>,,,,null,,,,,,,,,,,,,,,,,,,,
2323.300000190735,,directmemory_phase,1337146,,GW/huntsville.png,,,,49,,,0,0.45454545454545453,GW/shreveport.png,GW/boulder.png,GW/hotsprings.png,GW/boulder.png,GW/shreveport.png,GW/hotsprings.png,0.5,closer,,,,,,,,
null,,html-keyboard-response,1338149,,<p></p>,,,,null,,,,,,,,,,,,,,,,,,,,
2547.4000000953674,,directmemory_phase,1340698,,GW/hotsprings.png,,,,51,,,1,0.5,GW/peoria.png,GW/newhope.png,GW/westpalmbeach.png,GW/westpalmbeach.png,GW/newhope.png,GW/peoria.png,1,,,,,,,,,
null,,html-keyboard-response,1341701,,<p></p>,,,,null,,,,,,,,,,,,,,,,,,,,
2627.9000000953674,,directmemory_phase,1344330,,GW/huntsville.png,,,,50,,,0,0.46153846153846156,GW/carmel.png,GW/hotsprings.png,GW/shreveport.png,GW/carmel.png,GW/shreveport.png,GW/hotsprings.png,0.5,closer,,,,,,,,
null,,html-keyboard-response,1345331,,<p></p>,,,,null,,,,,,,,,,,,,,,,,,,,
2357.2000000476837,,directmemory_phase,1347690,,GW/westpalmbeach.png,,,,50,,,0,0.42857142857142855,GW/hanover.png,GW/shreveport.png,GW/leesburg.png,GW/hanover.png,GW/leesburg.png,GW/shreveport.png,0.5,closer,,,,,,,,
null,,html-keyboard-response,1348696,,<p></p>,,,,null,,,,,,,,,,,,,,,,,,,,
2224.0999999046326,,directmemory_phase,1350922,,GW/huntsville.png,,,,51,,,0,0.4,GW/peoria.png,GW/westpalmbeach.png,GW/shreveport.png,GW/peoria.png,GW/shreveport.png,GW/westpalmbeach.png,0.5,closer,,,,,,,,
null,,html-keyboard-response,1351925,,<p></p>,,,,null,,,,,,,,,,,,,,,,,,,,
3419.5,,directmemory_phase,1355346,,GW/westpalmbeach.png,,,,51,,,1,0.4375,GW/boulder.png,GW/leesburg.png,GW/gatlinburg.png,GW/gatlinburg.png,GW/leesburg.png,GW/boulder.png,1,,,,,,,,,
null,,html-keyboard-response,1356347,,<p></p>,,,,null,,,,,,,,,,,,,,,,,,,,
2237.399999856949,,directmemory_phase,1358586,,GW/newhope.png,,,,51,,,0,0.4117647058823529,GW/carmel.png,GW/shreveport.png,GW/hanover.png,GW/carmel.png,GW/hanover.png,GW/shreveport.png,0.5,closer,,,,,,,,
null,,html-keyboard-response,1359590,,<p></p>,,,,null,,,,,,,,,,,,,,,,,,,,
1930.7999999523163,,directmemory_phase,1361522,,GW/gatlinburg.png,,,,51,,,1,0.4444444444444444,GW/boulder.png,GW/racine.png,GW/hanover.png,GW/hanover.png,GW/racine.png,GW/boulder.png,1,,,,,,,,,
null,,html-keyboard-response,1362524,,<p></p>,,,,null,,,,,,,,,,,,,,,,,,,,
1388.1999998092651,,directmemory_phase,1363914,,GW/carmel.png,,,,49,,,0,0.42105263157894735,GW/hanover.png,GW/newhope.png,GW/racine.png,GW/newhope.png,GW/hanover.png,GW/racine.png,0.5,closer,,,,,,,,
null,,html-keyboard-response,1364918,,<p></p>,,,,null,,,,,,,,,,,,,,,,,,,,
2434.9000000953674,,directmemory_phase,1367354,,GW/hanover.png,,,,49,,,1,0.45,GW/westpalmbeach.png,GW/peoria.png,GW/newhope.png,GW/westpalmbeach.png,GW/newhope.png,GW/peoria.png,1,,,,,,,,,
null,,html-keyboard-response,1368357,,<p></p>,,,,null,,,,,,,,,,,,,,,,,,,,
2243.9000000953674,,directmemory_phase,1370602,,GW/leesburg.png,,,,50,,,1,0.47619047619047616,GW/hanover.png,GW/hotsprings.png,GW/cornwall.png,GW/hotsprings.png,GW/hanover.png,GW/cornwall.png,1,,,,,,,,,
null,,html-keyboard-response,1371605,,<p></p>,,,,null,,,,,,,,,,,,,,,,,,,,
2739.2000000476837,,directmemory_phase,1374346,,GW/carmel.png,,,,51,,,1,0.5,GW/hotsprings.png,GW/westpalmbeach.png,GW/gatlinburg.png,GW/gatlinburg.png,GW/westpalmbeach.png,GW/hotsprings.png,1,,,,,,,,,
null,,html-keyboard-response,1375350,,<p></p>,,,,null,,,,,,,,,,,,,,,,,,,,
3346.5999999046326,,directmemory_phase,1378698,,GW/cornwall.png,,,,51,,,0,0.4782608695652174,GW/shreveport.png,GW/peoria.png,GW/boulder.png,GW/peoria.png,GW/shreveport.png,GW/boulder.png,0.5,closer,,,,,,,,
null,,html-keyboard-response,1379700,,<p></p>,,,,null,,,,,,,,,,,,,,,,,,,,
1044.0999999046326,,directmemory_phase,1380746,,GW/racine.png,,,,49,,,1,0.5,GW/hanover.png,GW/cornwall.png,GW/westpalmbeach.png,GW/hanover.png,GW/westpalmbeach.png,GW/cornwall.png,1,,,,,,,,,
null,,html-keyboard-response,1381751,,<p></p>,,,,null,,,,,,,,,,,,,,,,,,,,
2561.0999999046326,,directmemory_phase,1384314,,GW/peoria.png,,,,49,,,0,0.48,GW/hanover.png,GW/boulder.png,GW/shreveport.png,GW/shreveport.png,GW/boulder.png,GW/hanover.png,0.5,closer,,,,,,,,
null,,html-keyboard-response,1385317,,<p></p>,,,,null,,,,,,,,,,,,,,,,,,,,
1146.7000000476837,,directmemory_phase,1386466,,GW/hanover.png,,,,49,,,0,0.46153846153846156,GW/carmel.png,GW/racine.png,GW/boulder.png,GW/racine.png,GW/carmel.png,GW/boulder.png,0.5,closer,,,,,,,,
null,,html-keyboard-response,1387469,,<p></p>,,,,null,,,,,,,,,,,,,,,,,,,,
1242.8999998569489,,directmemory_phase,1388714,,GW/peoria.png,,,,50,,,0,0.4444444444444444,GW/hanover.png,GW/carmel.png,GW/cornwall.png,GW/cornwall.png,GW/carmel.png,GW/hanover.png,0.5,closer,,,,,,,,
null,,html-keyboard-response,1389717,,<p></p>,,,,null,,,,,,,,,,,,,,,,,,,,
2403.2000000476837,,directmemory_phase,1392122,,GW/carmel.png,,,,50,,,0,0.42857142857142855,GW/huntsville.png,GW/racine.png,GW/peoria.png,GW/huntsville.png,GW/peoria.png,GW/racine.png,0.5,closer,,,,,,,,
null,,html-keyboard-response,1393125,,<p></p>,,,,null,,,,,,,,,,,,,,,,,,,,
3162.7999999523163,,directmemory_phase,1396290,,GW/hanover.png,,,,49,,,0,0.41379310344827586,GW/leesburg.png,GW/hotsprings.png,GW/peoria.png,GW/hotsprings.png,GW/leesburg.png,GW/peoria.png,0.5,closer,,,,,,,,
null,,html-keyboard-response,1397293,,<p></p>,,,,null,,,,,,,,,,,,,,,,,,,,
1035.2999999523163,,directmemory_phase,1398330,,GW/gatlinburg.png,,,,49,,,1,0.43333333333333335,GW/carmel.png,GW/peoria.png,GW/racine.png,GW/carmel.png,GW/racine.png,GW/peoria.png,1,,,,,,,,,
null,,html-keyboard-response,1399335,,<p></p>,,,,null,,,,,,,,,,,,,,,,,,,,
1689.0999999046326,,directmemory_phase,1401026,,GW/hotsprings.png,,,,50,,,1,0.45161290322580644,GW/newhope.png,GW/leesburg.png,GW/cornwall.png,GW/leesburg.png,GW/newhope.png,GW/cornwall.png,1,,,,,,,,,
null,,html-keyboard-response,1402028,,<p></p>,,,,null,,,,,,,,,,,,,,,,,,,,
1652.3000001907349,,directmemory_phase,1403682,,GW/newhope.png,,,,50,,,0,0.4375,GW/racine.png,GW/hanover.png,GW/cornwall.png,GW/cornwall.png,GW/hanover.png,GW/racine.png,0.5,closer,,,,,,,,
null,,html-keyboard-response,1404685,,<p></p>,,,,null,,,,,,,,,,,,,,,,,,,,
16004.799999952316,,intro_1,1420692,,instruct,,0,,,,,,,,,,,,,,,,,,,,,,
11303.800000190735,,intro_2,1431998,,instruct,,1,Next,,,,,,,,,,,,,,,,,,,,,
5613.700000047684,,intro_3,1437614,,instruct,,1,Next,,,,,,,,,,,,,,,,,,,,,
9878.400000095367,,intro_4,1447494,,instruct,,1,Next,,,,,,,,,,,,,,,,,,,,,
10599.400000095367,,intro_5,1458096,,instruct,,1,Next,,,,,,,,,,,,,,,,,,,,,
12629,,intro_6,1470728,,instruct,,1,Next,,,,,,,,,,,,,,,,,,,,,
2267.100000143051,,intro_7,1472998,,instruct,,1,Next,,,,,,,,,,,,,,,,,,,,,
11087.299999952316,,intro_8,1484087,,instruct,,1,Next,,,,,,,,,,,,,,,,,,,,,
1623.5999999046326,,shortestpath_phase,1485714,,GW/leesburg.png,,,,50,GW/boulder.png,GW/westpalmbeach.png,1,1,,,,GW/westpalmbeach.png,,,,,Four Edge Diff,Two Edge Six Edge,,,,,,
null,,html-keyboard-response,1486718,,<p></p>,,,,null,,,,,,,,,,,,,,,,,,,,
3706.199999809265,,shortestpath_phase,1490425,,GW/hotsprings.png,,,,49,GW/shreveport.png,GW/racine.png,0,0.5,,,,GW/racine.png,,,,,Three Edge Diff,Three Edge Six Edge,,,,,,
null,,html-keyboard-response,1491429,,<p></p>,,,,null,,,,,,,,,,,,,,,,,,,,
1667.2999999523163,,shortestpath_phase,1493097,,GW/peoria.png,,,,50,GW/boulder.png,GW/racine.png,0,0.3333333333333333,,,,GW/boulder.png,,,,,Three Edge Diff,Three Edge Six Edge,,,,,,
null,,html-keyboard-response,1494100,,<p></p>,,,,null,,,,,,,,,,,,,,,,,,,,
1852.5,,shortestpath_phase,1495954,,GW/cornwall.png,,,,49,GW/westpalmbeach.png,GW/hanover.png,1,0.5,,,,GW/westpalmbeach.png,,,,,One Edge Diff,Two Edge Three Edge,,,,,,
null,,html-keyboard-response,1496956,,<p></p>,,,,null,,,,,,,,,,,,,,,,,,,,
1603.5999999046326,,shortestpath_phase,1498562,,GW/boulder.png,,,,50,GW/racine.png,GW/shreveport.png,1,0.6,,,,GW/shreveport.png,,,,,Two Edge Diff,Three Edge Five Edge,,,,,,
null,,html-keyboard-response,1499565,,<p></p>,,,,null,,,,,,,,,,,,,,,,,,,,
1898.4000000953674,,shortestpath_phase,1501465,,GW/leesburg.png,,,,49,GW/carmel.png,GW/boulder.png,1,0.6666666666666666,,,,GW/carmel.png,,,,,Two Edge Diff,Four Edge Six Edge,,,,,,
null,,html-keyboard-response,1502469,,<p></p>,,,,null,,,,,,,,,,,,,,,,,,,,
1803.2999999523163,,shortestpath_phase,1504273,,GW/boulder.png,,,,50,GW/leesburg.png,GW/racine.png,1,0.7142857142857143,,,,GW/racine.png,,,,,One Edge Diff,Five Edge Six Edge,,,,,,
null,,html-keyboard-response,1505277,,<p></p>,,,,null,,,,,,,,,,,,,,,,,,,,
1427.4000000953674,,shortestpath_phase,1506706,,GW/huntsville.png,,,,50,GW/shreveport.png,GW/westpalmbeach.png,0,0.625,,,,GW/shreveport.png,,,,,One Edge Diff,Two Edge Three Edge,,,,,,
null,,html-keyboard-response,1507709,,<p></p>,,,,null,,,,,,,,,,,,,,,,,,,,
1771.0999999046326,,shortestpath_phase,1509481,,GW/racine.png,,,,49,GW/shreveport.png,GW/boulder.png,0,0.5555555555555556,,,,GW/boulder.png,,,,,One Edge Diff,Five Edge Six Edge,,,,,,
null,,html-keyboard-response,1510484,,<p></p>,,,,null,,,,,,,,,,,,,,,,,,,,
2572.5,,shortestpath_phase,1513057,,GW/shreveport.png,,,,50,GW/leesburg.png,GW/hanover.png,1,0.6,,,,GW/hanover.png,,,,,One Edge Diff,Five Edge Six Edge,,,,,,
null,,html-keyboard-response,1514061,,<p></p>,,,,null,,,,,,,,,,,,,,,,,,,,
2458.7999999523163,,shortestpath_phase,1516522,,GW/racine.png,,,,50,GW/shreveport.png,GW/huntsville.png,1,0.6363636363636364,,,,GW/huntsville.png,,,,,Two Edge Diff,Four Edge Six Edge,,,,,,
null,,html-keyboard-response,1517525,,<p></p>,,,,null,,,,,,,,,,,,,,,,,,,,
1315.7999999523163,,shortestpath_phase,1518842,,GW/westpalmbeach.png,,,,49,GW/huntsville.png,GW/cornwall.png,0,0.5833333333333334,,,,GW/cornwall.png,,,,,One Edge Diff,Two Edge Three Edge,,,,,,
null,,html-keyboard-response,1519844,,<p></p>,,,,null,,,,,,,,,,,,,,,,,,,,
1467.7000000476837,,shortestpath_phase,1521314,,GW/leesburg.png,,,,49,GW/cornwall.png,GW/racine.png,0,0.5384615384615384,,,,GW/racine.png,,,,,One Edge Diff,Three Edge Four Edge,,,,,,
null,,html-keyboard-response,1522317,,<p></p>,,,,null,,,,,,,,,,,,,,,,,,,,
2802.399999856949,,shortestpath_phase,1525121,,GW/shreveport.png,,,,50,GW/hanover.png,GW/gatlinburg.png,1,0.5714285714285714,,,,GW/gatlinburg.png,,,,,One Edge Diff,Four Edge Five Edge,,,,,,
null,,html-keyboard-response,1526132,,<p></p>,,,,null,,,,,,,,,,,,,,,,,,,,
2203.899999856949,,shortestpath_phase,1528337,,GW/hotsprings.png,,,,50,GW/peoria.png,GW/boulder.png,0,0.5333333333333333,,,,GW/peoria.png,,,,,One Edge Diff,Four Edge Five Edge,,,,,,
null,,html-keyboard-response,1529341,,<p></p>,,,,null,,,,,,,,,,,,,,,,,,,,
2307.699999809265,,shortestpath_phase,1531650,,GW/racine.png,,,,49,GW/shreveport.png,GW/gatlinburg.png,0,0.5,,,,GW/gatlinburg.png,,,,,Four Edge Diff,Two Edge Six Edge,,,,,,
null,,html-keyboard-response,1532653,,<p></p>,,,,null,,,,,,,,,,,,,,,,,,,,
1187,,shortestpath_phase,1533841,,GW/boulder.png,,,,50,GW/peoria.png,GW/hotsprings.png,0,0.47058823529411764,,,,GW/peoria.png,,,,,Three Edge Diff,Three Edge Six Edge,,,,,,
null,,html-keyboard-response,1534845,,<p></p>,,,,null,,,,,,,,,,,,,,,,,,,,
1659.0999999046326,,shortestpath_phase,1536505,,GW/huntsville.png,,,,50,GW/newhope.png,GW/leesburg.png,0,0.4444444444444444,,,,GW/newhope.png,,,,,Three Edge Diff,Two Edge Five Edge,,,,,,
null,,html-keyboard-response,1537509,,<p></p>,,,,null,,,,,,,,,,,,,,,,,,,,
1603.3999998569489,,shortestpath_phase,1539113,,GW/boulder.png,,,,50,GW/leesburg.png,GW/peoria.png,1,0.47368421052631576,,,,GW/peoria.png,,,,,Four Edge Diff,Two Edge Six Edge,,,,,,
null,,html-keyboard-response,1540116,,<p></p>,,,,null,,,,,,,,,,,,,,,,,,,,
1427.7999999523163,,shortestpath_phase,1541545,,GW/shreveport.png,,,,49,GW/cornwall.png,GW/racine.png,1,0.5,,,,GW/cornwall.png,,,,,Four Edge Diff,Two Edge Six Edge,,,,,,
null,,html-keyboard-response,1542549,,<p></p>,,,,null,,,,,,,,,,,,,,,,,,,,
1499.5,,shortestpath_phase,1544050,,GW/peoria.png,,,,49,GW/racine.png,GW/boulder.png,0,0.47619047619047616,,,,GW/boulder.png,,,,,Three Edge Diff,Two Edge Five Edge,,,,,,
null,,html-keyboard-response,1545052,,<p></p>,,,,null,,,,,,,,,,,,,,,,,,,,
1932.1000001430511,,shortestpath_phase,1546985,,GW/leesburg.png,,,,49,GW/carmel.png,GW/huntsville.png,1,0.5,,,,GW/carmel.png,,,,,One Edge Diff,Four Edge Five Edge,,,,,,
null,,html-keyboard-response,1547989,,<p></p>,,,,null,,,,,,,,,,,,,,,,,,,,
1090.7999999523163,,shortestpath_phase,1549081,,GW/shreveport.png,,,,49,GW/hanover.png,GW/boulder.png,0,0.4782608695652174,,,,GW/boulder.png,,,,,Two Edge Diff,Three Edge Five Edge,,,,,,
null,,html-keyboard-response,1550084,,<p></p>,,,,null,,,,,,,,,,,,,,,,,,,,
1356,,shortestpath_phase,1551441,,GW/leesburg.png,,,,50,GW/shreveport.png,GW/peoria.png,1,0.5,,,,GW/peoria.png,,,,,One Edge Diff,Five Edge Six Edge,,,,,,
null,,html-keyboard-response,1552445,,<p></p>,,,,null,,,,,,,,,,,,,,,,,,,,
1530.7999999523163,,shortestpath_phase,1553977,,GW/cornwall.png,,,,50,GW/leesburg.png,GW/boulder.png,1,0.52,,,,GW/boulder.png,,,,,One Edge Diff,Three Edge Four Edge,,,,,,
null,,html-keyboard-response,1554980,,<p></p>,,,,null,,,,,,,,,,,,,,,,,,,,
1723.7000000476837,,shortestpath_phase,1556706,,GW/peoria.png,,,,49,GW/carmel.png,GW/leesburg.png,1,0.5384615384615384,,,,GW/carmel.png,,,,,Three Edge Diff,Three Edge Six Edge,,,,,,
null,,html-keyboard-response,1557709,,<p></p>,,,,null,,,,,,,,,,,,,,,,,,,,
1091,,shortestpath_phase,1558801,,GW/hotsprings.png,,,,50,GW/boulder.png,GW/gatlinburg.png,1,0.5555555555555556,,,,GW/gatlinburg.png,,,,,Three Edge Diff,Three Edge Six Edge,,,,,,
null,,html-keyboard-response,1559805,,<p></p>,,,,null,,,,,,,,,,,,,,,,,,,,
1530.7999999523163,,shortestpath_phase,1561337,,GW/racine.png,,,,49,GW/westpalmbeach.png,GW/shreveport.png,1,0.5714285714285714,,,,GW/westpalmbeach.png,,,,,Four Edge Diff,Two Edge Six Edge,,,,,,
null,,html-keyboard-response,1562341,,<p></p>,,,,null,,,,,,,,,,,,,,,,,,,,
1346.9000000953674,,shortestpath_phase,1563689,,GW/peoria.png,,,,49,GW/leesburg.png,GW/gatlinburg.png,0,0.5517241379310345,,,,GW/gatlinburg.png,,,,,Two Edge Diff,Three Edge Five Edge,,,,,,
null,,html-keyboard-response,1564692,,<p></p>,,,,null,,,,,,,,,,,,,,,,,,,,
1259.3000001907349,,shortestpath_phase,1565953,,GW/huntsville.png,,,,50,GW/leesburg.png,GW/newhope.png,1,0.5666666666666667,,,,GW/newhope.png,,,,,Three Edge Diff,Three Edge Six Edge,,,,,,
null,,html-keyboard-response,1566956,,<p></p>,,,,null,,,,,,,,,,,,,,,,,,,,
1012.5,,shortestpath_phase,1567970,,GW/leesburg.png,,,,50,GW/hanover.png,GW/huntsville.png,0,0.5483870967741935,,,,GW/hanover.png,,,,,Three Edge Diff,Three Edge Six Edge,,,,,,
null,,html-keyboard-response,1568973,,<p></p>,,,,null,,,,,,,,,,,,,,,,,,,,
1386.0999999046326,,shortestpath_phase,1570361,,GW/shreveport.png,,,,49,GW/huntsville.png,GW/racine.png,1,0.5625,,,,GW/huntsville.png,,,,,Four Edge Diff,Two Edge Six Edge,,,,,,
null,,html-keyboard-response,1571365,,<p></p>,,,,null,,,,,,,,,,,,,,,,,,,,
1611.2000000476837,,shortestpath_phase,1572977,,GW/boulder.png,,,,49,GW/leesburg.png,GW/hanover.png,0,0.5454545454545454,,,,GW/hanover.png,,,,,Two Edge Diff,Four Edge Six Edge,,,,,,
null,,html-keyboard-response,1573981,,<p></p>,,,,null,,,,,,,,,,,,,,,,,,,,
1106.7000000476837,,shortestpath_phase,1575089,,GW/racine.png,,,,50,GW/huntsville.png,GW/peoria.png,0,0.5294117647058824,,,,GW/huntsville.png,,,,,One Edge Diff,Four Edge Five Edge,,,,,,
null,,html-keyboard-response,1576092,,<p></p>,,,,null,,,,,,,,,,,,,,,,,,,,
907.7000000476837,,shortestpath_phase,1577001,,GW/boulder.png,,,,49,GW/carmel.png,GW/leesburg.png,1,0.5428571428571428,,,,GW/carmel.png,,,,,Four Edge Diff,Two Edge Six Edge,,,,,,
null,,html-keyboard-response,1578004,,<p></p>,,,,null,,,,,,,,,,,,,,,,,,,,
1259.9000000953674,,shortestpath_phase,1579266,,GW/huntsville.png,,,,50,GW/racine.png,GW/cornwall.png,1,0.5555555555555556,,,,GW/cornwall.png,,,,,Two Edge Diff,Two Edge Four Edge,,,,,,
null,,html-keyboard-response,1580269,,<p></p>,,,,null,,,,,,,,,,,,,,,,,,,,
1330.5999999046326,,shortestpath_phase,1581601,,GW/boulder.png,,,,49,GW/newhope.png,GW/hotsprings.png,1,0.5675675675675675,,,,GW/newhope.png,,,,,Two Edge Diff,Three Edge Five Edge,,,,,,
null,,html-keyboard-response,1582605,,<p></p>,,,,null,,,,,,,,,,,,,,,,,,,,
1155,,shortestpath_phase,1583761,,GW/shreveport.png,,,,49,GW/leesburg.png,GW/huntsville.png,0,0.5526315789473685,,,,GW/huntsville.png,,,,,Four Edge Diff,Two Edge Six Edge,,,,,,
null,,html-keyboard-response,1584764,,<p></p>,,,,null,,,,,,,,,,,,,,,,,,,,
971.9000000953674,,shortestpath_phase,1585737,,GW/hotsprings.png,,,,50,GW/huntsville.png,GW/gatlinburg.png,1,0.5641025641025641,,,,GW/gatlinburg.png,,,,,Two Edge Diff,Two Edge Four Edge,,,,,,
null,,html-keyboard-response,1586740,,<p></p>,,,,null,,,,,,,,,,,,,,,,,,,,
1644.0999999046326,,shortestpath_phase,1588385,,GW/leesburg.png,,,,50,GW/shreveport.png,GW/carmel.png,1,0.575,,,,GW/carmel.png,,,,,Two Edge Diff,Four Edge Six Edge,,,,,,
null,,html-keyboard-response,1589389,,<p></p>,,,,null,,,,,,,,,,,,,,,,,,,,
882.7999999523163,,shortestpath_phase,1590274,,GW/hotsprings.png,,,,49,GW/gatlinburg.png,GW/shreveport.png,1,0.5853658536585366,,,,GW/gatlinburg.png,,,,,Three Edge Diff,Three Edge Six Edge,,,,,,
null,,html-keyboard-response,1591276,,<p></p>,,,,null,,,,,,,,,,,,,,,,,,,,
1107,,shortestpath_phase,1592385,,GW/leesburg.png,,,,49,GW/carmel.png,GW/racine.png,0,0.5714285714285714,,,,GW/racine.png,,,,,One Edge Diff,Three Edge Four Edge,,,,,,
null,,html-keyboard-response,1593389,,<p></p>,,,,null,,,,,,,,,,,,,,,,,,,,
1483.2000000476837,,shortestpath_phase,1594873,,GW/peoria.png,,,,50,GW/carmel.png,GW/racine.png,0,0.5581395348837209,,,,GW/carmel.png,,,,,Three Edge Diff,Three Edge Six Edge,,,,,,
null,,html-keyboard-response,1595877,,<p></p>,,,,null,,,,,,,,,,,,,,,,,,,,
1675,,shortestpath_phase,1597553,,GW/hotsprings.png,,,,50,GW/newhope.png,GW/peoria.png,0,0.5454545454545454,,,,GW/newhope.png,,,,,Two Edge Diff,Two Edge Four Edge,,,,,,
null,,html-keyboard-response,1598558,,<p></p>,,,,null,,,,,,,,,,,,,,,,,,,,
1169.9000000953674,,shortestpath_phase,1599729,,GW/racine.png,,,,49,GW/boulder.png,GW/carmel.png,0,0.5333333333333333,,,,GW/carmel.png,,,,,Two Edge Diff,Three Edge Five Edge,,,,,,
null,,html-keyboard-response,1600732,,<p></p>,,,,null,,,,,,,,,,,,,,,,,,,,
1299.6000001430511,,shortestpath_phase,1602034,,GW/shreveport.png,,,,50,GW/hotsprings.png,GW/leesburg.png,0,0.5217391304347826,,,,GW/hotsprings.png,,,,,One Edge Diff,Five Edge Six Edge,,,,,,
null,,html-keyboard-response,1603037,,<p></p>,,,,null,,,,,,,,,,,,,,,,,,,,
1409.7999999523163,,shortestpath_phase,1604449,,GW/hanover.png,,,,50,GW/peoria.png,GW/cornwall.png,1,0.5319148936170213,,,,GW/cornwall.png,,,,,One Edge Diff,Three Edge Four Edge,,,,,,
null,,html-keyboard-response,1605465,,<p></p>,,,,null,,,,,,,,,,,,,,,,,,,,
1558,,shortestpath_phase,1607025,,GW/westpalmbeach.png,,,,49,GW/leesburg.png,GW/boulder.png,1,0.5416666666666666,,,,GW/leesburg.png,,,,,Two Edge Diff,Two Edge Four Edge,,,,,,
null,,html-keyboard-response,1608027,,<p></p>,,,,null,,,,,,,,,,,,,,,,,,,,
1195.8000001907349,,shortestpath_phase,1609225,,GW/boulder.png,,,,50,GW/racine.png,GW/hanover.png,1,0.5510204081632653,,,,GW/hanover.png,,,,,One Edge Diff,Four Edge Five Edge,,,,,,
null,,html-keyboard-response,1610228,,<p></p>,,,,null,,,,,,,,,,,,,,,,,,,,
1059.7000000476837,,shortestpath_phase,1611289,,GW/leesburg.png,,,,49,GW/westpalmbeach.png,GW/peoria.png,1,0.56,,,,GW/westpalmbeach.png,,,,,Three Edge Diff,Two Edge Five Edge,,,,,,
null,,html-keyboard-response,1612292,,<p></p>,,,,null,,,,,,,,,,,,,,,,,,,,
1523.7000000476837,,shortestpath_phase,1613818,,GW/racine.png,,,,49,GW/hotsprings.png,GW/shreveport.png,1,0.5686274509803921,,,,GW/hotsprings.png,,,,,Four Edge Diff,Two Edge Six Edge,,,,,,
null,,html-keyboard-response,1614822,,<p></p>,,,,null,,,,,,,,,,,,,,,,,,,,
1265.5,,shortestpath_phase,1616089,,GW/westpalmbeach.png,,,,49,GW/carmel.png,GW/shreveport.png,1,0.5769230769230769,,,,GW/carmel.png,,,,,Two Edge Diff,Two Edge Four Edge,,,,,,
null,,html-keyboard-response,1617092,,<p></p>,,,,null,,,,,,,,,,,,,,,,,,,,
2955,,shortestpath_phase,1620049,,GW/leesburg.png,,,,50,GW/cornwall.png,GW/shreveport.png,0,0.5660377358490566,,,,GW/cornwall.png,,,,,Two Edge Diff,Four Edge Six Edge,,,,,,
null,,html-keyboard-response,1621064,,<p></p>,,,,null,,,,,,,,,,,,,,,,,,,,
1479.9000000953674,,shortestpath_phase,1622545,,GW/shreveport.png,,,,50,GW/huntsville.png,GW/hanover.png,0,0.5555555555555556,,,,GW/huntsville.png,,,,,Three Edge Diff,Three Edge Six Edge,,,,,,
null,,html-keyboard-response,1623548,,<p></p>,,,,null,,,,,,,,,,,,,,,,,,,,
1412.4000000953674,,shortestpath_phase,1624962,,GW/leesburg.png,,,,50,GW/shreveport.png,GW/westpalmbeach.png,1,0.5636363636363636,,,,GW/westpalmbeach.png,,,,,Four Edge Diff,Two Edge Six Edge,,,,,,
null,,html-keyboard-response,1625964,,<p></p>,,,,null,,,,,,,,,,,,,,,,,,,,
1282.8999998569489,,shortestpath_phase,1627249,,GW/cornwall.png,,,,49,GW/huntsville.png,GW/boulder.png,1,0.5714285714285714,,,,GW/huntsville.png,,,,,One Edge Diff,Two Edge Three Edge,,,,,,
null,,html-keyboard-response,1628252,,<p></p>,,,,null,,,,,,,,,,,,,,,,,,,,
1395.1000001430511,,shortestpath_phase,1629649,,GW/boulder.png,,,,49,GW/carmel.png,GW/racine.png,1,0.5789473684210527,,,,GW/carmel.png,,,,,Three Edge Diff,Two Edge Five Edge,,,,,,
null,,html-keyboard-response,1630663,,<p></p>,,,,null,,,,,,,,,,,,,,,,,,,,
1272.5,,shortestpath_phase,1631937,,GW/shreveport.png,,,,50,GW/hotsprings.png,GW/huntsville.png,1,0.5862068965517241,,,,GW/huntsville.png,,,,,Three Edge Diff,Two Edge Five Edge,,,,,,
null,,html-keyboard-response,1632940,,<p></p>,,,,null,,,,,,,,,,,,,,,,,,,,
1331.7000000476837,,shortestpath_phase,1634273,,GW/hanover.png,,,,50,GW/shreveport.png,GW/carmel.png,1,0.5932203389830508,,,,GW/carmel.png,,,,,Three Edge Diff,Three Edge Six Edge,,,,,,
null,,html-keyboard-response,1635277,,<p></p>,,,,null,,,,,,,,,,,,,,,,,,,,
1355.5,,shortestpath_phase,1636634,,GW/shreveport.png,,,,50,GW/hanover.png,GW/huntsville.png,1,0.6,,,,GW/huntsville.png,,,,,Three Edge Diff,Two Edge Five Edge,,,,,,
null,,html-keyboard-response,1637638,,<p></p>,,,,null,,,,,,,,,,,,,,,,,,,,
1025.2999999523163,,shortestpath_phase,1638665,,GW/racine.png,,,,50,GW/shreveport.png,GW/cornwall.png,1,0.6065573770491803,,,,GW/cornwall.png,,,,,Two Edge Diff,Four Edge Six Edge,,,,,,
null,,html-keyboard-response,1639669,,<p></p>,,,,null,,,,,,,,,,,,,,,,,,,,
1434.3999998569489,,shortestpath_phase,1641105,,GW/hotsprings.png,,,,49,GW/newhope.png,GW/boulder.png,1,0.6129032258064516,,,,GW/newhope.png,,,,,Three Edge Diff,Two Edge Five Edge,,,,,,
null,,html-keyboard-response,1642108,,<p></p>,,,,null,,,,,,,,,,,,,,,,,,,,
1508.0999999046326,,shortestpath_phase,1643617,,GW/cornwall.png,,,,49,GW/gatlinburg.png,GW/shreveport.png,0,0.6031746031746031,,,,GW/shreveport.png,,,,,One Edge Diff,Two Edge Three Edge,,,,,,
null,,html-keyboard-response,1644620,,<p></p>,,,,null,,,,,,,,,,,,,,,,,,,,
971.7999999523163,,shortestpath_phase,1645593,,GW/racine.png,,,,50,GW/leesburg.png,GW/peoria.png,0,0.59375,,,,GW/leesburg.png,,,,,Two Edge Diff,Three Edge Five Edge,,,,,,
null,,html-keyboard-response,1646596,,<p></p>,,,,null,,,,,,,,,,,,,,,,,,,,
1307.5999999046326,,shortestpath_phase,1647905,,GW/peoria.png,,,,49,GW/leesburg.png,GW/boulder.png,0,0.5846153846153846,,,,GW/boulder.png,,,,,Three Edge Diff,Two Edge Five Edge,,,,,,
null,,html-keyboard-response,1648908,,<p></p>,,,,null,,,,,,,,,,,,,,,,,,,,
1963.3999998569489,,shortestpath_phase,1650873,,GW/leesburg.png,,,,49,GW/huntsville.png,GW/boulder.png,1,0.5909090909090909,,,,GW/huntsville.png,,,,,One Edge Diff,Five Edge Six Edge,,,,,,
null,,html-keyboard-response,1651877,,<p></p>,,,,null,,,,,,,,,,,,,,,,,,,,
1218.6000001430511,,shortestpath_phase,1653097,,GW/racine.png,,,,50,GW/gatlinburg.png,GW/boulder.png,0,0.582089552238806,,,,GW/gatlinburg.png,,,,,Three Edge Diff,Two Edge Five Edge,,,,,,
null,,html-keyboard-response,1654101,,<p></p>,,,,null,,,,,,,,,,,,,,,,,,,,
1330.5999999046326,,shortestpath_phase,1655433,,GW/leesburg.png,,,,50,GW/shreveport.png,GW/hanover.png,1,0.5882352941176471,,,,GW/hanover.png,,,,,Four Edge Diff,Two Edge Six Edge,,,,,,
null,,html-keyboard-response,1656436,,<p></p>,,,,null,,,,,,,,,,,,,,,,,,,,
1564,,shortestpath_phase,1658002,,GW/shreveport.png,,,,49,GW/hanover.png,GW/cornwall.png,0,0.5797101449275363,,,,GW/cornwall.png,,,,,Three Edge Diff,Two Edge Five Edge,,,,,,
null,,html-keyboard-response,1659012,,<p></p>,,,,null,,,,,,,,,,,,,,,,,,,,
1555.4000000953674,,shortestpath_phase,1660569,,GW/racine.png,,,,50,GW/boulder.png,GW/huntsville.png,1,0.5857142857142857,,,,GW/huntsville.png,,,,,One Edge Diff,Four Edge Five Edge,,,,,,
null,,html-keyboard-response,1661573,,<p></p>,,,,null,,,,,,,,,,,,,,,,,,,,
850.7000000476837,,shortestpath_phase,1662425,,GW/hotsprings.png,,,,49,GW/gatlinburg.png,GW/peoria.png,1,0.5915492957746479,,,,GW/gatlinburg.png,,,,,Two Edge Diff,Two Edge Four Edge,,,,,,
null,,html-keyboard-response,1663428,,<p></p>,,,,null,,,,,,,,,,,,,,,,,,,,
1523.7000000476837,,shortestpath_phase,1664953,,GW/leesburg.png,,,,50,GW/racine.png,GW/huntsville.png,0,0.5833333333333334,,,,GW/racine.png,,,,,Two Edge Diff,Three Edge Five Edge,,,,,,
null,,html-keyboard-response,1665957,,<p></p>,,,,null,,,,,,,,,,,,,,,,,,,,
2306.199999809265,,shortestpath_phase,1668266,,GW/huntsville.png,,,,49,GW/hanover.png,GW/leesburg.png,1,0.589041095890411,,,,GW/hanover.png,,,,,Two Edge Diff,Three Edge Five Edge,,,,,,
null,,html-keyboard-response,1669268,,<p></p>,,,,null,,,,,,,,,,,,,,,,,,,,
2770.7999999523163,,shortestpath_phase,1672041,,GW/peoria.png,,,,49,GW/newhope.png,GW/leesburg.png,1,0.5945945945945946,,,,GW/newhope.png,,,,,Three Edge Diff,Three Edge Six Edge,,,,,,
null,,html-keyboard-response,1673045,,<p></p>,,,,null,,,,,,,,,,,,,,,,,,,,
2162.7999999523163,,shortestpath_phase,1675209,,GW/leesburg.png,,,,50,GW/hanover.png,GW/boulder.png,0,0.5866666666666667,,,,GW/hanover.png,,,,,Four Edge Diff,Two Edge Six Edge,,,,,,
null,,html-keyboard-response,1676213,,<p></p>,,,,null,,,,,,,,,,,,,,,,,,,,
1058.7000000476837,,shortestpath_phase,1677273,,GW/racine.png,,,,50,GW/huntsville.png,GW/gatlinburg.png,1,0.5921052631578947,,,,GW/gatlinburg.png,,,,,Two Edge Diff,Two Edge Four Edge,,,,,,
null,,html-keyboard-response,1678277,,<p></p>,,,,null,,,,,,,,,,,,,,,,,,,,
1306.5,,shortestpath_phase,1679585,,GW/hotsprings.png,,,,50,GW/shreveport.png,GW/newhope.png,1,0.5974025974025974,,,,GW/newhope.png,,,,,Three Edge Diff,Two Edge Five Edge,,,,,,
null,,html-keyboard-response,1680588,,<p></p>,,,,null,,,,,,,,,,,,,,,,,,,,
1163.5,,shortestpath_phase,1681753,,GW/carmel.png,,,,50,GW/racine.png,GW/leesburg.png,0,0.5897435897435898,,,,GW/racine.png,,,,,One Edge Diff,Three Edge Four Edge,,,,,,
null,,html-keyboard-response,1682757,,<p></p>,,,,null,,,,,,,,,,,,,,,,,,,,
2370.399999856949,,shortestpath_phase,1685129,,GW/shreveport.png,,,,50,GW/leesburg.png,GW/gatlinburg.png,1,0.5949367088607594,,,,GW/gatlinburg.png,,,,,Two Edge Diff,Four Edge Six Edge,,,,,,
null,,html-keyboard-response,1686133,,<p></p>,,,,null,,,,,,,,,,,,,,,,,,,,
1659,,shortestpath_phase,1687793,,GW/racine.png,,,,50,GW/peoria.png,GW/hotsprings.png,1,0.6,,,,GW/hotsprings.png,,,,,Three Edge Diff,Two Edge Five Edge,,,,,,
null,,html-keyboard-response,1688796,,<p></p>,,,,null,,,,,,,,,,,,,,,,,,,,
1787,,shortestpath_phase,1690585,,GW/leesburg.png,,,,49,GW/cornwall.png,GW/boulder.png,1,0.6049382716049383,,,,GW/cornwall.png,,,,,Two Edge Diff,Four Edge Six Edge,,,,,,
null,,html-keyboard-response,1691589,,<p></p>,,,,null,,,,,,,,,,,,,,,,,,,,
890.5,,shortestpath_phase,1692481,,GW/racine.png,,,,50,GW/hotsprings.png,GW/carmel.png,0,0.5975609756097561,,,,GW/hotsprings.png,,,,,One Edge Diff,Two Edge Three Edge,,,,,,
null,,html-keyboard-response,1693486,,<p></p>,,,,null,,,,,,,,,,,,,,,,,,,,
1233.7999999523163,,shortestpath_phase,1694721,,GW/hanover.png,,,,50,GW/boulder.png,GW/huntsville.png,1,0.6024096385542169,,,,GW/huntsville.png,,,,,One Edge Diff,Three Edge Four Edge,,,,,,
