rt,responses,trial_type,time_elapsed,sequence,stimulus,graphorder,button_pressed,response,key_press,stimulus_left,stimulus_right,accuracy,cumulative_accuracy,stimulus_down_left,stimulus_down_mid,stimulus_down_right,stimulus_correct,stimulus_short,stimulus_far,weighted_accuracy,missedtrial,condition,specific_pairs,imgL_ID,imgR_ID,linedress,linedressed,linedressed_detor,detour_trial
94546.69999998808,{worker_id:663e5cf112f5d047cf5c9fad},id_enter,94549,blocked,replication,GW/boulder.png; GW/peoria.png; GW/carmel.png; GW/hanover.png; GW/cornwall.png; GW/hotsprings.png; GW/leesburg.png; GW/westpalmbeach.png; GW/huntsville.png; GW/gatlinburg.png; GW/racine.png; GW/shreveport.png; GW/newhope.png,,,,,,,,,,,,,,,,,,,,,,,
115091,,fullscreen,209646,,fullscreen,,0,,,,,,,,,,,,,,,,,,,,,,
4237.0999999940395,,intro_1,213887,,instruct,,0,,,,,,,,,,,,,,,,,,,,,,
3721.2999999821186,,intro_2,217610,,instruct,,1,Next,,,,,,,,,,,,,,,,,,,,,
3341.4000000059605,,intro_3,220954,,instruct,,1,Next,,,,,,,,,,,,,,,,,,,,,
null,,learn_prac_1,223956,,lean_prac_1,,,,null,,,,,,,,,,,,,,,,,,,,
null,,html-keyboard-response,224960,,<p></p>,,,,null,,,,,,,,,,,,,,,,,,,,
2379.300000011921,,intro_1,227340,,instruct,,0,,,,,,,,,,,,,,,,,,,,,,
2278.2000000178814,,intro_2,229619,,instruct,,1,Next,,,,,,,,,,,,,,,,,,,,,
null,,learn_prac_2,232623,,lean_prac_2,,,,null,,,,,,,,,,,,,,,,,,,,
null,,html-keyboard-response,233626,,<p></p>,,,,null,,,,,,,,,,,,,,,,,,,,
2307.9000000059605,,intro_1,235935,,instruct,,0,,,,,,,,,,,,,,,,,,,,,,
2303,,intro_2,238240,,instruct,,1,Next,,,,,,,,,,,,,,,,,,,,,
214062.19999998808,,intro_3,452302,,instruct,,1,Next,,,,,,,,,,,,,,,,,,,,,
null,,prac_atten_color_black,453293,,black_plus_sign,,,,null,,,,,,,,,,,,,,,,,,,,
null,,prac_atten_color,453710,,prac_stop_color,,,,null,,,,,,,,,,,,,,,,,,,,
414,,prac_atten_color_black,455712,,black_plus_sign,,,,49,,,,,,,,,,,,,,,,,,,,
null,,prac_atten_color_black,456701,,black_plus_sign,,,,null,,,,,,,,,,,,,,,,,,,,
269.09999999403954,,prac_atten_color,457388,,prac_stop_color,,,,50,,,,,,,,,,,,,,,,,,,,
null,,prac_atten_color_black,459390,,black_plus_sign,,,,null,,,,,,,,,,,,,,,,,,,,
null,,prac_atten_color_black,460109,,black_plus_sign,,,,null,,,,,,,,,,,,,,,,,,,,
416.69999998807907,,prac_atten_color,461193,,prac_stop_color,,,,50,,,,,,,,,,,,,,,,,,,,
null,,prac_atten_color_black,463194,,black_plus_sign,,,,null,,,,,,,,,,,,,,,,,,,,
null,,prac_atten_color_black,463513,,black_plus_sign,,,,null,,,,,,,,,,,,,,,,,,,,
493.30000001192093,,prac_atten_color,464238,,prac_stop_color,,,,49,,,,,,,,,,,,,,,,,,,,
null,,prac_atten_color_black,466239,,black_plus_sign,,,,null,,,,,,,,,,,,,,,,,,,,
null,,prac_atten_color_black,466919,,black_plus_sign,,,,null,,,,,,,,,,,,,,,,,,,,
403.2000000178814,,prac_atten_color,467444,,prac_stop_color,,,,50,,,,,,,,,,,,,,,,,,,,
null,,prac_atten_color_black,469445,,black_plus_sign,,,,null,,,,,,,,,,,,,,,,,,,,
null,,prac_atten_color_black,470324,,black_plus_sign,,,,null,,,,,,,,,,,,,,,,,,,,
529.5999999940395,,prac_atten_color,470952,,prac_stop_color,,,,50,,,,,,,,,,,,,,,,,,,,
null,,prac_atten_color_black,472955,,black_plus_sign,,,,null,,,,,,,,,,,,,,,,,,,,
null,,prac_atten_color_black,473730,,black_plus_sign,,,,null,,,,,,,,,,,,,,,,,,,,
609.4000000059605,,prac_atten_color,474343,,prac_stop_color,,,,49,,,,,,,,,,,,,,,,,,,,
null,,prac_atten_color_black,476345,,black_plus_sign,,,,null,,,,,,,,,,,,,,,,,,,,
null,,prac_atten_color_black,477136,,black_plus_sign,,,,null,,,,,,,,,,,,,,,,,,,,
470,,prac_atten_color,477618,,prac_stop_color,,,,50,,,,,,,,,,,,,,,,,,,,
null,,prac_atten_color_black,479620,,black_plus_sign,,,,null,,,,,,,,,,,,,,,,,,,,
null,,prac_atten_color_black,480544,,black_plus_sign,,,,null,,,,,,,,,,,,,,,,,,,,
454.30000001192093,,prac_atten_color,481517,,prac_stop_color,,,,50,,,,,,,,,,,,,,,,,,,,
null,,prac_atten_color_black,483519,,black_plus_sign,,,,null,,,,,,,,,,,,,,,,,,,,
3925.0999999940395,,attentioncheck_help,487446,,instruct,,,,32,,,,,,,,,,,,,,,,,,,,
null,,prac_atten_color_black,487876,,black_plus_sign,,,,null,,,,,,,,,,,,,,,,,,,,
354,,prac_atten_color,488901,,prac_stop_color,,,,49,,,,,,,,,,,,,,,,,,,,
null,,prac_atten_color_black,490903,,black_plus_sign,,,,null,,,,,,,,,,,,,,,,,,,,
88596.09999999404,,attentioncheck_feedback,579501,,cross_check_feedback,,0,,,,,,,,,,,,,,,,,,,,,,
65039.80000001192,,last_instruct,644541,,instruct,,,,32,,,,,,,,,,,,,,,,,,,,
null,,learn_phase(without_color),647543,,black_plus_sign,,,,null,GW/boulder.png,GW/peoria.png,,,,,,,,,,,,,,,,,,
null,,black_cross(without_color),648556,,yellow,,,,null,GW/boulder.png,GW/peoria.png,,,,,,,,,,,,,,,,,,
452.10000002384186,,rt_plussign_withcolor,649059,,yellow,,,,50,GW/boulder.png,GW/peoria.png,,,,,,,,,,,,,,,,,,
null,,rt_thecrossant_black,650050,,black_plus_sign,,,,null,,,1,1,,,,,,,,,,,,,,,,
null,,color_black,650151,,black_plus_sign,,,,null,,,,,,,,,,,,,,,,,,,,
null,,learn_phase(without_color),653154,,black_plus_sign,,,,null,GW/leesburg.png,GW/newhope.png,,,,,,,,,,,,,,,,,,
null,,black_cross(without_color),653944,,blue,,,,null,GW/leesburg.png,GW/newhope.png,,,,,,,,,,,,,,,,,,
464.80000001192093,,rt_plussign_withcolor,654446,,blue,,,,49,GW/leesburg.png,GW/newhope.png,,,,,,,,,,,,,,,,,,
null,,rt_thecrossant_black,655658,,black_plus_sign,,,,null,,,1,1,,,,,,,,,,,,,,,,
null,,color_black,655762,,black_plus_sign,,,,null,,,,,,,,,,,,,,,,,,,,
null,,learn_phase(without_color),658764,,black_plus_sign,,,,null,GW/hotsprings.png,GW/huntsville.png,,,,,,,,,,,,,,,,,,
null,,black_cross(without_color),659316,,yellow,,,,null,GW/hotsprings.png,GW/huntsville.png,,,,,,,,,,,,,,,,,,
353.59999999403954,,rt_plussign_withcolor,659818,,yellow,,,,50,GW/hotsprings.png,GW/huntsville.png,,,,,,,,,,,,,,,,,,
null,,rt_thecrossant_black,661271,,black_plus_sign,,,,null,,,1,1,,,,,,,,,,,,,,,,
null,,color_black,661375,,black_plus_sign,,,,null,,,,,,,,,,,,,,,,,,,,
null,,learn_phase(without_color),664376,,black_plus_sign,,,,null,GW/boulder.png,GW/peoria.png,,,,,,,,,,,,,,,,,,
null,,black_cross(without_color),664919,,yellow,,,,null,GW/boulder.png,GW/peoria.png,,,,,,,,,,,,,,,,,,
465.59999999403954,,rt_plussign_withcolor,665420,,yellow,,,,50,GW/boulder.png,GW/peoria.png,,,,,,,,,,,,,,,,,,
null,,rt_thecrossant_black,666881,,black_plus_sign,,,,null,,,1,1,,,,,,,,,,,,,,,,
null,,color_black,666983,,black_plus_sign,,,,null,,,,,,,,,,,,,,,,,,,,
null,,learn_phase(without_color),669986,,black_plus_sign,,,,null,GW/racine.png,GW/shreveport.png,,,,,,,,,,,,,,,,,,
null,,black_cross(without_color),670409,,blue,,,,null,GW/racine.png,GW/shreveport.png,,,,,,,,,,,,,,,,,,
378.69999998807907,,rt_plussign_withcolor,670911,,blue,,,,49,GW/racine.png,GW/shreveport.png,,,,,,,,,,,,,,,,,,
null,,rt_thecrossant_black,672491,,black_plus_sign,,,,null,,,1,1,,,,,,,,,,,,,,,,
null,,color_black,672594,,black_plus_sign,,,,null,,,,,,,,,,,,,,,,,,,,
null,,learn_phase(without_color),675597,,black_plus_sign,,,,null,GW/huntsville.png,GW/hotsprings.png,,,,,,,,,,,,,,,,,,
null,,black_cross(without_color),676156,,yellow,,,,null,GW/huntsville.png,GW/hotsprings.png,,,,,,,,,,,,,,,,,,
482.2999999821186,,rt_plussign_withcolor,676657,,yellow,,,,50,GW/huntsville.png,GW/hotsprings.png,,,,,,,,,,,,,,,,,,
null,,rt_thecrossant_black,678101,,black_plus_sign,,,,null,,,1,1,,,,,,,,,,,,,,,,
null,,color_black,678203,,black_plus_sign,,,,null,,,,,,,,,,,,,,,,,,,,
null,,learn_phase(without_color),681206,,black_plus_sign,,,,null,GW/peoria.png,GW/boulder.png,,,,,,,,,,,,,,,,,,
null,,black_cross(without_color),681966,,yellow,,,,null,GW/peoria.png,GW/boulder.png,,,,,,,,,,,,,,,,,,
null,,rt_plussign_withcolor,682468,,yellow,,,,null,GW/peoria.png,GW/boulder.png,,,,,,,,,,,,,,,,,,
714.6999999880791,,rt_thecrossant_black,683713,,black_plus_sign,,,,49,,,0,0.8571428571428571,,,,,,,,,,,,,,,,
null,,color_black,683814,,black_plus_sign,,,,null,,,,,,,,,,,,,,,,,,,,
null,,learn_phase(without_color),686817,,black_plus_sign,,,,null,GW/hotsprings.png,GW/huntsville.png,,,,,,,,,,,,,,,,,,
null,,black_cross(without_color),687349,,blue,,,,null,GW/hotsprings.png,GW/huntsville.png,,,,,,,,,,,,,,,,,,
null,,rt_plussign_withcolor,687861,,blue,,,,null,GW/hotsprings.png,GW/huntsville.png,,,,,,,,,,,,,,,,,,
873.0999999940395,,rt_thecrossant_black,689333,,black_plus_sign,,,,49,,,1,0.875,,,,,,,,,,,,,,,,
null,,color_black,689435,,black_plus_sign,,,,null,,,,,,,,,,,,,,,,,,,,
null,,learn_phase(without_color),692438,,black_plus_sign,,,,null,GW/newhope.png,GW/leesburg.png,,,,,,,,,,,,,,,,,,
null,,black_cross(without_color),693477,,yellow,,,,null,GW/newhope.png,GW/leesburg.png,,,,,,,,,,,,,,,,,,
426.09999999403954,,rt_plussign_withcolor,693979,,yellow,,,,50,GW/newhope.png,GW/leesburg.png,,,,,,,,,,,,,,,,,,
null,,rt_thecrossant_black,694942,,black_plus_sign,,,,null,,,1,0.8888888888888888,,,,,,,,,,,,,,,,
null,,color_black,695045,,black_plus_sign,,,,null,,,,,,,,,,,,,,,,,,,,
null,,learn_phase(without_color),698047,,black_plus_sign,,,,null,GW/boulder.png,GW/peoria.png,,,,,,,,,,,,,,,,,,
null,,black_cross(without_color),699057,,blue,,,,null,GW/boulder.png,GW/peoria.png,,,,,,,,,,,,,,,,,,
362.09999999403954,,rt_plussign_withcolor,699558,,blue,,,,49,GW/boulder.png,GW/peoria.png,,,,,,,,,,,,,,,,,,
null,,rt_thecrossant_black,700552,,black_plus_sign,,,,null,,,1,0.9,,,,,,,,,,,,,,,,
null,,color_black,700654,,black_plus_sign,,,,null,,,,,,,,,,,,,,,,,,,,
null,,learn_phase(without_color),703656,,black_plus_sign,,,,null,GW/huntsville.png,GW/hotsprings.png,,,,,,,,,,,,,,,,,,
null,,black_cross(without_color),704550,,blue,,,,null,GW/huntsville.png,GW/hotsprings.png,,,,,,,,,,,,,,,,,,
442.40000000596046,,rt_plussign_withcolor,705052,,blue,,,,49,GW/huntsville.png,GW/hotsprings.png,,,,,,,,,,,,,,,,,,
null,,rt_thecrossant_black,706162,,black_plus_sign,,,,null,,,1,0.9090909090909091,,,,,,,,,,,,,,,,
null,,color_black,706263,,black_plus_sign,,,,null,,,,,,,,,,,,,,,,,,,,
null,,learn_phase(without_color),709266,,black_plus_sign,,,,null,GW/leesburg.png,GW/newhope.png,,,,,,,,,,,,,,,,,,
null,,black_cross(without_color),709825,,yellow,,,,null,GW/leesburg.png,GW/newhope.png,,,,,,,,,,,,,,,,,,
null,,rt_plussign_withcolor,710327,,yellow,,,,null,GW/leesburg.png,GW/newhope.png,,,,,,,,,,,,,,,,,,
997.6999999880791,,rt_thecrossant_black,711773,,black_plus_sign,,,,50,,,1,0.9166666666666666,,,,,,,,,,,,,,,,
null,,color_black,711875,,black_plus_sign,,,,null,,,,,,,,,,,,,,,,,,,,
null,,learn_phase(without_color),714879,,black_plus_sign,,,,null,GW/hotsprings.png,GW/huntsville.png,,,,,,,,,,,,,,,,,,
null,,black_cross(without_color),715426,,blue,,,,null,GW/hotsprings.png,GW/huntsville.png,,,,,,,,,,,,,,,,,,
390.90000000596046,,rt_plussign_withcolor,715928,,blue,,,,49,GW/hotsprings.png,GW/huntsville.png,,,,,,,,,,,,,,,,,,
null,,rt_thecrossant_black,717385,,black_plus_sign,,,,null,,,1,0.9230769230769231,,,,,,,,,,,,,,,,
null,,color_black,717487,,black_plus_sign,,,,null,,,,,,,,,,,,,,,,,,,,
null,,learn_phase(without_color),720489,,black_plus_sign,,,,null,GW/boulder.png,GW/peoria.png,,,,,,,,,,,,,,,,,,
null,,black_cross(without_color),721061,,blue,,,,null,GW/boulder.png,GW/peoria.png,,,,,,,,,,,,,,,,,,
440.2999999821186,,rt_plussign_withcolor,721564,,blue,,,,49,GW/boulder.png,GW/peoria.png,,,,,,,,,,,,,,,,,,
null,,rt_thecrossant_black,722999,,black_plus_sign,,,,null,,,1,0.9285714285714286,,,,,,,,,,,,,,,,
null,,color_black,723101,,black_plus_sign,,,,null,,,,,,,,,,,,,,,,,,,,
null,,learn_phase(without_color),726103,,black_plus_sign,,,,null,GW/shreveport.png,GW/racine.png,,,,,,,,,,,,,,,,,,
null,,black_cross(without_color),726692,,yellow,,,,null,GW/shreveport.png,GW/racine.png,,,,,,,,,,,,,,,,,,
null,,rt_plussign_withcolor,727193,,yellow,,,,null,GW/shreveport.png,GW/racine.png,,,,,,,,,,,,,,,,,,
720.5999999940395,,rt_thecrossant_black,728609,,black_plus_sign,,,,50,,,1,0.9333333333333333,,,,,,,,,,,,,,,,
null,,color_black,728713,,black_plus_sign,,,,null,,,,,,,,,,,,,,,,,,,,
null,,learn_phase(without_color),731715,,black_plus_sign,,,,null,GW/huntsville.png,GW/hotsprings.png,,,,,,,,,,,,,,,,,,
null,,black_cross(without_color),732539,,blue,,,,null,GW/huntsville.png,GW/hotsprings.png,,,,,,,,,,,,,,,,,,
372.5,,rt_plussign_withcolor,733041,,blue,,,,49,GW/huntsville.png,GW/hotsprings.png,,,,,,,,,,,,,,,,,,
null,,rt_thecrossant_black,734226,,black_plus_sign,,,,null,,,1,0.9375,,,,,,,,,,,,,,,,
null,,color_black,734328,,black_plus_sign,,,,null,,,,,,,,,,,,,,,,,,,,
null,,learn_phase(without_color),737330,,black_plus_sign,,,,null,GW/newhope.png,GW/leesburg.png,,,,,,,,,,,,,,,,,,
null,,black_cross(without_color),737947,,blue,,,,null,GW/newhope.png,GW/leesburg.png,,,,,,,,,,,,,,,,,,
410,,rt_plussign_withcolor,738458,,blue,,,,49,GW/newhope.png,GW/leesburg.png,,,,,,,,,,,,,,,,,,
null,,rt_thecrossant_black,739846,,black_plus_sign,,,,null,,,1,0.9411764705882353,,,,,,,,,,,,,,,,
null,,color_black,739948,,black_plus_sign,,,,null,,,,,,,,,,,,,,,,,,,,
null,,learn_phase(without_color),742949,,black_plus_sign,,,,null,GW/huntsville.png,GW/hotsprings.png,,,,,,,,,,,,,,,,,,
null,,black_cross(without_color),743615,,blue,,,,null,GW/huntsville.png,GW/hotsprings.png,,,,,,,,,,,,,,,,,,
null,,rt_plussign_withcolor,744116,,blue,,,,null,GW/huntsville.png,GW/hotsprings.png,,,,,,,,,,,,,,,,,,
735.3000000119209,,rt_thecrossant_black,745466,,black_plus_sign,,,,49,,,1,0.9444444444444444,,,,,,,,,,,,,,,,
null,,color_black,745568,,black_plus_sign,,,,null,,,,,,,,,,,,,,,,,,,,
null,,learn_phase(without_color),748569,,black_plus_sign,,,,null,GW/shreveport.png,GW/racine.png,,,,,,,,,,,,,,,,,,
null,,black_cross(without_color),749380,,blue,,,,null,GW/shreveport.png,GW/racine.png,,,,,,,,,,,,,,,,,,
null,,rt_plussign_withcolor,749881,,blue,,,,null,GW/shreveport.png,GW/racine.png,,,,,,,,,,,,,,,,,,
772,,rt_thecrossant_black,751074,,black_plus_sign,,,,49,,,1,0.9473684210526315,,,,,,,,,,,,,,,,
null,,color_black,751176,,black_plus_sign,,,,null,,,,,,,,,,,,,,,,,,,,
null,,learn_phase(without_color),754178,,black_plus_sign,,,,null,GW/hotsprings.png,GW/huntsville.png,,,,,,,,,,,,,,,,,,
null,,black_cross(without_color),754867,,yellow,,,,null,GW/hotsprings.png,GW/huntsville.png,,,,,,,,,,,,,,,,,,
479.2000000178814,,rt_plussign_withcolor,755368,,yellow,,,,50,GW/hotsprings.png,GW/huntsville.png,,,,,,,,,,,,,,,,,,
null,,rt_thecrossant_black,756683,,black_plus_sign,,,,null,,,1,0.95,,,,,,,,,,,,,,,,
null,,color_black,756784,,black_plus_sign,,,,null,,,,,,,,,,,,,,,,,,,,
null,,learn_phase(without_color),759786,,black_plus_sign,,,,null,GW/leesburg.png,GW/newhope.png,,,,,,,,,,,,,,,,,,
null,,black_cross(without_color),760796,,yellow,,,,null,GW/leesburg.png,GW/newhope.png,,,,,,,,,,,,,,,,,,
null,,rt_plussign_withcolor,761298,,yellow,,,,null,GW/leesburg.png,GW/newhope.png,,,,,,,,,,,,,,,,,,
891.5,,rt_thecrossant_black,762293,,black_plus_sign,,,,49,,,0,0.9047619047619048,,,,,,,,,,,,,,,,
null,,color_black,762394,,black_plus_sign,,,,null,,,,,,,,,,,,,,,,,,,,
null,,learn_phase(without_color),765397,,black_plus_sign,,,,null,GW/shreveport.png,GW/racine.png,,,,,,,,,,,,,,,,,,
null,,black_cross(without_color),766098,,yellow,,,,null,GW/shreveport.png,GW/racine.png,,,,,,,,,,,,,,,,,,
384,,rt_plussign_withcolor,766600,,yellow,,,,50,GW/shreveport.png,GW/racine.png,,,,,,,,,,,,,,,,,,
null,,rt_thecrossant_black,767906,,black_plus_sign,,,,null,,,1,0.9090909090909091,,,,,,,,,,,,,,,,
null,,color_black,768008,,black_plus_sign,,,,null,,,,,,,,,,,,,,,,,,,,
null,,learn_phase(without_color),771010,,black_plus_sign,,,,null,GW/newhope.png,GW/leesburg.png,,,,,,,,,,,,,,,,,,
null,,black_cross(without_color),771653,,yellow,,,,null,GW/newhope.png,GW/leesburg.png,,,,,,,,,,,,,,,,,,
362.59999999403954,,rt_plussign_withcolor,772154,,yellow,,,,50,GW/newhope.png,GW/leesburg.png,,,,,,,,,,,,,,,,,,
null,,rt_thecrossant_black,773516,,black_plus_sign,,,,null,,,1,0.9130434782608695,,,,,,,,,,,,,,,,
null,,color_black,773617,,black_plus_sign,,,,null,,,,,,,,,,,,,,,,,,,,
null,,learn_phase(without_color),776619,,black_plus_sign,,,,null,GW/boulder.png,GW/peoria.png,,,,,,,,,,,,,,,,,,
null,,black_cross(without_color),777196,,blue,,,,null,GW/boulder.png,GW/peoria.png,,,,,,,,,,,,,,,,,,
444.5,,rt_plussign_withcolor,777699,,blue,,,,49,GW/boulder.png,GW/peoria.png,,,,,,,,,,,,,,,,,,
null,,rt_thecrossant_black,779126,,black_plus_sign,,,,null,,,1,0.9166666666666666,,,,,,,,,,,,,,,,
null,,color_black,779228,,black_plus_sign,,,,null,,,,,,,,,,,,,,,,,,,,
null,,learn_phase(without_color),782230,,black_plus_sign,,,,null,GW/racine.png,GW/shreveport.png,,,,,,,,,,,,,,,,,,
null,,black_cross(without_color),783046,,yellow,,,,null,GW/racine.png,GW/shreveport.png,,,,,,,,,,,,,,,,,,
408.7000000178814,,rt_plussign_withcolor,783549,,yellow,,,,50,GW/racine.png,GW/shreveport.png,,,,,,,,,,,,,,,,,,
null,,rt_thecrossant_black,784736,,black_plus_sign,,,,null,,,1,0.92,,,,,,,,,,,,,,,,
null,,color_black,784838,,black_plus_sign,,,,null,,,,,,,,,,,,,,,,,,,,
null,,learn_phase(without_color),787840,,black_plus_sign,,,,null,GW/leesburg.png,GW/newhope.png,,,,,,,,,,,,,,,,,,
null,,black_cross(without_color),788393,,yellow,,,,null,GW/leesburg.png,GW/newhope.png,,,,,,,,,,,,,,,,,,
411.80000001192093,,rt_plussign_withcolor,788894,,yellow,,,,50,GW/leesburg.png,GW/newhope.png,,,,,,,,,,,,,,,,,,
null,,rt_thecrossant_black,790346,,black_plus_sign,,,,null,,,1,0.9230769230769231,,,,,,,,,,,,,,,,
null,,color_black,790447,,black_plus_sign,,,,null,,,,,,,,,,,,,,,,,,,,
null,,learn_phase(without_color),793449,,black_plus_sign,,,,null,GW/boulder.png,GW/peoria.png,,,,,,,,,,,,,,,,,,
null,,black_cross(without_color),793958,,yellow,,,,null,GW/boulder.png,GW/peoria.png,,,,,,,,,,,,,,,,,,
382.40000000596046,,rt_plussign_withcolor,794460,,yellow,,,,50,GW/boulder.png,GW/peoria.png,,,,,,,,,,,,,,,,,,
null,,rt_thecrossant_black,795957,,black_plus_sign,,,,null,,,1,0.9259259259259259,,,,,,,,,,,,,,,,
null,,color_black,796066,,black_plus_sign,,,,null,,,,,,,,,,,,,,,,,,,,
null,,learn_phase(without_color),799068,,black_plus_sign,,,,null,GW/shreveport.png,GW/racine.png,,,,,,,,,,,,,,,,,,
null,,black_cross(without_color),799673,,blue,,,,null,GW/shreveport.png,GW/racine.png,,,,,,,,,,,,,,,,,,
382.40000000596046,,rt_plussign_withcolor,800174,,blue,,,,49,GW/shreveport.png,GW/racine.png,,,,,,,,,,,,,,,,,,
null,,rt_thecrossant_black,801572,,black_plus_sign,,,,null,,,1,0.9285714285714286,,,,,,,,,,,,,,,,
null,,color_black,801674,,black_plus_sign,,,,null,,,,,,,,,,,,,,,,,,,,
null,,learn_phase(without_color),804676,,black_plus_sign,,,,null,GW/leesburg.png,GW/newhope.png,,,,,,,,,,,,,,,,,,
null,,black_cross(without_color),805118,,yellow,,,,null,GW/leesburg.png,GW/newhope.png,,,,,,,,,,,,,,,,,,
321.7999999821186,,rt_plussign_withcolor,805619,,yellow,,,,50,GW/leesburg.png,GW/newhope.png,,,,,,,,,,,,,,,,,,
null,,rt_thecrossant_black,807180,,black_plus_sign,,,,null,,,1,0.9310344827586207,,,,,,,,,,,,,,,,
null,,color_black,807283,,black_plus_sign,,,,null,,,,,,,,,,,,,,,,,,,,
null,,learn_phase(without_color),810285,,black_plus_sign,,,,null,GW/shreveport.png,GW/racine.png,,,,,,,,,,,,,,,,,,
null,,black_cross(without_color),811153,,blue,,,,null,GW/shreveport.png,GW/racine.png,,,,,,,,,,,,,,,,,,
433.30000001192093,,rt_plussign_withcolor,811655,,blue,,,,49,GW/shreveport.png,GW/racine.png,,,,,,,,,,,,,,,,,,
null,,rt_thecrossant_black,812792,,black_plus_sign,,,,null,,,1,0.9333333333333333,,,,,,,,,,,,,,,,
null,,color_black,812894,,black_plus_sign,,,,null,,,,,,,,,,,,,,,,,,,,
null,,learn_phase(without_color),815896,,black_plus_sign,,,,null,GW/boulder.png,GW/peoria.png,,,,,,,,,,,,,,,,,,
null,,black_cross(without_color),816414,,blue,,,,null,GW/boulder.png,GW/peoria.png,,,,,,,,,,,,,,,,,,
400.90000000596046,,rt_plussign_withcolor,816916,,blue,,,,49,GW/boulder.png,GW/peoria.png,,,,,,,,,,,,,,,,,,
null,,rt_thecrossant_black,818403,,black_plus_sign,,,,null,,,1,0.9354838709677419,,,,,,,,,,,,,,,,
null,,color_black,818505,,black_plus_sign,,,,null,,,,,,,,,,,,,,,,,,,,
null,,learn_phase(without_color),821507,,black_plus_sign,,,,null,GW/shreveport.png,GW/racine.png,,,,,,,,,,,,,,,,,,
null,,black_cross(without_color),822474,,blue,,,,null,GW/shreveport.png,GW/racine.png,,,,,,,,,,,,,,,,,,
397.40000000596046,,rt_plussign_withcolor,822976,,blue,,,,49,GW/shreveport.png,GW/racine.png,,,,,,,,,,,,,,,,,,
null,,rt_thecrossant_black,824012,,black_plus_sign,,,,null,,,1,0.9375,,,,,,,,,,,,,,,,
null,,color_black,824114,,black_plus_sign,,,,null,,,,,,,,,,,,,,,,,,,,
null,,learn_phase(without_color),827116,,black_plus_sign,,,,null,GW/hanover.png,GW/shreveport.png,,,,,,,,,,,,,,,,,,
null,,black_cross(without_color),828129,,blue,,,,null,GW/hanover.png,GW/shreveport.png,,,,,,,,,,,,,,,,,,
381.59999999403954,,rt_plussign_withcolor,828630,,blue,,,,49,GW/hanover.png,GW/shreveport.png,,,,,,,,,,,,,,,,,,
null,,rt_thecrossant_black,829622,,black_plus_sign,,,,null,,,1,0.9393939393939394,,,,,,,,,,,,,,,,
null,,color_black,829724,,black_plus_sign,,,,null,,,,,,,,,,,,,,,,,,,,
null,,learn_phase(without_color),832726,,black_plus_sign,,,,null,GW/westpalmbeach.png,GW/gatlinburg.png,,,,,,,,,,,,,,,,,,
null,,black_cross(without_color),833630,,yellow,,,,null,GW/westpalmbeach.png,GW/gatlinburg.png,,,,,,,,,,,,,,,,,,
385.69999998807907,,rt_plussign_withcolor,834132,,yellow,,,,50,GW/westpalmbeach.png,GW/gatlinburg.png,,,,,,,,,,,,,,,,,,
null,,rt_thecrossant_black,835232,,black_plus_sign,,,,null,,,1,0.9411764705882353,,,,,,,,,,,,,,,,
null,,color_black,835335,,black_plus_sign,,,,null,,,,,,,,,,,,,,,,,,,,
null,,learn_phase(without_color),838338,,black_plus_sign,,,,null,GW/racine.png,GW/carmel.png,,,,,,,,,,,,,,,,,,
null,,black_cross(without_color),838747,,blue,,,,null,GW/racine.png,GW/carmel.png,,,,,,,,,,,,,,,,,,
498.90000000596046,,rt_plussign_withcolor,839248,,blue,,,,49,GW/racine.png,GW/carmel.png,,,,,,,,,,,,,,,,,,
null,,rt_thecrossant_black,840842,,black_plus_sign,,,,null,,,1,0.9428571428571428,,,,,,,,,,,,,,,,
null,,color_black,840944,,black_plus_sign,,,,null,,,,,,,,,,,,,,,,,,,,
null,,learn_phase(without_color),843946,,black_plus_sign,,,,null,GW/shreveport.png,GW/hanover.png,,,,,,,,,,,,,,,,,,
null,,black_cross(without_color),844490,,blue,,,,null,GW/shreveport.png,GW/hanover.png,,,,,,,,,,,,,,,,,,
455.69999998807907,,rt_plussign_withcolor,844991,,blue,,,,49,GW/shreveport.png,GW/hanover.png,,,,,,,,,,,,,,,,,,
null,,rt_thecrossant_black,846453,,black_plus_sign,,,,null,,,1,0.9444444444444444,,,,,,,,,,,,,,,,
null,,color_black,846555,,black_plus_sign,,,,null,,,,,,,,,,,,,,,,,,,,
null,,learn_phase(without_color),849557,,black_plus_sign,,,,null,GW/racine.png,GW/carmel.png,,,,,,,,,,,,,,,,,,
null,,black_cross(without_color),850249,,yellow,,,,null,GW/racine.png,GW/carmel.png,,,,,,,,,,,,,,,,,,
496.80000001192093,,rt_plussign_withcolor,850750,,yellow,,,,50,GW/racine.png,GW/carmel.png,,,,,,,,,,,,,,,,,,
null,,rt_thecrossant_black,852063,,black_plus_sign,,,,null,,,1,0.9459459459459459,,,,,,,,,,,,,,,,
null,,color_black,852164,,black_plus_sign,,,,null,,,,,,,,,,,,,,,,,,,,
null,,learn_phase(without_color),855168,,black_plus_sign,,,,null,GW/westpalmbeach.png,GW/gatlinburg.png,,,,,,,,,,,,,,,,,,
null,,black_cross(without_color),855790,,blue,,,,null,GW/westpalmbeach.png,GW/gatlinburg.png,,,,,,,,,,,,,,,,,,
479.7999999821186,,rt_plussign_withcolor,856292,,blue,,,,49,GW/westpalmbeach.png,GW/gatlinburg.png,,,,,,,,,,,,,,,,,,
null,,rt_thecrossant_black,857673,,black_plus_sign,,,,null,,,1,0.9473684210526315,,,,,,,,,,,,,,,,
null,,color_black,857775,,black_plus_sign,,,,null,,,,,,,,,,,,,,,,,,,,
null,,learn_phase(without_color),860778,,black_plus_sign,,,,null,GW/racine.png,GW/carmel.png,,,,,,,,,,,,,,,,,,
null,,black_cross(without_color),861667,,blue,,,,null,GW/racine.png,GW/carmel.png,,,,,,,,,,,,,,,,,,
423.90000000596046,,rt_plussign_withcolor,862168,,blue,,,,49,GW/racine.png,GW/carmel.png,,,,,,,,,,,,,,,,,,
null,,rt_thecrossant_black,863284,,black_plus_sign,,,,null,,,1,0.9487179487179487,,,,,,,,,,,,,,,,
null,,color_black,863386,,black_plus_sign,,,,null,,,,,,,,,,,,,,,,,,,,
null,,learn_phase(without_color),866388,,black_plus_sign,,,,null,GW/hanover.png,GW/shreveport.png,,,,,,,,,,,,,,,,,,
null,,black_cross(without_color),867303,,yellow,,,,null,GW/hanover.png,GW/shreveport.png,,,,,,,,,,,,,,,,,,
346.09999999403954,,rt_plussign_withcolor,867804,,yellow,,,,50,GW/hanover.png,GW/shreveport.png,,,,,,,,,,,,,,,,,,
null,,rt_thecrossant_black,868893,,black_plus_sign,,,,null,,,1,0.95,,,,,,,,,,,,,,,,
null,,color_black,868995,,black_plus_sign,,,,null,,,,,,,,,,,,,,,,,,,,
null,,learn_phase(without_color),871997,,black_plus_sign,,,,null,GW/carmel.png,GW/racine.png,,,,,,,,,,,,,,,,,,
null,,black_cross(without_color),872523,,blue,,,,null,GW/carmel.png,GW/racine.png,,,,,,,,,,,,,,,,,,
472.19999998807907,,rt_plussign_withcolor,873025,,blue,,,,49,GW/carmel.png,GW/racine.png,,,,,,,,,,,,,,,,,,
null,,rt_thecrossant_black,874504,,black_plus_sign,,,,null,,,1,0.9512195121951219,,,,,,,,,,,,,,,,
null,,color_black,874605,,black_plus_sign,,,,null,,,,,,,,,,,,,,,,,,,,
null,,learn_phase(without_color),877607,,black_plus_sign,,,,null,GW/huntsville.png,GW/leesburg.png,,,,,,,,,,,,,,,,,,
null,,black_cross(without_color),878575,,yellow,,,,null,GW/huntsville.png,GW/leesburg.png,,,,,,,,,,,,,,,,,,
320.7000000178814,,rt_plussign_withcolor,879077,,yellow,,,,50,GW/huntsville.png,GW/leesburg.png,,,,,,,,,,,,,,,,,,
null,,rt_thecrossant_black,880115,,black_plus_sign,,,,null,,,1,0.9523809523809523,,,,,,,,,,,,,,,,
null,,color_black,880216,,black_plus_sign,,,,null,,,,,,,,,,,,,,,,,,,,
null,,learn_phase(without_color),883218,,black_plus_sign,,,,null,GW/hanover.png,GW/shreveport.png,,,,,,,,,,,,,,,,,,
null,,black_cross(without_color),884006,,yellow,,,,null,GW/hanover.png,GW/shreveport.png,,,,,,,,,,,,,,,,,,
440.40000000596046,,rt_plussign_withcolor,884508,,yellow,,,,50,GW/hanover.png,GW/shreveport.png,,,,,,,,,,,,,,,,,,
null,,rt_thecrossant_black,885723,,black_plus_sign,,,,null,,,1,0.9534883720930233,,,,,,,,,,,,,,,,
null,,color_black,885824,,black_plus_sign,,,,null,,,,,,,,,,,,,,,,,,,,
null,,learn_phase(without_color),888826,,black_plus_sign,,,,null,GW/leesburg.png,GW/huntsville.png,,,,,,,,,,,,,,,,,,
null,,black_cross(without_color),889376,,yellow,,,,null,GW/leesburg.png,GW/huntsville.png,,,,,,,,,,,,,,,,,,
329.80000001192093,,rt_plussign_withcolor,889877,,yellow,,,,50,GW/leesburg.png,GW/huntsville.png,,,,,,,,,,,,,,,,,,
null,,rt_thecrossant_black,891332,,black_plus_sign,,,,null,,,1,0.9545454545454546,,,,,,,,,,,,,,,,
null,,color_black,891433,,black_plus_sign,,,,null,,,,,,,,,,,,,,,,,,,,
null,,learn_phase(without_color),894435,,black_plus_sign,,,,null,GW/westpalmbeach.png,GW/gatlinburg.png,,,,,,,,,,,,,,,,,,
null,,black_cross(without_color),895492,,blue,,,,null,GW/westpalmbeach.png,GW/gatlinburg.png,,,,,,,,,,,,,,,,,,
364.80000001192093,,rt_plussign_withcolor,895994,,blue,,,,49,GW/westpalmbeach.png,GW/gatlinburg.png,,,,,,,,,,,,,,,,,,
null,,rt_thecrossant_black,896942,,black_plus_sign,,,,null,,,1,0.9555555555555556,,,,,,,,,,,,,,,,
null,,color_black,897044,,black_plus_sign,,,,null,,,,,,,,,,,,,,,,,,,,
null,,learn_phase(without_color),900046,,black_plus_sign,,,,null,GW/hanover.png,GW/shreveport.png,,,,,,,,,,,,,,,,,,
null,,black_cross(without_color),900569,,yellow,,,,null,GW/hanover.png,GW/shreveport.png,,,,,,,,,,,,,,,,,,
476.59999999403954,,rt_plussign_withcolor,901071,,yellow,,,,50,GW/hanover.png,GW/shreveport.png,,,,,,,,,,,,,,,,,,
null,,rt_thecrossant_black,902552,,black_plus_sign,,,,null,,,1,0.9565217391304348,,,,,,,,,,,,,,,,
null,,color_black,902654,,black_plus_sign,,,,null,,,,,,,,,,,,,,,,,,,,
null,,learn_phase(without_color),905657,,black_plus_sign,,,,null,GW/leesburg.png,GW/huntsville.png,,,,,,,,,,,,,,,,,,
null,,black_cross(without_color),906434,,blue,,,,null,GW/leesburg.png,GW/huntsville.png,,,,,,,,,,,,,,,,,,
487.19999998807907,,rt_plussign_withcolor,906935,,blue,,,,49,GW/leesburg.png,GW/huntsville.png,,,,,,,,,,,,,,,,,,
null,,rt_thecrossant_black,908163,,black_plus_sign,,,,null,,,1,0.9574468085106383,,,,,,,,,,,,,,,,
null,,color_black,908265,,black_plus_sign,,,,null,,,,,,,,,,,,,,,,,,,,
null,,learn_phase(without_color),911268,,black_plus_sign,,,,null,GW/westpalmbeach.png,GW/gatlinburg.png,,,,,,,,,,,,,,,,,,
null,,black_cross(without_color),912082,,blue,,,,null,GW/westpalmbeach.png,GW/gatlinburg.png,,,,,,,,,,,,,,,,,,
369.2000000178814,,rt_plussign_withcolor,912583,,blue,,,,49,GW/westpalmbeach.png,GW/gatlinburg.png,,,,,,,,,,,,,,,,,,
null,,rt_thecrossant_black,913774,,black_plus_sign,,,,null,,,1,0.9583333333333334,,,,,,,,,,,,,,,,
null,,color_black,913882,,black_plus_sign,,,,null,,,,,,,,,,,,,,,,,,,,
null,,learn_phase(without_color),916885,,black_plus_sign,,,,null,GW/racine.png,GW/carmel.png,,,,,,,,,,,,,,,,,,
null,,black_cross(without_color),917801,,blue,,,,null,GW/racine.png,GW/carmel.png,,,,,,,,,,,,,,,,,,
460,,rt_plussign_withcolor,918304,,blue,,,,49,GW/racine.png,GW/carmel.png,,,,,,,,,,,,,,,,,,
null,,rt_thecrossant_black,919392,,black_plus_sign,,,,null,,,1,0.9591836734693877,,,,,,,,,,,,,,,,
null,,color_black,919493,,black_plus_sign,,,,null,,,,,,,,,,,,,,,,,,,,
null,,learn_phase(without_color),922496,,black_plus_sign,,,,null,GW/huntsville.png,GW/leesburg.png,,,,,,,,,,,,,,,,,,
null,,black_cross(without_color),923355,,blue,,,,null,GW/huntsville.png,GW/leesburg.png,,,,,,,,,,,,,,,,,,
null,,rt_plussign_withcolor,923864,,blue,,,,null,GW/huntsville.png,GW/leesburg.png,,,,,,,,,,,,,,,,,,
1181.699999988079,,rt_thecrossant_black,925009,,black_plus_sign,,,,49,,,1,0.96,,,,,,,,,,,,,,,,
null,,color_black,925111,,black_plus_sign,,,,null,,,,,,,,,,,,,,,,,,,,
null,,learn_phase(without_color),928112,,black_plus_sign,,,,null,GW/gatlinburg.png,GW/westpalmbeach.png,,,,,,,,,,,,,,,,,,
null,,black_cross(without_color),928782,,yellow,,,,null,GW/gatlinburg.png,GW/westpalmbeach.png,,,,,,,,,,,,,,,,,,
null,,rt_plussign_withcolor,929284,,yellow,,,,null,GW/gatlinburg.png,GW/westpalmbeach.png,,,,,,,,,,,,,,,,,,
999.0999999940395,,rt_thecrossant_black,930617,,black_plus_sign,,,,50,,,1,0.9607843137254902,,,,,,,,,,,,,,,,
null,,color_black,930719,,black_plus_sign,,,,null,,,,,,,,,,,,,,,,,,,,
null,,learn_phase(without_color),933721,,black_plus_sign,,,,null,GW/huntsville.png,GW/leesburg.png,,,,,,,,,,,,,,,,,,
null,,black_cross(without_color),934614,,blue,,,,null,GW/huntsville.png,GW/leesburg.png,,,,,,,,,,,,,,,,,,
302.09999999403954,,rt_plussign_withcolor,935115,,blue,,,,50,GW/huntsville.png,GW/leesburg.png,,,,,,,,,,,,,,,,,,
null,,rt_thecrossant_black,936226,,black_plus_sign,,,,null,,,0,0.9423076923076923,,,,,,,,,,,,,,,,
null,,color_black,936328,,black_plus_sign,,,,null,,,,,,,,,,,,,,,,,,,,
null,,learn_phase(without_color),939330,,black_plus_sign,,,,null,GW/racine.png,GW/carmel.png,,,,,,,,,,,,,,,,,,
null,,black_cross(without_color),939901,,blue,,,,null,GW/racine.png,GW/carmel.png,,,,,,,,,,,,,,,,,,
394.30000001192093,,rt_plussign_withcolor,940403,,blue,,,,49,GW/racine.png,GW/carmel.png,,,,,,,,,,,,,,,,,,
null,,rt_thecrossant_black,941837,,black_plus_sign,,,,null,,,1,0.9433962264150944,,,,,,,,,,,,,,,,
null,,color_black,941939,,black_plus_sign,,,,null,,,,,,,,,,,,,,,,,,,,
null,,learn_phase(without_color),944942,,black_plus_sign,,,,null,GW/leesburg.png,GW/huntsville.png,,,,,,,,,,,,,,,,,,
null,,black_cross(without_color),945570,,yellow,,,,null,GW/leesburg.png,GW/huntsville.png,,,,,,,,,,,,,,,,,,
null,,rt_plussign_withcolor,946072,,yellow,,,,null,GW/leesburg.png,GW/huntsville.png,,,,,,,,,,,,,,,,,,
687.0999999940395,,rt_thecrossant_black,947447,,black_plus_sign,,,,50,,,1,0.9444444444444444,,,,,,,,,,,,,,,,
null,,color_black,947549,,black_plus_sign,,,,null,,,,,,,,,,,,,,,,,,,,
null,,learn_phase(without_color),950552,,black_plus_sign,,,,null,GW/gatlinburg.png,GW/westpalmbeach.png,,,,,,,,,,,,,,,,,,
null,,black_cross(without_color),951208,,yellow,,,,null,GW/gatlinburg.png,GW/westpalmbeach.png,,,,,,,,,,,,,,,,,,
352,,rt_plussign_withcolor,951709,,yellow,,,,50,GW/gatlinburg.png,GW/westpalmbeach.png,,,,,,,,,,,,,,,,,,
null,,rt_thecrossant_black,953057,,black_plus_sign,,,,null,,,1,0.9454545454545454,,,,,,,,,,,,,,,,
null,,color_black,953159,,black_plus_sign,,,,null,,,,,,,,,,,,,,,,,,,,
null,,learn_phase(without_color),956161,,black_plus_sign,,,,null,GW/racine.png,GW/carmel.png,,,,,,,,,,,,,,,,,,
null,,black_cross(without_color),956820,,yellow,,,,null,GW/racine.png,GW/carmel.png,,,,,,,,,,,,,,,,,,
340.90000000596046,,rt_plussign_withcolor,957321,,yellow,,,,50,GW/racine.png,GW/carmel.png,,,,,,,,,,,,,,,,,,
null,,rt_thecrossant_black,958667,,black_plus_sign,,,,null,,,1,0.9464285714285714,,,,,,,,,,,,,,,,
null,,color_black,958770,,black_plus_sign,,,,null,,,,,,,,,,,,,,,,,,,,
null,,learn_phase(without_color),961773,,black_plus_sign,,,,null,GW/leesburg.png,GW/huntsville.png,,,,,,,,,,,,,,,,,,
null,,black_cross(without_color),962220,,yellow,,,,null,GW/leesburg.png,GW/huntsville.png,,,,,,,,,,,,,,,,,,
434.40000000596046,,rt_plussign_withcolor,962722,,yellow,,,,50,GW/leesburg.png,GW/huntsville.png,,,,,,,,,,,,,,,,,,
null,,rt_thecrossant_black,964277,,black_plus_sign,,,,null,,,1,0.9473684210526315,,,,,,,,,,,,,,,,
null,,color_black,964379,,black_plus_sign,,,,null,,,,,,,,,,,,,,,,,,,,
null,,learn_phase(without_color),967381,,black_plus_sign,,,,null,GW/westpalmbeach.png,GW/gatlinburg.png,,,,,,,,,,,,,,,,,,
null,,black_cross(without_color),968153,,blue,,,,null,GW/westpalmbeach.png,GW/gatlinburg.png,,,,,,,,,,,,,,,,,,
411.19999998807907,,rt_plussign_withcolor,968656,,blue,,,,49,GW/westpalmbeach.png,GW/gatlinburg.png,,,,,,,,,,,,,,,,,,
null,,rt_thecrossant_black,969893,,black_plus_sign,,,,null,,,1,0.9482758620689655,,,,,,,,,,,,,,,,
null,,color_black,969998,,black_plus_sign,,,,null,,,,,,,,,,,,,,,,,,,,
null,,learn_phase(without_color),973000,,black_plus_sign,,,,null,GW/carmel.png,GW/racine.png,,,,,,,,,,,,,,,,,,
null,,black_cross(without_color),973533,,blue,,,,null,GW/carmel.png,GW/racine.png,,,,,,,,,,,,,,,,,,
409,,rt_plussign_withcolor,974035,,blue,,,,49,GW/carmel.png,GW/racine.png,,,,,,,,,,,,,,,,,,
null,,rt_thecrossant_black,975506,,black_plus_sign,,,,null,,,1,0.9491525423728814,,,,,,,,,,,,,,,,
null,,color_black,975607,,black_plus_sign,,,,null,,,,,,,,,,,,,,,,,,,,
null,,learn_phase(without_color),978610,,black_plus_sign,,,,null,GW/shreveport.png,GW/hanover.png,,,,,,,,,,,,,,,,,,
null,,black_cross(without_color),979163,,blue,,,,null,GW/shreveport.png,GW/hanover.png,,,,,,,,,,,,,,,,,,
457.39999997615814,,rt_plussign_withcolor,979664,,blue,,,,49,GW/shreveport.png,GW/hanover.png,,,,,,,,,,,,,,,,,,
null,,rt_thecrossant_black,981113,,black_plus_sign,,,,null,,,1,0.95,,,,,,,,,,,,,,,,
null,,color_black,981215,,black_plus_sign,,,,null,,,,,,,,,,,,,,,,,,,,
null,,learn_phase(without_color),984217,,black_plus_sign,,,,null,GW/westpalmbeach.png,GW/gatlinburg.png,,,,,,,,,,,,,,,,,,
null,,black_cross(without_color),985149,,yellow,,,,null,GW/westpalmbeach.png,GW/gatlinburg.png,,,,,,,,,,,,,,,,,,
322.5,,rt_plussign_withcolor,985651,,yellow,,,,50,GW/westpalmbeach.png,GW/gatlinburg.png,,,,,,,,,,,,,,,,,,
null,,rt_thecrossant_black,986723,,black_plus_sign,,,,null,,,1,0.9508196721311475,,,,,,,,,,,,,,,,
null,,color_black,986825,,black_plus_sign,,,,null,,,,,,,,,,,,,,,,,,,,
null,,learn_phase(without_color),989826,,black_plus_sign,,,,null,GW/huntsville.png,GW/leesburg.png,,,,,,,,,,,,,,,,,,
null,,black_cross(without_color),990421,,blue,,,,null,GW/huntsville.png,GW/leesburg.png,,,,,,,,,,,,,,,,,,
364.2000000178814,,rt_plussign_withcolor,990923,,blue,,,,50,GW/huntsville.png,GW/leesburg.png,,,,,,,,,,,,,,,,,,
null,,rt_thecrossant_black,992332,,black_plus_sign,,,,null,,,0,0.9354838709677419,,,,,,,,,,,,,,,,
null,,color_black,992434,,black_plus_sign,,,,null,,,,,,,,,,,,,,,,,,,,
null,,learn_phase(without_color),995436,,black_plus_sign,,,,null,GW/shreveport.png,GW/hanover.png,,,,,,,,,,,,,,,,,,
null,,black_cross(without_color),996070,,blue,,,,null,GW/shreveport.png,GW/hanover.png,,,,,,,,,,,,,,,,,,
431.09999999403954,,rt_plussign_withcolor,996573,,blue,,,,49,GW/shreveport.png,GW/hanover.png,,,,,,,,,,,,,,,,,,
null,,rt_thecrossant_black,997945,,black_plus_sign,,,,null,,,1,0.9365079365079365,,,,,,,,,,,,,,,,
null,,color_black,998047,,black_plus_sign,,,,null,,,,,,,,,,,,,,,,,,,,
null,,learn_phase(without_color),1001049,,black_plus_sign,,,,null,GW/hanover.png,GW/shreveport.png,,,,,,,,,,,,,,,,,,
null,,black_cross(without_color),1001605,,yellow,,,,null,GW/hanover.png,GW/shreveport.png,,,,,,,,,,,,,,,,,,
387.2999999821186,,rt_plussign_withcolor,1002107,,yellow,,,,50,GW/hanover.png,GW/shreveport.png,,,,,,,,,,,,,,,,,,
null,,rt_thecrossant_black,1003553,,black_plus_sign,,,,null,,,1,0.9375,,,,,,,,,,,,,,,,
null,,color_black,1003655,,black_plus_sign,,,,null,,,,,,,,,,,,,,,,,,,,
null,,learn_break,1064425,,learn_break,,,,null,,,,,,,,,,,,,,,,,,,,
null,,html-keyboard-response,1066419,,<p></p>,,,,null,,,,,,,,,,,,,,,,,,,,
null,,learn_phase(without_color),1069421,,black_plus_sign,,,,null,GW/westpalmbeach.png,GW/huntsville.png,,,,,,,,,,,,,,,,,,
null,,black_cross(without_color),1070339,,blue,,,,null,GW/westpalmbeach.png,GW/huntsville.png,,,,,,,,,,,,,,,,,,
396.30000001192093,,rt_plussign_withcolor,1070841,,blue,,,,50,GW/westpalmbeach.png,GW/huntsville.png,,,,,,,,,,,,,,,,,,
null,,rt_thecrossant_black,1071927,,black_plus_sign,,,,49,,,0,0.9230769230769231,,,,,,,,,,,,,,,,
null,,color_black,1072030,,black_plus_sign,,,,null,,,,,,,,,,,,,,,,,,,,
null,,learn_phase(without_color),1075033,,black_plus_sign,,,,null,GW/leesburg.png,GW/hotsprings.png,,,,,,,,,,,,,,,,,,
null,,black_cross(without_color),1075683,,blue,,,,null,GW/leesburg.png,GW/hotsprings.png,,,,,,,,,,,,,,,,,,
417.39999997615814,,rt_plussign_withcolor,1076185,,blue,,,,49,GW/leesburg.png,GW/hotsprings.png,,,,,,,,,,,,,,,,,,
null,,rt_thecrossant_black,1077540,,black_plus_sign,,,,null,,,1,0.9242424242424242,,,,,,,,,,,,,,,,
null,,color_black,1077643,,black_plus_sign,,,,null,,,,,,,,,,,,,,,,,,,,
null,,learn_phase(without_color),1080645,,black_plus_sign,,,,null,GW/carmel.png,GW/peoria.png,,,,,,,,,,,,,,,,,,
null,,black_cross(without_color),1081716,,yellow,,,,null,GW/carmel.png,GW/peoria.png,,,,,,,,,,,,,,,,,,
null,,rt_plussign_withcolor,1082218,,yellow,,,,null,GW/carmel.png,GW/peoria.png,,,,,,,,,,,,,,,,,,
785.2000000178814,,rt_thecrossant_black,1083411,,black_plus_sign,,,,49,,,0,0.9104477611940298,,,,,,,,,,,,,,,,
null,,color_black,1084411,,black_plus_sign,,,,null,,,,,,,,,,,,,,,,,,,,
null,,learn_phase(without_color),1087414,,black_plus_sign,,,,null,GW/westpalmbeach.png,GW/huntsville.png,,,,,,,,,,,,,,,,,,
null,,black_cross(without_color),1089413,,yellow,,,,null,GW/westpalmbeach.png,GW/huntsville.png,,,,,,,,,,,,,,,,,,
null,,rt_plussign_withcolor,1090412,,yellow,,,,null,GW/westpalmbeach.png,GW/huntsville.png,,,,,,,,,,,,,,,,,,
null,,rt_thecrossant_black,1091412,,black_plus_sign,,,,null,,,,0.9104477611940298,,,,,,,,,,,,,,,,
null,,warning_page,1094414,,warning,,,,null,,,,,,,,,,,,,,,,,,,,
null,,color_black,1094515,,black_plus_sign,,,,null,,,,,,,,,,,,,,,,,,,,
null,,learn_phase(without_color),1097518,,black_plus_sign,,,,null,GW/peoria.png,GW/carmel.png,,,,,,,,,,,,,,,,,,
null,,black_cross(without_color),1098310,,yellow,,,,null,GW/peoria.png,GW/carmel.png,,,,,,,,,,,,,,,,,,
495.19999998807907,,rt_plussign_withcolor,1098812,,yellow,,,,50,GW/peoria.png,GW/carmel.png,,,,,,,,,,,,,,,,,,
null,,rt_thecrossant_black,1100025,,black_plus_sign,,,,null,,,1,0.9117647058823529,,,,,,,,,,,,,,,,
null,,color_black,1100127,,black_plus_sign,,,,null,,,,,,,,,,,,,,,,,,,,
null,,learn_phase(without_color),1103129,,black_plus_sign,,,,null,GW/hanover.png,GW/cornwall.png,,,,,,,,,,,,,,,,,,
null,,black_cross(without_color),1103984,,yellow,,,,null,GW/hanover.png,GW/cornwall.png,,,,,,,,,,,,,,,,,,
431.40000000596046,,rt_plussign_withcolor,1104486,,yellow,,,,50,GW/hanover.png,GW/cornwall.png,,,,,,,,,,,,,,,,,,
null,,rt_thecrossant_black,1105635,,black_plus_sign,,,,null,,,1,0.9130434782608695,,,,,,,,,,,,,,,,
null,,color_black,1105746,,black_plus_sign,,,,null,,,,,,,,,,,,,,,,,,,,
null,,learn_phase(without_color),1108749,,black_plus_sign,,,,null,GW/carmel.png,GW/peoria.png,,,,,,,,,,,,,,,,,,
null,,black_cross(without_color),1109828,,yellow,,,,null,GW/carmel.png,GW/peoria.png,,,,,,,,,,,,,,,,,,
328.5,,rt_plussign_withcolor,1110330,,yellow,,,,50,GW/carmel.png,GW/peoria.png,,,,,,,,,,,,,,,,,,
null,,rt_thecrossant_black,1111257,,black_plus_sign,,,,null,,,1,0.9142857142857143,,,,,,,,,,,,,,,,
null,,color_black,1111360,,black_plus_sign,,,,null,,,,,,,,,,,,,,,,,,,,
null,,learn_phase(without_color),1114363,,black_plus_sign,,,,null,GW/leesburg.png,GW/hotsprings.png,,,,,,,,,,,,,,,,,,
null,,black_cross(without_color),1115323,,yellow,,,,null,GW/leesburg.png,GW/hotsprings.png,,,,,,,,,,,,,,,,,,
413.7999999821186,,rt_plussign_withcolor,1115825,,yellow,,,,50,GW/leesburg.png,GW/hotsprings.png,,,,,,,,,,,,,,,,,,
null,,rt_thecrossant_black,1116870,,black_plus_sign,,,,null,,,1,0.9154929577464789,,,,,,,,,,,,,,,,
null,,color_black,1116972,,black_plus_sign,,,,null,,,,,,,,,,,,,,,,,,,,
null,,learn_phase(without_color),1119975,,black_plus_sign,,,,null,GW/hanover.png,GW/cornwall.png,,,,,,,,,,,,,,,,,,
null,,black_cross(without_color),1120838,,blue,,,,null,GW/hanover.png,GW/cornwall.png,,,,,,,,,,,,,,,,,,
363.5,,rt_plussign_withcolor,1121341,,blue,,,,49,GW/hanover.png,GW/cornwall.png,,,,,,,,,,,,,,,,,,
null,,rt_thecrossant_black,1122483,,black_plus_sign,,,,null,,,1,0.9166666666666666,,,,,,,,,,,,,,,,
null,,color_black,1122586,,black_plus_sign,,,,null,,,,,,,,,,,,,,,,,,,,
null,,learn_phase(without_color),1125589,,black_plus_sign,,,,null,GW/westpalmbeach.png,GW/huntsville.png,,,,,,,,,,,,,,,,,,
null,,black_cross(without_color),1126130,,yellow,,,,null,GW/westpalmbeach.png,GW/huntsville.png,,,,,,,,,,,,,,,,,,
491.39999997615814,,rt_plussign_withcolor,1126632,,yellow,,,,50,GW/westpalmbeach.png,GW/huntsville.png,,,,,,,,,,,,,,,,,,
null,,rt_thecrossant_black,1128096,,black_plus_sign,,,,null,,,1,0.9178082191780822,,,,,,,,,,,,,,,,
null,,color_black,1128199,,black_plus_sign,,,,null,,,,,,,,,,,,,,,,,,,,
null,,learn_phase(without_color),1131201,,black_plus_sign,,,,null,GW/hotsprings.png,GW/leesburg.png,,,,,,,,,,,,,,,,,,
null,,black_cross(without_color),1131666,,yellow,,,,null,GW/hotsprings.png,GW/leesburg.png,,,,,,,,,,,,,,,,,,
481.30000001192093,,rt_plussign_withcolor,1132168,,yellow,,,,49,GW/hotsprings.png,GW/leesburg.png,,,,,,,,,,,,,,,,,,
null,,rt_thecrossant_black,1133713,,black_plus_sign,,,,null,,,0,0.9054054054054054,,,,,,,,,,,,,,,,
null,,color_black,1133816,,black_plus_sign,,,,null,,,,,,,,,,,,,,,,,,,,
null,,learn_phase(without_color),1136818,,black_plus_sign,,,,null,GW/cornwall.png,GW/hanover.png,,,,,,,,,,,,,,,,,,
null,,black_cross(without_color),1137673,,blue,,,,null,GW/cornwall.png,GW/hanover.png,,,,,,,,,,,,,,,,,,
470.7999999821186,,rt_plussign_withcolor,1138175,,blue,,,,49,GW/cornwall.png,GW/hanover.png,,,,,,,,,,,,,,,,,,
null,,rt_thecrossant_black,1139329,,black_plus_sign,,,,null,,,1,0.9066666666666666,,,,,,,,,,,,,,,,
null,,color_black,1139432,,black_plus_sign,,,,null,,,,,,,,,,,,,,,,,,,,
null,,learn_phase(without_color),1142436,,black_plus_sign,,,,null,GW/peoria.png,GW/carmel.png,,,,,,,,,,,,,,,,,,
null,,black_cross(without_color),1143167,,blue,,,,null,GW/peoria.png,GW/carmel.png,,,,,,,,,,,,,,,,,,
424.2000000178814,,rt_plussign_withcolor,1143669,,blue,,,,49,GW/peoria.png,GW/carmel.png,,,,,,,,,,,,,,,,,,
null,,rt_thecrossant_black,1144942,,black_plus_sign,,,,null,,,1,0.9078947368421053,,,,,,,,,,,,,,,,
null,,color_black,1145045,,black_plus_sign,,,,null,,,,,,,,,,,,,,,,,,,,
null,,learn_phase(without_color),1148048,,black_plus_sign,,,,null,GW/hotsprings.png,GW/leesburg.png,,,,,,,,,,,,,,,,,,
null,,black_cross(without_color),1148598,,blue,,,,null,GW/hotsprings.png,GW/leesburg.png,,,,,,,,,,,,,,,,,,
409.5,,rt_plussign_withcolor,1149115,,blue,,,,50,GW/hotsprings.png,GW/leesburg.png,,,,,,,,,,,,,,,,,,
null,,rt_thecrossant_black,1150572,,black_plus_sign,,,,49,,,0,0.8961038961038961,,,,,,,,,,,,,,,,
null,,color_black,1150674,,black_plus_sign,,,,null,,,,,,,,,,,,,,,,,,,,
null,,learn_phase(without_color),1153678,,black_plus_sign,,,,null,GW/hanover.png,GW/cornwall.png,,,,,,,,,,,,,,,,,,
null,,black_cross(without_color),1154767,,yellow,,,,null,GW/hanover.png,GW/cornwall.png,,,,,,,,,,,,,,,,,,
335.80000001192093,,rt_plussign_withcolor,1155268,,yellow,,,,50,GW/hanover.png,GW/cornwall.png,,,,,,,,,,,,,,,,,,
null,,rt_thecrossant_black,1156184,,black_plus_sign,,,,null,,,1,0.8974358974358975,,,,,,,,,,,,,,,,
null,,color_black,1156296,,black_plus_sign,,,,null,,,,,,,,,,,,,,,,,,,,
null,,learn_phase(without_color),1159300,,black_plus_sign,,,,null,GW/carmel.png,GW/peoria.png,,,,,,,,,,,,,,,,,,
null,,black_cross(without_color),1159832,,blue,,,,null,GW/carmel.png,GW/peoria.png,,,,,,,,,,,,,,,,,,
490.09999999403954,,rt_plussign_withcolor,1160334,,blue,,,,49,GW/carmel.png,GW/peoria.png,,,,,,,,,,,,,,,,,,
null,,rt_thecrossant_black,1161807,,black_plus_sign,,,,null,,,1,0.8987341772151899,,,,,,,,,,,,,,,,
null,,color_black,1161911,,black_plus_sign,,,,null,,,,,,,,,,,,,,,,,,,,
null,,learn_phase(without_color),1164914,,black_plus_sign,,,,null,GW/leesburg.png,GW/hotsprings.png,,,,,,,,,,,,,,,,,,
null,,black_cross(without_color),1165859,,blue,,,,null,GW/leesburg.png,GW/hotsprings.png,,,,,,,,,,,,,,,,,,
443.5,,rt_plussign_withcolor,1166360,,blue,,,,49,GW/leesburg.png,GW/hotsprings.png,,,,,,,,,,,,,,,,,,
null,,rt_thecrossant_black,1167432,,black_plus_sign,,,,null,,,1,0.9,,,,,,,,,,,,,,,,
null,,color_black,1167535,,black_plus_sign,,,,null,,,,,,,,,,,,,,,,,,,,
null,,learn_phase(without_color),1170538,,black_plus_sign,,,,null,GW/cornwall.png,GW/hanover.png,,,,,,,,,,,,,,,,,,
null,,black_cross(without_color),1171322,,yellow,,,,null,GW/cornwall.png,GW/hanover.png,,,,,,,,,,,,,,,,,,
425.5,,rt_plussign_withcolor,1171825,,yellow,,,,50,GW/cornwall.png,GW/hanover.png,,,,,,,,,,,,,,,,,,
null,,rt_thecrossant_black,1173045,,black_plus_sign,,,,null,,,1,0.9012345679012346,,,,,,,,,,,,,,,,
null,,color_black,1173161,,black_plus_sign,,,,null,,,,,,,,,,,,,,,,,,,,
null,,learn_phase(without_color),1176164,,black_plus_sign,,,,null,GW/carmel.png,GW/peoria.png,,,,,,,,,,,,,,,,,,
null,,black_cross(without_color),1176613,,blue,,,,null,GW/carmel.png,GW/peoria.png,,,,,,,,,,,,,,,,,,
null,,rt_plussign_withcolor,1177115,,blue,,,,null,GW/carmel.png,GW/peoria.png,,,,,,,,,,,,,,,,,,
913,,rt_thecrossant_black,1178672,,black_plus_sign,,,,49,,,1,0.9024390243902439,,,,,,,,,,,,,,,,
null,,color_black,1178775,,black_plus_sign,,,,null,,,,,,,,,,,,,,,,,,,,
null,,learn_phase(without_color),1181779,,black_plus_sign,,,,null,GW/hotsprings.png,GW/leesburg.png,,,,,,,,,,,,,,,,,,
null,,black_cross(without_color),1182705,,yellow,,,,null,GW/hotsprings.png,GW/leesburg.png,,,,,,,,,,,,,,,,,,
342.7999999821186,,rt_plussign_withcolor,1183208,,yellow,,,,50,GW/hotsprings.png,GW/leesburg.png,,,,,,,,,,,,,,,,,,
null,,rt_thecrossant_black,1184286,,black_plus_sign,,,,null,,,1,0.9036144578313253,,,,,,,,,,,,,,,,
null,,color_black,1184390,,black_plus_sign,,,,null,,,,,,,,,,,,,,,,,,,,
null,,learn_phase(without_color),1187392,,black_plus_sign,,,,null,GW/huntsville.png,GW/westpalmbeach.png,,,,,,,,,,,,,,,,,,
null,,black_cross(without_color),1187930,,yellow,,,,null,GW/huntsville.png,GW/westpalmbeach.png,,,,,,,,,,,,,,,,,,
453.40000000596046,,rt_plussign_withcolor,1188433,,yellow,,,,50,GW/huntsville.png,GW/westpalmbeach.png,,,,,,,,,,,,,,,,,,
null,,rt_thecrossant_black,1189899,,black_plus_sign,,,,null,,,1,0.9047619047619048,,,,,,,,,,,,,,,,
null,,color_black,1190001,,black_plus_sign,,,,null,,,,,,,,,,,,,,,,,,,,
null,,learn_phase(without_color),1193004,,black_plus_sign,,,,null,GW/peoria.png,GW/carmel.png,,,,,,,,,,,,,,,,,,
null,,black_cross(without_color),1193428,,yellow,,,,null,GW/peoria.png,GW/carmel.png,,,,,,,,,,,,,,,,,,
445.69999998807907,,rt_plussign_withcolor,1193930,,yellow,,,,50,GW/peoria.png,GW/carmel.png,,,,,,,,,,,,,,,,,,
null,,rt_thecrossant_black,1195511,,black_plus_sign,,,,null,,,1,0.9058823529411765,,,,,,,,,,,,,,,,
null,,color_black,1195613,,black_plus_sign,,,,null,,,,,,,,,,,,,,,,,,,,
null,,learn_phase(without_color),1198615,,black_plus_sign,,,,null,GW/cornwall.png,GW/hanover.png,,,,,,,,,,,,,,,,,,
null,,black_cross(without_color),1199187,,blue,,,,null,GW/cornwall.png,GW/hanover.png,,,,,,,,,,,,,,,,,,
null,,rt_plussign_withcolor,1199689,,blue,,,,null,GW/cornwall.png,GW/hanover.png,,,,,,,,,,,,,,,,,,
744.9000000059605,,rt_thecrossant_black,1201121,,black_plus_sign,,,,49,,,1,0.9069767441860465,,,,,,,,,,,,,,,,
null,,color_black,1201223,,black_plus_sign,,,,null,,,,,,,,,,,,,,,,,,,,
null,,learn_phase(without_color),1204226,,black_plus_sign,,,,null,GW/leesburg.png,GW/hotsprings.png,,,,,,,,,,,,,,,,,,
null,,black_cross(without_color),1205229,,yellow,,,,null,GW/leesburg.png,GW/hotsprings.png,,,,,,,,,,,,,,,,,,
360.30000001192093,,rt_plussign_withcolor,1205732,,yellow,,,,49,GW/leesburg.png,GW/hotsprings.png,,,,,,,,,,,,,,,,,,
null,,rt_thecrossant_black,1206733,,black_plus_sign,,,,null,,,0,0.896551724137931,,,,,,,,,,,,,,,,
null,,color_black,1206836,,black_plus_sign,,,,null,,,,,,,,,,,,,,,,,,,,
null,,learn_phase(without_color),1209840,,black_plus_sign,,,,null,GW/peoria.png,GW/carmel.png,,,,,,,,,,,,,,,,,,
null,,black_cross(without_color),1210914,,blue,,,,null,GW/peoria.png,GW/carmel.png,,,,,,,,,,,,,,,,,,
418,,rt_plussign_withcolor,1211415,,blue,,,,49,GW/peoria.png,GW/carmel.png,,,,,,,,,,,,,,,,,,
null,,rt_thecrossant_black,1212347,,black_plus_sign,,,,null,,,1,0.8977272727272727,,,,,,,,,,,,,,,,
null,,color_black,1212449,,black_plus_sign,,,,null,,,,,,,,,,,,,,,,,,,,
null,,learn_phase(without_color),1215450,,black_plus_sign,,,,null,GW/hanover.png,GW/cornwall.png,,,,,,,,,,,,,,,,,,
null,,black_cross(without_color),1215875,,blue,,,,null,GW/hanover.png,GW/cornwall.png,,,,,,,,,,,,,,,,,,
null,,rt_plussign_withcolor,1216377,,blue,,,,null,GW/hanover.png,GW/cornwall.png,,,,,,,,,,,,,,,,,,
1181.0999999940395,,rt_thecrossant_black,1217957,,black_plus_sign,,,,49,,,1,0.898876404494382,,,,,,,,,,,,,,,,
null,,color_black,1218060,,black_plus_sign,,,,null,,,,,,,,,,,,,,,,,,,,
null,,learn_phase(without_color),1221064,,black_plus_sign,,,,null,GW/huntsville.png,GW/westpalmbeach.png,,,,,,,,,,,,,,,,,,
null,,black_cross(without_color),1221559,,blue,,,,null,GW/huntsville.png,GW/westpalmbeach.png,,,,,,,,,,,,,,,,,,
456.5,,rt_plussign_withcolor,1222060,,blue,,,,49,GW/huntsville.png,GW/westpalmbeach.png,,,,,,,,,,,,,,,,,,
null,,rt_thecrossant_black,1223570,,black_plus_sign,,,,null,,,1,0.9,,,,,,,,,,,,,,,,
null,,color_black,1223672,,black_plus_sign,,,,null,,,,,,,,,,,,,,,,,,,,
null,,learn_phase(without_color),1226675,,black_plus_sign,,,,null,GW/leesburg.png,GW/hotsprings.png,,,,,,,,,,,,,,,,,,
null,,black_cross(without_color),1227381,,blue,,,,null,GW/leesburg.png,GW/hotsprings.png,,,,,,,,,,,,,,,,,,
413.7000000178814,,rt_plussign_withcolor,1227884,,blue,,,,49,GW/leesburg.png,GW/hotsprings.png,,,,,,,,,,,,,,,,,,
null,,rt_thecrossant_black,1229182,,black_plus_sign,,,,null,,,1,0.9010989010989011,,,,,,,,,,,,,,,,
null,,color_black,1229285,,black_plus_sign,,,,null,,,,,,,,,,,,,,,,,,,,
null,,learn_phase(without_color),1232287,,black_plus_sign,,,,null,GW/huntsville.png,GW/westpalmbeach.png,,,,,,,,,,,,,,,,,,
null,,black_cross(without_color),1232796,,blue,,,,null,GW/huntsville.png,GW/westpalmbeach.png,,,,,,,,,,,,,,,,,,
419.19999998807907,,rt_plussign_withcolor,1233297,,blue,,,,49,GW/huntsville.png,GW/westpalmbeach.png,,,,,,,,,,,,,,,,,,
null,,rt_thecrossant_black,1234796,,black_plus_sign,,,,null,,,1,0.9021739130434783,,,,,,,,,,,,,,,,
null,,color_black,1234898,,black_plus_sign,,,,null,,,,,,,,,,,,,,,,,,,,
null,,learn_phase(without_color),1237902,,black_plus_sign,,,,null,GW/hanover.png,GW/cornwall.png,,,,,,,,,,,,,,,,,,
null,,black_cross(without_color),1238526,,yellow,,,,null,GW/hanover.png,GW/cornwall.png,,,,,,,,,,,,,,,,,,
414.90000000596046,,rt_plussign_withcolor,1239029,,yellow,,,,50,GW/hanover.png,GW/cornwall.png,,,,,,,,,,,,,,,,,,
null,,rt_thecrossant_black,1240410,,black_plus_sign,,,,null,,,1,0.9032258064516129,,,,,,,,,,,,,,,,
null,,color_black,1240513,,black_plus_sign,,,,null,,,,,,,,,,,,,,,,,,,,
null,,learn_phase(without_color),1243516,,black_plus_sign,,,,null,GW/westpalmbeach.png,GW/huntsville.png,,,,,,,,,,,,,,,,,,
null,,black_cross(without_color),1244223,,blue,,,,null,GW/westpalmbeach.png,GW/huntsville.png,,,,,,,,,,,,,,,,,,
406.59999999403954,,rt_plussign_withcolor,1244726,,blue,,,,49,GW/westpalmbeach.png,GW/huntsville.png,,,,,,,,,,,,,,,,,,
null,,rt_thecrossant_black,1246024,,black_plus_sign,,,,null,,,1,0.9042553191489362,,,,,,,,,,,,,,,,
null,,color_black,1246126,,black_plus_sign,,,,null,,,,,,,,,,,,,,,,,,,,
null,,learn_phase(without_color),1249129,,black_plus_sign,,,,null,GW/huntsville.png,GW/westpalmbeach.png,,,,,,,,,,,,,,,,,,
null,,black_cross(without_color),1249644,,yellow,,,,null,GW/huntsville.png,GW/westpalmbeach.png,,,,,,,,,,,,,,,,,,
380.80000001192093,,rt_plussign_withcolor,1250145,,yellow,,,,50,GW/huntsville.png,GW/westpalmbeach.png,,,,,,,,,,,,,,,,,,
null,,rt_thecrossant_black,1251636,,black_plus_sign,,,,null,,,1,0.9052631578947369,,,,,,,,,,,,,,,,
null,,color_black,1251749,,black_plus_sign,,,,null,,,,,,,,,,,,,,,,,,,,
null,,learn_phase(without_color),1254751,,black_plus_sign,,,,null,GW/leesburg.png,GW/westpalmbeach.png,,,,,,,,,,,,,,,,,,
null,,black_cross(without_color),1255724,,blue,,,,null,GW/leesburg.png,GW/westpalmbeach.png,,,,,,,,,,,,,,,,,,
451.5,,rt_plussign_withcolor,1256225,,blue,,,,50,GW/leesburg.png,GW/westpalmbeach.png,,,,,,,,,,,,,,,,,,
null,,rt_thecrossant_black,1257258,,black_plus_sign,,,,49,,,0,0.8958333333333334,,,,,,,,,,,,,,,,
null,,color_black,1257361,,black_plus_sign,,,,null,,,,,,,,,,,,,,,,,,,,
null,,learn_phase(without_color),1260364,,black_plus_sign,,,,null,GW/peoria.png,GW/hanover.png,,,,,,,,,,,,,,,,,,
null,,black_cross(without_color),1261306,,yellow,,,,null,GW/peoria.png,GW/hanover.png,,,,,,,,,,,,,,,,,,
440.90000000596046,,rt_plussign_withcolor,1261809,,yellow,,,,50,GW/peoria.png,GW/hanover.png,,,,,,,,,,,,,,,,,,
null,,rt_thecrossant_black,1262872,,black_plus_sign,,,,null,,,1,0.8969072164948454,,,,,,,,,,,,,,,,
null,,color_black,1262974,,black_plus_sign,,,,null,,,,,,,,,,,,,,,,,,,,
null,,learn_phase(without_color),1265976,,black_plus_sign,,,,null,GW/carmel.png,GW/hotsprings.png,,,,,,,,,,,,,,,,,,
null,,black_cross(without_color),1266608,,yellow,,,,null,GW/carmel.png,GW/hotsprings.png,,,,,,,,,,,,,,,,,,
417.5,,rt_plussign_withcolor,1267109,,yellow,,,,49,GW/carmel.png,GW/hotsprings.png,,,,,,,,,,,,,,,,,,
null,,rt_thecrossant_black,1268482,,black_plus_sign,,,,null,,,0,0.8877551020408163,,,,,,,,,,,,,,,,
null,,color_black,1268585,,black_plus_sign,,,,null,,,,,,,,,,,,,,,,,,,,
null,,learn_phase(without_color),1271588,,black_plus_sign,,,,null,GW/leesburg.png,GW/westpalmbeach.png,,,,,,,,,,,,,,,,,,
null,,black_cross(without_color),1272096,,yellow,,,,null,GW/leesburg.png,GW/westpalmbeach.png,,,,,,,,,,,,,,,,,,
433.80000001192093,,rt_plussign_withcolor,1272598,,yellow,,,,50,GW/leesburg.png,GW/westpalmbeach.png,,,,,,,,,,,,,,,,,,
null,,rt_thecrossant_black,1274094,,black_plus_sign,,,,null,,,1,0.8888888888888888,,,,,,,,,,,,,,,,
null,,color_black,1274197,,black_plus_sign,,,,null,,,,,,,,,,,,,,,,,,,,
null,,learn_phase(without_color),1277200,,black_plus_sign,,,,null,GW/hotsprings.png,GW/carmel.png,,,,,,,,,,,,,,,,,,
null,,black_cross(without_color),1278286,,yellow,,,,null,GW/hotsprings.png,GW/carmel.png,,,,,,,,,,,,,,,,,,
454.5,,rt_plussign_withcolor,1278787,,yellow,,,,50,GW/hotsprings.png,GW/carmel.png,,,,,,,,,,,,,,,,,,
null,,rt_thecrossant_black,1279708,,black_plus_sign,,,,null,,,1,0.89,,,,,,,,,,,,,,,,
null,,color_black,1279811,,black_plus_sign,,,,null,,,,,,,,,,,,,,,,,,,,
null,,learn_phase(without_color),1282813,,black_plus_sign,,,,null,GW/huntsville.png,GW/racine.png,,,,,,,,,,,,,,,,,,
null,,black_cross(without_color),1283710,,yellow,,,,null,GW/huntsville.png,GW/racine.png,,,,,,,,,,,,,,,,,,
400.39999997615814,,rt_plussign_withcolor,1284212,,yellow,,,,50,GW/huntsville.png,GW/racine.png,,,,,,,,,,,,,,,,,,
null,,rt_thecrossant_black,1285322,,black_plus_sign,,,,null,,,1,0.8910891089108911,,,,,,,,,,,,,,,,
null,,color_black,1285425,,black_plus_sign,,,,null,,,,,,,,,,,,,,,,,,,,
null,,learn_phase(without_color),1288427,,black_plus_sign,,,,null,GW/hotsprings.png,GW/carmel.png,,,,,,,,,,,,,,,,,,
null,,black_cross(without_color),1289222,,blue,,,,null,GW/hotsprings.png,GW/carmel.png,,,,,,,,,,,,,,,,,,
477.7000000178814,,rt_plussign_withcolor,1289724,,blue,,,,49,GW/hotsprings.png,GW/carmel.png,,,,,,,,,,,,,,,,,,
null,,rt_thecrossant_black,1290934,,black_plus_sign,,,,null,,,1,0.8921568627450981,,,,,,,,,,,,,,,,
null,,color_black,1291036,,black_plus_sign,,,,null,,,,,,,,,,,,,,,,,,,,
null,,learn_phase(without_color),1294040,,black_plus_sign,,,,null,GW/hanover.png,GW/peoria.png,,,,,,,,,,,,,,,,,,
null,,black_cross(without_color),1294774,,yellow,,,,null,GW/hanover.png,GW/peoria.png,,,,,,,,,,,,,,,,,,
null,,rt_plussign_withcolor,1295277,,yellow,,,,null,GW/hanover.png,GW/peoria.png,,,,,,,,,,,,,,,,,,
919.6999999880791,,rt_thecrossant_black,1296554,,black_plus_sign,,,,50,,,1,0.8932038834951457,,,,,,,,,,,,,,,,
null,,color_black,1296656,,black_plus_sign,,,,null,,,,,,,,,,,,,,,,,,,,
null,,learn_phase(without_color),1299659,,black_plus_sign,,,,null,GW/huntsville.png,GW/racine.png,,,,,,,,,,,,,,,,,,
null,,black_cross(without_color),1300377,,blue,,,,null,GW/huntsville.png,GW/racine.png,,,,,,,,,,,,,,,,,,
null,,rt_plussign_withcolor,1300879,,blue,,,,null,GW/huntsville.png,GW/racine.png,,,,,,,,,,,,,,,,,,
835.2000000178814,,rt_thecrossant_black,1302165,,black_plus_sign,,,,49,,,1,0.8942307692307693,,,,,,,,,,,,,,,,
null,,color_black,1302267,,black_plus_sign,,,,null,,,,,,,,,,,,,,,,,,,,
null,,learn_phase(without_color),1305272,,black_plus_sign,,,,null,GW/hotsprings.png,GW/carmel.png,,,,,,,,,,,,,,,,,,
null,,black_cross(without_color),1305837,,yellow,,,,null,GW/hotsprings.png,GW/carmel.png,,,,,,,,,,,,,,,,,,
351.60000002384186,,rt_plussign_withcolor,1306340,,yellow,,,,50,GW/hotsprings.png,GW/carmel.png,,,,,,,,,,,,,,,,,,
null,,rt_thecrossant_black,1307779,,black_plus_sign,,,,null,,,1,0.8952380952380953,,,,,,,,,,,,,,,,
null,,color_black,1307882,,black_plus_sign,,,,null,,,,,,,,,,,,,,,,,,,,
null,,learn_phase(without_color),1310886,,black_plus_sign,,,,null,GW/leesburg.png,GW/westpalmbeach.png,,,,,,,,,,,,,,,,,,
null,,black_cross(without_color),1311829,,yellow,,,,null,GW/leesburg.png,GW/westpalmbeach.png,,,,,,,,,,,,,,,,,,
395,,rt_plussign_withcolor,1312331,,yellow,,,,50,GW/leesburg.png,GW/westpalmbeach.png,,,,,,,,,,,,,,,,,,
null,,rt_thecrossant_black,1313394,,black_plus_sign,,,,null,,,1,0.8962264150943396,,,,,,,,,,,,,,,,
null,,color_black,1313496,,black_plus_sign,,,,null,,,,,,,,,,,,,,,,,,,,
null,,learn_phase(without_color),1316499,,black_plus_sign,,,,null,GW/hotsprings.png,GW/carmel.png,,,,,,,,,,,,,,,,,,
null,,black_cross(without_color),1316914,,yellow,,,,null,GW/hotsprings.png,GW/carmel.png,,,,,,,,,,,,,,,,,,
418.60000002384186,,rt_plussign_withcolor,1317417,,yellow,,,,50,GW/hotsprings.png,GW/carmel.png,,,,,,,,,,,,,,,,,,
null,,rt_thecrossant_black,1319008,,black_plus_sign,,,,null,,,1,0.897196261682243,,,,,,,,,,,,,,,,
null,,color_black,1319110,,black_plus_sign,,,,null,,,,,,,,,,,,,,,,,,,,
null,,learn_phase(without_color),1322114,,black_plus_sign,,,,null,GW/racine.png,GW/huntsville.png,,,,,,,,,,,,,,,,,,
null,,black_cross(without_color),1323031,,yellow,,,,null,GW/racine.png,GW/huntsville.png,,,,,,,,,,,,,,,,,,
331.90000000596046,,rt_plussign_withcolor,1323534,,yellow,,,,50,GW/racine.png,GW/huntsville.png,,,,,,,,,,,,,,,,,,
null,,rt_thecrossant_black,1324622,,black_plus_sign,,,,null,,,1,0.8981481481481481,,,,,,,,,,,,,,,,
null,,color_black,1324725,,black_plus_sign,,,,null,,,,,,,,,,,,,,,,,,,,
null,,learn_phase(without_color),1327729,,black_plus_sign,,,,null,GW/hotsprings.png,GW/carmel.png,,,,,,,,,,,,,,,,,,
null,,black_cross(without_color),1328178,,blue,,,,null,GW/hotsprings.png,GW/carmel.png,,,,,,,,,,,,,,,,,,
468.7999999821186,,rt_plussign_withcolor,1328681,,blue,,,,49,GW/hotsprings.png,GW/carmel.png,,,,,,,,,,,,,,,,,,
null,,rt_thecrossant_black,1330238,,black_plus_sign,,,,null,,,1,0.8990825688073395,,,,,,,,,,,,,,,,
null,,color_black,1330341,,black_plus_sign,,,,null,,,,,,,,,,,,,,,,,,,,
null,,learn_phase(without_color),1333345,,black_plus_sign,,,,null,GW/racine.png,GW/huntsville.png,,,,,,,,,,,,,,,,,,
null,,black_cross(without_color),1333817,,blue,,,,null,GW/racine.png,GW/huntsville.png,,,,,,,,,,,,,,,,,,
483.40000000596046,,rt_plussign_withcolor,1334319,,blue,,,,49,GW/racine.png,GW/huntsville.png,,,,,,,,,,,,,,,,,,
null,,rt_thecrossant_black,1335851,,black_plus_sign,,,,null,,,1,0.9,,,,,,,,,,,,,,,,
null,,color_black,1335952,,black_plus_sign,,,,null,,,,,,,,,,,,,,,,,,,,
null,,learn_phase(without_color),1338955,,black_plus_sign,,,,null,GW/leesburg.png,GW/westpalmbeach.png,,,,,,,,,,,,,,,,,,
null,,black_cross(without_color),1339415,,yellow,,,,null,GW/leesburg.png,GW/westpalmbeach.png,,,,,,,,,,,,,,,,,,
457.40000000596046,,rt_plussign_withcolor,1339918,,yellow,,,,50,GW/leesburg.png,GW/westpalmbeach.png,,,,,,,,,,,,,,,,,,
null,,rt_thecrossant_black,1341464,,black_plus_sign,,,,null,,,1,0.9009009009009009,,,,,,,,,,,,,,,,
null,,color_black,1341566,,black_plus_sign,,,,null,,,,,,,,,,,,,,,,,,,,
null,,learn_phase(without_color),1344570,,black_plus_sign,,,,null,GW/peoria.png,GW/hanover.png,,,,,,,,,,,,,,,,,,
null,,black_cross(without_color),1345202,,blue,,,,null,GW/peoria.png,GW/hanover.png,,,,,,,,,,,,,,,,,,
434.09999999403954,,rt_plussign_withcolor,1345704,,blue,,,,49,GW/peoria.png,GW/hanover.png,,,,,,,,,,,,,,,,,,
null,,rt_thecrossant_black,1347076,,black_plus_sign,,,,null,,,1,0.9017857142857143,,,,,,,,,,,,,,,,
null,,color_black,1347179,,black_plus_sign,,,,null,,,,,,,,,,,,,,,,,,,,
null,,learn_phase(without_color),1350181,,black_plus_sign,,,,null,GW/huntsville.png,GW/racine.png,,,,,,,,,,,,,,,,,,
null,,black_cross(without_color),1350919,,blue,,,,null,GW/huntsville.png,GW/racine.png,,,,,,,,,,,,,,,,,,
432.5,,rt_plussign_withcolor,1351421,,blue,,,,49,GW/huntsville.png,GW/racine.png,,,,,,,,,,,,,,,,,,
null,,rt_thecrossant_black,1352688,,black_plus_sign,,,,null,,,1,0.9026548672566371,,,,,,,,,,,,,,,,
null,,color_black,1352791,,black_plus_sign,,,,null,,,,,,,,,,,,,,,,,,,,
null,,learn_phase(without_color),1355795,,black_plus_sign,,,,null,GW/westpalmbeach.png,GW/leesburg.png,,,,,,,,,,,,,,,,,,
null,,black_cross(without_color),1356798,,yellow,,,,null,GW/westpalmbeach.png,GW/leesburg.png,,,,,,,,,,,,,,,,,,
307.59999999403954,,rt_plussign_withcolor,1357301,,yellow,,,,50,GW/westpalmbeach.png,GW/leesburg.png,,,,,,,,,,,,,,,,,,
null,,rt_thecrossant_black,1358303,,black_plus_sign,,,,null,,,1,0.9035087719298246,,,,,,,,,,,,,,,,
null,,color_black,1358406,,black_plus_sign,,,,null,,,,,,,,,,,,,,,,,,,,
null,,learn_phase(without_color),1361410,,black_plus_sign,,,,null,GW/racine.png,GW/huntsville.png,,,,,,,,,,,,,,,,,,
null,,black_cross(without_color),1362306,,yellow,,,,null,GW/racine.png,GW/huntsville.png,,,,,,,,,,,,,,,,,,
388.69999998807907,,rt_plussign_withcolor,1362809,,yellow,,,,50,GW/racine.png,GW/huntsville.png,,,,,,,,,,,,,,,,,,
null,,rt_thecrossant_black,1363918,,black_plus_sign,,,,null,,,1,0.9043478260869565,,,,,,,,,,,,,,,,
null,,color_black,1364021,,black_plus_sign,,,,null,,,,,,,,,,,,,,,,,,,,
null,,learn_phase(without_color),1367024,,black_plus_sign,,,,null,GW/westpalmbeach.png,GW/leesburg.png,,,,,,,,,,,,,,,,,,
null,,black_cross(without_color),1367982,,blue,,,,null,GW/westpalmbeach.png,GW/leesburg.png,,,,,,,,,,,,,,,,,,
412.2000000178814,,rt_plussign_withcolor,1368484,,blue,,,,49,GW/westpalmbeach.png,GW/leesburg.png,,,,,,,,,,,,,,,,,,
null,,rt_thecrossant_black,1369531,,black_plus_sign,,,,null,,,1,0.9051724137931034,,,,,,,,,,,,,,,,
null,,color_black,1369634,,black_plus_sign,,,,null,,,,,,,,,,,,,,,,,,,,
null,,learn_phase(without_color),1372636,,black_plus_sign,,,,null,GW/racine.png,GW/huntsville.png,,,,,,,,,,,,,,,,,,
null,,black_cross(without_color),1373116,,yellow,,,,null,GW/racine.png,GW/huntsville.png,,,,,,,,,,,,,,,,,,
353.5,,rt_plussign_withcolor,1373619,,yellow,,,,50,GW/racine.png,GW/huntsville.png,,,,,,,,,,,,,,,,,,
null,,rt_thecrossant_black,1375144,,black_plus_sign,,,,null,,,1,0.905982905982906,,,,,,,,,,,,,,,,
null,,color_black,1375247,,black_plus_sign,,,,null,,,,,,,,,,,,,,,,,,,,
null,,learn_phase(without_color),1378251,,black_plus_sign,,,,null,GW/hotsprings.png,GW/carmel.png,,,,,,,,,,,,,,,,,,
null,,black_cross(without_color),1379134,,yellow,,,,null,GW/hotsprings.png,GW/carmel.png,,,,,,,,,,,,,,,,,,
null,,rt_plussign_withcolor,1379636,,yellow,,,,null,GW/hotsprings.png,GW/carmel.png,,,,,,,,,,,,,,,,,,
612.4000000059605,,rt_thecrossant_black,1380758,,black_plus_sign,,,,49,,,0,0.8983050847457628,,,,,,,,,,,,,,,,
null,,color_black,1380861,,black_plus_sign,,,,null,,,,,,,,,,,,,,,,,,,,
null,,learn_phase(without_color),1383864,,black_plus_sign,,,,null,GW/hanover.png,GW/peoria.png,,,,,,,,,,,,,,,,,,
null,,black_cross(without_color),1384321,,yellow,,,,null,GW/hanover.png,GW/peoria.png,,,,,,,,,,,,,,,,,,
354.30000001192093,,rt_plussign_withcolor,1384823,,yellow,,,,50,GW/hanover.png,GW/peoria.png,,,,,,,,,,,,,,,,,,
null,,rt_thecrossant_black,1386371,,black_plus_sign,,,,null,,,1,0.8991596638655462,,,,,,,,,,,,,,,,
null,,color_black,1386474,,black_plus_sign,,,,null,,,,,,,,,,,,,,,,,,,,
null,,learn_phase(without_color),1389478,,black_plus_sign,,,,null,GW/carmel.png,GW/hotsprings.png,,,,,,,,,,,,,,,,,,
null,,black_cross(without_color),1390502,,blue,,,,null,GW/carmel.png,GW/hotsprings.png,,,,,,,,,,,,,,,,,,
436.09999999403954,,rt_plussign_withcolor,1391006,,blue,,,,49,GW/carmel.png,GW/hotsprings.png,,,,,,,,,,,,,,,,,,
null,,rt_thecrossant_black,1391986,,black_plus_sign,,,,null,,,1,0.9,,,,,,,,,,,,,,,,
null,,color_black,1392090,,black_plus_sign,,,,null,,,,,,,,,,,,,,,,,,,,
null,,learn_phase(without_color),1395094,,black_plus_sign,,,,null,GW/westpalmbeach.png,GW/leesburg.png,,,,,,,,,,,,,,,,,,
null,,black_cross(without_color),1395945,,yellow,,,,null,GW/westpalmbeach.png,GW/leesburg.png,,,,,,,,,,,,,,,,,,
498.5,,rt_plussign_withcolor,1396446,,yellow,,,,49,GW/westpalmbeach.png,GW/leesburg.png,,,,,,,,,,,,,,,,,,
null,,rt_thecrossant_black,1397601,,black_plus_sign,,,,null,,,0,0.8925619834710744,,,,,,,,,,,,,,,,
null,,color_black,1397704,,black_plus_sign,,,,null,,,,,,,,,,,,,,,,,,,,
null,,learn_phase(without_color),1400708,,black_plus_sign,,,,null,GW/hanover.png,GW/peoria.png,,,,,,,,,,,,,,,,,,
null,,black_cross(without_color),1401518,,yellow,,,,null,GW/hanover.png,GW/peoria.png,,,,,,,,,,,,,,,,,,
383.69999998807907,,rt_plussign_withcolor,1402020,,yellow,,,,50,GW/hanover.png,GW/peoria.png,,,,,,,,,,,,,,,,,,
null,,rt_thecrossant_black,1403216,,black_plus_sign,,,,null,,,1,0.8934426229508197,,,,,,,,,,,,,,,,
null,,color_black,1403318,,black_plus_sign,,,,null,,,,,,,,,,,,,,,,,,,,
null,,learn_phase(without_color),1406321,,black_plus_sign,,,,null,GW/racine.png,GW/huntsville.png,,,,,,,,,,,,,,,,,,
null,,black_cross(without_color),1406764,,yellow,,,,null,GW/racine.png,GW/huntsville.png,,,,,,,,,,,,,,,,,,
368.59999999403954,,rt_plussign_withcolor,1407266,,yellow,,,,50,GW/racine.png,GW/huntsville.png,,,,,,,,,,,,,,,,,,
null,,rt_thecrossant_black,1408830,,black_plus_sign,,,,null,,,1,0.8943089430894309,,,,,,,,,,,,,,,,
null,,color_black,1408933,,black_plus_sign,,,,null,,,,,,,,,,,,,,,,,,,,
null,,learn_phase(without_color),1411936,,black_plus_sign,,,,null,GW/hanover.png,GW/peoria.png,,,,,,,,,,,,,,,,,,
null,,black_cross(without_color),1412617,,yellow,,,,null,GW/hanover.png,GW/peoria.png,,,,,,,,,,,,,,,,,,
435.30000001192093,,rt_plussign_withcolor,1413119,,yellow,,,,50,GW/hanover.png,GW/peoria.png,,,,,,,,,,,,,,,,,,
null,,rt_thecrossant_black,1414442,,black_plus_sign,,,,null,,,1,0.8951612903225806,,,,,,,,,,,,,,,,
null,,color_black,1414544,,black_plus_sign,,,,null,,,,,,,,,,,,,,,,,,,,
null,,learn_phase(without_color),1417547,,black_plus_sign,,,,null,GW/hanover.png,GW/peoria.png,,,,,,,,,,,,,,,,,,
null,,black_cross(without_color),1418034,,blue,,,,null,GW/hanover.png,GW/peoria.png,,,,,,,,,,,,,,,,,,
501.90000000596046,,rt_plussign_withcolor,1418538,,blue,,,,49,GW/hanover.png,GW/peoria.png,,,,,,,,,,,,,,,,,,
null,,rt_thecrossant_black,1420056,,black_plus_sign,,,,null,,,1,0.896,,,,,,,,,,,,,,,,
null,,color_black,1420171,,black_plus_sign,,,,null,,,,,,,,,,,,,,,,,,,,
null,,learn_phase(without_color),1423174,,black_plus_sign,,,,null,GW/westpalmbeach.png,GW/leesburg.png,,,,,,,,,,,,,,,,,,
null,,black_cross(without_color),1424173,,yellow,,,,null,GW/westpalmbeach.png,GW/leesburg.png,,,,,,,,,,,,,,,,,,
null,,rt_plussign_withcolor,1424675,,yellow,,,,null,GW/westpalmbeach.png,GW/leesburg.png,,,,,,,,,,,,,,,,,,
622.0999999940395,,rt_thecrossant_black,1425681,,black_plus_sign,,,,50,,,1,0.8968253968253969,,,,,,,,,,,,,,,,
null,,color_black,1425784,,black_plus_sign,,,,null,,,,,,,,,,,,,,,,,,,,
null,,learn_phase(without_color),1428786,,black_plus_sign,,,,null,GW/peoria.png,GW/hanover.png,,,,,,,,,,,,,,,,,,
null,,black_cross(without_color),1429389,,blue,,,,null,GW/peoria.png,GW/hanover.png,,,,,,,,,,,,,,,,,,
406.19999998807907,,rt_plussign_withcolor,1429891,,blue,,,,49,GW/peoria.png,GW/hanover.png,,,,,,,,,,,,,,,,,,
null,,rt_thecrossant_black,1431293,,black_plus_sign,,,,null,,,1,0.8976377952755905,,,,,,,,,,,,,,,,
null,,color_black,1431396,,black_plus_sign,,,,null,,,,,,,,,,,,,,,,,,,,
null,,learn_break,1491398,,learn_break,,,,null,,,,,,,,,,,,,,,,,,,,
27419.19999998808,,intro_1,1518819,,instruct,,0,Start,,,,,,,,,,,,,,,,,,,,,
2522.0999999940395,,directmemory_phase,1521343,,GW/huntsville.png,,,,50,,,1,1,GW/shreveport.png,GW/westpalmbeach.png,GW/hanover.png,GW/westpalmbeach.png,GW/shreveport.png,GW/hanover.png,1,,,,,,,,,
null,,html-keyboard-response,1522346,,<p></p>,,,,null,,,,,,,,,,,,,,,,,,,,
2064.9000000059605,,directmemory_phase,1524413,,GW/peoria.png,,,,50,,,0,0.5,GW/boulder.png,GW/leesburg.png,GW/shreveport.png,GW/boulder.png,GW/shreveport.png,GW/leesburg.png,0.5,closer,,,,,,,,
null,,html-keyboard-response,1525416,,<p></p>,,,,null,,,,,,,,,,,,,,,,,,,,
1289.699999988079,,directmemory_phase,1526707,,GW/newhope.png,,,,51,,,1,0.6666666666666666,GW/peoria.png,GW/huntsville.png,GW/leesburg.png,GW/leesburg.png,GW/huntsville.png,GW/peoria.png,1,,,,,,,,,
null,,html-keyboard-response,1527711,,<p></p>,,,,null,,,,,,,,,,,,,,,,,,,,
1633.4000000059605,,directmemory_phase,1529346,,GW/carmel.png,,,,49,,,1,0.75,GW/hotsprings.png,GW/gatlinburg.png,GW/leesburg.png,GW/hotsprings.png,GW/leesburg.png,GW/gatlinburg.png,1,,,,,,,,,
null,,html-keyboard-response,1530348,,<p></p>,,,,null,,,,,,,,,,,,,,,,,,,,
1079.6000000238419,,directmemory_phase,1531430,,GW/gatlinburg.png,,,,51,,,0,0.6,GW/leesburg.png,GW/westpalmbeach.png,GW/carmel.png,GW/westpalmbeach.png,GW/leesburg.png,GW/carmel.png,0.5,closer,,,,,,,,
null,,html-keyboard-response,1532433,,<p></p>,,,,null,,,,,,,,,,,,,,,,,,,,
1950.5,,directmemory_phase,1534384,,GW/hotsprings.png,,,,50,,,0,0.5,GW/gatlinburg.png,GW/peoria.png,GW/huntsville.png,GW/huntsville.png,GW/peoria.png,GW/gatlinburg.png,0.5,closer,,,,,,,,
null,,html-keyboard-response,1535386,,<p></p>,,,,null,,,,,,,,,,,,,,,,,,,,
1425.6000000238419,,directmemory_phase,1536813,,GW/hanover.png,,,,50,,,0,0.42857142857142855,GW/cornwall.png,GW/hotsprings.png,GW/boulder.png,GW/cornwall.png,GW/boulder.png,GW/hotsprings.png,0.5,closer,,,,,,,,
null,,html-keyboard-response,1537815,,<p></p>,,,,null,,,,,,,,,,,,,,,,,,,,
2132.5,,directmemory_phase,1539949,,GW/leesburg.png,,,,51,,,0,0.375,GW/hotsprings.png,GW/hanover.png,GW/carmel.png,GW/hotsprings.png,GW/carmel.png,GW/hanover.png,0.5,closer,,,,,,,,
null,,html-keyboard-response,1540952,,<p></p>,,,,null,,,,,,,,,,,,,,,,,,,,
2303.2000000178814,,directmemory_phase,1543256,,GW/cornwall.png,,,,51,,,0,0.3333333333333333,GW/peoria.png,GW/hanover.png,GW/boulder.png,GW/hanover.png,GW/peoria.png,GW/boulder.png,0.5,closer,,,,,,,,
null,,html-keyboard-response,1544259,,<p></p>,,,,null,,,,,,,,,,,,,,,,,,,,
1259.5999999940395,,directmemory_phase,1545520,,GW/hotsprings.png,,,,50,,,1,0.4,GW/peoria.png,GW/leesburg.png,GW/hanover.png,GW/leesburg.png,GW/peoria.png,GW/hanover.png,1,,,,,,,,,
null,,html-keyboard-response,1546523,,<p></p>,,,,null,,,,,,,,,,,,,,,,,,,,
1425.4000000059605,,directmemory_phase,1547950,,GW/carmel.png,,,,51,,,0,0.36363636363636365,GW/peoria.png,GW/newhope.png,GW/huntsville.png,GW/peoria.png,GW/huntsville.png,GW/newhope.png,0.5,closer,,,,,,,,
null,,html-keyboard-response,1548953,,<p></p>,,,,null,,,,,,,,,,,,,,,,,,,,
2791.0999999940395,,directmemory_phase,1551745,,GW/huntsville.png,,,,49,,,0,0.3333333333333333,GW/hanover.png,GW/carmel.png,GW/leesburg.png,GW/leesburg.png,GW/carmel.png,GW/hanover.png,0.5,closer,,,,,,,,
null,,html-keyboard-response,1552747,,<p></p>,,,,null,,,,,,,,,,,,,,,,,,,,
991.5,,directmemory_phase,1553740,,GW/hotsprings.png,,,,51,,,1,0.38461538461538464,GW/cornwall.png,GW/newhope.png,GW/carmel.png,GW/carmel.png,GW/newhope.png,GW/cornwall.png,1,,,,,,,,,
null,,html-keyboard-response,1554742,,<p></p>,,,,null,,,,,,,,,,,,,,,,,,,,
3138.300000011921,,directmemory_phase,1557881,,GW/racine.png,,,,50,,,1,0.42857142857142855,GW/hanover.png,GW/shreveport.png,GW/gatlinburg.png,GW/shreveport.png,GW/hanover.png,GW/gatlinburg.png,1,,,,,,,,,
null,,html-keyboard-response,1558884,,<p></p>,,,,null,,,,,,,,,,,,,,,,,,,,
2275.800000011921,,directmemory_phase,1561161,,GW/hanover.png,,,,50,,,0,0.4,GW/hotsprings.png,GW/racine.png,GW/peoria.png,GW/peoria.png,GW/racine.png,GW/hotsprings.png,0.5,closer,,,,,,,,
null,,html-keyboard-response,1562164,,<p></p>,,,,null,,,,,,,,,,,,,,,,,,,,
2727.5999999940395,,directmemory_phase,1564893,,GW/leesburg.png,,,,49,,,0,0.375,GW/hanover.png,GW/gatlinburg.png,GW/westpalmbeach.png,GW/westpalmbeach.png,GW/gatlinburg.png,GW/hanover.png,0.5,closer,,,,,,,,
null,,html-keyboard-response,1565896,,<p></p>,,,,null,,,,,,,,,,,,,,,,,,,,
1889.800000011921,,directmemory_phase,1567787,,GW/peoria.png,,,,51,,,1,0.4117647058823529,GW/newhope.png,GW/hotsprings.png,GW/carmel.png,GW/carmel.png,GW/hotsprings.png,GW/newhope.png,1,,,,,,,,,
null,,html-keyboard-response,1568790,,<p></p>,,,,null,,,,,,,,,,,,,,,,,,,,
1430.2000000178814,,directmemory_phase,1570222,,GW/westpalmbeach.png,,,,50,,,0,0.3888888888888889,GW/huntsville.png,GW/carmel.png,GW/racine.png,GW/huntsville.png,GW/racine.png,GW/carmel.png,0.5,closer,,,,,,,,
null,,html-keyboard-response,1571225,,<p></p>,,,,null,,,,,,,,,,,,,,,,,,,,
1344.5999999940395,,directmemory_phase,1572571,,GW/leesburg.png,,,,50,,,0,0.3684210526315789,GW/shreveport.png,GW/carmel.png,GW/newhope.png,GW/newhope.png,GW/carmel.png,GW/shreveport.png,0.5,closer,,,,,,,,
null,,html-keyboard-response,1573575,,<p></p>,,,,null,,,,,,,,,,,,,,,,,,,,
1425.5,,directmemory_phase,1575002,,GW/racine.png,,,,51,,,0,0.35,GW/huntsville.png,GW/cornwall.png,GW/peoria.png,GW/huntsville.png,GW/peoria.png,GW/cornwall.png,0.5,closer,,,,,,,,
null,,html-keyboard-response,1576005,,<p></p>,,,,null,,,,,,,,,,,,,,,,,,,,
1718.699999988079,,directmemory_phase,1577725,,GW/hanover.png,,,,50,,,0,0.3333333333333333,GW/leesburg.png,GW/racine.png,GW/shreveport.png,GW/shreveport.png,GW/racine.png,GW/leesburg.png,0.5,closer,,,,,,,,
null,,html-keyboard-response,1578727,,<p></p>,,,,null,,,,,,,,,,,,,,,,,,,,
1460.1000000238419,,directmemory_phase,1580189,,GW/huntsville.png,,,,51,,,1,0.36363636363636365,GW/hanover.png,GW/newhope.png,GW/hotsprings.png,GW/hotsprings.png,GW/newhope.png,GW/hanover.png,1,,,,,,,,,
null,,html-keyboard-response,1581191,,<p></p>,,,,null,,,,,,,,,,,,,,,,,,,,
1721.2000000178814,,directmemory_phase,1582914,,GW/peoria.png,,,,51,,,1,0.391304347826087,GW/newhope.png,GW/cornwall.png,GW/hanover.png,GW/hanover.png,GW/cornwall.png,GW/newhope.png,1,,,,,,,,,
null,,html-keyboard-response,1583917,,<p></p>,,,,null,,,,,,,,,,,,,,,,,,,,
1509.5999999940395,,directmemory_phase,1585428,,GW/shreveport.png,,,,50,,,0,0.375,GW/newhope.png,GW/carmel.png,GW/racine.png,GW/racine.png,GW/carmel.png,GW/newhope.png,0.5,closer,,,,,,,,
null,,html-keyboard-response,1586431,,<p></p>,,,,null,,,,,,,,,,,,,,,,,,,,
974.0999999940395,,directmemory_phase,1587406,,GW/westpalmbeach.png,,,,50,,,0,0.36,GW/leesburg.png,GW/hanover.png,GW/racine.png,GW/leesburg.png,GW/racine.png,GW/hanover.png,0.5,closer,,,,,,,,
null,,html-keyboard-response,1588409,,<p></p>,,,,null,,,,,,,,,,,,,,,,,,,,
1050.4000000059605,,directmemory_phase,1589461,,GW/shreveport.png,,,,51,,,1,0.38461538461538464,GW/gatlinburg.png,GW/peoria.png,GW/hanover.png,GW/hanover.png,GW/peoria.png,GW/gatlinburg.png,1,,,,,,,,,
null,,html-keyboard-response,1590464,,<p></p>,,,,null,,,,,,,,,,,,,,,,,,,,
1780.0999999940395,,directmemory_phase,1592245,,GW/boulder.png,,,,49,,,0,0.37037037037037035,GW/hanover.png,GW/peoria.png,GW/leesburg.png,GW/peoria.png,GW/hanover.png,GW/leesburg.png,0.5,closer,,,,,,,,
null,,html-keyboard-response,1593248,,<p></p>,,,,null,,,,,,,,,,,,,,,,,,,,
1369.4000000059605,,directmemory_phase,1594619,,GW/carmel.png,,,,51,,,1,0.39285714285714285,GW/newhope.png,GW/huntsville.png,GW/racine.png,GW/racine.png,GW/huntsville.png,GW/newhope.png,1,,,,,,,,,
null,,html-keyboard-response,1595621,,<p></p>,,,,null,,,,,,,,,,,,,,,,,,,,
935.0999999940395,,directmemory_phase,1596558,,GW/leesburg.png,,,,51,,,1,0.41379310344827586,GW/shreveport.png,GW/gatlinburg.png,GW/huntsville.png,GW/huntsville.png,GW/gatlinburg.png,GW/shreveport.png,1,,,,,,,,,
null,,html-keyboard-response,1597561,,<p></p>,,,,null,,,,,,,,,,,,,,,,,,,,
733.6999999880791,,directmemory_phase,1598297,,GW/racine.png,,,,51,,,1,0.43333333333333335,GW/boulder.png,GW/leesburg.png,GW/carmel.png,GW/carmel.png,GW/leesburg.png,GW/boulder.png,1,,,,,,,,,
null,,html-keyboard-response,1599299,,<p></p>,,,,null,,,,,,,,,,,,,,,,,,,,
888.8000000119209,,directmemory_phase,1600189,,GW/westpalmbeach.png,,,,49,,,0,0.41935483870967744,GW/shreveport.png,GW/newhope.png,GW/gatlinburg.png,GW/gatlinburg.png,GW/newhope.png,GW/shreveport.png,0.5,closer,,,,,,,,
null,,html-keyboard-response,1601193,,<p></p>,,,,null,,,,,,,,,,,,,,,,,,,,
1548.2000000178814,,directmemory_phase,1602743,,GW/huntsville.png,,,,49,,,0,0.40625,GW/shreveport.png,GW/racine.png,GW/cornwall.png,GW/racine.png,GW/shreveport.png,GW/cornwall.png,0.5,closer,,,,,,,,
null,,html-keyboard-response,1603747,,<p></p>,,,,null,,,,,,,,,,,,,,,,,,,,
4769.800000011921,,intro_1,1608519,,instruct,,0,,,,,,,,,,,,,,,,,,,,,,
2837.800000011921,,intro_2,1611359,,instruct,,1,Next,,,,,,,,,,,,,,,,,,,,,
9192.700000017881,,intro_3,1620554,,instruct,,1,Next,,,,,,,,,,,,,,,,,,,,,
2110.699999988079,,intro_4,1622667,,instruct,,1,Next,,,,,,,,,,,,,,,,,,,,,
2725.5,,intro_5,1625395,,instruct,,1,Next,,,,,,,,,,,,,,,,,,,,,
6152.4000000059605,,intro_6,1631550,,instruct,,1,Next,,,,,,,,,,,,,,,,,,,,,
1173.5,,intro_7,1632725,,instruct,,1,Next,,,,,,,,,,,,,,,,,,,,,
4223,,intro_8,1636950,,instruct,,1,Next,,,,,,,,,,,,,,,,,,,,,
1512.5,,shortestpath_phase,1638464,,GW/hanover.png,,,,50,GW/racine.png,GW/gatlinburg.png,0,0,,,,GW/racine.png,,,,,Three Edge Diff,Two Edge Five Edge,,,,,,
null,,html-keyboard-response,1639467,,<p></p>,,,,null,,,,,,,,,,,,,,,,,,,,
1121,,shortestpath_phase,1640589,,GW/boulder.png,,,,49,GW/newhope.png,GW/gatlinburg.png,1,0.5,,,,GW/newhope.png,,,,,One Edge Diff,Five Edge Six Edge,,,,,,
null,,html-keyboard-response,1641591,,<p></p>,,,,null,,,,,,,,,,,,,,,,,,,,
2055.0999999940395,,shortestpath_phase,1643648,,GW/leesburg.png,,,,50,GW/peoria.png,GW/cornwall.png,0,0.3333333333333333,,,,GW/peoria.png,,,,,Two Edge Diff,Three Edge Five Edge,,,,,,
null,,html-keyboard-response,1644651,,<p></p>,,,,null,,,,,,,,,,,,,,,,,,,,
1382.300000011921,,shortestpath_phase,1646035,,GW/westpalmbeach.png,,,,49,GW/newhope.png,GW/cornwall.png,1,0.5,,,,GW/newhope.png,,,,,Three Edge Diff,Two Edge Five Edge,,,,,,
null,,html-keyboard-response,1647046,,<p></p>,,,,null,,,,,,,,,,,,,,,,,,,,
1135.5,,shortestpath_phase,1648183,,GW/hotsprings.png,,,,50,GW/racine.png,GW/cornwall.png,0,0.4,,,,GW/racine.png,,,,,Two Edge Diff,Two Edge Four Edge,,,,,,
null,,html-keyboard-response,1649187,,<p></p>,,,,null,,,,,,,,,,,,,,,,,,,,
1542.699999988079,,shortestpath_phase,1650732,,GW/cornwall.png,,,,50,GW/newhope.png,GW/shreveport.png,1,0.5,,,,GW/shreveport.png,,,,,Four Edge Diff,Two Edge Six Edge,,,,,,
null,,html-keyboard-response,1651735,,<p></p>,,,,null,,,,,,,,,,,,,,,,,,,,
1063,,shortestpath_phase,1652799,,GW/hanover.png,,,,49,GW/gatlinburg.png,GW/huntsville.png,0,0.42857142857142855,,,,GW/huntsville.png,,,,,Two Edge Diff,Three Edge Five Edge,,,,,,
null,,html-keyboard-response,1653801,,<p></p>,,,,null,,,,,,,,,,,,,,,,,,,,
1144.800000011921,,shortestpath_phase,1654948,,GW/shreveport.png,,,,49,GW/hotsprings.png,GW/cornwall.png,0,0.375,,,,GW/cornwall.png,,,,,One Edge Diff,Two Edge Three Edge,,,,,,
null,,html-keyboard-response,1655950,,<p></p>,,,,null,,,,,,,,,,,,,,,,,,,,
1014.6999999880791,,shortestpath_phase,1656966,,GW/gatlinburg.png,,,,50,GW/shreveport.png,GW/newhope.png,1,0.4444444444444444,,,,GW/newhope.png,,,,,One Edge Diff,Three Edge Four Edge,,,,,,
null,,html-keyboard-response,1657968,,<p></p>,,,,null,,,,,,,,,,,,,,,,,,,,
665,,shortestpath_phase,1658635,,GW/hanover.png,,,,50,GW/gatlinburg.png,GW/hotsprings.png,1,0.5,,,,GW/hotsprings.png,,,,,Two Edge Diff,Three Edge Five Edge,,,,,,
null,,html-keyboard-response,1659638,,<p></p>,,,,null,,,,,,,,,,,,,,,,,,,,
993.6999999880791,,shortestpath_phase,1660633,,GW/gatlinburg.png,,,,49,GW/boulder.png,GW/peoria.png,0,0.45454545454545453,,,,GW/peoria.png,,,,,One Edge Diff,Five Edge Six Edge,,,,,,
null,,html-keyboard-response,1661637,,<p></p>,,,,null,,,,,,,,,,,,,,,,,,,,
561.5999999940395,,shortestpath_phase,1662200,,GW/newhope.png,,,,50,GW/cornwall.png,GW/huntsville.png,1,0.5,,,,GW/huntsville.png,,,,,Four Edge Diff,Two Edge Six Edge,,,,,,
null,,html-keyboard-response,1663202,,<p></p>,,,,null,,,,,,,,,,,,,,,,,,,,
409.30000001192093,,shortestpath_phase,1663613,,GW/peoria.png,,,,49,GW/cornwall.png,GW/huntsville.png,1,0.5384615384615384,,,,GW/cornwall.png,,,,,One Edge Diff,Two Edge Three Edge,,,,,,
null,,html-keyboard-response,1664616,,<p></p>,,,,null,,,,,,,,,,,,,,,,,,,,
811,,shortestpath_phase,1665428,,GW/leesburg.png,,,,49,GW/hanover.png,GW/cornwall.png,1,0.5714285714285714,,,,GW/hanover.png,,,,,One Edge Diff,Four Edge Five Edge,,,,,,
null,,html-keyboard-response,1666432,,<p></p>,,,,null,,,,,,,,,,,,,,,,,,,,
248.89999997615814,,shortestpath_phase,1666682,,GW/cornwall.png,,,,50,GW/gatlinburg.png,GW/westpalmbeach.png,1,0.6,,,,GW/westpalmbeach.png,,,,,One Edge Diff,Five Edge Six Edge,,,,,,
null,,slowdown_page,1676685,,too_quick,,,,null,,,,,,,,,,,,,,,,,,,,
null,,html-keyboard-response,1677688,,<p></p>,,,,null,,,,,,,,,,,,,,,,,,,,
1035.2000000178814,,shortestpath_phase,1678724,,GW/newhope.png,,,,50,GW/peoria.png,GW/cornwall.png,0,0.5625,,,,GW/peoria.png,,,,,Two Edge Diff,Four Edge Six Edge,,,,,,
null,,html-keyboard-response,1679727,,<p></p>,,,,null,,,,,,,,,,,,,,,,,,,,
1314.3999999761581,,shortestpath_phase,1681043,,GW/gatlinburg.png,,,,49,GW/hanover.png,GW/huntsville.png,0,0.5294117647058824,,,,GW/huntsville.png,,,,,Three Edge Diff,Two Edge Five Edge,,,,,,
null,,html-keyboard-response,1682046,,<p></p>,,,,null,,,,,,,,,,,,,,,,,,,,
1465.7999999821186,,shortestpath_phase,1683513,,GW/boulder.png,,,,49,GW/leesburg.png,GW/gatlinburg.png,1,0.5555555555555556,,,,GW/leesburg.png,,,,,Two Edge Diff,Four Edge Six Edge,,,,,,
null,,html-keyboard-response,1684517,,<p></p>,,,,null,,,,,,,,,,,,,,,,,,,,
1367.300000011921,,shortestpath_phase,1685886,,GW/newhope.png,,,,50,GW/hotsprings.png,GW/cornwall.png,0,0.5263157894736842,,,,GW/hotsprings.png,,,,,Four Edge Diff,Two Edge Six Edge,,,,,,
null,,html-keyboard-response,1686889,,<p></p>,,,,null,,,,,,,,,,,,,,,,,,,,
1535.7999999821186,,shortestpath_phase,1688427,,GW/gatlinburg.png,,,,49,GW/hanover.png,GW/carmel.png,0,0.5,,,,GW/carmel.png,,,,,One Edge Diff,Four Edge Five Edge,,,,,,
null,,html-keyboard-response,1689429,,<p></p>,,,,null,,,,,,,,,,,,,,,,,,,,
1212.199999988079,,shortestpath_phase,1690643,,GW/newhope.png,,,,50,GW/westpalmbeach.png,GW/boulder.png,0,0.47619047619047616,,,,GW/westpalmbeach.png,,,,,Three Edge Diff,Two Edge Five Edge,,,,,,
null,,html-keyboard-response,1691646,,<p></p>,,,,null,,,,,,,,,,,,,,,,,,,,
1416.0999999940395,,shortestpath_phase,1693063,,GW/boulder.png,,,,50,GW/huntsville.png,GW/gatlinburg.png,0,0.45454545454545453,,,,GW/huntsville.png,,,,,Two Edge Diff,Four Edge Six Edge,,,,,,
null,,html-keyboard-response,1694066,,<p></p>,,,,null,,,,,,,,,,,,,,,,,,,,
920.0999999940395,,shortestpath_phase,1694987,,GW/hanover.png,,,,50,GW/gatlinburg.png,GW/racine.png,1,0.4782608695652174,,,,GW/racine.png,,,,,Three Edge Diff,Three Edge Six Edge,,,,,,
null,,html-keyboard-response,1695991,,<p></p>,,,,null,,,,,,,,,,,,,,,,,,,,
1328.699999988079,,shortestpath_phase,1697321,,GW/boulder.png,,,,49,GW/westpalmbeach.png,GW/carmel.png,0,0.4583333333333333,,,,GW/carmel.png,,,,,Three Edge Diff,Three Edge Six Edge,,,,,,
null,,html-keyboard-response,1698325,,<p></p>,,,,null,,,,,,,,,,,,,,,,,,,,
1604.3999999761581,,shortestpath_phase,1699931,,GW/huntsville.png,,,,50,GW/cornwall.png,GW/hanover.png,1,0.48,,,,GW/hanover.png,,,,,One Edge Diff,Three Edge Four Edge,,,,,,
null,,html-keyboard-response,1700933,,<p></p>,,,,null,,,,,,,,,,,,,,,,,,,,
1415.800000011921,,shortestpath_phase,1702351,,GW/shreveport.png,,,,49,GW/carmel.png,GW/hotsprings.png,1,0.5,,,,GW/carmel.png,,,,,One Edge Diff,Two Edge Three Edge,,,,,,
null,,html-keyboard-response,1703355,,<p></p>,,,,null,,,,,,,,,,,,,,,,,,,,
1228.800000011921,,shortestpath_phase,1704585,,GW/gatlinburg.png,,,,50,GW/leesburg.png,GW/shreveport.png,0,0.48148148148148145,,,,GW/leesburg.png,,,,,Two Edge Diff,Two Edge Four Edge,,,,,,
null,,html-keyboard-response,1705589,,<p></p>,,,,null,,,,,,,,,,,,,,,,,,,,
1181.800000011921,,shortestpath_phase,1706772,,GW/cornwall.png,,,,50,GW/racine.png,GW/huntsville.png,0,0.4642857142857143,,,,GW/racine.png,,,,,One Edge Diff,Three Edge Four Edge,,,,,,
null,,html-keyboard-response,1707774,,<p></p>,,,,null,,,,,,,,,,,,,,,,,,,,
1095.5,,shortestpath_phase,1708871,,GW/newhope.png,,,,49,GW/hanover.png,GW/hotsprings.png,0,0.4482758620689655,,,,GW/hotsprings.png,,,,,Three Edge Diff,Two Edge Five Edge,,,,,,
null,,html-keyboard-response,1709875,,<p></p>,,,,null,,,,,,,,,,,,,,,,,,,,
2209.5999999940395,,shortestpath_phase,1712086,,GW/hanover.png,,,,49,GW/gatlinburg.png,GW/carmel.png,0,0.43333333333333335,,,,GW/carmel.png,,,,,Three Edge Diff,Three Edge Six Edge,,,,,,
null,,html-keyboard-response,1713089,,<p></p>,,,,null,,,,,,,,,,,,,,,,,,,,
1364.5,,shortestpath_phase,1714455,,GW/leesburg.png,,,,49,GW/gatlinburg.png,GW/cornwall.png,1,0.45161290322580644,,,,GW/gatlinburg.png,,,,,Three Edge Diff,Three Edge Six Edge,,,,,,
null,,html-keyboard-response,1715457,,<p></p>,,,,null,,,,,,,,,,,,,,,,,,,,
1129.699999988079,,shortestpath_phase,1716589,,GW/newhope.png,,,,49,GW/peoria.png,GW/boulder.png,1,0.46875,,,,GW/peoria.png,,,,,One Edge Diff,Four Edge Five Edge,,,,,,
null,,html-keyboard-response,1717591,,<p></p>,,,,null,,,,,,,,,,,,,,,,,,,,
1692.8999999761581,,shortestpath_phase,1719285,,GW/gatlinburg.png,,,,50,GW/cornwall.png,GW/huntsville.png,1,0.48484848484848486,,,,GW/huntsville.png,,,,,Four Edge Diff,Two Edge Six Edge,,,,,,
null,,html-keyboard-response,1720301,,<p></p>,,,,null,,,,,,,,,,,,,,,,,,,,
905.8000000119209,,shortestpath_phase,1721208,,GW/peoria.png,,,,49,GW/newhope.png,GW/hotsprings.png,0,0.47058823529411764,,,,GW/hotsprings.png,,,,,Two Edge Diff,Two Edge Four Edge,,,,,,
null,,html-keyboard-response,1722211,,<p></p>,,,,null,,,,,,,,,,,,,,,,,,,,
2021,,shortestpath_phase,1724234,,GW/boulder.png,,,,49,GW/leesburg.png,GW/newhope.png,1,0.4857142857142857,,,,GW/leesburg.png,,,,,One Edge Diff,Four Edge Five Edge,,,,,,
null,,html-keyboard-response,1725237,,<p></p>,,,,null,,,,,,,,,,,,,,,,,,,,
1298.800000011921,,shortestpath_phase,1726538,,GW/peoria.png,,,,50,GW/racine.png,GW/newhope.png,0,0.4722222222222222,,,,GW/racine.png,,,,,Two Edge Diff,Two Edge Four Edge,,,,,,
null,,html-keyboard-response,1727541,,<p></p>,,,,null,,,,,,,,,,,,,,,,,,,,
1394,,shortestpath_phase,1728937,,GW/gatlinburg.png,,,,50,GW/leesburg.png,GW/hanover.png,0,0.4594594594594595,,,,GW/leesburg.png,,,,,Three Edge Diff,Three Edge Six Edge,,,,,,
null,,html-keyboard-response,1729940,,<p></p>,,,,null,,,,,,,,,,,,,,,,,,,,
2080.699999988079,,shortestpath_phase,1732022,,GW/cornwall.png,,,,50,GW/hotsprings.png,GW/gatlinburg.png,0,0.4473684210526316,,,,GW/hotsprings.png,,,,,Two Edge Diff,Four Edge Six Edge,,,,,,
null,,html-keyboard-response,1733025,,<p></p>,,,,null,,,,,,,,,,,,,,,,,,,,
1744.5999999940395,,shortestpath_phase,1734772,,GW/boulder.png,,,,49,GW/racine.png,GW/westpalmbeach.png,1,0.46153846153846156,,,,GW/racine.png,,,,,Two Edge Diff,Three Edge Five Edge,,,,,,
null,,html-keyboard-response,1735775,,<p></p>,,,,null,,,,,,,,,,,,,,,,,,,,
1089.2000000178814,,shortestpath_phase,1736866,,GW/peoria.png,,,,49,GW/huntsville.png,GW/gatlinburg.png,1,0.475,,,,GW/huntsville.png,,,,,Two Edge Diff,Three Edge Five Edge,,,,,,
null,,html-keyboard-response,1737870,,<p></p>,,,,null,,,,,,,,,,,,,,,,,,,,
1339.5,,shortestpath_phase,1739211,,GW/boulder.png,,,,49,GW/newhope.png,GW/hotsprings.png,0,0.4634146341463415,,,,GW/hotsprings.png,,,,,Two Edge Diff,Three Edge Five Edge,,,,,,
null,,html-keyboard-response,1740220,,<p></p>,,,,null,,,,,,,,,,,,,,,,,,,,
946.0999999940395,,shortestpath_phase,1741168,,GW/peoria.png,,,,50,GW/shreveport.png,GW/huntsville.png,0,0.4523809523809524,,,,GW/shreveport.png,,,,,One Edge Diff,Two Edge Three Edge,,,,,,
null,,html-keyboard-response,1742170,,<p></p>,,,,null,,,,,,,,,,,,,,,,,,,,
1004.2000000178814,,shortestpath_phase,1743176,,GW/gatlinburg.png,,,,50,GW/boulder.png,GW/hanover.png,1,0.46511627906976744,,,,GW/hanover.png,,,,,One Edge Diff,Five Edge Six Edge,,,,,,
null,,html-keyboard-response,1744185,,<p></p>,,,,null,,,,,,,,,,,,,,,,,,,,
1279,,shortestpath_phase,1745465,,GW/peoria.png,,,,49,GW/cornwall.png,GW/gatlinburg.png,1,0.4772727272727273,,,,GW/cornwall.png,,,,,Three Edge Diff,Three Edge Six Edge,,,,,,
null,,html-keyboard-response,1746468,,<p></p>,,,,null,,,,,,,,,,,,,,,,,,,,
1314.5,,shortestpath_phase,1747784,,GW/westpalmbeach.png,,,,50,GW/newhope.png,GW/boulder.png,0,0.4666666666666667,,,,GW/newhope.png,,,,,Three Edge Diff,Three Edge Six Edge,,,,,,
null,,html-keyboard-response,1748787,,<p></p>,,,,null,,,,,,,,,,,,,,,,,,,,
1175.4000000059605,,shortestpath_phase,1749964,,GW/boulder.png,,,,50,GW/westpalmbeach.png,GW/hanover.png,1,0.4782608695652174,,,,GW/hanover.png,,,,,Three Edge Diff,Three Edge Six Edge,,,,,,
null,,html-keyboard-response,1750967,,<p></p>,,,,null,,,,,,,,,,,,,,,,,,,,
1493.7999999821186,,shortestpath_phase,1752463,,GW/newhope.png,,,,49,GW/hotsprings.png,GW/shreveport.png,1,0.48936170212765956,,,,GW/hotsprings.png,,,,,Two Edge Diff,Two Edge Four Edge,,,,,,
null,,html-keyboard-response,1753467,,<p></p>,,,,null,,,,,,,,,,,,,,,,,,,,
853.1000000238419,,shortestpath_phase,1754322,,GW/cornwall.png,,,,49,GW/shreveport.png,GW/racine.png,1,0.5,,,,GW/shreveport.png,,,,,One Edge Diff,Two Edge Three Edge,,,,,,
null,,html-keyboard-response,1755326,,<p></p>,,,,null,,,,,,,,,,,,,,,,,,,,
3001.699999988079,,shortestpath_phase,1758329,,GW/westpalmbeach.png,,,,49,GW/racine.png,GW/boulder.png,1,0.5102040816326531,,,,GW/racine.png,,,,,Three Edge Diff,Three Edge Six Edge,,,,,,
null,,html-keyboard-response,1759333,,<p></p>,,,,null,,,,,,,,,,,,,,,,,,,,
1001.9000000059605,,shortestpath_phase,1760336,,GW/shreveport.png,,,,49,GW/gatlinburg.png,GW/leesburg.png,0,0.5,,,,GW/leesburg.png,,,,,One Edge Diff,Three Edge Four Edge,,,,,,
null,,html-keyboard-response,1761339,,<p></p>,,,,null,,,,,,,,,,,,,,,,,,,,
1064.800000011921,,shortestpath_phase,1762406,,GW/peoria.png,,,,49,GW/cornwall.png,GW/newhope.png,1,0.5098039215686274,,,,GW/cornwall.png,,,,,Two Edge Diff,Two Edge Four Edge,,,,,,
null,,html-keyboard-response,1763409,,<p></p>,,,,null,,,,,,,,,,,,,,,,,,,,
1028.5999999940395,,shortestpath_phase,1764439,,GW/shreveport.png,,,,50,GW/boulder.png,GW/gatlinburg.png,0,0.5,,,,GW/boulder.png,,,,,One Edge Diff,Three Edge Four Edge,,,,,,
null,,html-keyboard-response,1765441,,<p></p>,,,,null,,,,,,,,,,,,,,,,,,,,
754.3000000119209,,shortestpath_phase,1766198,,GW/cornwall.png,,,,49,GW/newhope.png,GW/peoria.png,0,0.49056603773584906,,,,GW/peoria.png,,,,,Four Edge Diff,Two Edge Six Edge,,,,,,
null,,html-keyboard-response,1767201,,<p></p>,,,,null,,,,,,,,,,,,,,,,,,,,
1053.9000000059605,,shortestpath_phase,1768257,,GW/huntsville.png,,,,50,GW/boulder.png,GW/shreveport.png,1,0.5,,,,GW/shreveport.png,,,,,Two Edge Diff,Two Edge Four Edge,,,,,,
null,,html-keyboard-response,1769260,,<p></p>,,,,null,,,,,,,,,,,,,,,,,,,,
1658.5,,shortestpath_phase,1770921,,GW/boulder.png,,,,50,GW/gatlinburg.png,GW/hanover.png,1,0.509090909090909,,,,GW/hanover.png,,,,,Four Edge Diff,Two Edge Six Edge,,,,,,
null,,html-keyboard-response,1771924,,<p></p>,,,,null,,,,,,,,,,,,,,,,,,,,
1426.300000011921,,shortestpath_phase,1773352,,GW/gatlinburg.png,,,,50,GW/cornwall.png,GW/leesburg.png,1,0.5178571428571429,,,,GW/leesburg.png,,,,,Four Edge Diff,Two Edge Six Edge,,,,,,
null,,html-keyboard-response,1774354,,<p></p>,,,,null,,,,,,,,,,,,,,,,,,,,
1608.2000000178814,,shortestpath_phase,1775964,,GW/boulder.png,,,,49,GW/newhope.png,GW/huntsville.png,0,0.5087719298245614,,,,GW/huntsville.png,,,,,One Edge Diff,Four Edge Five Edge,,,,,,
null,,html-keyboard-response,1776967,,<p></p>,,,,null,,,,,,,,,,,,,,,,,,,,
1218.0999999940395,,shortestpath_phase,1778187,,GW/gatlinburg.png,,,,49,GW/boulder.png,GW/shreveport.png,0,0.5,,,,GW/shreveport.png,,,,,Two Edge Diff,Four Edge Six Edge,,,,,,
null,,html-keyboard-response,1779189,,<p></p>,,,,null,,,,,,,,,,,,,,,,,,,,
2302.399999976158,,shortestpath_phase,1781493,,GW/boulder.png,,,,49,GW/gatlinburg.png,GW/carmel.png,0,0.4915254237288136,,,,GW/carmel.png,,,,,Four Edge Diff,Two Edge Six Edge,,,,,,
null,,html-keyboard-response,1782495,,<p></p>,,,,null,,,,,,,,,,,,,,,,,,,,
1980.800000011921,,shortestpath_phase,1784477,,GW/westpalmbeach.png,,,,49,GW/newhope.png,GW/boulder.png,1,0.5,,,,GW/newhope.png,,,,,Three Edge Diff,Two Edge Five Edge,,,,,,
null,,html-keyboard-response,1785481,,<p></p>,,,,null,,,,,,,,,,,,,,,,,,,,
816.2999999821186,,shortestpath_phase,1786299,,GW/hanover.png,,,,50,GW/racine.png,GW/newhope.png,0,0.4918032786885246,,,,GW/racine.png,,,,,Three Edge Diff,Three Edge Six Edge,,,,,,
null,,html-keyboard-response,1787302,,<p></p>,,,,null,,,,,,,,,,,,,,,,,,,,
1191.300000011921,,shortestpath_phase,1788495,,GW/newhope.png,,,,50,GW/hanover.png,GW/huntsville.png,1,0.5,,,,GW/huntsville.png,,,,,Three Edge Diff,Two Edge Five Edge,,,,,,
null,,html-keyboard-response,1789498,,<p></p>,,,,null,,,,,,,,,,,,,,,,,,,,
1846.5999999940395,,shortestpath_phase,1791346,,GW/westpalmbeach.png,,,,50,GW/racine.png,GW/cornwall.png,0,0.49206349206349204,,,,GW/racine.png,,,,,Three Edge Diff,Three Edge Six Edge,,,,,,
null,,html-keyboard-response,1792349,,<p></p>,,,,null,,,,,,,,,,,,,,,,,,,,
863.5999999940395,,shortestpath_phase,1793213,,GW/newhope.png,,,,50,GW/shreveport.png,GW/hanover.png,0,0.484375,,,,GW/shreveport.png,,,,,One Edge Diff,Four Edge Five Edge,,,,,,
null,,html-keyboard-response,1794216,,<p></p>,,,,null,,,,,,,,,,,,,,,,,,,,
1100,,shortestpath_phase,1795318,,GW/hanover.png,,,,50,GW/carmel.png,GW/gatlinburg.png,0,0.47692307692307695,,,,GW/carmel.png,,,,,Three Edge Diff,Two Edge Five Edge,,,,,,
null,,html-keyboard-response,1796333,,<p></p>,,,,null,,,,,,,,,,,,,,,,,,,,
1162.199999988079,,shortestpath_phase,1797496,,GW/gatlinburg.png,,,,49,GW/cornwall.png,GW/shreveport.png,0,0.4696969696969697,,,,GW/shreveport.png,,,,,Two Edge Diff,Four Edge Six Edge,,,,,,
null,,html-keyboard-response,1798498,,<p></p>,,,,null,,,,,,,,,,,,,,,,,,,,
1905.7000000178814,,shortestpath_phase,1800405,,GW/newhope.png,,,,50,GW/hanover.png,GW/westpalmbeach.png,1,0.47761194029850745,,,,GW/westpalmbeach.png,,,,,Three Edge Diff,Two Edge Five Edge,,,,,,
null,,html-keyboard-response,1801407,,<p></p>,,,,null,,,,,,,,,,,,,,,,,,,,
2637.899999976158,,shortestpath_phase,1804046,,GW/cornwall.png,,,,49,GW/shreveport.png,GW/gatlinburg.png,1,0.4852941176470588,,,,GW/shreveport.png,,,,,Four Edge Diff,Two Edge Six Edge,,,,,,
null,,html-keyboard-response,1805049,,<p></p>,,,,null,,,,,,,,,,,,,,,,,,,,
1490.4000000059605,,shortestpath_phase,1806542,,GW/westpalmbeach.png,,,,50,GW/carmel.png,GW/cornwall.png,0,0.4782608695652174,,,,GW/carmel.png,,,,,Two Edge Diff,Three Edge Five Edge,,,,,,
null,,html-keyboard-response,1807545,,<p></p>,,,,null,,,,,,,,,,,,,,,,,,,,
804.6999999880791,,shortestpath_phase,1808351,,GW/gatlinburg.png,,,,50,GW/hanover.png,GW/newhope.png,1,0.4857142857142857,,,,GW/newhope.png,,,,,Two Edge Diff,Three Edge Five Edge,,,,,,
null,,html-keyboard-response,1809353,,<p></p>,,,,null,,,,,,,,,,,,,,,,,,,,
1003.8000000119209,,shortestpath_phase,1810359,,GW/westpalmbeach.png,,,,49,GW/cornwall.png,GW/racine.png,0,0.4788732394366197,,,,GW/racine.png,,,,,Three Edge Diff,Two Edge Five Edge,,,,,,
null,,html-keyboard-response,1811361,,<p></p>,,,,null,,,,,,,,,,,,,,,,,,,,
819.4000000059605,,shortestpath_phase,1812182,,GW/boulder.png,,,,49,GW/carmel.png,GW/newhope.png,1,0.4861111111111111,,,,GW/carmel.png,,,,,Three Edge Diff,Three Edge Six Edge,,,,,,
null,,html-keyboard-response,1813186,,<p></p>,,,,null,,,,,,,,,,,,,,,,,,,,
888.5,,shortestpath_phase,1814076,,GW/newhope.png,,,,49,GW/cornwall.png,GW/westpalmbeach.png,0,0.4794520547945205,,,,GW/westpalmbeach.png,,,,,Four Edge Diff,Two Edge Six Edge,,,,,,
null,,html-keyboard-response,1815080,,<p></p>,,,,null,,,,,,,,,,,,,,,,,,,,
1267.0999999940395,,shortestpath_phase,1816349,,GW/cornwall.png,,,,50,GW/leesburg.png,GW/gatlinburg.png,0,0.47297297297297297,,,,GW/leesburg.png,,,,,One Edge Diff,Five Edge Six Edge,,,,,,
null,,html-keyboard-response,1817352,,<p></p>,,,,null,,,,,,,,,,,,,,,,,,,,
977,,shortestpath_phase,1818330,,GW/gatlinburg.png,,,,50,GW/huntsville.png,GW/newhope.png,0,0.4666666666666667,,,,GW/huntsville.png,,,,,One Edge Diff,Two Edge Three Edge,,,,,,
null,,html-keyboard-response,1819333,,<p></p>,,,,null,,,,,,,,,,,,,,,,,,,,
967.0999999940395,,shortestpath_phase,1820302,,GW/cornwall.png,,,,49,GW/peoria.png,GW/westpalmbeach.png,1,0.47368421052631576,,,,GW/peoria.png,,,,,Three Edge Diff,Two Edge Five Edge,,,,,,
null,,html-keyboard-response,1821306,,<p></p>,,,,null,,,,,,,,,,,,,,,,,,,,
1078.5999999940395,,shortestpath_phase,1822387,,GW/gatlinburg.png,,,,50,GW/boulder.png,GW/carmel.png,1,0.4805194805194805,,,,GW/carmel.png,,,,,Two Edge Diff,Four Edge Six Edge,,,,,,
null,,html-keyboard-response,1823390,,<p></p>,,,,null,,,,,,,,,,,,,,,,,,,,
892.6999999880791,,shortestpath_phase,1824284,,GW/cornwall.png,,,,49,GW/newhope.png,GW/leesburg.png,0,0.47435897435897434,,,,GW/leesburg.png,,,,,One Edge Diff,Five Edge Six Edge,,,,,,
null,,html-keyboard-response,1825288,,<p></p>,,,,null,,,,,,,,,,,,,,,,,,,,
1523.2999999821186,,shortestpath_phase,1826813,,GW/boulder.png,,,,49,GW/carmel.png,GW/newhope.png,1,0.4810126582278481,,,,GW/carmel.png,,,,,Three Edge Diff,Two Edge Five Edge,,,,,,
null,,html-keyboard-response,1827817,,<p></p>,,,,null,,,,,,,,,,,,,,,,,,,,
697.2999999821186,,shortestpath_phase,1828516,,GW/gatlinburg.png,,,,50,GW/huntsville.png,GW/boulder.png,0,0.475,,,,GW/huntsville.png,,,,,Four Edge Diff,Two Edge Six Edge,,,,,,
null,,html-keyboard-response,1829520,,<p></p>,,,,null,,,,,,,,,,,,,,,,,,,,
978,,shortestpath_phase,1830500,,GW/cornwall.png,,,,49,GW/racine.png,GW/hotsprings.png,1,0.48148148148148145,,,,GW/racine.png,,,,,One Edge Diff,Three Edge Four Edge,,,,,,
null,,html-keyboard-response,1831504,,<p></p>,,,,null,,,,,,,,,,,,,,,,,,,,
615.8000000119209,,shortestpath_phase,1832122,,GW/gatlinburg.png,,,,50,GW/huntsville.png,GW/carmel.png,0,0.47560975609756095,,,,GW/huntsville.png,,,,,Two Edge Diff,Two Edge Four Edge,,,,,,
null,,html-keyboard-response,1833126,,<p></p>,,,,null,,,,,,,,,,,,,,,,,,,,
2235.699999988079,,shortestpath_phase,1835363,,GW/cornwall.png,,,,50,GW/gatlinburg.png,GW/peoria.png,1,0.4819277108433735,,,,GW/peoria.png,,,,,Four Edge Diff,Two Edge Six Edge,,,,,,
null,,html-keyboard-response,1836365,,<p></p>,,,,null,,,,,,,,,,,,,,,,,,,,
