rt,responses,trial_type,time_elapsed,sequence,stimulus,graphorder,button_pressed,response,key_press,stimulus_left,stimulus_right,accuracy,cumulative_accuracy,stimulus_down_left,stimulus_down_mid,stimulus_down_right,stimulus_correct,stimulus_short,stimulus_far,weighted_accuracy,missedtrial,condition,specific_pairs,imgL_ID,imgR_ID,linedress,linedressed,linedressed_detor,detour_trial
6877,{worker_id:6604cdce9c02df4997ec8b68},id_enter,6880,blocked,replication,GW/shreveport.png; GW/hotsprings.png; GW/gatlinburg.png; GW/racine.png; GW/westpalmbeach.png; GW/hanover.png; GW/carmel.png; GW/huntsville.png; GW/peoria.png; GW/leesburg.png; GW/cornwall.png; GW/newhope.png; GW/boulder.png,,,,,,,,,,,,,,,,,,,,,,,
23053,,fullscreen,29938,,fullscreen,,0,,,,,,,,,,,,,,,,,,,,,,
37408,,intro_1,67352,,instruct,,0,,,,,,,,,,,,,,,,,,,,,,
22750.999999999985,,intro_2,90105,,instruct,,1,Next,,,,,,,,,,,,,,,,,,,,,
11528.999999999985,,intro_3,101635,,instruct,,1,Next,,,,,,,,,,,,,,,,,,,,,
null,,learn_prac_1,104638,,lean_prac_1,,,,null,,,,,,,,,,,,,,,,,,,,
null,,html-keyboard-response,105645,,<p></p>,,,,null,,,,,,,,,,,,,,,,,,,,
5657,,intro_1,111302,,instruct,,0,,,,,,,,,,,,,,,,,,,,,,
23715.00000000003,,intro_2,135019,,instruct,,1,Next,,,,,,,,,,,,,,,,,,,,,
null,,learn_prac_2,138021,,lean_prac_2,,,,null,,,,,,,,,,,,,,,,,,,,
null,,html-keyboard-response,139029,,<p></p>,,,,null,,,,,,,,,,,,,,,,,,,,
3573,,intro_1,142603,,instruct,,0,,,,,,,,,,,,,,,,,,,,,,
13748,,intro_2,156353,,instruct,,1,Next,,,,,,,,,,,,,,,,,,,,,
87098,,intro_3,243454,,instruct,,1,Next,,,,,,,,,,,,,,,,,,,,,
null,,prac_atten_color_black,243785,,black_plus_sign,,,,null,,,,,,,,,,,,,,,,,,,,
null,,prac_atten_color,244865,,prac_stop_color,,,,null,,,,,,,,,,,,,,,,,,,,
409,,prac_atten_color_black,246868,,black_plus_sign,,,,49,,,,,,,,,,,,,,,,,,,,
null,,prac_atten_color_black,247203,,black_plus_sign,,,,null,,,,,,,,,,,,,,,,,,,,
null,,prac_atten_color,247646,,prac_stop_color,,,,null,,,,,,,,,,,,,,,,,,,,
45,,prac_atten_color_black,249649,,black_plus_sign,,,,50,,,,,,,,,,,,,,,,,,,,
null,,prac_atten_color_black,250619,,black_plus_sign,,,,null,,,,,,,,,,,,,,,,,,,,
null,,prac_atten_color,251212,,prac_stop_color,,,,null,,,,,,,,,,,,,,,,,,,,
21.999999999941792,,prac_atten_color_black,253215,,black_plus_sign,,,,50,,,,,,,,,,,,,,,,,,,,
null,,prac_atten_color_black,254036,,black_plus_sign,,,,null,,,,,,,,,,,,,,,,,,,,
614,,prac_atten_color,255079,,prac_stop_color,,,,49,,,,,,,,,,,,,,,,,,,,
null,,prac_atten_color_black,257081,,black_plus_sign,,,,null,,,,,,,,,,,,,,,,,,,,
null,,prac_atten_color_black,257454,,black_plus_sign,,,,null,,,,,,,,,,,,,,,,,,,,
null,,prac_atten_color,258172,,prac_stop_color,,,,null,,,,,,,,,,,,,,,,,,,,
19,,prac_atten_color_black,260175,,black_plus_sign,,,,50,,,,,,,,,,,,,,,,,,,,
null,,prac_atten_color_black,260871,,black_plus_sign,,,,null,,,,,,,,,,,,,,,,,,,,
748,,prac_atten_color,261910,,prac_stop_color,,,,50,,,,,,,,,,,,,,,,,,,,
null,,prac_atten_color_black,263913,,black_plus_sign,,,,null,,,,,,,,,,,,,,,,,,,,
null,,prac_atten_color_black,264288,,black_plus_sign,,,,null,,,,,,,,,,,,,,,,,,,,
452,,prac_atten_color,265191,,prac_stop_color,,,,49,,,,,,,,,,,,,,,,,,,,
null,,prac_atten_color_black,267194,,black_plus_sign,,,,null,,,,,,,,,,,,,,,,,,,,
null,,prac_atten_color_black,267706,,black_plus_sign,,,,null,,,,,,,,,,,,,,,,,,,,
425,,prac_atten_color,268283,,prac_stop_color,,,,50,,,,,,,,,,,,,,,,,,,,
null,,prac_atten_color_black,270286,,black_plus_sign,,,,null,,,,,,,,,,,,,,,,,,,,
null,,prac_atten_color_black,271122,,black_plus_sign,,,,null,,,,,,,,,,,,,,,,,,,,
null,,prac_atten_color,271668,,prac_stop_color,,,,null,,,,,,,,,,,,,,,,,,,,
117,,prac_atten_color_black,273671,,black_plus_sign,,,,49,,,,,,,,,,,,,,,,,,,,
null,,prac_atten_color_black,274539,,black_plus_sign,,,,null,,,,,,,,,,,,,,,,,,,,
564,,prac_atten_color,275170,,prac_stop_color,,,,49,,,,,,,,,,,,,,,,,,,,
null,,prac_atten_color_black,277173,,black_plus_sign,,,,null,,,,,,,,,,,,,,,,,,,,
11260.000000000058,,attentioncheck_feedback,288440,,cross_check_feedback,,0,,,,,,,,,,,,,,,,,,,,,,
37737.00000000006,,last_instruct,326178,,instruct,,,,32,,,,,,,,,,,,,,,,,,,,
null,,learn_phase(without_color),329181,,black_plus_sign,,,,null,GW/hanover.png,GW/carmel.png,,,,,,,,,,,,,,,,,,
null,,black_cross(without_color),329844,,yellow,,,,null,GW/hanover.png,GW/carmel.png,,,,,,,,,,,,,,,,,,
null,,rt_plussign_withcolor,330347,,yellow,,,,null,GW/hanover.png,GW/carmel.png,,,,,,,,,,,,,,,,,,
1403.0000000000582,,rt_thecrossant_black,331698,,black_plus_sign,,,,50,,,1,1,,,,,,,,,,,,,,,,
null,,color_black,331806,,black_plus_sign,,,,null,,,,,,,,,,,,,,,,,,,,
null,,learn_phase(without_color),334812,,black_plus_sign,,,,null,GW/cornwall.png,GW/peoria.png,,,,,,,,,,,,,,,,,,
null,,black_cross(without_color),335903,,yellow,,,,null,GW/cornwall.png,GW/peoria.png,,,,,,,,,,,,,,,,,,
null,,rt_plussign_withcolor,336406,,yellow,,,,null,GW/cornwall.png,GW/peoria.png,,,,,,,,,,,,,,,,,,
1371,,rt_thecrossant_black,337329,,black_plus_sign,,,,50,,,1,1,,,,,,,,,,,,,,,,
null,,color_black,337436,,black_plus_sign,,,,null,,,,,,,,,,,,,,,,,,,,
null,,learn_phase(without_color),340442,,black_plus_sign,,,,null,GW/racine.png,GW/westpalmbeach.png,,,,,,,,,,,,,,,,,,
null,,black_cross(without_color),341234,,yellow,,,,null,GW/racine.png,GW/westpalmbeach.png,,,,,,,,,,,,,,,,,,
null,,rt_plussign_withcolor,341737,,yellow,,,,null,GW/racine.png,GW/westpalmbeach.png,,,,,,,,,,,,,,,,,,
1807,,rt_thecrossant_black,342958,,black_plus_sign,,,,50,,,1,1,,,,,,,,,,,,,,,,
null,,color_black,343064,,black_plus_sign,,,,null,,,,,,,,,,,,,,,,,,,,
null,,learn_phase(without_color),346071,,black_plus_sign,,,,null,GW/hanover.png,GW/carmel.png,,,,,,,,,,,,,,,,,,
null,,black_cross(without_color),346803,,yellow,,,,null,GW/hanover.png,GW/carmel.png,,,,,,,,,,,,,,,,,,
null,,rt_plussign_withcolor,347306,,yellow,,,,null,GW/hanover.png,GW/carmel.png,,,,,,,,,,,,,,,,,,
934,,rt_thecrossant_black,348586,,black_plus_sign,,,,50,,,1,1,,,,,,,,,,,,,,,,
null,,color_black,348693,,black_plus_sign,,,,null,,,,,,,,,,,,,,,,,,,,
null,,learn_phase(without_color),351700,,black_plus_sign,,,,null,GW/shreveport.png,GW/hotsprings.png,,,,,,,,,,,,,,,,,,
null,,black_cross(without_color),352443,,yellow,,,,null,GW/shreveport.png,GW/hotsprings.png,,,,,,,,,,,,,,,,,,
null,,rt_plussign_withcolor,352945,,yellow,,,,null,GW/shreveport.png,GW/hotsprings.png,,,,,,,,,,,,,,,,,,
null,,rt_thecrossant_black,354217,,black_plus_sign,,,,null,,,,1,,,,,,,,,,,,,,,,
null,,color_black,354323,,black_plus_sign,,,,null,,,,,,,,,,,,,,,,,,,,
null,,learn_phase(without_color),357330,,black_plus_sign,,,,null,GW/racine.png,GW/westpalmbeach.png,,,,,,,,,,,,,,,,,,
null,,black_cross(without_color),357838,,blue,,,,null,GW/racine.png,GW/westpalmbeach.png,,,,,,,,,,,,,,,,,,
null,,rt_plussign_withcolor,358340,,blue,,,,null,GW/racine.png,GW/westpalmbeach.png,,,,,,,,,,,,,,,,,,
1079.0000000000582,,rt_thecrossant_black,359846,,black_plus_sign,,,,49,,,1,1,,,,,,,,,,,,,,,,
null,,color_black,359953,,black_plus_sign,,,,null,,,,,,,,,,,,,,,,,,,,
null,,learn_phase(without_color),362960,,black_plus_sign,,,,null,GW/peoria.png,GW/cornwall.png,,,,,,,,,,,,,,,,,,
null,,black_cross(without_color),363619,,yellow,,,,null,GW/peoria.png,GW/cornwall.png,,,,,,,,,,,,,,,,,,
null,,rt_plussign_withcolor,364122,,yellow,,,,null,GW/peoria.png,GW/cornwall.png,,,,,,,,,,,,,,,,,,
666,,rt_thecrossant_black,365477,,black_plus_sign,,,,50,,,1,1,,,,,,,,,,,,,,,,
null,,color_black,365584,,black_plus_sign,,,,null,,,,,,,,,,,,,,,,,,,,
null,,learn_phase(without_color),368592,,black_plus_sign,,,,null,GW/shreveport.png,GW/hotsprings.png,,,,,,,,,,,,,,,,,,
null,,black_cross(without_color),369322,,blue,,,,null,GW/shreveport.png,GW/hotsprings.png,,,,,,,,,,,,,,,,,,
null,,rt_plussign_withcolor,369824,,blue,,,,null,GW/shreveport.png,GW/hotsprings.png,,,,,,,,,,,,,,,,,,
1017,,rt_thecrossant_black,371108,,black_plus_sign,,,,49,,,1,1,,,,,,,,,,,,,,,,
null,,color_black,371214,,black_plus_sign,,,,null,,,,,,,,,,,,,,,,,,,,
null,,learn_phase(without_color),374222,,black_plus_sign,,,,null,GW/racine.png,GW/westpalmbeach.png,,,,,,,,,,,,,,,,,,
null,,black_cross(without_color),374946,,blue,,,,null,GW/racine.png,GW/westpalmbeach.png,,,,,,,,,,,,,,,,,,
null,,rt_plussign_withcolor,375448,,blue,,,,null,GW/racine.png,GW/westpalmbeach.png,,,,,,,,,,,,,,,,,,
1522,,rt_thecrossant_black,376738,,black_plus_sign,,,,49,,,1,1,,,,,,,,,,,,,,,,
null,,color_black,376846,,black_plus_sign,,,,null,,,,,,,,,,,,,,,,,,,,
null,,learn_phase(without_color),379852,,black_plus_sign,,,,null,GW/shreveport.png,GW/hotsprings.png,,,,,,,,,,,,,,,,,,
null,,black_cross(without_color),380601,,blue,,,,null,GW/shreveport.png,GW/hotsprings.png,,,,,,,,,,,,,,,,,,
null,,rt_plussign_withcolor,381103,,blue,,,,null,GW/shreveport.png,GW/hotsprings.png,,,,,,,,,,,,,,,,,,
1289,,rt_thecrossant_black,382367,,black_plus_sign,,,,49,,,1,1,,,,,,,,,,,,,,,,
null,,color_black,382474,,black_plus_sign,,,,null,,,,,,,,,,,,,,,,,,,,
null,,learn_phase(without_color),385481,,black_plus_sign,,,,null,GW/racine.png,GW/westpalmbeach.png,,,,,,,,,,,,,,,,,,
null,,black_cross(without_color),386103,,yellow,,,,null,GW/racine.png,GW/westpalmbeach.png,,,,,,,,,,,,,,,,,,
373,,rt_plussign_withcolor,386605,,yellow,,,,50,GW/racine.png,GW/westpalmbeach.png,,,,,,,,,,,,,,,,,,
null,,rt_thecrossant_black,387997,,black_plus_sign,,,,null,,,1,1,,,,,,,,,,,,,,,,
null,,color_black,388104,,black_plus_sign,,,,null,,,,,,,,,,,,,,,,,,,,
null,,learn_phase(without_color),391111,,black_plus_sign,,,,null,GW/shreveport.png,GW/hotsprings.png,,,,,,,,,,,,,,,,,,
null,,black_cross(without_color),391999,,yellow,,,,null,GW/shreveport.png,GW/hotsprings.png,,,,,,,,,,,,,,,,,,
null,,rt_plussign_withcolor,392501,,yellow,,,,null,GW/shreveport.png,GW/hotsprings.png,,,,,,,,,,,,,,,,,,
715,,rt_thecrossant_black,393626,,black_plus_sign,,,,50,,,1,1,,,,,,,,,,,,,,,,
null,,color_black,393733,,black_plus_sign,,,,null,,,,,,,,,,,,,,,,,,,,
null,,learn_phase(without_color),396741,,black_plus_sign,,,,null,GW/racine.png,GW/westpalmbeach.png,,,,,,,,,,,,,,,,,,
null,,black_cross(without_color),397469,,blue,,,,null,GW/racine.png,GW/westpalmbeach.png,,,,,,,,,,,,,,,,,,
null,,rt_plussign_withcolor,397972,,blue,,,,null,GW/racine.png,GW/westpalmbeach.png,,,,,,,,,,,,,,,,,,
1290,,rt_thecrossant_black,399258,,black_plus_sign,,,,49,,,1,1,,,,,,,,,,,,,,,,
null,,color_black,399365,,black_plus_sign,,,,null,,,,,,,,,,,,,,,,,,,,
null,,learn_phase(without_color),402373,,black_plus_sign,,,,null,GW/peoria.png,GW/cornwall.png,,,,,,,,,,,,,,,,,,
null,,black_cross(without_color),403352,,blue,,,,null,GW/peoria.png,GW/cornwall.png,,,,,,,,,,,,,,,,,,
null,,rt_plussign_withcolor,403855,,blue,,,,null,GW/peoria.png,GW/cornwall.png,,,,,,,,,,,,,,,,,,
881,,rt_thecrossant_black,404889,,black_plus_sign,,,,49,,,1,1,,,,,,,,,,,,,,,,
null,,color_black,404995,,black_plus_sign,,,,null,,,,,,,,,,,,,,,,,,,,
null,,learn_phase(without_color),408001,,black_plus_sign,,,,null,GW/carmel.png,GW/hanover.png,,,,,,,,,,,,,,,,,,
null,,black_cross(without_color),408774,,blue,,,,null,GW/carmel.png,GW/hanover.png,,,,,,,,,,,,,,,,,,
null,,rt_plussign_withcolor,409276,,blue,,,,null,GW/carmel.png,GW/hanover.png,,,,,,,,,,,,,,,,,,
2109,,rt_thecrossant_black,410518,,black_plus_sign,,,,49,,,1,1,,,,,,,,,,,,,,,,
null,,color_black,410624,,black_plus_sign,,,,null,,,,,,,,,,,,,,,,,,,,
null,,learn_phase(without_color),413632,,black_plus_sign,,,,null,GW/peoria.png,GW/cornwall.png,,,,,,,,,,,,,,,,,,
null,,black_cross(without_color),414341,,blue,,,,null,GW/peoria.png,GW/cornwall.png,,,,,,,,,,,,,,,,,,
null,,rt_plussign_withcolor,414843,,blue,,,,null,GW/peoria.png,GW/cornwall.png,,,,,,,,,,,,,,,,,,
1271,,rt_thecrossant_black,416149,,black_plus_sign,,,,49,,,1,1,,,,,,,,,,,,,,,,
null,,color_black,416256,,black_plus_sign,,,,null,,,,,,,,,,,,,,,,,,,,
null,,learn_phase(without_color),419262,,black_plus_sign,,,,null,GW/carmel.png,GW/hanover.png,,,,,,,,,,,,,,,,,,
null,,black_cross(without_color),419826,,blue,,,,null,GW/carmel.png,GW/hanover.png,,,,,,,,,,,,,,,,,,
null,,rt_plussign_withcolor,420329,,blue,,,,null,GW/carmel.png,GW/hanover.png,,,,,,,,,,,,,,,,,,
1072,,rt_thecrossant_black,421779,,black_plus_sign,,,,49,,,1,1,,,,,,,,,,,,,,,,
null,,color_black,421886,,black_plus_sign,,,,null,,,,,,,,,,,,,,,,,,,,
null,,learn_phase(without_color),424894,,black_plus_sign,,,,null,GW/westpalmbeach.png,GW/racine.png,,,,,,,,,,,,,,,,,,
null,,black_cross(without_color),425474,,yellow,,,,null,GW/westpalmbeach.png,GW/racine.png,,,,,,,,,,,,,,,,,,
null,,rt_plussign_withcolor,425977,,yellow,,,,null,GW/westpalmbeach.png,GW/racine.png,,,,,,,,,,,,,,,,,,
850.9999999999418,,rt_thecrossant_black,427412,,black_plus_sign,,,,50,,,1,1,,,,,,,,,,,,,,,,
null,,color_black,427519,,black_plus_sign,,,,null,,,,,,,,,,,,,,,,,,,,
null,,learn_phase(without_color),430528,,black_plus_sign,,,,null,GW/hanover.png,GW/carmel.png,,,,,,,,,,,,,,,,,,
null,,black_cross(without_color),431184,,yellow,,,,null,GW/hanover.png,GW/carmel.png,,,,,,,,,,,,,,,,,,
null,,rt_plussign_withcolor,431686,,yellow,,,,null,GW/hanover.png,GW/carmel.png,,,,,,,,,,,,,,,,,,
703,,rt_thecrossant_black,433043,,black_plus_sign,,,,50,,,1,1,,,,,,,,,,,,,,,,
null,,color_black,433150,,black_plus_sign,,,,null,,,,,,,,,,,,,,,,,,,,
null,,learn_phase(without_color),436158,,black_plus_sign,,,,null,GW/shreveport.png,GW/hotsprings.png,,,,,,,,,,,,,,,,,,
null,,black_cross(without_color),436599,,yellow,,,,null,GW/shreveport.png,GW/hotsprings.png,,,,,,,,,,,,,,,,,,
null,,rt_plussign_withcolor,437102,,yellow,,,,null,GW/shreveport.png,GW/hotsprings.png,,,,,,,,,,,,,,,,,,
828.9999999999418,,rt_thecrossant_black,438675,,black_plus_sign,,,,50,,,1,1,,,,,,,,,,,,,,,,
null,,color_black,438782,,black_plus_sign,,,,null,,,,,,,,,,,,,,,,,,,,
null,,learn_phase(without_color),441790,,black_plus_sign,,,,null,GW/westpalmbeach.png,GW/racine.png,,,,,,,,,,,,,,,,,,
null,,black_cross(without_color),442817,,yellow,,,,null,GW/westpalmbeach.png,GW/racine.png,,,,,,,,,,,,,,,,,,
null,,rt_plussign_withcolor,443320,,yellow,,,,null,GW/westpalmbeach.png,GW/racine.png,,,,,,,,,,,,,,,,,,
648.0000000000582,,rt_thecrossant_black,444306,,black_plus_sign,,,,50,,,1,1,,,,,,,,,,,,,,,,
null,,color_black,444412,,black_plus_sign,,,,null,,,,,,,,,,,,,,,,,,,,
null,,learn_phase(without_color),447419,,black_plus_sign,,,,null,GW/cornwall.png,GW/peoria.png,,,,,,,,,,,,,,,,,,
null,,black_cross(without_color),447997,,yellow,,,,null,GW/cornwall.png,GW/peoria.png,,,,,,,,,,,,,,,,,,
null,,rt_plussign_withcolor,448500,,yellow,,,,null,GW/cornwall.png,GW/peoria.png,,,,,,,,,,,,,,,,,,
1383,,rt_thecrossant_black,449937,,black_plus_sign,,,,50,,,1,1,,,,,,,,,,,,,,,,
null,,color_black,450044,,black_plus_sign,,,,null,,,,,,,,,,,,,,,,,,,,
null,,learn_phase(without_color),453053,,black_plus_sign,,,,null,GW/westpalmbeach.png,GW/racine.png,,,,,,,,,,,,,,,,,,
null,,black_cross(without_color),454157,,yellow,,,,null,GW/westpalmbeach.png,GW/racine.png,,,,,,,,,,,,,,,,,,
null,,rt_plussign_withcolor,454659,,yellow,,,,null,GW/westpalmbeach.png,GW/racine.png,,,,,,,,,,,,,,,,,,
814,,rt_thecrossant_black,455568,,black_plus_sign,,,,50,,,1,1,,,,,,,,,,,,,,,,
null,,color_black,455675,,black_plus_sign,,,,null,,,,,,,,,,,,,,,,,,,,
null,,learn_phase(without_color),458682,,black_plus_sign,,,,null,GW/carmel.png,GW/hanover.png,,,,,,,,,,,,,,,,,,
null,,black_cross(without_color),459242,,blue,,,,null,GW/carmel.png,GW/hanover.png,,,,,,,,,,,,,,,,,,
489,,rt_plussign_withcolor,459745,,blue,,,,49,GW/carmel.png,GW/hanover.png,,,,,,,,,,,,,,,,,,
null,,rt_thecrossant_black,461199,,black_plus_sign,,,,null,,,1,1,,,,,,,,,,,,,,,,
null,,color_black,461306,,black_plus_sign,,,,null,,,,,,,,,,,,,,,,,,,,
null,,learn_phase(without_color),464313,,black_plus_sign,,,,null,GW/hotsprings.png,GW/shreveport.png,,,,,,,,,,,,,,,,,,
null,,black_cross(without_color),465202,,blue,,,,null,GW/hotsprings.png,GW/shreveport.png,,,,,,,,,,,,,,,,,,
null,,rt_plussign_withcolor,465705,,blue,,,,null,GW/hotsprings.png,GW/shreveport.png,,,,,,,,,,,,,,,,,,
663,,rt_thecrossant_black,466829,,black_plus_sign,,,,49,,,1,1,,,,,,,,,,,,,,,,
null,,color_black,466936,,black_plus_sign,,,,null,,,,,,,,,,,,,,,,,,,,
null,,learn_phase(without_color),469941,,black_plus_sign,,,,null,GW/hanover.png,GW/carmel.png,,,,,,,,,,,,,,,,,,
null,,black_cross(without_color),470409,,blue,,,,null,GW/hanover.png,GW/carmel.png,,,,,,,,,,,,,,,,,,
null,,rt_plussign_withcolor,470912,,blue,,,,null,GW/hanover.png,GW/carmel.png,,,,,,,,,,,,,,,,,,
1028,,rt_thecrossant_black,472459,,black_plus_sign,,,,49,,,1,1,,,,,,,,,,,,,,,,
null,,color_black,472566,,black_plus_sign,,,,null,,,,,,,,,,,,,,,,,,,,
null,,learn_phase(without_color),475573,,black_plus_sign,,,,null,GW/cornwall.png,GW/peoria.png,,,,,,,,,,,,,,,,,,
null,,black_cross(without_color),476276,,yellow,,,,null,GW/cornwall.png,GW/peoria.png,,,,,,,,,,,,,,,,,,
478,,rt_plussign_withcolor,476779,,yellow,,,,50,GW/cornwall.png,GW/peoria.png,,,,,,,,,,,,,,,,,,
null,,rt_thecrossant_black,478088,,black_plus_sign,,,,null,,,1,1,,,,,,,,,,,,,,,,
null,,color_black,478195,,black_plus_sign,,,,null,,,,,,,,,,,,,,,,,,,,
null,,learn_phase(without_color),481202,,black_plus_sign,,,,null,GW/hotsprings.png,GW/shreveport.png,,,,,,,,,,,,,,,,,,
null,,black_cross(without_color),482064,,blue,,,,null,GW/hotsprings.png,GW/shreveport.png,,,,,,,,,,,,,,,,,,
452.9999999999418,,rt_plussign_withcolor,482567,,blue,,,,49,GW/hotsprings.png,GW/shreveport.png,,,,,,,,,,,,,,,,,,
null,,rt_thecrossant_black,483718,,black_plus_sign,,,,null,,,1,1,,,,,,,,,,,,,,,,
null,,color_black,483825,,black_plus_sign,,,,null,,,,,,,,,,,,,,,,,,,,
null,,learn_phase(without_color),486833,,black_plus_sign,,,,null,GW/hanover.png,GW/carmel.png,,,,,,,,,,,,,,,,,,
null,,black_cross(without_color),487321,,blue,,,,null,GW/hanover.png,GW/carmel.png,,,,,,,,,,,,,,,,,,
null,,rt_plussign_withcolor,487823,,blue,,,,null,GW/hanover.png,GW/carmel.png,,,,,,,,,,,,,,,,,,
1026.0000000000582,,rt_thecrossant_black,489349,,black_plus_sign,,,,49,,,1,1,,,,,,,,,,,,,,,,
null,,color_black,489455,,black_plus_sign,,,,null,,,,,,,,,,,,,,,,,,,,
null,,learn_phase(without_color),492462,,black_plus_sign,,,,null,GW/cornwall.png,GW/peoria.png,,,,,,,,,,,,,,,,,,
null,,black_cross(without_color),493088,,blue,,,,null,GW/cornwall.png,GW/peoria.png,,,,,,,,,,,,,,,,,,
null,,rt_plussign_withcolor,493591,,blue,,,,null,GW/cornwall.png,GW/peoria.png,,,,,,,,,,,,,,,,,,
585,,rt_thecrossant_black,494979,,black_plus_sign,,,,49,,,1,1,,,,,,,,,,,,,,,,
null,,color_black,495086,,black_plus_sign,,,,null,,,,,,,,,,,,,,,,,,,,
null,,learn_phase(without_color),498094,,black_plus_sign,,,,null,GW/cornwall.png,GW/peoria.png,,,,,,,,,,,,,,,,,,
null,,black_cross(without_color),498777,,blue,,,,null,GW/cornwall.png,GW/peoria.png,,,,,,,,,,,,,,,,,,
408,,rt_plussign_withcolor,499280,,blue,,,,49,GW/cornwall.png,GW/peoria.png,,,,,,,,,,,,,,,,,,
null,,rt_thecrossant_black,500610,,black_plus_sign,,,,null,,,1,1,,,,,,,,,,,,,,,,
null,,color_black,500717,,black_plus_sign,,,,null,,,,,,,,,,,,,,,,,,,,
null,,learn_phase(without_color),503725,,black_plus_sign,,,,null,GW/hotsprings.png,GW/shreveport.png,,,,,,,,,,,,,,,,,,
null,,black_cross(without_color),504314,,yellow,,,,null,GW/hotsprings.png,GW/shreveport.png,,,,,,,,,,,,,,,,,,
361,,rt_plussign_withcolor,504816,,yellow,,,,50,GW/hotsprings.png,GW/shreveport.png,,,,,,,,,,,,,,,,,,
null,,rt_thecrossant_black,506242,,black_plus_sign,,,,null,,,1,1,,,,,,,,,,,,,,,,
null,,color_black,506349,,black_plus_sign,,,,null,,,,,,,,,,,,,,,,,,,,
null,,learn_phase(without_color),509356,,black_plus_sign,,,,null,GW/peoria.png,GW/hanover.png,,,,,,,,,,,,,,,,,,
null,,black_cross(without_color),510398,,blue,,,,null,GW/peoria.png,GW/hanover.png,,,,,,,,,,,,,,,,,,
null,,rt_plussign_withcolor,510901,,blue,,,,null,GW/peoria.png,GW/hanover.png,,,,,,,,,,,,,,,,,,
717,,rt_thecrossant_black,511873,,black_plus_sign,,,,49,,,1,1,,,,,,,,,,,,,,,,
null,,color_black,511979,,black_plus_sign,,,,null,,,,,,,,,,,,,,,,,,,,
null,,learn_phase(without_color),514985,,black_plus_sign,,,,null,GW/huntsville.png,GW/carmel.png,,,,,,,,,,,,,,,,,,
null,,black_cross(without_color),516068,,yellow,,,,null,GW/huntsville.png,GW/carmel.png,,,,,,,,,,,,,,,,,,
null,,rt_plussign_withcolor,516571,,yellow,,,,null,GW/huntsville.png,GW/carmel.png,,,,,,,,,,,,,,,,,,
1162.0000000001164,,rt_thecrossant_black,517502,,black_plus_sign,,,,50,,,1,1,,,,,,,,,,,,,,,,
null,,color_black,517610,,black_plus_sign,,,,null,,,,,,,,,,,,,,,,,,,,
null,,learn_phase(without_color),520617,,black_plus_sign,,,,null,GW/gatlinburg.png,GW/cornwall.png,,,,,,,,,,,,,,,,,,
null,,black_cross(without_color),521118,,yellow,,,,null,GW/gatlinburg.png,GW/cornwall.png,,,,,,,,,,,,,,,,,,
null,,rt_plussign_withcolor,521621,,yellow,,,,null,GW/gatlinburg.png,GW/cornwall.png,,,,,,,,,,,,,,,,,,
1252,,rt_thecrossant_black,523134,,black_plus_sign,,,,50,,,1,1,,,,,,,,,,,,,,,,
null,,color_black,523240,,black_plus_sign,,,,null,,,,,,,,,,,,,,,,,,,,
null,,learn_phase(without_color),526247,,black_plus_sign,,,,null,GW/huntsville.png,GW/carmel.png,,,,,,,,,,,,,,,,,,
null,,black_cross(without_color),526663,,yellow,,,,null,GW/huntsville.png,GW/carmel.png,,,,,,,,,,,,,,,,,,
null,,rt_plussign_withcolor,527165,,yellow,,,,null,GW/huntsville.png,GW/carmel.png,,,,,,,,,,,,,,,,,,
834,,rt_thecrossant_black,528763,,black_plus_sign,,,,50,,,1,1,,,,,,,,,,,,,,,,
null,,color_black,528870,,black_plus_sign,,,,null,,,,,,,,,,,,,,,,,,,,
null,,learn_phase(without_color),531878,,black_plus_sign,,,,null,GW/racine.png,GW/newhope.png,,,,,,,,,,,,,,,,,,
null,,black_cross(without_color),532725,,blue,,,,null,GW/racine.png,GW/newhope.png,,,,,,,,,,,,,,,,,,
null,,rt_plussign_withcolor,533227,,blue,,,,null,GW/racine.png,GW/newhope.png,,,,,,,,,,,,,,,,,,
1004,,rt_thecrossant_black,534394,,black_plus_sign,,,,50,,,0,0.9722222222222222,,,,,,,,,,,,,,,,
null,,color_black,534501,,black_plus_sign,,,,null,,,,,,,,,,,,,,,,,,,,
null,,learn_phase(without_color),537509,,black_plus_sign,,,,null,GW/cornwall.png,GW/gatlinburg.png,,,,,,,,,,,,,,,,,,
null,,black_cross(without_color),538173,,blue,,,,null,GW/cornwall.png,GW/gatlinburg.png,,,,,,,,,,,,,,,,,,
null,,rt_plussign_withcolor,538676,,blue,,,,null,GW/cornwall.png,GW/gatlinburg.png,,,,,,,,,,,,,,,,,,
1502,,rt_thecrossant_black,540027,,black_plus_sign,,,,49,,,1,0.972972972972973,,,,,,,,,,,,,,,,
null,,color_black,540134,,black_plus_sign,,,,null,,,,,,,,,,,,,,,,,,,,
null,,learn_phase(without_color),543142,,black_plus_sign,,,,null,GW/peoria.png,GW/hanover.png,,,,,,,,,,,,,,,,,,
null,,black_cross(without_color),544035,,blue,,,,null,GW/peoria.png,GW/hanover.png,,,,,,,,,,,,,,,,,,
null,,rt_plussign_withcolor,544537,,blue,,,,null,GW/peoria.png,GW/hanover.png,,,,,,,,,,,,,,,,,,
810,,rt_thecrossant_black,545659,,black_plus_sign,,,,49,,,1,0.9736842105263158,,,,,,,,,,,,,,,,
null,,color_black,545766,,black_plus_sign,,,,null,,,,,,,,,,,,,,,,,,,,
null,,learn_phase(without_color),548774,,black_plus_sign,,,,null,GW/gatlinburg.png,GW/cornwall.png,,,,,,,,,,,,,,,,,,
null,,black_cross(without_color),549259,,yellow,,,,null,GW/gatlinburg.png,GW/cornwall.png,,,,,,,,,,,,,,,,,,
null,,rt_plussign_withcolor,549762,,yellow,,,,null,GW/gatlinburg.png,GW/cornwall.png,,,,,,,,,,,,,,,,,,
1140,,rt_thecrossant_black,551291,,black_plus_sign,,,,50,,,1,0.9743589743589743,,,,,,,,,,,,,,,,
null,,color_black,551398,,black_plus_sign,,,,null,,,,,,,,,,,,,,,,,,,,
null,,learn_phase(without_color),554405,,black_plus_sign,,,,null,GW/huntsville.png,GW/carmel.png,,,,,,,,,,,,,,,,,,
null,,black_cross(without_color),555208,,blue,,,,null,GW/huntsville.png,GW/carmel.png,,,,,,,,,,,,,,,,,,
null,,rt_plussign_withcolor,555710,,blue,,,,null,GW/huntsville.png,GW/carmel.png,,,,,,,,,,,,,,,,,,
599,,rt_thecrossant_black,556921,,black_plus_sign,,,,49,,,1,0.975,,,,,,,,,,,,,,,,
null,,color_black,557027,,black_plus_sign,,,,null,,,,,,,,,,,,,,,,,,,,
null,,learn_phase(without_color),560034,,black_plus_sign,,,,null,GW/hanover.png,GW/peoria.png,,,,,,,,,,,,,,,,,,
null,,black_cross(without_color),560770,,yellow,,,,null,GW/hanover.png,GW/peoria.png,,,,,,,,,,,,,,,,,,
469,,rt_plussign_withcolor,561273,,yellow,,,,50,GW/hanover.png,GW/peoria.png,,,,,,,,,,,,,,,,,,
null,,rt_thecrossant_black,562550,,black_plus_sign,,,,null,,,1,0.975609756097561,,,,,,,,,,,,,,,,
null,,color_black,562658,,black_plus_sign,,,,null,,,,,,,,,,,,,,,,,,,,
null,,learn_phase(without_color),565664,,black_plus_sign,,,,null,GW/gatlinburg.png,GW/cornwall.png,,,,,,,,,,,,,,,,,,
null,,black_cross(without_color),566344,,yellow,,,,null,GW/gatlinburg.png,GW/cornwall.png,,,,,,,,,,,,,,,,,,
null,,rt_plussign_withcolor,566847,,yellow,,,,null,GW/gatlinburg.png,GW/cornwall.png,,,,,,,,,,,,,,,,,,
878,,rt_thecrossant_black,568181,,black_plus_sign,,,,50,,,1,0.9761904761904762,,,,,,,,,,,,,,,,
null,,color_black,568287,,black_plus_sign,,,,null,,,,,,,,,,,,,,,,,,,,
null,,learn_phase(without_color),571295,,black_plus_sign,,,,null,GW/peoria.png,GW/hanover.png,,,,,,,,,,,,,,,,,,
null,,black_cross(without_color),572026,,yellow,,,,null,GW/peoria.png,GW/hanover.png,,,,,,,,,,,,,,,,,,
null,,rt_plussign_withcolor,572528,,yellow,,,,null,GW/peoria.png,GW/hanover.png,,,,,,,,,,,,,,,,,,
776,,rt_thecrossant_black,573812,,black_plus_sign,,,,50,,,1,0.9767441860465116,,,,,,,,,,,,,,,,
null,,color_black,573919,,black_plus_sign,,,,null,,,,,,,,,,,,,,,,,,,,
null,,learn_phase(without_color),576927,,black_plus_sign,,,,null,GW/carmel.png,GW/huntsville.png,,,,,,,,,,,,,,,,,,
null,,black_cross(without_color),577948,,blue,,,,null,GW/carmel.png,GW/huntsville.png,,,,,,,,,,,,,,,,,,
null,,rt_plussign_withcolor,578451,,blue,,,,null,GW/carmel.png,GW/huntsville.png,,,,,,,,,,,,,,,,,,
1264,,rt_thecrossant_black,579444,,black_plus_sign,,,,49,,,1,0.9772727272727273,,,,,,,,,,,,,,,,
null,,color_black,579551,,black_plus_sign,,,,null,,,,,,,,,,,,,,,,,,,,
null,,learn_phase(without_color),582559,,black_plus_sign,,,,null,GW/racine.png,GW/newhope.png,,,,,,,,,,,,,,,,,,
null,,black_cross(without_color),583620,,blue,,,,null,GW/racine.png,GW/newhope.png,,,,,,,,,,,,,,,,,,
null,,rt_plussign_withcolor,584123,,blue,,,,null,GW/racine.png,GW/newhope.png,,,,,,,,,,,,,,,,,,
1215,,rt_thecrossant_black,585075,,black_plus_sign,,,,49,,,1,0.9777777777777777,,,,,,,,,,,,,,,,
null,,color_black,585182,,black_plus_sign,,,,null,,,,,,,,,,,,,,,,,,,,
null,,learn_phase(without_color),588190,,black_plus_sign,,,,null,GW/hanover.png,GW/peoria.png,,,,,,,,,,,,,,,,,,
null,,black_cross(without_color),589162,,yellow,,,,null,GW/hanover.png,GW/peoria.png,,,,,,,,,,,,,,,,,,
471,,rt_plussign_withcolor,589665,,yellow,,,,50,GW/hanover.png,GW/peoria.png,,,,,,,,,,,,,,,,,,
null,,rt_thecrossant_black,590709,,black_plus_sign,,,,null,,,1,0.9782608695652174,,,,,,,,,,,,,,,,
null,,color_black,590814,,black_plus_sign,,,,null,,,,,,,,,,,,,,,,,,,,
null,,learn_phase(without_color),593822,,black_plus_sign,,,,null,GW/carmel.png,GW/huntsville.png,,,,,,,,,,,,,,,,,,
null,,black_cross(without_color),594592,,blue,,,,null,GW/carmel.png,GW/huntsville.png,,,,,,,,,,,,,,,,,,
501,,rt_plussign_withcolor,595094,,blue,,,,49,GW/carmel.png,GW/huntsville.png,,,,,,,,,,,,,,,,,,
null,,rt_thecrossant_black,596337,,black_plus_sign,,,,null,,,1,0.9787234042553191,,,,,,,,,,,,,,,,
null,,color_black,596444,,black_plus_sign,,,,null,,,,,,,,,,,,,,,,,,,,
null,,learn_phase(without_color),599451,,black_plus_sign,,,,null,GW/peoria.png,GW/hanover.png,,,,,,,,,,,,,,,,,,
null,,black_cross(without_color),600393,,blue,,,,null,GW/peoria.png,GW/hanover.png,,,,,,,,,,,,,,,,,,
null,,rt_plussign_withcolor,600895,,blue,,,,null,GW/peoria.png,GW/hanover.png,,,,,,,,,,,,,,,,,,
885.9999999998836,,rt_thecrossant_black,601969,,black_plus_sign,,,,49,,,1,0.9791666666666666,,,,,,,,,,,,,,,,
null,,color_black,602075,,black_plus_sign,,,,null,,,,,,,,,,,,,,,,,,,,
null,,learn_phase(without_color),605081,,black_plus_sign,,,,null,GW/racine.png,GW/newhope.png,,,,,,,,,,,,,,,,,,
null,,black_cross(without_color),605626,,blue,,,,null,GW/racine.png,GW/newhope.png,,,,,,,,,,,,,,,,,,
null,,rt_plussign_withcolor,606128,,blue,,,,null,GW/racine.png,GW/newhope.png,,,,,,,,,,,,,,,,,,
1186,,rt_thecrossant_black,607598,,black_plus_sign,,,,49,,,1,0.9795918367346939,,,,,,,,,,,,,,,,
null,,color_black,607705,,black_plus_sign,,,,null,,,,,,,,,,,,,,,,,,,,
null,,learn_phase(without_color),610712,,black_plus_sign,,,,null,GW/peoria.png,GW/hanover.png,,,,,,,,,,,,,,,,,,
null,,black_cross(without_color),611404,,blue,,,,null,GW/peoria.png,GW/hanover.png,,,,,,,,,,,,,,,,,,
null,,rt_plussign_withcolor,611907,,blue,,,,null,GW/peoria.png,GW/hanover.png,,,,,,,,,,,,,,,,,,
655,,rt_thecrossant_black,613229,,black_plus_sign,,,,49,,,1,0.98,,,,,,,,,,,,,,,,
null,,color_black,613334,,black_plus_sign,,,,null,,,,,,,,,,,,,,,,,,,,
null,,learn_phase(without_color),616341,,black_plus_sign,,,,null,GW/racine.png,GW/newhope.png,,,,,,,,,,,,,,,,,,
null,,black_cross(without_color),617072,,blue,,,,null,GW/racine.png,GW/newhope.png,,,,,,,,,,,,,,,,,,
null,,rt_plussign_withcolor,617575,,blue,,,,null,GW/racine.png,GW/newhope.png,,,,,,,,,,,,,,,,,,
993,,rt_thecrossant_black,618858,,black_plus_sign,,,,49,,,1,0.9803921568627451,,,,,,,,,,,,,,,,
null,,color_black,618965,,black_plus_sign,,,,null,,,,,,,,,,,,,,,,,,,,
null,,learn_phase(without_color),621972,,black_plus_sign,,,,null,GW/gatlinburg.png,GW/cornwall.png,,,,,,,,,,,,,,,,,,
null,,black_cross(without_color),623007,,blue,,,,null,GW/gatlinburg.png,GW/cornwall.png,,,,,,,,,,,,,,,,,,
485,,rt_plussign_withcolor,623509,,blue,,,,49,GW/gatlinburg.png,GW/cornwall.png,,,,,,,,,,,,,,,,,,
null,,rt_thecrossant_black,624488,,black_plus_sign,,,,null,,,1,0.9807692307692307,,,,,,,,,,,,,,,,
null,,color_black,624596,,black_plus_sign,,,,null,,,,,,,,,,,,,,,,,,,,
null,,learn_phase(without_color),627603,,black_plus_sign,,,,null,GW/racine.png,GW/newhope.png,,,,,,,,,,,,,,,,,,
null,,black_cross(without_color),628068,,yellow,,,,null,GW/racine.png,GW/newhope.png,,,,,,,,,,,,,,,,,,
null,,rt_plussign_withcolor,628571,,yellow,,,,null,GW/racine.png,GW/newhope.png,,,,,,,,,,,,,,,,,,
1312,,rt_thecrossant_black,630120,,black_plus_sign,,,,50,,,1,0.9811320754716981,,,,,,,,,,,,,,,,
null,,color_black,630226,,black_plus_sign,,,,null,,,,,,,,,,,,,,,,,,,,
null,,learn_phase(without_color),633234,,black_plus_sign,,,,null,GW/gatlinburg.png,GW/cornwall.png,,,,,,,,,,,,,,,,,,
null,,black_cross(without_color),633827,,yellow,,,,null,GW/gatlinburg.png,GW/cornwall.png,,,,,,,,,,,,,,,,,,
null,,rt_plussign_withcolor,634330,,yellow,,,,null,GW/gatlinburg.png,GW/cornwall.png,,,,,,,,,,,,,,,,,,
593,,rt_thecrossant_black,635752,,black_plus_sign,,,,50,,,1,0.9814814814814815,,,,,,,,,,,,,,,,
null,,color_black,635857,,black_plus_sign,,,,null,,,,,,,,,,,,,,,,,,,,
null,,learn_phase(without_color),638864,,black_plus_sign,,,,null,GW/racine.png,GW/newhope.png,,,,,,,,,,,,,,,,,,
null,,black_cross(without_color),639637,,blue,,,,null,GW/racine.png,GW/newhope.png,,,,,,,,,,,,,,,,,,
null,,rt_plussign_withcolor,640139,,blue,,,,null,GW/racine.png,GW/newhope.png,,,,,,,,,,,,,,,,,,
777,,rt_thecrossant_black,641381,,black_plus_sign,,,,49,,,1,0.9818181818181818,,,,,,,,,,,,,,,,
null,,color_black,641489,,black_plus_sign,,,,null,,,,,,,,,,,,,,,,,,,,
null,,learn_phase(without_color),644497,,black_plus_sign,,,,null,GW/hanover.png,GW/peoria.png,,,,,,,,,,,,,,,,,,
null,,black_cross(without_color),645315,,blue,,,,null,GW/hanover.png,GW/peoria.png,,,,,,,,,,,,,,,,,,
null,,rt_plussign_withcolor,645818,,blue,,,,null,GW/hanover.png,GW/peoria.png,,,,,,,,,,,,,,,,,,
1075.9999999998836,,rt_thecrossant_black,647014,,black_plus_sign,,,,49,,,1,0.9821428571428571,,,,,,,,,,,,,,,,
null,,color_black,647121,,black_plus_sign,,,,null,,,,,,,,,,,,,,,,,,,,
null,,learn_phase(without_color),650127,,black_plus_sign,,,,null,GW/gatlinburg.png,GW/cornwall.png,,,,,,,,,,,,,,,,,,
null,,black_cross(without_color),650915,,yellow,,,,null,GW/gatlinburg.png,GW/cornwall.png,,,,,,,,,,,,,,,,,,
null,,rt_plussign_withcolor,651418,,yellow,,,,null,GW/gatlinburg.png,GW/cornwall.png,,,,,,,,,,,,,,,,,,
1126,,rt_thecrossant_black,652645,,black_plus_sign,,,,50,,,1,0.9824561403508771,,,,,,,,,,,,,,,,
null,,color_black,652751,,black_plus_sign,,,,null,,,,,,,,,,,,,,,,,,,,
null,,learn_phase(without_color),655759,,black_plus_sign,,,,null,GW/carmel.png,GW/huntsville.png,,,,,,,,,,,,,,,,,,
null,,black_cross(without_color),656240,,yellow,,,,null,GW/carmel.png,GW/huntsville.png,,,,,,,,,,,,,,,,,,
null,,rt_plussign_withcolor,656742,,yellow,,,,null,GW/carmel.png,GW/huntsville.png,,,,,,,,,,,,,,,,,,
970.9999999998836,,rt_thecrossant_black,658275,,black_plus_sign,,,,50,,,1,0.9827586206896551,,,,,,,,,,,,,,,,
null,,color_black,658382,,black_plus_sign,,,,null,,,,,,,,,,,,,,,,,,,,
null,,learn_phase(without_color),661390,,black_plus_sign,,,,null,GW/gatlinburg.png,GW/cornwall.png,,,,,,,,,,,,,,,,,,
null,,black_cross(without_color),661917,,blue,,,,null,GW/gatlinburg.png,GW/cornwall.png,,,,,,,,,,,,,,,,,,
425,,rt_plussign_withcolor,662420,,blue,,,,49,GW/gatlinburg.png,GW/cornwall.png,,,,,,,,,,,,,,,,,,
null,,rt_thecrossant_black,663907,,black_plus_sign,,,,null,,,1,0.9830508474576272,,,,,,,,,,,,,,,,
null,,color_black,664015,,black_plus_sign,,,,null,,,,,,,,,,,,,,,,,,,,
null,,learn_phase(without_color),667023,,black_plus_sign,,,,null,GW/huntsville.png,GW/carmel.png,,,,,,,,,,,,,,,,,,
null,,black_cross(without_color),667976,,yellow,,,,null,GW/huntsville.png,GW/carmel.png,,,,,,,,,,,,,,,,,,
468,,rt_plussign_withcolor,668479,,yellow,,,,50,GW/huntsville.png,GW/carmel.png,,,,,,,,,,,,,,,,,,
null,,rt_thecrossant_black,669541,,black_plus_sign,,,,null,,,1,0.9833333333333333,,,,,,,,,,,,,,,,
null,,color_black,669647,,black_plus_sign,,,,null,,,,,,,,,,,,,,,,,,,,
null,,learn_phase(without_color),672655,,black_plus_sign,,,,null,GW/racine.png,GW/newhope.png,,,,,,,,,,,,,,,,,,
null,,black_cross(without_color),673205,,blue,,,,null,GW/racine.png,GW/newhope.png,,,,,,,,,,,,,,,,,,
492,,rt_plussign_withcolor,673708,,blue,,,,49,GW/racine.png,GW/newhope.png,,,,,,,,,,,,,,,,,,
null,,rt_thecrossant_black,675171,,black_plus_sign,,,,null,,,1,0.9836065573770492,,,,,,,,,,,,,,,,
null,,color_black,675278,,black_plus_sign,,,,null,,,,,,,,,,,,,,,,,,,,
null,,learn_phase(without_color),678285,,black_plus_sign,,,,null,GW/racine.png,GW/newhope.png,,,,,,,,,,,,,,,,,,
null,,black_cross(without_color),679154,,yellow,,,,null,GW/racine.png,GW/newhope.png,,,,,,,,,,,,,,,,,,
null,,rt_plussign_withcolor,679657,,yellow,,,,null,GW/racine.png,GW/newhope.png,,,,,,,,,,,,,,,,,,
684,,rt_thecrossant_black,680801,,black_plus_sign,,,,50,,,1,0.9838709677419355,,,,,,,,,,,,,,,,
null,,color_black,680908,,black_plus_sign,,,,null,,,,,,,,,,,,,,,,,,,,
null,,learn_phase(without_color),683916,,black_plus_sign,,,,null,GW/carmel.png,GW/huntsville.png,,,,,,,,,,,,,,,,,,
null,,black_cross(without_color),684423,,blue,,,,null,GW/carmel.png,GW/huntsville.png,,,,,,,,,,,,,,,,,,
null,,rt_plussign_withcolor,684926,,blue,,,,null,GW/carmel.png,GW/huntsville.png,,,,,,,,,,,,,,,,,,
1136,,rt_thecrossant_black,686433,,black_plus_sign,,,,49,,,1,0.9841269841269841,,,,,,,,,,,,,,,,
null,,color_black,686539,,black_plus_sign,,,,null,,,,,,,,,,,,,,,,,,,,
36996,,learn_break,723540,,learn_break,,,,32,,,,,,,,,,,,,,,,,,,,
null,,html-keyboard-response,724543,,<p></p>,,,,null,,,,,,,,,,,,,,,,,,,,
null,,learn_phase(without_color),727546,,black_plus_sign,,,,null,GW/boulder.png,GW/carmel.png,,,,,,,,,,,,,,,,,,
null,,black_cross(without_color),728088,,blue,,,,null,GW/boulder.png,GW/carmel.png,,,,,,,,,,,,,,,,,,
null,,rt_plussign_withcolor,728590,,blue,,,,null,GW/boulder.png,GW/carmel.png,,,,,,,,,,,,,,,,,,
848,,rt_thecrossant_black,730062,,black_plus_sign,,,,49,,,1,0.984375,,,,,,,,,,,,,,,,
null,,color_black,730168,,black_plus_sign,,,,null,,,,,,,,,,,,,,,,,,,,
null,,learn_phase(without_color),733175,,black_plus_sign,,,,null,GW/huntsville.png,GW/peoria.png,,,,,,,,,,,,,,,,,,
null,,black_cross(without_color),734199,,yellow,,,,null,GW/huntsville.png,GW/peoria.png,,,,,,,,,,,,,,,,,,
null,,rt_plussign_withcolor,734702,,yellow,,,,null,GW/huntsville.png,GW/peoria.png,,,,,,,,,,,,,,,,,,
729,,rt_thecrossant_black,735693,,black_plus_sign,,,,50,,,1,0.9846153846153847,,,,,,,,,,,,,,,,
null,,color_black,735800,,black_plus_sign,,,,null,,,,,,,,,,,,,,,,,,,,
null,,learn_phase(without_color),738809,,black_plus_sign,,,,null,GW/gatlinburg.png,GW/hotsprings.png,,,,,,,,,,,,,,,,,,
null,,black_cross(without_color),739630,,blue,,,,null,GW/gatlinburg.png,GW/hotsprings.png,,,,,,,,,,,,,,,,,,
458,,rt_plussign_withcolor,740132,,blue,,,,49,GW/gatlinburg.png,GW/hotsprings.png,,,,,,,,,,,,,,,,,,
null,,rt_thecrossant_black,741324,,black_plus_sign,,,,null,,,1,0.9848484848484849,,,,,,,,,,,,,,,,
null,,color_black,741430,,black_plus_sign,,,,null,,,,,,,,,,,,,,,,,,,,
null,,learn_phase(without_color),744437,,black_plus_sign,,,,null,GW/boulder.png,GW/carmel.png,,,,,,,,,,,,,,,,,,
null,,black_cross(without_color),744960,,blue,,,,null,GW/boulder.png,GW/carmel.png,,,,,,,,,,,,,,,,,,
null,,rt_plussign_withcolor,745463,,blue,,,,null,GW/boulder.png,GW/carmel.png,,,,,,,,,,,,,,,,,,
1219.0000000001164,,rt_thecrossant_black,746956,,black_plus_sign,,,,49,,,1,0.9850746268656716,,,,,,,,,,,,,,,,
null,,color_black,747061,,black_plus_sign,,,,null,,,,,,,,,,,,,,,,,,,,
null,,learn_phase(without_color),750067,,black_plus_sign,,,,null,GW/newhope.png,GW/cornwall.png,,,,,,,,,,,,,,,,,,
null,,black_cross(without_color),750723,,yellow,,,,null,GW/newhope.png,GW/cornwall.png,,,,,,,,,,,,,,,,,,
null,,rt_plussign_withcolor,751226,,yellow,,,,null,GW/newhope.png,GW/cornwall.png,,,,,,,,,,,,,,,,,,
777,,rt_thecrossant_black,752581,,black_plus_sign,,,,50,,,1,0.9852941176470589,,,,,,,,,,,,,,,,
null,,color_black,752686,,black_plus_sign,,,,null,,,,,,,,,,,,,,,,,,,,
null,,learn_phase(without_color),755691,,black_plus_sign,,,,null,GW/gatlinburg.png,GW/hotsprings.png,,,,,,,,,,,,,,,,,,
null,,black_cross(without_color),756179,,yellow,,,,null,GW/gatlinburg.png,GW/hotsprings.png,,,,,,,,,,,,,,,,,,
null,,rt_plussign_withcolor,756682,,yellow,,,,null,GW/gatlinburg.png,GW/hotsprings.png,,,,,,,,,,,,,,,,,,
1092,,rt_thecrossant_black,758205,,black_plus_sign,,,,50,,,1,0.9855072463768116,,,,,,,,,,,,,,,,
null,,color_black,758312,,black_plus_sign,,,,null,,,,,,,,,,,,,,,,,,,,
null,,learn_phase(without_color),761320,,black_plus_sign,,,,null,GW/newhope.png,GW/cornwall.png,,,,,,,,,,,,,,,,,,
null,,black_cross(without_color),762368,,blue,,,,null,GW/newhope.png,GW/cornwall.png,,,,,,,,,,,,,,,,,,
null,,rt_plussign_withcolor,762871,,blue,,,,null,GW/newhope.png,GW/cornwall.png,,,,,,,,,,,,,,,,,,
644,,rt_thecrossant_black,763836,,black_plus_sign,,,,49,,,1,0.9857142857142858,,,,,,,,,,,,,,,,
null,,color_black,763941,,black_plus_sign,,,,null,,,,,,,,,,,,,,,,,,,,
null,,learn_phase(without_color),766949,,black_plus_sign,,,,null,GW/gatlinburg.png,GW/hotsprings.png,,,,,,,,,,,,,,,,,,
null,,black_cross(without_color),767848,,blue,,,,null,GW/gatlinburg.png,GW/hotsprings.png,,,,,,,,,,,,,,,,,,
null,,rt_plussign_withcolor,768351,,blue,,,,null,GW/gatlinburg.png,GW/hotsprings.png,,,,,,,,,,,,,,,,,,
1311,,rt_thecrossant_black,769463,,black_plus_sign,,,,49,,,1,0.9859154929577465,,,,,,,,,,,,,,,,
null,,color_black,769568,,black_plus_sign,,,,null,,,,,,,,,,,,,,,,,,,,
null,,learn_phase(without_color),772578,,black_plus_sign,,,,null,GW/cornwall.png,GW/newhope.png,,,,,,,,,,,,,,,,,,
null,,black_cross(without_color),773401,,yellow,,,,null,GW/cornwall.png,GW/newhope.png,,,,,,,,,,,,,,,,,,
null,,rt_plussign_withcolor,773905,,yellow,,,,null,GW/cornwall.png,GW/newhope.png,,,,,,,,,,,,,,,,,,
1018,,rt_thecrossant_black,775092,,black_plus_sign,,,,50,,,1,0.9861111111111112,,,,,,,,,,,,,,,,
null,,color_black,775198,,black_plus_sign,,,,null,,,,,,,,,,,,,,,,,,,,
null,,learn_phase(without_color),778205,,black_plus_sign,,,,null,GW/carmel.png,GW/boulder.png,,,,,,,,,,,,,,,,,,
null,,black_cross(without_color),779237,,blue,,,,null,GW/carmel.png,GW/boulder.png,,,,,,,,,,,,,,,,,,
null,,rt_plussign_withcolor,779740,,blue,,,,null,GW/carmel.png,GW/boulder.png,,,,,,,,,,,,,,,,,,
1592,,rt_thecrossant_black,780718,,black_plus_sign,,,,49,,,1,0.9863013698630136,,,,,,,,,,,,,,,,
null,,color_black,780824,,black_plus_sign,,,,null,,,,,,,,,,,,,,,,,,,,
null,,learn_phase(without_color),783830,,black_plus_sign,,,,null,GW/newhope.png,GW/cornwall.png,,,,,,,,,,,,,,,,,,
null,,black_cross(without_color),784770,,blue,,,,null,GW/newhope.png,GW/cornwall.png,,,,,,,,,,,,,,,,,,
null,,rt_plussign_withcolor,785272,,blue,,,,null,GW/newhope.png,GW/cornwall.png,,,,,,,,,,,,,,,,,,
1156,,rt_thecrossant_black,786344,,black_plus_sign,,,,49,,,1,0.9864864864864865,,,,,,,,,,,,,,,,
null,,color_black,786449,,black_plus_sign,,,,null,,,,,,,,,,,,,,,,,,,,
null,,learn_phase(without_color),789455,,black_plus_sign,,,,null,GW/huntsville.png,GW/peoria.png,,,,,,,,,,,,,,,,,,
null,,black_cross(without_color),790442,,yellow,,,,null,GW/huntsville.png,GW/peoria.png,,,,,,,,,,,,,,,,,,
488.0000000001164,,rt_plussign_withcolor,790944,,yellow,,,,50,GW/huntsville.png,GW/peoria.png,,,,,,,,,,,,,,,,,,
null,,rt_thecrossant_black,791970,,black_plus_sign,,,,null,,,1,0.9866666666666667,,,,,,,,,,,,,,,,
null,,color_black,792077,,black_plus_sign,,,,null,,,,,,,,,,,,,,,,,,,,
null,,learn_phase(without_color),795085,,black_plus_sign,,,,null,GW/boulder.png,GW/carmel.png,,,,,,,,,,,,,,,,,,
null,,black_cross(without_color),795777,,yellow,,,,null,GW/boulder.png,GW/carmel.png,,,,,,,,,,,,,,,,,,
null,,rt_plussign_withcolor,796280,,yellow,,,,null,GW/boulder.png,GW/carmel.png,,,,,,,,,,,,,,,,,,
1626.0000000001164,,rt_thecrossant_black,797602,,black_plus_sign,,,,50,,,1,0.9868421052631579,,,,,,,,,,,,,,,,
null,,color_black,797708,,black_plus_sign,,,,null,,,,,,,,,,,,,,,,,,,,
null,,learn_phase(without_color),800716,,black_plus_sign,,,,null,GW/peoria.png,GW/huntsville.png,,,,,,,,,,,,,,,,,,
null,,black_cross(without_color),801724,,yellow,,,,null,GW/peoria.png,GW/huntsville.png,,,,,,,,,,,,,,,,,,
null,,rt_plussign_withcolor,802226,,yellow,,,,null,GW/peoria.png,GW/huntsville.png,,,,,,,,,,,,,,,,,,
1153,,rt_thecrossant_black,803233,,black_plus_sign,,,,50,,,1,0.987012987012987,,,,,,,,,,,,,,,,
null,,color_black,803340,,black_plus_sign,,,,null,,,,,,,,,,,,,,,,,,,,
null,,learn_phase(without_color),806348,,black_plus_sign,,,,null,GW/newhope.png,GW/cornwall.png,,,,,,,,,,,,,,,,,,
null,,black_cross(without_color),807111,,yellow,,,,null,GW/newhope.png,GW/cornwall.png,,,,,,,,,,,,,,,,,,
null,,rt_plussign_withcolor,807614,,yellow,,,,null,GW/newhope.png,GW/cornwall.png,,,,,,,,,,,,,,,,,,
1369,,rt_thecrossant_black,808865,,black_plus_sign,,,,50,,,1,0.9871794871794872,,,,,,,,,,,,,,,,
null,,color_black,808972,,black_plus_sign,,,,null,,,,,,,,,,,,,,,,,,,,
null,,learn_phase(without_color),811980,,black_plus_sign,,,,null,GW/huntsville.png,GW/peoria.png,,,,,,,,,,,,,,,,,,
null,,black_cross(without_color),812772,,yellow,,,,null,GW/huntsville.png,GW/peoria.png,,,,,,,,,,,,,,,,,,
null,,rt_plussign_withcolor,813275,,yellow,,,,null,GW/huntsville.png,GW/peoria.png,,,,,,,,,,,,,,,,,,
885,,rt_thecrossant_black,814499,,black_plus_sign,,,,50,,,1,0.9873417721518988,,,,,,,,,,,,,,,,
null,,color_black,814606,,black_plus_sign,,,,null,,,,,,,,,,,,,,,,,,,,
null,,learn_phase(without_color),817615,,black_plus_sign,,,,null,GW/cornwall.png,GW/newhope.png,,,,,,,,,,,,,,,,,,
null,,black_cross(without_color),818514,,yellow,,,,null,GW/cornwall.png,GW/newhope.png,,,,,,,,,,,,,,,,,,
null,,rt_plussign_withcolor,819017,,yellow,,,,null,GW/cornwall.png,GW/newhope.png,,,,,,,,,,,,,,,,,,
1110,,rt_thecrossant_black,820133,,black_plus_sign,,,,50,,,1,0.9875,,,,,,,,,,,,,,,,
null,,color_black,820239,,black_plus_sign,,,,null,,,,,,,,,,,,,,,,,,,,
null,,learn_phase(without_color),823247,,black_plus_sign,,,,null,GW/hotsprings.png,GW/gatlinburg.png,,,,,,,,,,,,,,,,,,
null,,black_cross(without_color),823813,,yellow,,,,null,GW/hotsprings.png,GW/gatlinburg.png,,,,,,,,,,,,,,,,,,
null,,rt_plussign_withcolor,824315,,yellow,,,,null,GW/hotsprings.png,GW/gatlinburg.png,,,,,,,,,,,,,,,,,,
1041,,rt_thecrossant_black,825764,,black_plus_sign,,,,50,,,1,0.9876543209876543,,,,,,,,,,,,,,,,
null,,color_black,825871,,black_plus_sign,,,,null,,,,,,,,,,,,,,,,,,,,
null,,learn_phase(without_color),828878,,black_plus_sign,,,,null,GW/huntsville.png,GW/peoria.png,,,,,,,,,,,,,,,,,,
null,,black_cross(without_color),829479,,yellow,,,,null,GW/huntsville.png,GW/peoria.png,,,,,,,,,,,,,,,,,,
null,,rt_plussign_withcolor,829982,,yellow,,,,null,GW/huntsville.png,GW/peoria.png,,,,,,,,,,,,,,,,,,
696,,rt_thecrossant_black,831395,,black_plus_sign,,,,50,,,1,0.9878048780487805,,,,,,,,,,,,,,,,
null,,color_black,831501,,black_plus_sign,,,,null,,,,,,,,,,,,,,,,,,,,
null,,learn_phase(without_color),834509,,black_plus_sign,,,,null,GW/hotsprings.png,GW/gatlinburg.png,,,,,,,,,,,,,,,,,,
null,,black_cross(without_color),835402,,blue,,,,null,GW/hotsprings.png,GW/gatlinburg.png,,,,,,,,,,,,,,,,,,
null,,rt_plussign_withcolor,835904,,blue,,,,null,GW/hotsprings.png,GW/gatlinburg.png,,,,,,,,,,,,,,,,,,
770,,rt_thecrossant_black,837026,,black_plus_sign,,,,49,,,1,0.9879518072289156,,,,,,,,,,,,,,,,
null,,color_black,837134,,black_plus_sign,,,,null,,,,,,,,,,,,,,,,,,,,
null,,learn_phase(without_color),840142,,black_plus_sign,,,,null,GW/huntsville.png,GW/peoria.png,,,,,,,,,,,,,,,,,,
null,,black_cross(without_color),840693,,blue,,,,null,GW/huntsville.png,GW/peoria.png,,,,,,,,,,,,,,,,,,
null,,rt_plussign_withcolor,841196,,blue,,,,null,GW/huntsville.png,GW/peoria.png,,,,,,,,,,,,,,,,,,
1068,,rt_thecrossant_black,842659,,black_plus_sign,,,,49,,,1,0.9880952380952381,,,,,,,,,,,,,,,,
null,,color_black,842767,,black_plus_sign,,,,null,,,,,,,,,,,,,,,,,,,,
null,,learn_phase(without_color),845775,,black_plus_sign,,,,null,GW/gatlinburg.png,GW/hotsprings.png,,,,,,,,,,,,,,,,,,
null,,black_cross(without_color),846433,,blue,,,,null,GW/gatlinburg.png,GW/hotsprings.png,,,,,,,,,,,,,,,,,,
null,,rt_plussign_withcolor,846936,,blue,,,,null,GW/gatlinburg.png,GW/hotsprings.png,,,,,,,,,,,,,,,,,,
730,,rt_thecrossant_black,848293,,black_plus_sign,,,,49,,,1,0.9882352941176471,,,,,,,,,,,,,,,,
null,,color_black,848401,,black_plus_sign,,,,null,,,,,,,,,,,,,,,,,,,,
null,,learn_phase(without_color),851411,,black_plus_sign,,,,null,GW/newhope.png,GW/cornwall.png,,,,,,,,,,,,,,,,,,
null,,black_cross(without_color),852161,,blue,,,,null,GW/newhope.png,GW/cornwall.png,,,,,,,,,,,,,,,,,,
null,,rt_plussign_withcolor,852664,,blue,,,,null,GW/newhope.png,GW/cornwall.png,,,,,,,,,,,,,,,,,,
756.0000000001164,,rt_thecrossant_black,853929,,black_plus_sign,,,,49,,,1,0.9883720930232558,,,,,,,,,,,,,,,,
null,,color_black,854037,,black_plus_sign,,,,null,,,,,,,,,,,,,,,,,,,,
null,,learn_phase(without_color),857048,,black_plus_sign,,,,null,GW/gatlinburg.png,GW/hotsprings.png,,,,,,,,,,,,,,,,,,
null,,black_cross(without_color),857897,,blue,,,,null,GW/gatlinburg.png,GW/hotsprings.png,,,,,,,,,,,,,,,,,,
null,,rt_plussign_withcolor,858400,,blue,,,,null,GW/gatlinburg.png,GW/hotsprings.png,,,,,,,,,,,,,,,,,,
1021,,rt_thecrossant_black,859566,,black_plus_sign,,,,49,,,1,0.9885057471264368,,,,,,,,,,,,,,,,
null,,color_black,859673,,black_plus_sign,,,,null,,,,,,,,,,,,,,,,,,,,
null,,learn_phase(without_color),862683,,black_plus_sign,,,,null,GW/peoria.png,GW/huntsville.png,,,,,,,,,,,,,,,,,,
null,,black_cross(without_color),863570,,blue,,,,null,GW/peoria.png,GW/huntsville.png,,,,,,,,,,,,,,,,,,
null,,rt_plussign_withcolor,864073,,blue,,,,null,GW/peoria.png,GW/huntsville.png,,,,,,,,,,,,,,,,,,
1550,,rt_thecrossant_black,865202,,black_plus_sign,,,,49,,,1,0.9886363636363636,,,,,,,,,,,,,,,,
null,,color_black,865308,,black_plus_sign,,,,null,,,,,,,,,,,,,,,,,,,,
null,,learn_phase(without_color),868317,,black_plus_sign,,,,null,GW/gatlinburg.png,GW/hotsprings.png,,,,,,,,,,,,,,,,,,
null,,black_cross(without_color),868783,,blue,,,,null,GW/gatlinburg.png,GW/hotsprings.png,,,,,,,,,,,,,,,,,,
null,,rt_plussign_withcolor,869286,,blue,,,,null,GW/gatlinburg.png,GW/hotsprings.png,,,,,,,,,,,,,,,,,,
1019.9999999998836,,rt_thecrossant_black,870835,,black_plus_sign,,,,49,,,1,0.9887640449438202,,,,,,,,,,,,,,,,
null,,color_black,870941,,black_plus_sign,,,,null,,,,,,,,,,,,,,,,,,,,
null,,learn_phase(without_color),873949,,black_plus_sign,,,,null,GW/newhope.png,GW/cornwall.png,,,,,,,,,,,,,,,,,,
null,,black_cross(without_color),874403,,yellow,,,,null,GW/newhope.png,GW/cornwall.png,,,,,,,,,,,,,,,,,,
457,,rt_plussign_withcolor,874906,,yellow,,,,50,GW/newhope.png,GW/cornwall.png,,,,,,,,,,,,,,,,,,
null,,rt_thecrossant_black,876468,,black_plus_sign,,,,null,,,1,0.9888888888888889,,,,,,,,,,,,,,,,
null,,color_black,876576,,black_plus_sign,,,,null,,,,,,,,,,,,,,,,,,,,
null,,learn_phase(without_color),879583,,black_plus_sign,,,,null,GW/carmel.png,GW/boulder.png,,,,,,,,,,,,,,,,,,
null,,black_cross(without_color),880434,,blue,,,,null,GW/carmel.png,GW/boulder.png,,,,,,,,,,,,,,,,,,
null,,rt_plussign_withcolor,880936,,blue,,,,null,GW/carmel.png,GW/boulder.png,,,,,,,,,,,,,,,,,,
546,,rt_thecrossant_black,882099,,black_plus_sign,,,,49,,,1,0.989010989010989,,,,,,,,,,,,,,,,
null,,color_black,882207,,black_plus_sign,,,,null,,,,,,,,,,,,,,,,,,,,
null,,learn_phase(without_color),885214,,black_plus_sign,,,,null,GW/huntsville.png,GW/peoria.png,,,,,,,,,,,,,,,,,,
null,,black_cross(without_color),885989,,blue,,,,null,GW/huntsville.png,GW/peoria.png,,,,,,,,,,,,,,,,,,
null,,rt_plussign_withcolor,886491,,blue,,,,null,GW/huntsville.png,GW/peoria.png,,,,,,,,,,,,,,,,,,
983,,rt_thecrossant_black,887731,,black_plus_sign,,,,49,,,1,0.9891304347826086,,,,,,,,,,,,,,,,
null,,color_black,887837,,black_plus_sign,,,,null,,,,,,,,,,,,,,,,,,,,
null,,learn_phase(without_color),890845,,black_plus_sign,,,,null,GW/carmel.png,GW/boulder.png,,,,,,,,,,,,,,,,,,
null,,black_cross(without_color),891691,,yellow,,,,null,GW/carmel.png,GW/boulder.png,,,,,,,,,,,,,,,,,,
null,,rt_plussign_withcolor,892194,,yellow,,,,null,GW/carmel.png,GW/boulder.png,,,,,,,,,,,,,,,,,,
1213,,rt_thecrossant_black,893363,,black_plus_sign,,,,50,,,1,0.989247311827957,,,,,,,,,,,,,,,,
null,,color_black,893470,,black_plus_sign,,,,null,,,,,,,,,,,,,,,,,,,,
null,,learn_phase(without_color),896478,,black_plus_sign,,,,null,GW/carmel.png,GW/boulder.png,,,,,,,,,,,,,,,,,,
null,,black_cross(without_color),897420,,blue,,,,null,GW/carmel.png,GW/boulder.png,,,,,,,,,,,,,,,,,,
432,,rt_plussign_withcolor,897922,,blue,,,,49,GW/carmel.png,GW/boulder.png,,,,,,,,,,,,,,,,,,
null,,rt_thecrossant_black,898996,,black_plus_sign,,,,null,,,1,0.9893617021276596,,,,,,,,,,,,,,,,
null,,color_black,899103,,black_plus_sign,,,,null,,,,,,,,,,,,,,,,,,,,
null,,learn_phase(without_color),902110,,black_plus_sign,,,,null,GW/boulder.png,GW/carmel.png,,,,,,,,,,,,,,,,,,
null,,black_cross(without_color),903105,,blue,,,,null,GW/boulder.png,GW/carmel.png,,,,,,,,,,,,,,,,,,
null,,rt_plussign_withcolor,903608,,blue,,,,null,GW/boulder.png,GW/carmel.png,,,,,,,,,,,,,,,,,,
1034,,rt_thecrossant_black,904627,,black_plus_sign,,,,49,,,1,0.9894736842105263,,,,,,,,,,,,,,,,
null,,color_black,904733,,black_plus_sign,,,,null,,,,,,,,,,,,,,,,,,,,
null,,learn_phase(without_color),907742,,black_plus_sign,,,,null,GW/huntsville.png,GW/leesburg.png,,,,,,,,,,,,,,,,,,
null,,black_cross(without_color),908467,,blue,,,,null,GW/huntsville.png,GW/leesburg.png,,,,,,,,,,,,,,,,,,
null,,rt_plussign_withcolor,908969,,blue,,,,null,GW/huntsville.png,GW/leesburg.png,,,,,,,,,,,,,,,,,,
1246,,rt_thecrossant_black,910257,,black_plus_sign,,,,49,,,1,0.9895833333333334,,,,,,,,,,,,,,,,
null,,color_black,910364,,black_plus_sign,,,,null,,,,,,,,,,,,,,,,,,,,
null,,learn_phase(without_color),913372,,black_plus_sign,,,,null,GW/peoria.png,GW/carmel.png,,,,,,,,,,,,,,,,,,
null,,black_cross(without_color),914017,,yellow,,,,null,GW/peoria.png,GW/carmel.png,,,,,,,,,,,,,,,,,,
null,,rt_plussign_withcolor,914520,,yellow,,,,null,GW/peoria.png,GW/carmel.png,,,,,,,,,,,,,,,,,,
1019,,rt_thecrossant_black,915889,,black_plus_sign,,,,50,,,1,0.9896907216494846,,,,,,,,,,,,,,,,
null,,color_black,915997,,black_plus_sign,,,,null,,,,,,,,,,,,,,,,,,,,
null,,learn_phase(without_color),919003,,black_plus_sign,,,,null,GW/racine.png,GW/hotsprings.png,,,,,,,,,,,,,,,,,,
null,,black_cross(without_color),919535,,blue,,,,null,GW/racine.png,GW/hotsprings.png,,,,,,,,,,,,,,,,,,
null,,rt_plussign_withcolor,920038,,blue,,,,null,GW/racine.png,GW/hotsprings.png,,,,,,,,,,,,,,,,,,
897.9999999998836,,rt_thecrossant_black,921521,,black_plus_sign,,,,49,,,1,0.9897959183673469,,,,,,,,,,,,,,,,
null,,color_black,921627,,black_plus_sign,,,,null,,,,,,,,,,,,,,,,,,,,
null,,learn_phase(without_color),924636,,black_plus_sign,,,,null,GW/leesburg.png,GW/huntsville.png,,,,,,,,,,,,,,,,,,
null,,black_cross(without_color),925575,,yellow,,,,null,GW/leesburg.png,GW/huntsville.png,,,,,,,,,,,,,,,,,,
null,,rt_plussign_withcolor,926078,,yellow,,,,null,GW/leesburg.png,GW/huntsville.png,,,,,,,,,,,,,,,,,,
1324,,rt_thecrossant_black,927152,,black_plus_sign,,,,50,,,1,0.98989898989899,,,,,,,,,,,,,,,,
null,,color_black,927258,,black_plus_sign,,,,null,,,,,,,,,,,,,,,,,,,,
null,,learn_phase(without_color),930266,,black_plus_sign,,,,null,GW/peoria.png,GW/carmel.png,,,,,,,,,,,,,,,,,,
null,,black_cross(without_color),930924,,blue,,,,null,GW/peoria.png,GW/carmel.png,,,,,,,,,,,,,,,,,,
null,,rt_plussign_withcolor,931427,,blue,,,,null,GW/peoria.png,GW/carmel.png,,,,,,,,,,,,,,,,,,
2000.9999999998836,,rt_thecrossant_black,932785,,black_plus_sign,,,,49,,,1,0.99,,,,,,,,,,,,,,,,
null,,color_black,932891,,black_plus_sign,,,,null,,,,,,,,,,,,,,,,,,,,
null,,learn_phase(without_color),935899,,black_plus_sign,,,,null,GW/hanover.png,GW/gatlinburg.png,,,,,,,,,,,,,,,,,,
null,,black_cross(without_color),936628,,blue,,,,null,GW/hanover.png,GW/gatlinburg.png,,,,,,,,,,,,,,,,,,
null,,rt_plussign_withcolor,937131,,blue,,,,null,GW/hanover.png,GW/gatlinburg.png,,,,,,,,,,,,,,,,,,
832,,rt_thecrossant_black,938416,,black_plus_sign,,,,49,,,1,0.9900990099009901,,,,,,,,,,,,,,,,
null,,color_black,938524,,black_plus_sign,,,,null,,,,,,,,,,,,,,,,,,,,
null,,learn_phase(without_color),941531,,black_plus_sign,,,,null,GW/hotsprings.png,GW/racine.png,,,,,,,,,,,,,,,,,,
null,,black_cross(without_color),942562,,yellow,,,,null,GW/hotsprings.png,GW/racine.png,,,,,,,,,,,,,,,,,,
null,,rt_plussign_withcolor,943065,,yellow,,,,null,GW/hotsprings.png,GW/racine.png,,,,,,,,,,,,,,,,,,
1075.0000000001164,,rt_thecrossant_black,944048,,black_plus_sign,,,,50,,,1,0.9901960784313726,,,,,,,,,,,,,,,,
null,,color_black,944155,,black_plus_sign,,,,null,,,,,,,,,,,,,,,,,,,,
null,,learn_phase(without_color),947163,,black_plus_sign,,,,null,GW/leesburg.png,GW/huntsville.png,,,,,,,,,,,,,,,,,,
null,,black_cross(without_color),947650,,yellow,,,,null,GW/leesburg.png,GW/huntsville.png,,,,,,,,,,,,,,,,,,
null,,rt_plussign_withcolor,948153,,yellow,,,,null,GW/leesburg.png,GW/huntsville.png,,,,,,,,,,,,,,,,,,
1450,,rt_thecrossant_black,949681,,black_plus_sign,,,,50,,,1,0.9902912621359223,,,,,,,,,,,,,,,,
null,,color_black,949787,,black_plus_sign,,,,null,,,,,,,,,,,,,,,,,,,,
null,,learn_phase(without_color),952796,,black_plus_sign,,,,null,GW/hanover.png,GW/gatlinburg.png,,,,,,,,,,,,,,,,,,
null,,black_cross(without_color),953666,,blue,,,,null,GW/hanover.png,GW/gatlinburg.png,,,,,,,,,,,,,,,,,,
null,,rt_plussign_withcolor,954169,,blue,,,,null,GW/hanover.png,GW/gatlinburg.png,,,,,,,,,,,,,,,,,,
861,,rt_thecrossant_black,955312,,black_plus_sign,,,,49,,,1,0.9903846153846154,,,,,,,,,,,,,,,,
null,,color_black,955420,,black_plus_sign,,,,null,,,,,,,,,,,,,,,,,,,,
null,,learn_phase(without_color),958428,,black_plus_sign,,,,null,GW/huntsville.png,GW/leesburg.png,,,,,,,,,,,,,,,,,,
null,,black_cross(without_color),959515,,blue,,,,null,GW/huntsville.png,GW/leesburg.png,,,,,,,,,,,,,,,,,,
null,,rt_plussign_withcolor,960018,,blue,,,,null,GW/huntsville.png,GW/leesburg.png,,,,,,,,,,,,,,,,,,
1433,,rt_thecrossant_black,960945,,black_plus_sign,,,,49,,,1,0.9904761904761905,,,,,,,,,,,,,,,,
null,,color_black,961052,,black_plus_sign,,,,null,,,,,,,,,,,,,,,,,,,,
null,,learn_phase(without_color),964059,,black_plus_sign,,,,null,GW/carmel.png,GW/peoria.png,,,,,,,,,,,,,,,,,,
null,,black_cross(without_color),964692,,blue,,,,null,GW/carmel.png,GW/peoria.png,,,,,,,,,,,,,,,,,,
null,,rt_plussign_withcolor,965194,,blue,,,,null,GW/carmel.png,GW/peoria.png,,,,,,,,,,,,,,,,,,
1423.9999999998836,,rt_thecrossant_black,966576,,black_plus_sign,,,,49,,,1,0.9905660377358491,,,,,,,,,,,,,,,,
null,,color_black,966683,,black_plus_sign,,,,null,,,,,,,,,,,,,,,,,,,,
null,,learn_phase(without_color),969692,,black_plus_sign,,,,null,GW/racine.png,GW/hotsprings.png,,,,,,,,,,,,,,,,,,
null,,black_cross(without_color),970562,,yellow,,,,null,GW/racine.png,GW/hotsprings.png,,,,,,,,,,,,,,,,,,
null,,rt_plussign_withcolor,971065,,yellow,,,,null,GW/racine.png,GW/hotsprings.png,,,,,,,,,,,,,,,,,,
1013,,rt_thecrossant_black,972209,,black_plus_sign,,,,50,,,1,0.9906542056074766,,,,,,,,,,,,,,,,
null,,color_black,972316,,black_plus_sign,,,,null,,,,,,,,,,,,,,,,,,,,
null,,learn_phase(without_color),975323,,black_plus_sign,,,,null,GW/gatlinburg.png,GW/hanover.png,,,,,,,,,,,,,,,,,,
null,,black_cross(without_color),975733,,yellow,,,,null,GW/gatlinburg.png,GW/hanover.png,,,,,,,,,,,,,,,,,,
null,,rt_plussign_withcolor,976236,,yellow,,,,null,GW/gatlinburg.png,GW/hanover.png,,,,,,,,,,,,,,,,,,
1048.9999999998836,,rt_thecrossant_black,977840,,black_plus_sign,,,,50,,,1,0.9907407407407407,,,,,,,,,,,,,,,,
null,,color_black,977952,,black_plus_sign,,,,null,,,,,,,,,,,,,,,,,,,,
null,,learn_phase(without_color),980958,,black_plus_sign,,,,null,GW/peoria.png,GW/carmel.png,,,,,,,,,,,,,,,,,,
null,,black_cross(without_color),981997,,blue,,,,null,GW/peoria.png,GW/carmel.png,,,,,,,,,,,,,,,,,,
null,,rt_plussign_withcolor,982500,,blue,,,,null,GW/peoria.png,GW/carmel.png,,,,,,,,,,,,,,,,,,
694.9999999998836,,rt_thecrossant_black,983476,,black_plus_sign,,,,49,,,1,0.9908256880733946,,,,,,,,,,,,,,,,
null,,color_black,983583,,black_plus_sign,,,,null,,,,,,,,,,,,,,,,,,,,
null,,learn_phase(without_color),986592,,black_plus_sign,,,,null,GW/hanover.png,GW/gatlinburg.png,,,,,,,,,,,,,,,,,,
null,,black_cross(without_color),987109,,yellow,,,,null,GW/hanover.png,GW/gatlinburg.png,,,,,,,,,,,,,,,,,,
null,,rt_plussign_withcolor,987613,,yellow,,,,null,GW/hanover.png,GW/gatlinburg.png,,,,,,,,,,,,,,,,,,
1277,,rt_thecrossant_black,989110,,black_plus_sign,,,,50,,,1,0.990909090909091,,,,,,,,,,,,,,,,
null,,color_black,989217,,black_plus_sign,,,,null,,,,,,,,,,,,,,,,,,,,
null,,learn_phase(without_color),992226,,black_plus_sign,,,,null,GW/racine.png,GW/hotsprings.png,,,,,,,,,,,,,,,,,,
null,,black_cross(without_color),992741,,yellow,,,,null,GW/racine.png,GW/hotsprings.png,,,,,,,,,,,,,,,,,,
null,,rt_plussign_withcolor,993243,,yellow,,,,null,GW/racine.png,GW/hotsprings.png,,,,,,,,,,,,,,,,,,
1336,,rt_thecrossant_black,994743,,black_plus_sign,,,,50,,,1,0.990990990990991,,,,,,,,,,,,,,,,
null,,color_black,994850,,black_plus_sign,,,,null,,,,,,,,,,,,,,,,,,,,
null,,learn_phase(without_color),997858,,black_plus_sign,,,,null,GW/peoria.png,GW/carmel.png,,,,,,,,,,,,,,,,,,
null,,black_cross(without_color),998638,,blue,,,,null,GW/peoria.png,GW/carmel.png,,,,,,,,,,,,,,,,,,
null,,rt_plussign_withcolor,999140,,blue,,,,null,GW/peoria.png,GW/carmel.png,,,,,,,,,,,,,,,,,,
936.9999999998836,,rt_thecrossant_black,1000376,,black_plus_sign,,,,49,,,1,0.9910714285714286,,,,,,,,,,,,,,,,
null,,color_black,1000482,,black_plus_sign,,,,null,,,,,,,,,,,,,,,,,,,,
null,,learn_phase(without_color),1003490,,black_plus_sign,,,,null,GW/hanover.png,GW/gatlinburg.png,,,,,,,,,,,,,,,,,,
null,,black_cross(without_color),1004305,,yellow,,,,null,GW/hanover.png,GW/gatlinburg.png,,,,,,,,,,,,,,,,,,
null,,rt_plussign_withcolor,1004808,,yellow,,,,null,GW/hanover.png,GW/gatlinburg.png,,,,,,,,,,,,,,,,,,
1052,,rt_thecrossant_black,1006008,,black_plus_sign,,,,50,,,1,0.9911504424778761,,,,,,,,,,,,,,,,
null,,color_black,1006115,,black_plus_sign,,,,null,,,,,,,,,,,,,,,,,,,,
null,,learn_phase(without_color),1009124,,black_plus_sign,,,,null,GW/leesburg.png,GW/huntsville.png,,,,,,,,,,,,,,,,,,
null,,black_cross(without_color),1009946,,yellow,,,,null,GW/leesburg.png,GW/huntsville.png,,,,,,,,,,,,,,,,,,
null,,rt_plussign_withcolor,1010449,,yellow,,,,null,GW/leesburg.png,GW/huntsville.png,,,,,,,,,,,,,,,,,,
989.9999999998836,,rt_thecrossant_black,1011642,,black_plus_sign,,,,50,,,1,0.9912280701754386,,,,,,,,,,,,,,,,
null,,color_black,1011748,,black_plus_sign,,,,null,,,,,,,,,,,,,,,,,,,,
null,,learn_phase(without_color),1014758,,black_plus_sign,,,,null,GW/racine.png,GW/hotsprings.png,,,,,,,,,,,,,,,,,,
null,,black_cross(without_color),1015209,,yellow,,,,null,GW/racine.png,GW/hotsprings.png,,,,,,,,,,,,,,,,,,
null,,rt_plussign_withcolor,1015711,,yellow,,,,null,GW/racine.png,GW/hotsprings.png,,,,,,,,,,,,,,,,,,
1185,,rt_thecrossant_black,1017275,,black_plus_sign,,,,50,,,1,0.991304347826087,,,,,,,,,,,,,,,,
null,,color_black,1017383,,black_plus_sign,,,,null,,,,,,,,,,,,,,,,,,,,
null,,learn_phase(without_color),1020390,,black_plus_sign,,,,null,GW/hanover.png,GW/gatlinburg.png,,,,,,,,,,,,,,,,,,
null,,black_cross(without_color),1021254,,yellow,,,,null,GW/hanover.png,GW/gatlinburg.png,,,,,,,,,,,,,,,,,,
null,,rt_plussign_withcolor,1021757,,yellow,,,,null,GW/hanover.png,GW/gatlinburg.png,,,,,,,,,,,,,,,,,,
568.9999999997672,,rt_thecrossant_black,1022907,,black_plus_sign,,,,50,,,1,0.9913793103448276,,,,,,,,,,,,,,,,
null,,color_black,1023013,,black_plus_sign,,,,null,,,,,,,,,,,,,,,,,,,,
null,,learn_phase(without_color),1026020,,black_plus_sign,,,,null,GW/huntsville.png,GW/leesburg.png,,,,,,,,,,,,,,,,,,
null,,black_cross(without_color),1026470,,yellow,,,,null,GW/huntsville.png,GW/leesburg.png,,,,,,,,,,,,,,,,,,
null,,rt_plussign_withcolor,1026973,,yellow,,,,null,GW/huntsville.png,GW/leesburg.png,,,,,,,,,,,,,,,,,,
1041,,rt_thecrossant_black,1028537,,black_plus_sign,,,,50,,,1,0.9914529914529915,,,,,,,,,,,,,,,,
null,,color_black,1028643,,black_plus_sign,,,,null,,,,,,,,,,,,,,,,,,,,
null,,learn_phase(without_color),1031650,,black_plus_sign,,,,null,GW/hanover.png,GW/gatlinburg.png,,,,,,,,,,,,,,,,,,
null,,black_cross(without_color),1032148,,blue,,,,null,GW/hanover.png,GW/gatlinburg.png,,,,,,,,,,,,,,,,,,
null,,rt_plussign_withcolor,1032651,,blue,,,,null,GW/hanover.png,GW/gatlinburg.png,,,,,,,,,,,,,,,,,,
901,,rt_thecrossant_black,1034167,,black_plus_sign,,,,49,,,1,0.9915254237288136,,,,,,,,,,,,,,,,
null,,color_black,1034274,,black_plus_sign,,,,null,,,,,,,,,,,,,,,,,,,,
null,,learn_phase(without_color),1037281,,black_plus_sign,,,,null,GW/huntsville.png,GW/leesburg.png,,,,,,,,,,,,,,,,,,
null,,black_cross(without_color),1038026,,blue,,,,null,GW/huntsville.png,GW/leesburg.png,,,,,,,,,,,,,,,,,,
null,,rt_plussign_withcolor,1038529,,blue,,,,null,GW/huntsville.png,GW/leesburg.png,,,,,,,,,,,,,,,,,,
774,,rt_thecrossant_black,1039798,,black_plus_sign,,,,49,,,1,0.9915966386554622,,,,,,,,,,,,,,,,
null,,color_black,1039905,,black_plus_sign,,,,null,,,,,,,,,,,,,,,,,,,,
null,,learn_phase(without_color),1042913,,black_plus_sign,,,,null,GW/hotsprings.png,GW/racine.png,,,,,,,,,,,,,,,,,,
null,,black_cross(without_color),1043563,,blue,,,,null,GW/hotsprings.png,GW/racine.png,,,,,,,,,,,,,,,,,,
null,,rt_plussign_withcolor,1044066,,blue,,,,null,GW/hotsprings.png,GW/racine.png,,,,,,,,,,,,,,,,,,
971,,rt_thecrossant_black,1045431,,black_plus_sign,,,,49,,,1,0.9916666666666667,,,,,,,,,,,,,,,,
null,,color_black,1045538,,black_plus_sign,,,,null,,,,,,,,,,,,,,,,,,,,
null,,learn_phase(without_color),1048546,,black_plus_sign,,,,null,GW/gatlinburg.png,GW/hanover.png,,,,,,,,,,,,,,,,,,
null,,black_cross(without_color),1049196,,blue,,,,null,GW/gatlinburg.png,GW/hanover.png,,,,,,,,,,,,,,,,,,
440,,rt_plussign_withcolor,1049699,,blue,,,,49,GW/gatlinburg.png,GW/hanover.png,,,,,,,,,,,,,,,,,,
null,,rt_thecrossant_black,1051064,,black_plus_sign,,,,null,,,1,0.9917355371900827,,,,,,,,,,,,,,,,
null,,color_black,1051171,,black_plus_sign,,,,null,,,,,,,,,,,,,,,,,,,,
null,,learn_phase(without_color),1054178,,black_plus_sign,,,,null,GW/peoria.png,GW/carmel.png,,,,,,,,,,,,,,,,,,
null,,black_cross(without_color),1055033,,blue,,,,null,GW/peoria.png,GW/carmel.png,,,,,,,,,,,,,,,,,,
null,,rt_plussign_withcolor,1055536,,blue,,,,null,GW/peoria.png,GW/carmel.png,,,,,,,,,,,,,,,,,,
898,,rt_thecrossant_black,1056696,,black_plus_sign,,,,49,,,1,0.9918032786885246,,,,,,,,,,,,,,,,
null,,color_black,1056803,,black_plus_sign,,,,null,,,,,,,,,,,,,,,,,,,,
null,,learn_phase(without_color),1059811,,black_plus_sign,,,,null,GW/hotsprings.png,GW/racine.png,,,,,,,,,,,,,,,,,,
null,,black_cross(without_color),1060833,,blue,,,,null,GW/hotsprings.png,GW/racine.png,,,,,,,,,,,,,,,,,,
null,,rt_plussign_withcolor,1061337,,blue,,,,null,GW/hotsprings.png,GW/racine.png,,,,,,,,,,,,,,,,,,
1091,,rt_thecrossant_black,1062330,,black_plus_sign,,,,49,,,1,0.991869918699187,,,,,,,,,,,,,,,,
null,,color_black,1062437,,black_plus_sign,,,,null,,,,,,,,,,,,,,,,,,,,
null,,learn_phase(without_color),1065447,,black_plus_sign,,,,null,GW/carmel.png,GW/peoria.png,,,,,,,,,,,,,,,,,,
null,,black_cross(without_color),1065862,,blue,,,,null,GW/carmel.png,GW/peoria.png,,,,,,,,,,,,,,,,,,
492,,rt_plussign_withcolor,1066364,,blue,,,,49,GW/carmel.png,GW/peoria.png,,,,,,,,,,,,,,,,,,
null,,rt_thecrossant_black,1067965,,black_plus_sign,,,,null,,,1,0.9919354838709677,,,,,,,,,,,,,,,,
null,,color_black,1068073,,black_plus_sign,,,,null,,,,,,,,,,,,,,,,,,,,
null,,learn_phase(without_color),1071080,,black_plus_sign,,,,null,GW/leesburg.png,GW/huntsville.png,,,,,,,,,,,,,,,,,,
null,,black_cross(without_color),1071504,,blue,,,,null,GW/leesburg.png,GW/huntsville.png,,,,,,,,,,,,,,,,,,
null,,rt_plussign_withcolor,1072007,,blue,,,,null,GW/leesburg.png,GW/huntsville.png,,,,,,,,,,,,,,,,,,
651,,rt_thecrossant_black,1073598,,black_plus_sign,,,,49,,,1,0.992,,,,,,,,,,,,,,,,
null,,color_black,1073705,,black_plus_sign,,,,null,,,,,,,,,,,,,,,,,,,,
null,,learn_phase(without_color),1076713,,black_plus_sign,,,,null,GW/peoria.png,GW/carmel.png,,,,,,,,,,,,,,,,,,
null,,black_cross(without_color),1077624,,blue,,,,null,GW/peoria.png,GW/carmel.png,,,,,,,,,,,,,,,,,,
482.99999999976717,,rt_plussign_withcolor,1078126,,blue,,,,49,GW/peoria.png,GW/carmel.png,,,,,,,,,,,,,,,,,,
null,,rt_thecrossant_black,1079231,,black_plus_sign,,,,null,,,1,0.9920634920634921,,,,,,,,,,,,,,,,
null,,color_black,1079338,,black_plus_sign,,,,null,,,,,,,,,,,,,,,,,,,,
null,,learn_phase(without_color),1082346,,black_plus_sign,,,,null,GW/racine.png,GW/hotsprings.png,,,,,,,,,,,,,,,,,,
null,,black_cross(without_color),1083302,,blue,,,,null,GW/racine.png,GW/hotsprings.png,,,,,,,,,,,,,,,,,,
null,,rt_plussign_withcolor,1083805,,blue,,,,null,GW/racine.png,GW/hotsprings.png,,,,,,,,,,,,,,,,,,
1155,,rt_thecrossant_black,1084864,,black_plus_sign,,,,49,,,1,0.9921259842519685,,,,,,,,,,,,,,,,
null,,color_black,1084971,,black_plus_sign,,,,null,,,,,,,,,,,,,,,,,,,,
30902,,learn_break,1115880,,learn_break,,,,32,,,,,,,,,,,,,,,,,,,,
22218,,intro_1,1138102,,instruct,,0,Start,,,,,,,,,,,,,,,,,,,,,
3474,,directmemory_phase,1141580,,GW/huntsville.png,,,,51,,,1,1,GW/newhope.png,GW/cornwall.png,GW/carmel.png,GW/carmel.png,GW/cornwall.png,GW/newhope.png,1,,,,,,,,,
null,,html-keyboard-response,1142587,,<p></p>,,,,null,,,,,,,,,,,,,,,,,,,,
2995,,directmemory_phase,1145585,,GW/hotsprings.png,,,,51,,,1,1,GW/boulder.png,GW/cornwall.png,GW/racine.png,GW/racine.png,GW/cornwall.png,GW/boulder.png,1,,,,,,,,,
null,,html-keyboard-response,1146594,,<p></p>,,,,null,,,,,,,,,,,,,,,,,,,,
4780.000000000233,,directmemory_phase,1151376,,GW/carmel.png,,,,51,,,1,1,GW/shreveport.png,GW/leesburg.png,GW/hanover.png,GW/hanover.png,GW/leesburg.png,GW/shreveport.png,1,,,,,,,,,
null,,html-keyboard-response,1152385,,<p></p>,,,,null,,,,,,,,,,,,,,,,,,,,
3247.000000000233,,directmemory_phase,1155636,,GW/huntsville.png,,,,49,,,1,1,GW/peoria.png,GW/gatlinburg.png,GW/hanover.png,GW/peoria.png,GW/hanover.png,GW/gatlinburg.png,1,,,,,,,,,
null,,html-keyboard-response,1156643,,<p></p>,,,,null,,,,,,,,,,,,,,,,,,,,
5599,,directmemory_phase,1162246,,GW/cornwall.png,,,,50,,,0,0.8,GW/boulder.png,GW/huntsville.png,GW/gatlinburg.png,GW/gatlinburg.png,GW/huntsville.png,GW/boulder.png,0.5,closer,,,,,,,,
null,,html-keyboard-response,1163255,,<p></p>,,,,null,,,,,,,,,,,,,,,,,,,,
null,,directmemory_phase,1169759,,GW/carmel.png,,,,null,,,0,0.6666666666666666,GW/hotsprings.png,GW/leesburg.png,GW/huntsville.png,GW/huntsville.png,GW/leesburg.png,GW/hotsprings.png,0,,,,,,,,,
null,,warning_page,1172768,,warning,,,,null,,,,,,,,,,,,,,,,,,,,
null,,html-keyboard-response,1173770,,<p></p>,,,,null,,,,,,,,,,,,,,,,,,,,
2069,,directmemory_phase,1175842,,GW/shreveport.png,,,,50,,,1,0.7142857142857143,GW/gatlinburg.png,GW/hotsprings.png,GW/hanover.png,GW/hotsprings.png,GW/gatlinburg.png,GW/hanover.png,1,,,,,,,,,
null,,html-keyboard-response,1176851,,<p></p>,,,,null,,,,,,,,,,,,,,,,,,,,
1527,,directmemory_phase,1178381,,GW/newhope.png,,,,49,,,1,0.75,GW/racine.png,GW/shreveport.png,GW/westpalmbeach.png,GW/racine.png,GW/westpalmbeach.png,GW/shreveport.png,1,,,,,,,,,
null,,html-keyboard-response,1179388,,<p></p>,,,,null,,,,,,,,,,,,,,,,,,,,
2192,,directmemory_phase,1181582,,GW/gatlinburg.png,,,,51,,,1,0.7777777777777778,GW/leesburg.png,GW/carmel.png,GW/hotsprings.png,GW/hotsprings.png,GW/carmel.png,GW/leesburg.png,1,,,,,,,,,
null,,html-keyboard-response,1182591,,<p></p>,,,,null,,,,,,,,,,,,,,,,,,,,
3474,,directmemory_phase,1186067,,GW/racine.png,,,,49,,,1,0.8,GW/newhope.png,GW/hanover.png,GW/cornwall.png,GW/newhope.png,GW/cornwall.png,GW/hanover.png,1,,,,,,,,,
null,,html-keyboard-response,1187074,,<p></p>,,,,null,,,,,,,,,,,,,,,,,,,,
1440,,directmemory_phase,1188517,,GW/leesburg.png,,,,49,,,1,0.8181818181818182,GW/huntsville.png,GW/boulder.png,GW/carmel.png,GW/huntsville.png,GW/carmel.png,GW/boulder.png,1,,,,,,,,,
null,,html-keyboard-response,1189526,,<p></p>,,,,null,,,,,,,,,,,,,,,,,,,,
2967,,directmemory_phase,1192495,,GW/newhope.png,,,,49,,,1,0.8333333333333334,GW/cornwall.png,GW/leesburg.png,GW/peoria.png,GW/cornwall.png,GW/peoria.png,GW/leesburg.png,1,,,,,,,,,
null,,html-keyboard-response,1193504,,<p></p>,,,,null,,,,,,,,,,,,,,,,,,,,
2838,,directmemory_phase,1196345,,GW/carmel.png,,,,51,,,1,0.8461538461538461,GW/racine.png,GW/gatlinburg.png,GW/boulder.png,GW/boulder.png,GW/gatlinburg.png,GW/racine.png,1,,,,,,,,,
null,,html-keyboard-response,1197351,,<p></p>,,,,null,,,,,,,,,,,,,,,,,,,,
4168,,directmemory_phase,1201522,,GW/peoria.png,,,,49,,,1,0.8571428571428571,GW/cornwall.png,GW/hotsprings.png,GW/boulder.png,GW/cornwall.png,GW/boulder.png,GW/hotsprings.png,1,,,,,,,,,
null,,html-keyboard-response,1202530,,<p></p>,,,,null,,,,,,,,,,,,,,,,,,,,
3180,,directmemory_phase,1205713,,GW/boulder.png,,,,50,,,0,0.8,GW/hotsprings.png,GW/peoria.png,GW/carmel.png,GW/carmel.png,GW/peoria.png,GW/hotsprings.png,0.5,closer,,,,,,,,
null,,html-keyboard-response,1206720,,<p></p>,,,,null,,,,,,,,,,,,,,,,,,,,
3125,,directmemory_phase,1209848,,GW/westpalmbeach.png,,,,50,,,0,0.75,GW/racine.png,GW/hanover.png,GW/newhope.png,GW/racine.png,GW/newhope.png,GW/hanover.png,0.5,closer,,,,,,,,
null,,html-keyboard-response,1210856,,<p></p>,,,,null,,,,,,,,,,,,,,,,,,,,
2459,,directmemory_phase,1213318,,GW/carmel.png,,,,51,,,1,0.7647058823529411,GW/hotsprings.png,GW/leesburg.png,GW/peoria.png,GW/peoria.png,GW/leesburg.png,GW/hotsprings.png,1,,,,,,,,,
null,,html-keyboard-response,1214324,,<p></p>,,,,null,,,,,,,,,,,,,,,,,,,,
1680,,directmemory_phase,1216007,,GW/racine.png,,,,51,,,1,0.7777777777777778,GW/peoria.png,GW/gatlinburg.png,GW/hotsprings.png,GW/hotsprings.png,GW/gatlinburg.png,GW/peoria.png,1,,,,,,,,,
null,,html-keyboard-response,1217013,,<p></p>,,,,null,,,,,,,,,,,,,,,,,,,,
3100,,directmemory_phase,1220115,,GW/gatlinburg.png,,,,50,,,0,0.7368421052631579,GW/boulder.png,GW/carmel.png,GW/cornwall.png,GW/cornwall.png,GW/carmel.png,GW/boulder.png,0.5,closer,,,,,,,,
null,,html-keyboard-response,1221124,,<p></p>,,,,null,,,,,,,,,,,,,,,,,,,,
2702,,directmemory_phase,1223828,,GW/hanover.png,,,,50,,,1,0.75,GW/cornwall.png,GW/peoria.png,GW/newhope.png,GW/peoria.png,GW/cornwall.png,GW/newhope.png,1,,,,,,,,,
null,,html-keyboard-response,1224835,,<p></p>,,,,null,,,,,,,,,,,,,,,,,,,,
2310,,directmemory_phase,1227147,,GW/hotsprings.png,,,,50,,,1,0.7619047619047619,GW/cornwall.png,GW/gatlinburg.png,GW/carmel.png,GW/gatlinburg.png,GW/cornwall.png,GW/carmel.png,1,,,,,,,,,
null,,html-keyboard-response,1228157,,<p></p>,,,,null,,,,,,,,,,,,,,,,,,,,
3341,,directmemory_phase,1231501,,GW/cornwall.png,,,,50,,,0,0.7272727272727273,GW/boulder.png,GW/carmel.png,GW/peoria.png,GW/peoria.png,GW/carmel.png,GW/boulder.png,0.5,closer,,,,,,,,
null,,html-keyboard-response,1232509,,<p></p>,,,,null,,,,,,,,,,,,,,,,,,,,
2733.999999999767,,directmemory_phase,1235246,,GW/gatlinburg.png,,,,49,,,1,0.7391304347826086,GW/hanover.png,GW/boulder.png,GW/newhope.png,GW/hanover.png,GW/newhope.png,GW/boulder.png,1,,,,,,,,,
null,,html-keyboard-response,1236253,,<p></p>,,,,null,,,,,,,,,,,,,,,,,,,,
2468,,directmemory_phase,1238724,,GW/cornwall.png,,,,49,,,1,0.75,GW/newhope.png,GW/leesburg.png,GW/carmel.png,GW/newhope.png,GW/carmel.png,GW/leesburg.png,1,,,,,,,,,
null,,html-keyboard-response,1239733,,<p></p>,,,,null,,,,,,,,,,,,,,,,,,,,
1537,,directmemory_phase,1241272,,GW/hotsprings.png,,,,51,,,1,0.76,GW/peoria.png,GW/newhope.png,GW/shreveport.png,GW/shreveport.png,GW/newhope.png,GW/peoria.png,1,,,,,,,,,
null,,html-keyboard-response,1242278,,<p></p>,,,,null,,,,,,,,,,,,,,,,,,,,
1560.9999999997672,,directmemory_phase,1243842,,GW/peoria.png,,,,50,,,0,0.7307692307692307,GW/hotsprings.png,GW/leesburg.png,GW/hanover.png,GW/hanover.png,GW/leesburg.png,GW/hotsprings.png,0.5,closer,,,,,,,,
null,,html-keyboard-response,1244851,,<p></p>,,,,null,,,,,,,,,,,,,,,,,,,,
2150,,directmemory_phase,1247003,,GW/huntsville.png,,,,49,,,1,0.7407407407407407,GW/leesburg.png,GW/hotsprings.png,GW/boulder.png,GW/leesburg.png,GW/boulder.png,GW/hotsprings.png,1,,,,,,,,,
null,,html-keyboard-response,1248012,,<p></p>,,,,null,,,,,,,,,,,,,,,,,,,,
1969,,directmemory_phase,1249984,,GW/peoria.png,,,,50,,,1,0.75,GW/leesburg.png,GW/carmel.png,GW/racine.png,GW/carmel.png,GW/leesburg.png,GW/racine.png,1,,,,,,,,,
null,,html-keyboard-response,1250990,,<p></p>,,,,null,,,,,,,,,,,,,,,,,,,,
1271,,directmemory_phase,1252264,,GW/hanover.png,,,,51,,,1,0.7586206896551724,GW/westpalmbeach.png,GW/cornwall.png,GW/gatlinburg.png,GW/gatlinburg.png,GW/cornwall.png,GW/westpalmbeach.png,1,,,,,,,,,
null,,html-keyboard-response,1253273,,<p></p>,,,,null,,,,,,,,,,,,,,,,,,,,
3711,,directmemory_phase,1256987,,GW/peoria.png,,,,51,,,1,0.7666666666666667,GW/shreveport.png,GW/gatlinburg.png,GW/huntsville.png,GW/huntsville.png,GW/gatlinburg.png,GW/shreveport.png,1,,,,,,,,,
null,,html-keyboard-response,1257994,,<p></p>,,,,null,,,,,,,,,,,,,,,,,,,,
3701,,directmemory_phase,1261698,,GW/hanover.png,,,,51,,,0,0.7419354838709677,GW/carmel.png,GW/shreveport.png,GW/cornwall.png,GW/carmel.png,GW/cornwall.png,GW/shreveport.png,0.5,closer,,,,,,,,
null,,html-keyboard-response,1262707,,<p></p>,,,,null,,,,,,,,,,,,,,,,,,,,
3263,,directmemory_phase,1265972,,GW/racine.png,,,,51,,,0,0.71875,GW/westpalmbeach.png,GW/carmel.png,GW/gatlinburg.png,GW/westpalmbeach.png,GW/gatlinburg.png,GW/carmel.png,0.5,closer,,,,,,,,
null,,html-keyboard-response,1266979,,<p></p>,,,,null,,,,,,,,,,,,,,,,,,,,
46936,,intro_1,1313918,,instruct,,0,,,,,,,,,,,,,,,,,,,,,,
21400,,intro_2,1335321,,instruct,,1,Next,,,,,,,,,,,,,,,,,,,,,
4214,,intro_3,1339538,,instruct,,1,Next,,,,,,,,,,,,,,,,,,,,,
7677,,intro_4,1347219,,instruct,,1,Next,,,,,,,,,,,,,,,,,,,,,
22697,,intro_5,1369920,,instruct,,1,Next,,,,,,,,,,,,,,,,,,,,,
51930,,intro_6,1421853,,instruct,,1,Next,,,,,,,,,,,,,,,,,,,,,
19949,,intro_7,1441805,,instruct,,1,Next,,,,,,,,,,,,,,,,,,,,,
31895,,intro_8,1473703,,instruct,,1,Next,,,,,,,,,,,,,,,,,,,,,
3352,,shortestpath_phase,1477060,,GW/westpalmbeach.png,,,,50,GW/boulder.png,GW/hanover.png,1,1,,,,GW/hanover.png,,,,,Two Edge Diff,Four Edge Six Edge,,,,,,
null,,html-keyboard-response,1478068,,<p></p>,,,,null,,,,,,,,,,,,,,,,,,,,
3149.999999999767,,shortestpath_phase,1481221,,GW/shreveport.png,,,,49,GW/boulder.png,GW/leesburg.png,1,1,,,,GW/boulder.png,,,,,One Edge Diff,Five Edge Six Edge,,,,,,
null,,html-keyboard-response,1482230,,<p></p>,,,,null,,,,,,,,,,,,,,,,,,,,
4167,,shortestpath_phase,1486399,,GW/hotsprings.png,,,,50,GW/huntsville.png,GW/peoria.png,1,1,,,,GW/peoria.png,,,,,One Edge Diff,Three Edge Four Edge,,,,,,
null,,html-keyboard-response,1487408,,<p></p>,,,,null,,,,,,,,,,,,,,,,,,,,
2885,,shortestpath_phase,1490296,,GW/shreveport.png,,,,49,GW/gatlinburg.png,GW/peoria.png,1,1,,,,GW/gatlinburg.png,,,,,Two Edge Diff,Two Edge Four Edge,,,,,,
null,,html-keyboard-response,1491303,,<p></p>,,,,null,,,,,,,,,,,,,,,,,,,,
3059,,shortestpath_phase,1494365,,GW/westpalmbeach.png,,,,50,GW/leesburg.png,GW/hanover.png,1,1,,,,GW/hanover.png,,,,,Two Edge Diff,Four Edge Six Edge,,,,,,
null,,html-keyboard-response,1495374,,<p></p>,,,,null,,,,,,,,,,,,,,,,,,,,
2526,,shortestpath_phase,1497903,,GW/boulder.png,,,,49,GW/huntsville.png,GW/shreveport.png,1,1,,,,GW/huntsville.png,,,,,Three Edge Diff,Three Edge Six Edge,,,,,,
null,,html-keyboard-response,1498913,,<p></p>,,,,null,,,,,,,,,,,,,,,,,,,,
3343,,shortestpath_phase,1502258,,GW/shreveport.png,,,,50,GW/carmel.png,GW/westpalmbeach.png,1,1,,,,GW/westpalmbeach.png,,,,,One Edge Diff,Three Edge Four Edge,,,,,,
null,,html-keyboard-response,1503268,,<p></p>,,,,null,,,,,,,,,,,,,,,,,,,,
2642,,shortestpath_phase,1505913,,GW/hanover.png,,,,49,GW/leesburg.png,GW/boulder.png,0,0.875,,,,GW/boulder.png,,,,,One Edge Diff,Two Edge Three Edge,,,,,,
null,,html-keyboard-response,1506922,,<p></p>,,,,null,,,,,,,,,,,,,,,,,,,,
3226,,shortestpath_phase,1510151,,GW/westpalmbeach.png,,,,50,GW/shreveport.png,GW/carmel.png,0,0.7777777777777778,,,,GW/shreveport.png,,,,,Two Edge Diff,Three Edge Five Edge,,,,,,
null,,html-keyboard-response,1511160,,<p></p>,,,,null,,,,,,,,,,,,,,,,,,,,
1538,,shortestpath_phase,1512700,,GW/hanover.png,,,,50,GW/boulder.png,GW/shreveport.png,0,0.7,,,,GW/boulder.png,,,,,One Edge Diff,Two Edge Three Edge,,,,,,
null,,html-keyboard-response,1513706,,<p></p>,,,,null,,,,,,,,,,,,,,,,,,,,
4464,,shortestpath_phase,1518173,,GW/shreveport.png,,,,50,GW/leesburg.png,GW/racine.png,1,0.7272727272727273,,,,GW/racine.png,,,,,Four Edge Diff,Two Edge Six Edge,,,,,,
null,,html-keyboard-response,1519181,,<p></p>,,,,null,,,,,,,,,,,,,,,,,,,,
3888,,shortestpath_phase,1523072,,GW/boulder.png,,,,49,GW/westpalmbeach.png,GW/huntsville.png,0,0.6666666666666666,,,,GW/huntsville.png,,,,,Four Edge Diff,Two Edge Six Edge,,,,,,
null,,html-keyboard-response,1524081,,<p></p>,,,,null,,,,,,,,,,,,,,,,,,,,
4025.000000000233,,shortestpath_phase,1528109,,GW/hanover.png,,,,49,GW/westpalmbeach.png,GW/leesburg.png,0,0.6153846153846154,,,,GW/leesburg.png,,,,,One Edge Diff,Three Edge Four Edge,,,,,,
null,,html-keyboard-response,1529117,,<p></p>,,,,null,,,,,,,,,,,,,,,,,,,,
3048,,shortestpath_phase,1532167,,GW/boulder.png,,,,49,GW/racine.png,GW/huntsville.png,0,0.5714285714285714,,,,GW/huntsville.png,,,,,Three Edge Diff,Two Edge Five Edge,,,,,,
null,,html-keyboard-response,1533174,,<p></p>,,,,null,,,,,,,,,,,,,,,,,,,,
2401,,shortestpath_phase,1535577,,GW/racine.png,,,,49,GW/gatlinburg.png,GW/leesburg.png,1,0.6,,,,GW/gatlinburg.png,,,,,Three Edge Diff,Two Edge Five Edge,,,,,,
null,,html-keyboard-response,1536585,,<p></p>,,,,null,,,,,,,,,,,,,,,,,,,,
3417,,shortestpath_phase,1540005,,GW/boulder.png,,,,50,GW/cornwall.png,GW/shreveport.png,0,0.5625,,,,GW/cornwall.png,,,,,Two Edge Diff,Three Edge Five Edge,,,,,,
null,,html-keyboard-response,1541014,,<p></p>,,,,null,,,,,,,,,,,,,,,,,,,,
2150,,shortestpath_phase,1543166,,GW/leesburg.png,,,,50,GW/racine.png,GW/peoria.png,1,0.5882352941176471,,,,GW/peoria.png,,,,,Three Edge Diff,Three Edge Six Edge,,,,,,
null,,html-keyboard-response,1544173,,<p></p>,,,,null,,,,,,,,,,,,,,,,,,,,
2173,,shortestpath_phase,1546348,,GW/racine.png,,,,50,GW/leesburg.png,GW/cornwall.png,1,0.6111111111111112,,,,GW/cornwall.png,,,,,Three Edge Diff,Three Edge Six Edge,,,,,,
null,,html-keyboard-response,1547356,,<p></p>,,,,null,,,,,,,,,,,,,,,,,,,,
3596,,shortestpath_phase,1550954,,GW/westpalmbeach.png,,,,49,GW/hotsprings.png,GW/huntsville.png,1,0.631578947368421,,,,GW/hotsprings.png,,,,,Three Edge Diff,Two Edge Five Edge,,,,,,
null,,html-keyboard-response,1551964,,<p></p>,,,,null,,,,,,,,,,,,,,,,,,,,
3641,,shortestpath_phase,1555607,,GW/leesburg.png,,,,50,GW/racine.png,GW/hanover.png,1,0.65,,,,GW/hanover.png,,,,,Two Edge Diff,Three Edge Five Edge,,,,,,
null,,html-keyboard-response,1556616,,<p></p>,,,,null,,,,,,,,,,,,,,,,,,,,
2646.000000000233,,shortestpath_phase,1559264,,GW/shreveport.png,,,,49,GW/huntsville.png,GW/newhope.png,0,0.6190476190476191,,,,GW/newhope.png,,,,,Two Edge Diff,Three Edge Five Edge,,,,,,
null,,html-keyboard-response,1560274,,<p></p>,,,,null,,,,,,,,,,,,,,,,,,,,
4765.000000000233,,shortestpath_phase,1565043,,GW/racine.png,,,,50,GW/huntsville.png,GW/boulder.png,0,0.5909090909090909,,,,GW/huntsville.png,,,,,One Edge Diff,Four Edge Five Edge,,,,,,
null,,html-keyboard-response,1566052,,<p></p>,,,,null,,,,,,,,,,,,,,,,,,,,
3996,,shortestpath_phase,1570050,,GW/hotsprings.png,,,,50,GW/leesburg.png,GW/cornwall.png,1,0.6086956521739131,,,,GW/cornwall.png,,,,,Three Edge Diff,Two Edge Five Edge,,,,,,
null,,html-keyboard-response,1571057,,<p></p>,,,,null,,,,,,,,,,,,,,,,,,,,
5585,,shortestpath_phase,1576645,,GW/huntsville.png,,,,49,GW/gatlinburg.png,GW/shreveport.png,1,0.625,,,,GW/gatlinburg.png,,,,,Two Edge Diff,Three Edge Five Edge,,,,,,
null,,html-keyboard-response,1577652,,<p></p>,,,,null,,,,,,,,,,,,,,,,,,,,
5587,,shortestpath_phase,1583242,,GW/newhope.png,,,,49,GW/westpalmbeach.png,GW/boulder.png,1,0.64,,,,GW/westpalmbeach.png,,,,,Two Edge Diff,Two Edge Four Edge,,,,,,
null,,html-keyboard-response,1584252,,<p></p>,,,,null,,,,,,,,,,,,,,,,,,,,
2517.999999999767,,shortestpath_phase,1586773,,GW/shreveport.png,,,,49,GW/gatlinburg.png,GW/huntsville.png,1,0.6538461538461539,,,,GW/gatlinburg.png,,,,,Three Edge Diff,Three Edge Six Edge,,,,,,
null,,html-keyboard-response,1587780,,<p></p>,,,,null,,,,,,,,,,,,,,,,,,,,
4077,,shortestpath_phase,1591860,,GW/leesburg.png,,,,50,GW/racine.png,GW/westpalmbeach.png,0,0.6296296296296297,,,,GW/racine.png,,,,,One Edge Diff,Five Edge Six Edge,,,,,,
null,,html-keyboard-response,1592868,,<p></p>,,,,null,,,,,,,,,,,,,,,,,,,,
4946,,shortestpath_phase,1597816,,GW/westpalmbeach.png,,,,49,GW/carmel.png,GW/boulder.png,1,0.6428571428571429,,,,GW/carmel.png,,,,,One Edge Diff,Five Edge Six Edge,,,,,,
null,,html-keyboard-response,1598823,,<p></p>,,,,null,,,,,,,,,,,,,,,,,,,,
3047,,shortestpath_phase,1601873,,GW/shreveport.png,,,,49,GW/racine.png,GW/boulder.png,1,0.6551724137931034,,,,GW/racine.png,,,,,Three Edge Diff,Three Edge Six Edge,,,,,,
null,,html-keyboard-response,1602880,,<p></p>,,,,null,,,,,,,,,,,,,,,,,,,,
6919,,shortestpath_phase,1609801,,GW/leesburg.png,,,,49,GW/gatlinburg.png,GW/westpalmbeach.png,1,0.6666666666666666,,,,GW/gatlinburg.png,,,,,Two Edge Diff,Four Edge Six Edge,,,,,,
null,,html-keyboard-response,1610809,,<p></p>,,,,null,,,,,,,,,,,,,,,,,,,,
4760,,shortestpath_phase,1615572,,GW/hanover.png,,,,50,GW/shreveport.png,GW/westpalmbeach.png,0,0.6451612903225806,,,,GW/shreveport.png,,,,,One Edge Diff,Three Edge Four Edge,,,,,,
null,,html-keyboard-response,1616580,,<p></p>,,,,null,,,,,,,,,,,,,,,,,,,,
3717,,shortestpath_phase,1620300,,GW/racine.png,,,,50,GW/gatlinburg.png,GW/carmel.png,0,0.625,,,,GW/gatlinburg.png,,,,,Two Edge Diff,Two Edge Four Edge,,,,,,
null,,html-keyboard-response,1621307,,<p></p>,,,,null,,,,,,,,,,,,,,,,,,,,
4205.000000000233,,shortestpath_phase,1625515,,GW/huntsville.png,,,,49,GW/hotsprings.png,GW/westpalmbeach.png,1,0.6363636363636364,,,,GW/hotsprings.png,,,,,One Edge Diff,Four Edge Five Edge,,,,,,
null,,html-keyboard-response,1626522,,<p></p>,,,,null,,,,,,,,,,,,,,,,,,,,
4170,,shortestpath_phase,1630695,,GW/boulder.png,,,,50,GW/racine.png,GW/hanover.png,1,0.6470588235294118,,,,GW/hanover.png,,,,,Three Edge Diff,Two Edge Five Edge,,,,,,
null,,html-keyboard-response,1631702,,<p></p>,,,,null,,,,,,,,,,,,,,,,,,,,
4354,,shortestpath_phase,1636058,,GW/shreveport.png,,,,49,GW/racine.png,GW/huntsville.png,1,0.6571428571428571,,,,GW/racine.png,,,,,Three Edge Diff,Three Edge Six Edge,,,,,,
null,,html-keyboard-response,1637066,,<p></p>,,,,null,,,,,,,,,,,,,,,,,,,,
6825,,shortestpath_phase,1643894,,GW/westpalmbeach.png,,,,50,GW/newhope.png,GW/leesburg.png,0,0.6388888888888888,,,,GW/newhope.png,,,,,Four Edge Diff,Two Edge Six Edge,,,,,,
null,,html-keyboard-response,1644903,,<p></p>,,,,null,,,,,,,,,,,,,,,,,,,,
6296,,shortestpath_phase,1651202,,GW/huntsville.png,,,,50,GW/gatlinburg.png,GW/racine.png,0,0.6216216216216216,,,,GW/gatlinburg.png,,,,,One Edge Diff,Three Edge Four Edge,,,,,,
null,,html-keyboard-response,1652210,,<p></p>,,,,null,,,,,,,,,,,,,,,,,,,,
5873,,shortestpath_phase,1658085,,GW/leesburg.png,,,,49,GW/newhope.png,GW/shreveport.png,1,0.631578947368421,,,,GW/newhope.png,,,,,Two Edge Diff,Four Edge Six Edge,,,,,,
null,,html-keyboard-response,1659092,,<p></p>,,,,null,,,,,,,,,,,,,,,,,,,,
5870,,shortestpath_phase,1664965,,GW/shreveport.png,,,,50,GW/leesburg.png,GW/gatlinburg.png,1,0.6410256410256411,,,,GW/gatlinburg.png,,,,,Four Edge Diff,Two Edge Six Edge,,,,,,
null,,html-keyboard-response,1665975,,<p></p>,,,,null,,,,,,,,,,,,,,,,,,,,
5583,,shortestpath_phase,1671560,,GW/leesburg.png,,,,49,GW/racine.png,GW/cornwall.png,0,0.625,,,,GW/cornwall.png,,,,,Two Edge Diff,Three Edge Five Edge,,,,,,
null,,html-keyboard-response,1672567,,<p></p>,,,,null,,,,,,,,,,,,,,,,,,,,
4049,,shortestpath_phase,1676618,,GW/westpalmbeach.png,,,,50,GW/newhope.png,GW/boulder.png,0,0.6097560975609756,,,,GW/newhope.png,,,,,Four Edge Diff,Two Edge Six Edge,,,,,,
null,,html-keyboard-response,1677629,,<p></p>,,,,null,,,,,,,,,,,,,,,,,,,,
5274,,shortestpath_phase,1682906,,GW/huntsville.png,,,,50,GW/gatlinburg.png,GW/boulder.png,1,0.6190476190476191,,,,GW/boulder.png,,,,,One Edge Diff,Two Edge Three Edge,,,,,,
null,,html-keyboard-response,1683913,,<p></p>,,,,null,,,,,,,,,,,,,,,,,,,,
4187,,shortestpath_phase,1688103,,GW/westpalmbeach.png,,,,49,GW/peoria.png,GW/leesburg.png,1,0.627906976744186,,,,GW/peoria.png,,,,,Two Edge Diff,Four Edge Six Edge,,,,,,
null,,html-keyboard-response,1689111,,<p></p>,,,,null,,,,,,,,,,,,,,,,,,,,
2479,,shortestpath_phase,1691593,,GW/carmel.png,,,,49,GW/shreveport.png,GW/cornwall.png,0,0.6136363636363636,,,,GW/cornwall.png,,,,,Two Edge Diff,Two Edge Four Edge,,,,,,
null,,html-keyboard-response,1692599,,<p></p>,,,,null,,,,,,,,,,,,,,,,,,,,
4855,,shortestpath_phase,1697457,,GW/boulder.png,,,,50,GW/shreveport.png,GW/peoria.png,1,0.6222222222222222,,,,GW/peoria.png,,,,,Three Edge Diff,Three Edge Six Edge,,,,,,
null,,html-keyboard-response,1698467,,<p></p>,,,,null,,,,,,,,,,,,,,,,,,,,
null,,shortestpath_phase,1705971,,GW/leesburg.png,,,,null,GW/shreveport.png,GW/carmel.png,0,0.6086956521739131,,,,GW/carmel.png,,,,,Four Edge Diff,Two Edge Six Edge,,,,,,
null,,warning_page,1708979,,warning,,,,null,,,,,,,,,,,,,,,,,,,,
null,,html-keyboard-response,1709982,,<p></p>,,,,null,,,,,,,,,,,,,,,,,,,,
1173,,shortestpath_phase,1711157,,GW/boulder.png,,,,49,GW/peoria.png,GW/racine.png,1,0.6170212765957447,,,,GW/peoria.png,,,,,Three Edge Diff,Three Edge Six Edge,,,,,,
null,,html-keyboard-response,1712167,,<p></p>,,,,null,,,,,,,,,,,,,,,,,,,,
3998,,shortestpath_phase,1716167,,GW/shreveport.png,,,,50,GW/huntsville.png,GW/leesburg.png,0,0.6041666666666666,,,,GW/huntsville.png,,,,,One Edge Diff,Five Edge Six Edge,,,,,,
null,,html-keyboard-response,1717174,,<p></p>,,,,null,,,,,,,,,,,,,,,,,,,,
2778,,shortestpath_phase,1719955,,GW/boulder.png,,,,49,GW/westpalmbeach.png,GW/peoria.png,0,0.5918367346938775,,,,GW/peoria.png,,,,,Four Edge Diff,Two Edge Six Edge,,,,,,
null,,html-keyboard-response,1720961,,<p></p>,,,,null,,,,,,,,,,,,,,,,,,,,
4576,,shortestpath_phase,1725539,,GW/westpalmbeach.png,,,,49,GW/huntsville.png,GW/cornwall.png,0,0.58,,,,GW/cornwall.png,,,,,Two Edge Diff,Three Edge Five Edge,,,,,,
null,,html-keyboard-response,1726547,,<p></p>,,,,null,,,,,,,,,,,,,,,,,,,,
4270,,shortestpath_phase,1730819,,GW/racine.png,,,,49,GW/shreveport.png,GW/carmel.png,1,0.5882352941176471,,,,GW/shreveport.png,,,,,Two Edge Diff,Two Edge Four Edge,,,,,,
null,,html-keyboard-response,1731827,,<p></p>,,,,null,,,,,,,,,,,,,,,,,,,,
2484.000000000233,,shortestpath_phase,1734314,,GW/westpalmbeach.png,,,,50,GW/leesburg.png,GW/hotsprings.png,1,0.5961538461538461,,,,GW/hotsprings.png,,,,,Four Edge Diff,Two Edge Six Edge,,,,,,
null,,html-keyboard-response,1735324,,<p></p>,,,,null,,,,,,,,,,,,,,,,,,,,
2425,,shortestpath_phase,1737752,,GW/shreveport.png,,,,49,GW/gatlinburg.png,GW/huntsville.png,1,0.6037735849056604,,,,GW/gatlinburg.png,,,,,Three Edge Diff,Two Edge Five Edge,,,,,,
null,,html-keyboard-response,1738762,,<p></p>,,,,null,,,,,,,,,,,,,,,,,,,,
2045,,shortestpath_phase,1740809,,GW/racine.png,,,,50,GW/boulder.png,GW/carmel.png,1,0.6111111111111112,,,,GW/carmel.png,,,,,One Edge Diff,Four Edge Five Edge,,,,,,
null,,html-keyboard-response,1741818,,<p></p>,,,,null,,,,,,,,,,,,,,,,,,,,
1684,,shortestpath_phase,1743504,,GW/leesburg.png,,,,49,GW/peoria.png,GW/westpalmbeach.png,1,0.6181818181818182,,,,GW/peoria.png,,,,,Four Edge Diff,Two Edge Six Edge,,,,,,
null,,html-keyboard-response,1744512,,<p></p>,,,,null,,,,,,,,,,,,,,,,,,,,
4276.999999999767,,shortestpath_phase,1748793,,GW/hotsprings.png,,,,49,GW/westpalmbeach.png,GW/leesburg.png,1,0.625,,,,GW/westpalmbeach.png,,,,,Three Edge Diff,Two Edge Five Edge,,,,,,
null,,html-keyboard-response,1749809,,<p></p>,,,,null,,,,,,,,,,,,,,,,,,,,
3411,,shortestpath_phase,1753223,,GW/boulder.png,,,,49,GW/shreveport.png,GW/peoria.png,0,0.6140350877192983,,,,GW/peoria.png,,,,,Three Edge Diff,Two Edge Five Edge,,,,,,
null,,html-keyboard-response,1754229,,<p></p>,,,,null,,,,,,,,,,,,,,,,,,,,
3670,,shortestpath_phase,1757902,,GW/leesburg.png,,,,49,GW/carmel.png,GW/hotsprings.png,1,0.6206896551724138,,,,GW/carmel.png,,,,,Three Edge Diff,Three Edge Six Edge,,,,,,
null,,html-keyboard-response,1758912,,<p></p>,,,,null,,,,,,,,,,,,,,,,,,,,
2818,,shortestpath_phase,1761732,,GW/racine.png,,,,49,GW/cornwall.png,GW/leesburg.png,1,0.6271186440677966,,,,GW/cornwall.png,,,,,Three Edge Diff,Two Edge Five Edge,,,,,,
null,,html-keyboard-response,1762741,,<p></p>,,,,null,,,,,,,,,,,,,,,,,,,,
2931,,shortestpath_phase,1765675,,GW/westpalmbeach.png,,,,50,GW/boulder.png,GW/hotsprings.png,1,0.6333333333333333,,,,GW/hotsprings.png,,,,,Four Edge Diff,Two Edge Six Edge,,,,,,
null,,html-keyboard-response,1766685,,<p></p>,,,,null,,,,,,,,,,,,,,,,,,,,
3924.999999999767,,shortestpath_phase,1770613,,GW/peoria.png,,,,50,GW/shreveport.png,GW/gatlinburg.png,1,0.639344262295082,,,,GW/gatlinburg.png,,,,,Two Edge Diff,Two Edge Four Edge,,,,,,
null,,html-keyboard-response,1771621,,<p></p>,,,,null,,,,,,,,,,,,,,,,,,,,
4170.000000000233,,shortestpath_phase,1775794,,GW/racine.png,,,,49,GW/shreveport.png,GW/leesburg.png,1,0.6451612903225806,,,,GW/shreveport.png,,,,,Three Edge Diff,Three Edge Six Edge,,,,,,
null,,html-keyboard-response,1776802,,<p></p>,,,,null,,,,,,,,,,,,,,,,,,,,
2424,,shortestpath_phase,1779229,,GW/boulder.png,,,,49,GW/hanover.png,GW/westpalmbeach.png,1,0.6507936507936508,,,,GW/hanover.png,,,,,Four Edge Diff,Two Edge Six Edge,,,,,,
null,,html-keyboard-response,1780236,,<p></p>,,,,null,,,,,,,,,,,,,,,,,,,,
2566,,shortestpath_phase,1782805,,GW/shreveport.png,,,,50,GW/peoria.png,GW/boulder.png,0,0.640625,,,,GW/peoria.png,,,,,One Edge Diff,Four Edge Five Edge,,,,,,
null,,html-keyboard-response,1783815,,<p></p>,,,,null,,,,,,,,,,,,,,,,,,,,
3986,,shortestpath_phase,1787803,,GW/westpalmbeach.png,,,,50,GW/huntsville.png,GW/newhope.png,1,0.6461538461538462,,,,GW/newhope.png,,,,,Three Edge Diff,Two Edge Five Edge,,,,,,
null,,html-keyboard-response,1788810,,<p></p>,,,,null,,,,,,,,,,,,,,,,,,,,
1350.9999999997672,,shortestpath_phase,1790165,,GW/leesburg.png,,,,49,GW/peoria.png,GW/shreveport.png,1,0.6515151515151515,,,,GW/peoria.png,,,,,Four Edge Diff,Two Edge Six Edge,,,,,,
null,,html-keyboard-response,1791172,,<p></p>,,,,null,,,,,,,,,,,,,,,,,,,,
4553,,shortestpath_phase,1795728,,GW/shreveport.png,,,,49,GW/hanover.png,GW/huntsville.png,1,0.6567164179104478,,,,GW/hanover.png,,,,,Two Edge Diff,Three Edge Five Edge,,,,,,
null,,html-keyboard-response,1796736,,<p></p>,,,,null,,,,,,,,,,,,,,,,,,,,
3633.000000000233,,shortestpath_phase,1800372,,GW/hotsprings.png,,,,49,GW/carmel.png,GW/huntsville.png,1,0.6617647058823529,,,,GW/carmel.png,,,,,One Edge Diff,Three Edge Four Edge,,,,,,
null,,html-keyboard-response,1801381,,<p></p>,,,,null,,,,,,,,,,,,,,,,,,,,
4173,,shortestpath_phase,1805557,,GW/westpalmbeach.png,,,,49,GW/boulder.png,GW/huntsville.png,0,0.6521739130434783,,,,GW/huntsville.png,,,,,One Edge Diff,Five Edge Six Edge,,,,,,
null,,html-keyboard-response,1806567,,<p></p>,,,,null,,,,,,,,,,,,,,,,,,,,
5069,,shortestpath_phase,1811638,,GW/leesburg.png,,,,49,GW/gatlinburg.png,GW/shreveport.png,1,0.6571428571428571,,,,GW/gatlinburg.png,,,,,Two Edge Diff,Four Edge Six Edge,,,,,,
null,,html-keyboard-response,1812648,,<p></p>,,,,null,,,,,,,,,,,,,,,,,,,,
1212.9999999997672,,shortestpath_phase,1813863,,GW/newhope.png,,,,50,GW/shreveport.png,GW/peoria.png,1,0.6619718309859155,,,,GW/peoria.png,,,,,One Edge Diff,Two Edge Three Edge,,,,,,
null,,html-keyboard-response,1814873,,<p></p>,,,,null,,,,,,,,,,,,,,,,,,,,
4832.000000000233,,shortestpath_phase,1819707,,GW/leesburg.png,,,,49,GW/shreveport.png,GW/hotsprings.png,0,0.6527777777777778,,,,GW/hotsprings.png,,,,,One Edge Diff,Five Edge Six Edge,,,,,,
null,,html-keyboard-response,1820718,,<p></p>,,,,null,,,,,,,,,,,,,,,,,,,,
3406,,shortestpath_phase,1824126,,GW/racine.png,,,,50,GW/peoria.png,GW/cornwall.png,1,0.6575342465753424,,,,GW/cornwall.png,,,,,One Edge Diff,Two Edge Three Edge,,,,,,
null,,html-keyboard-response,1825133,,<p></p>,,,,null,,,,,,,,,,,,,,,,,,,,
4639,,shortestpath_phase,1829774,,GW/westpalmbeach.png,,,,50,GW/newhope.png,GW/huntsville.png,0,0.6486486486486487,,,,GW/newhope.png,,,,,Three Edge Diff,Three Edge Six Edge,,,,,,
null,,html-keyboard-response,1830780,,<p></p>,,,,null,,,,,,,,,,,,,,,,,,,,
4967,,shortestpath_phase,1835751,,GW/shreveport.png,,,,50,GW/peoria.png,GW/leesburg.png,0,0.64,,,,GW/peoria.png,,,,,Two Edge Diff,Four Edge Six Edge,,,,,,
null,,html-keyboard-response,1836758,,<p></p>,,,,null,,,,,,,,,,,,,,,,,,,,
4278,,shortestpath_phase,1841040,,GW/hotsprings.png,,,,50,GW/huntsville.png,GW/leesburg.png,0,0.631578947368421,,,,GW/huntsville.png,,,,,One Edge Diff,Four Edge Five Edge,,,,,,
null,,html-keyboard-response,1842048,,<p></p>,,,,null,,,,,,,,,,,,,,,,,,,,
3655,,shortestpath_phase,1845706,,GW/shreveport.png,,,,49,GW/gatlinburg.png,GW/boulder.png,1,0.6363636363636364,,,,GW/gatlinburg.png,,,,,Three Edge Diff,Three Edge Six Edge,,,,,,
null,,html-keyboard-response,1846715,,<p></p>,,,,null,,,,,,,,,,,,,,,,,,,,
4265.999999999767,,shortestpath_phase,1850984,,GW/huntsville.png,,,,49,GW/boulder.png,GW/shreveport.png,1,0.6410256410256411,,,,GW/boulder.png,,,,,Three Edge Diff,Two Edge Five Edge,,,,,,
null,,html-keyboard-response,1851992,,<p></p>,,,,null,,,,,,,,,,,,,,,,,,,,
2946,,shortestpath_phase,1854940,,GW/westpalmbeach.png,,,,50,GW/peoria.png,GW/boulder.png,0,0.6329113924050633,,,,GW/peoria.png,,,,,Two Edge Diff,Four Edge Six Edge,,,,,,
null,,html-keyboard-response,1855950,,<p></p>,,,,null,,,,,,,,,,,,,,,,,,,,
4329,,shortestpath_phase,1860282,,GW/boulder.png,,,,50,GW/shreveport.png,GW/hanover.png,1,0.6375,,,,GW/hanover.png,,,,,Three Edge Diff,Two Edge Five Edge,,,,,,
null,,html-keyboard-response,1861290,,<p></p>,,,,null,,,,,,,,,,,,,,,,,,,,
4747,,shortestpath_phase,1866040,,GW/hotsprings.png,,,,49,GW/westpalmbeach.png,GW/boulder.png,1,0.6419753086419753,,,,GW/westpalmbeach.png,,,,,Two Edge Diff,Two Edge Four Edge,,,,,,
null,,html-keyboard-response,1867049,,<p></p>,,,,null,,,,,,,,,,,,,,,,,,,,
4749,,shortestpath_phase,1871801,,GW/carmel.png,,,,50,GW/newhope.png,GW/leesburg.png,1,0.6463414634146342,,,,GW/leesburg.png,,,,,One Edge Diff,Two Edge Three Edge,,,,,,
null,,html-keyboard-response,1872808,,<p></p>,,,,null,,,,,,,,,,,,,,,,,,,,
1435.0000000002328,,shortestpath_phase,1874247,,GW/gatlinburg.png,,,,50,GW/leesburg.png,GW/racine.png,1,0.6506024096385542,,,,GW/racine.png,,,,,Two Edge Diff,Two Edge Four Edge,,,,,,
null,,html-keyboard-response,1875256,,<p></p>,,,,null,,,,,,,,,,,,,,,,,,,,
4622.000000000233,,shortestpath_phase,1879881,,GW/shreveport.png,,,,49,GW/huntsville.png,GW/carmel.png,0,0.6428571428571429,,,,GW/carmel.png,,,,,One Edge Diff,Four Edge Five Edge,,,,,,
null,,html-keyboard-response,1880889,,<p></p>,,,,null,,,,,,,,,,,,,,,,,,,,
11481,,intro_1,1892372,,instruct,,0,,,,,,,,,,,,,,,,,,,,,,
6044,,intro_2,1898422,,instruct,,1,Next,,,,,,,,,,,,,,,,,,,,,
27245,,intro_3,1925671,,instruct,,1,Next,,,,,,,,,,,,,,,,,,,,,
10497,,intro_4,1936172,,instruct,,1,Next,,,,,,,,,,,,,,,,,,,,,
6545,,intro_5,1942721,,instruct,,1,Next,,,,,,,,,,,,,,,,,,,,,
59131,,intro_6,2001856,,instruct,,1,Next,,,,,,,,,,,,,,,,,,,,,
,,Goal Directed Planning,2185218,,GDP-0,,,,,,,,,,,,,,,,,,,gatlinburg.png,newhope.png,,undefineddrag04imgR:[x1:315 x2:1074 y1:228 y2:210]drag04imgL:[x1:315 x2:74 y1:228 y2:210],undefineddrag02imgR:[x1:591 x2:1074 y1:184 y2:210]drag02imgL:[x1:591 x2:74 y1:184 y2:210],true
,,Goal Directed Planning,2238999,,GDP-1,,,,,,,,,,,,,,,,,,,westpalmbeach.png,huntsville.png,,undefinedimgRdrag07:[x1:1074 x2:621 y1:210 y2:230.5]drag07imgL:[x1:621 x2:74 y1:230.5 y2:210],undefineddrag09imgR:[x1:603 x2:1074 y1:175.5 y2:210]drag09imgL:[x1:603 x2:74 y1:175.5 y2:210],true
,,Goal Directed Planning,2277149,,GDP-2,,,,,,,,,,,,,,,,,,,shreveport.png,huntsville.png,,undefinedimgRdrag02:[x1:1074 x2:598 y1:210 y2:166.5]drag02imgL:[x1:598 x2:74 y1:166.5 y2:210],,false
,,Goal Directed Planning,2293051,,GDP-3,,,,,,,,,,,,,,,,,,,gatlinburg.png,huntsville.png,,undefinedimgRdrag02:[x1:1074 x2:638 y1:210 y2:204.5]drag02imgL:[x1:638 x2:74 y1:204.5 y2:210],,false
,,Goal Directed Planning,2313633,,GDP-4,,,,,,,,,,,,,,,,,,,hotsprings.png,westpalmbeach.png,,undefineddrag01imgR:[x1:528 x2:1074 y1:186.5 y2:210]drag01imgL:[x1:528 x2:74 y1:186.5 y2:210],,false
,,Goal Directed Planning,2342900,,GDP-5,,,,,,,,,,,,,,,,,,,newhope.png,boulder.png,,undefinedimgLdrag04:[x1:74 x2:558 y1:210 y2:172.5]drag04imgR:[x1:558 x2:1074 y1:172.5 y2:210],,false
,,Goal Directed Planning,2364883,,GDP-6,,,,,,,,,,,,,,,,,,,gatlinburg.png,leesburg.png,,undefinedimgLdrag06:[x1:74 x2:614 y1:210 y2:250]drag06imgR:[x1:614 x2:1074 y1:250 y2:210],,false
,,Goal Directed Planning,2385735,,GDP-7,,,,,,,,,,,,,,,,,,,shreveport.png,peoria.png,,undefineddrag05imgR:[x1:579 x2:1074 y1:162.5 y2:210]drag05imgL:[x1:579 x2:74 y1:162.5 y2:210],,false
,,Goal Directed Planning,2409635,,GDP-8,,,,,,,,,,,,,,,,,,,shreveport.png,racine.png,,undefineddrag03imgR:[x1:629 x2:1074 y1:192.5 y2:210]drag03imgL:[x1:629 x2:74 y1:192.5 y2:210],,false
,,Goal Directed Planning,2452268,,GDP-9,,,,,,,,,,,,,,,,,,,carmel.png,newhope.png,,undefineddrag11imgL:[x1:590 x2:74 y1:172.5 y2:210]drag11imgR:[x1:590 x2:1074 y1:172.5 y2:210],,false
,,Goal Directed Planning,2557051,,GDP-10,,,,,,,,,,,,,,,,,,,westpalmbeach.png,hanover.png,,undefinedimgLdrag03:[x1:74 x2:624 y1:210 y2:197.5]drag03imgR:[x1:624 x2:1074 y1:197.5 y2:210],undefinedimgLdrag09:[x1:74 x2:601 y1:210 y2:196.5]imgRdrag09:[x1:1074 x2:601 y1:210 y2:196.5],true
,,Goal Directed Planning,2593317,,GDP-11,,,,,,,,,,,,,,,,,,,shreveport.png,newhope.png,,undefinedimgLdrag02:[x1:74 x2:345 y1:210 y2:256.5]drag02drag03:[x1:345 x2:668 y1:256.5 y2:249.5]drag03imgR:[x1:668 x2:1074 y1:249.5 y2:210],,false
,,Goal Directed Planning,2675102,,GDP-12,,,,,,,,,,,,,,,,,,,westpalmbeach.png,cornwall.png,,undefineddrag04imgL:[x1:396 x2:74 y1:219.5 y2:210]drag04drag12:[x1:396 x2:671 y1:219.5 y2:181.5]drag12imgR:[x1:671 x2:1074 y1:181.5 y2:210],,false
