rt,responses,trial_type,time_elapsed,stimulus,graphorder,button_pressed,response,key_press,stimulus_left,stimulus_right,accuracy,cumulative_accuracy,stimulus_down_left,stimulus_down_mid,stimulus_down_right,stimulus_correct,stimulus_short,stimulus_far,weighted_accuracy,condition,specific_pairs
3094.5,{worker_id:5685850c333cbd000d4e042f},id_enter,3096,id_enter,GW/jukebox.jpg; GW/gong.jpg; GW/basket.jpg; GW/barrel.jpg; GW/soldier.jpg; GW/dustpan.jpg; GW/globe.jpg; GW/snail.jpg; GW/teeth.jpg; GW/hat.jpg; GW/wheelchair.jpg; GW/paint.jpg; GW/camera.jpg,,,,,,,,,,,,,,,,
4820.700000047684,,fullscreen,7918,fullscreen,,0,,,,,,,,,,,,,,,
10396.100000023842,,intro_1,18315,instruct,,0,,,,,,,,,,,,,,,
9337.300000011921,,intro_2,27653,instruct,,1,Next,,,,,,,,,,,,,,
6353.300000011921,,intro_3,34007,instruct,,1,Next,,,,,,,,,,,,,,
null,,learn_prac_1,36008,lean_prac_1,,,,null,,,,,,,,,,,,,
null,,html-keyboard-response,37009,<p></p>,,,,null,,,,,,,,,,,,,
1390.699999988079,,intro_1,38400,instruct,,0,,,,,,,,,,,,,,,
3774.900000035763,,intro_2,42176,instruct,,1,Next,,,,,,,,,,,,,,
null,,learn_prac_2,44178,lean_prac_2,,,,null,,,,,,,,,,,,,
null,,html-keyboard-response,45179,<p></p>,,,,null,,,,,,,,,,,,,
1900.6000000238419,,intro_1,47081,instruct,,0,,,,,,,,,,,,,,,
2156.300000011921,,intro_2,49237,instruct,,1,Next,,,,,,,,,,,,,,
11344.800000011921,,intro_3,60583,instruct,,1,Next,,,,,,,,,,,,,,
null,,prac_atten_color_black,61476,black_plus_sign,,,,null,,,,,,,,,,,,,
null,,prac_atten_color,61987,prac_stop_color,,,,null,,,,,,,,,,,,,
145.89999997615814,,prac_atten_color_black,63988,black_plus_sign,,,,49,,,,,,,,,,,,,
null,,prac_atten_color_black,64881,black_plus_sign,,,,null,,,,,,,,,,,,,
357.69999998807907,,prac_atten_color,65454,prac_stop_color,,,,50,,,,,,,,,,,,,
null,,prac_atten_color_black,67455,black_plus_sign,,,,null,,,,,,,,,,,,,
null,,prac_atten_color_black,68295,black_plus_sign,,,,null,,,,,,,,,,,,,
533.5,,prac_atten_color,69258,prac_stop_color,,,,50,,,,,,,,,,,,,
null,,prac_atten_color_black,71259,black_plus_sign,,,,null,,,,,,,,,,,,,
null,,prac_atten_color_black,71702,black_plus_sign,,,,null,,,,,,,,,,,,,
394.5,,prac_atten_color,72145,prac_stop_color,,,,49,,,,,,,,,,,,,
null,,prac_atten_color_black,74147,black_plus_sign,,,,null,,,,,,,,,,,,,
null,,prac_atten_color_black,75107,black_plus_sign,,,,null,,,,,,,,,,,,,
422.7000000476837,,prac_atten_color,75747,prac_stop_color,,,,50,,,,,,,,,,,,,
null,,prac_atten_color_black,77750,black_plus_sign,,,,null,,,,,,,,,,,,,
null,,prac_atten_color_black,78513,black_plus_sign,,,,null,,,,,,,,,,,,,
null,,prac_atten_color,78945,prac_stop_color,,,,null,,,,,,,,,,,,,
56.09999996423721,,prac_atten_color_black,80947,black_plus_sign,,,,50,,,,,,,,,,,,,
null,,prac_atten_color_black,81919,black_plus_sign,,,,null,,,,,,,,,,,,,
360,,prac_atten_color,82858,prac_stop_color,,,,49,,,,,,,,,,,,,
null,,prac_atten_color_black,84860,black_plus_sign,,,,null,,,,,,,,,,,,,
null,,prac_atten_color_black,85326,black_plus_sign,,,,null,,,,,,,,,,,,,
348.39999997615814,,prac_atten_color,86029,prac_stop_color,,,,50,,,,,,,,,,,,,
null,,prac_atten_color_black,88031,black_plus_sign,,,,null,,,,,,,,,,,,,
null,,prac_atten_color_black,88731,black_plus_sign,,,,null,,,,,,,,,,,,,
337.4000000357628,,prac_atten_color,89294,prac_stop_color,,,,49,,,,,,,,,,,,,
null,,prac_atten_color_black,91295,black_plus_sign,,,,null,,,,,,,,,,,,,
null,,prac_atten_color_black,92137,black_plus_sign,,,,null,,,,,,,,,,,,,
null,,prac_atten_color,92789,prac_stop_color,,,,null,,,,,,,,,,,,,
6.199999988079071,,prac_atten_color_black,94791,black_plus_sign,,,,49,,,,,,,,,,,,,
18623,,attentioncheck_feedback,113414,cross_check_feedback,,0,,,,,,,,,,,,,,,
11958.400000035763,,last_instruct,125373,instruct,,,,32,,,,,,,,,,,,,
null,,learn_phase(without_color),127376,black_plus_sign,,,,null,GW/globe.jpg,GW/teeth.jpg,,,,,,,,,,,
null,,black_cross(without_color),128018,blue,,,,null,GW/globe.jpg,GW/teeth.jpg,,,,,,,,,,,
null,,rt_plussign_withcolor,128520,blue,,,,null,GW/globe.jpg,GW/teeth.jpg,,,,,,,,,,,
938.9000000357628,,rt_thecrossant_black,129883,black_plus_sign,,,,49,,,1,1,,,,,,,,,
null,,color_black,129985,black_plus_sign,,,,null,,,,,,,,,,,,,
null,,learn_phase(without_color),131987,black_plus_sign,,,,null,GW/basket.jpg,GW/wheelchair.jpg,,,,,,,,,,,
null,,black_cross(without_color),133082,blue,,,,null,GW/basket.jpg,GW/wheelchair.jpg,,,,,,,,,,,
null,,rt_plussign_withcolor,133584,blue,,,,null,GW/basket.jpg,GW/wheelchair.jpg,,,,,,,,,,,
868,,rt_thecrossant_black,134494,black_plus_sign,,,,49,,,1,1,,,,,,,,,
null,,color_black,134595,black_plus_sign,,,,null,,,,,,,,,,,,,
null,,learn_phase(without_color),136598,black_plus_sign,,,,null,GW/dustpan.jpg,GW/teeth.jpg,,,,,,,,,,,
null,,black_cross(without_color),137426,blue,,,,null,GW/dustpan.jpg,GW/teeth.jpg,,,,,,,,,,,
null,,rt_plussign_withcolor,137927,blue,,,,null,GW/dustpan.jpg,GW/teeth.jpg,,,,,,,,,,,
1275.699999988079,,rt_thecrossant_black,139104,black_plus_sign,,,,49,,,1,1,,,,,,,,,
null,,color_black,139205,black_plus_sign,,,,null,,,,,,,,,,,,,
null,,learn_phase(without_color),141208,black_plus_sign,,,,null,GW/globe.jpg,GW/camera.jpg,,,,,,,,,,,
null,,black_cross(without_color),141764,green,,,,null,GW/globe.jpg,GW/camera.jpg,,,,,,,,,,,
null,,rt_plussign_withcolor,142266,green,,,,null,GW/globe.jpg,GW/camera.jpg,,,,,,,,,,,
995.5999999642372,,rt_thecrossant_black,143715,black_plus_sign,,,,50,,,1,1,,,,,,,,,
null,,color_black,143817,black_plus_sign,,,,null,,,,,,,,,,,,,
null,,learn_phase(without_color),145820,black_plus_sign,,,,null,GW/globe.jpg,GW/teeth.jpg,,,,,,,,,,,
null,,black_cross(without_color),146434,blue,,,,null,GW/globe.jpg,GW/teeth.jpg,,,,,,,,,,,
null,,rt_plussign_withcolor,146936,blue,,,,null,GW/globe.jpg,GW/teeth.jpg,,,,,,,,,,,
738.8000000119209,,rt_thecrossant_black,148326,black_plus_sign,,,,49,,,1,1,,,,,,,,,
null,,color_black,148427,black_plus_sign,,,,null,,,,,,,,,,,,,
null,,learn_phase(without_color),150429,black_plus_sign,,,,null,GW/wheelchair.jpg,GW/paint.jpg,,,,,,,,,,,
null,,black_cross(without_color),150925,blue,,,,null,GW/wheelchair.jpg,GW/paint.jpg,,,,,,,,,,,
420.80000001192093,,rt_plussign_withcolor,151426,blue,,,,49,GW/wheelchair.jpg,GW/paint.jpg,,,,,,,,,,,
null,,rt_thecrossant_black,152935,black_plus_sign,,,,null,,,1,1,,,,,,,,,
null,,color_black,153038,black_plus_sign,,,,null,,,,,,,,,,,,,
null,,learn_phase(without_color),155040,black_plus_sign,,,,null,GW/jukebox.jpg,GW/gong.jpg,,,,,,,,,,,
null,,black_cross(without_color),155734,green,,,,null,GW/jukebox.jpg,GW/gong.jpg,,,,,,,,,,,
null,,rt_plussign_withcolor,156236,green,,,,null,GW/jukebox.jpg,GW/gong.jpg,,,,,,,,,,,
759.8999999761581,,rt_thecrossant_black,157547,black_plus_sign,,,,50,,,1,1,,,,,,,,,
null,,color_black,157648,black_plus_sign,,,,null,,,,,,,,,,,,,
null,,learn_phase(without_color),159650,black_plus_sign,,,,null,GW/dustpan.jpg,GW/teeth.jpg,,,,,,,,,,,
null,,black_cross(without_color),160572,blue,,,,null,GW/dustpan.jpg,GW/teeth.jpg,,,,,,,,,,,
425,,rt_plussign_withcolor,161073,blue,,,,49,GW/dustpan.jpg,GW/teeth.jpg,,,,,,,,,,,
null,,rt_thecrossant_black,162156,black_plus_sign,,,,null,,,1,1,,,,,,,,,
null,,color_black,162259,black_plus_sign,,,,null,,,,,,,,,,,,,
null,,learn_phase(without_color),164260,black_plus_sign,,,,null,GW/gong.jpg,GW/barrel.jpg,,,,,,,,,,,
null,,black_cross(without_color),165141,blue,,,,null,GW/gong.jpg,GW/barrel.jpg,,,,,,,,,,,
442,,rt_plussign_withcolor,165641,blue,,,,49,GW/gong.jpg,GW/barrel.jpg,,,,,,,,,,,
null,,rt_thecrossant_black,166765,black_plus_sign,,,,null,,,1,1,,,,,,,,,
null,,color_black,166868,black_plus_sign,,,,null,,,,,,,,,,,,,
null,,learn_phase(without_color),168870,black_plus_sign,,,,null,GW/globe.jpg,GW/camera.jpg,,,,,,,,,,,
null,,black_cross(without_color),169362,green,,,,null,GW/globe.jpg,GW/camera.jpg,,,,,,,,,,,
null,,rt_plussign_withcolor,169864,green,,,,null,GW/globe.jpg,GW/camera.jpg,,,,,,,,,,,
1104.3999999761581,,rt_thecrossant_black,171376,black_plus_sign,,,,50,,,1,1,,,,,,,,,
null,,color_black,171479,black_plus_sign,,,,null,,,,,,,,,,,,,
null,,learn_phase(without_color),173481,black_plus_sign,,,,null,GW/barrel.jpg,GW/soldier.jpg,,,,,,,,,,,
null,,black_cross(without_color),174432,blue,,,,null,GW/barrel.jpg,GW/soldier.jpg,,,,,,,,,,,
null,,rt_plussign_withcolor,174934,blue,,,,null,GW/barrel.jpg,GW/soldier.jpg,,,,,,,,,,,
633.7999999523163,,rt_thecrossant_black,175999,black_plus_sign,,,,49,,,1,1,,,,,,,,,
null,,color_black,176100,black_plus_sign,,,,null,,,,,,,,,,,,,
null,,learn_phase(without_color),178102,black_plus_sign,,,,null,GW/basket.jpg,GW/dustpan.jpg,,,,,,,,,,,
null,,black_cross(without_color),179061,blue,,,,null,GW/basket.jpg,GW/dustpan.jpg,,,,,,,,,,,
364.19999998807907,,rt_plussign_withcolor,179563,blue,,,,49,GW/basket.jpg,GW/dustpan.jpg,,,,,,,,,,,
null,,rt_thecrossant_black,180607,black_plus_sign,,,,null,,,1,1,,,,,,,,,
null,,color_black,180708,black_plus_sign,,,,null,,,,,,,,,,,,,
null,,learn_phase(without_color),182710,black_plus_sign,,,,null,GW/globe.jpg,GW/camera.jpg,,,,,,,,,,,
null,,black_cross(without_color),183586,green,,,,null,GW/globe.jpg,GW/camera.jpg,,,,,,,,,,,
369.80000001192093,,rt_plussign_withcolor,184088,green,,,,50,GW/globe.jpg,GW/camera.jpg,,,,,,,,,,,
null,,rt_thecrossant_black,185217,black_plus_sign,,,,null,,,1,1,,,,,,,,,
null,,color_black,185319,black_plus_sign,,,,null,,,,,,,,,,,,,
null,,learn_phase(without_color),187322,black_plus_sign,,,,null,GW/gong.jpg,GW/basket.jpg,,,,,,,,,,,
null,,black_cross(without_color),187993,green,,,,null,GW/gong.jpg,GW/basket.jpg,,,,,,,,,,,
null,,rt_plussign_withcolor,188496,green,,,,null,GW/gong.jpg,GW/basket.jpg,,,,,,,,,,,
1013.0999999642372,,rt_thecrossant_black,189830,black_plus_sign,,,,50,,,1,1,,,,,,,,,
null,,color_black,189933,black_plus_sign,,,,null,,,,,,,,,,,,,
null,,learn_phase(without_color),191934,black_plus_sign,,,,null,GW/globe.jpg,GW/camera.jpg,,,,,,,,,,,
null,,black_cross(without_color),192507,green,,,,null,GW/globe.jpg,GW/camera.jpg,,,,,,,,,,,
null,,rt_plussign_withcolor,193018,green,,,,null,GW/globe.jpg,GW/camera.jpg,,,,,,,,,,,
794.7000000476837,,rt_thecrossant_black,194450,black_plus_sign,,,,50,,,1,1,,,,,,,,,
null,,color_black,194552,black_plus_sign,,,,null,,,,,,,,,,,,,
null,,learn_phase(without_color),196555,black_plus_sign,,,,null,GW/wheelchair.jpg,GW/paint.jpg,,,,,,,,,,,
null,,black_cross(without_color),197561,green,,,,null,GW/wheelchair.jpg,GW/paint.jpg,,,,,,,,,,,
497.60000002384186,,rt_plussign_withcolor,198062,green,,,,50,GW/wheelchair.jpg,GW/paint.jpg,,,,,,,,,,,
null,,rt_thecrossant_black,199060,black_plus_sign,,,,null,,,1,1,,,,,,,,,
null,,color_black,199161,black_plus_sign,,,,null,,,,,,,,,,,,,
null,,learn_phase(without_color),201164,black_plus_sign,,,,null,GW/dustpan.jpg,GW/globe.jpg,,,,,,,,,,,
null,,black_cross(without_color),202204,blue,,,,null,GW/dustpan.jpg,GW/globe.jpg,,,,,,,,,,,
null,,rt_plussign_withcolor,202705,blue,,,,null,GW/dustpan.jpg,GW/globe.jpg,,,,,,,,,,,
1113.800000011921,,rt_thecrossant_black,203680,black_plus_sign,,,,49,,,1,1,,,,,,,,,
null,,color_black,203782,black_plus_sign,,,,null,,,,,,,,,,,,,
null,,learn_phase(without_color),205784,black_plus_sign,,,,null,GW/gong.jpg,GW/barrel.jpg,,,,,,,,,,,
null,,black_cross(without_color),206394,blue,,,,null,GW/gong.jpg,GW/barrel.jpg,,,,,,,,,,,
353.7999999523163,,rt_plussign_withcolor,206896,blue,,,,49,GW/gong.jpg,GW/barrel.jpg,,,,,,,,,,,
null,,rt_thecrossant_black,208291,black_plus_sign,,,,null,,,1,1,,,,,,,,,
null,,color_black,208392,black_plus_sign,,,,null,,,,,,,,,,,,,
null,,learn_phase(without_color),210395,black_plus_sign,,,,null,GW/snail.jpg,GW/teeth.jpg,,,,,,,,,,,
null,,black_cross(without_color),211402,green,,,,null,GW/snail.jpg,GW/teeth.jpg,,,,,,,,,,,
null,,rt_plussign_withcolor,211904,green,,,,null,GW/snail.jpg,GW/teeth.jpg,,,,,,,,,,,
817.3000000119209,,rt_thecrossant_black,212900,black_plus_sign,,,,50,,,1,1,,,,,,,,,
null,,color_black,213002,black_plus_sign,,,,null,,,,,,,,,,,,,
null,,learn_phase(without_color),215004,black_plus_sign,,,,null,GW/gong.jpg,GW/barrel.jpg,,,,,,,,,,,
null,,black_cross(without_color),215423,green,,,,null,GW/gong.jpg,GW/barrel.jpg,,,,,,,,,,,
null,,rt_plussign_withcolor,215924,green,,,,null,GW/gong.jpg,GW/barrel.jpg,,,,,,,,,,,
1214.1000000238419,,rt_thecrossant_black,217510,black_plus_sign,,,,50,,,1,1,,,,,,,,,
null,,color_black,217611,black_plus_sign,,,,null,,,,,,,,,,,,,
null,,learn_phase(without_color),219615,black_plus_sign,,,,null,GW/barrel.jpg,GW/paint.jpg,,,,,,,,,,,
null,,black_cross(without_color),220293,blue,,,,null,GW/barrel.jpg,GW/paint.jpg,,,,,,,,,,,
469,,rt_plussign_withcolor,220795,blue,,,,49,GW/barrel.jpg,GW/paint.jpg,,,,,,,,,,,
null,,rt_thecrossant_black,222122,black_plus_sign,,,,null,,,1,1,,,,,,,,,
null,,color_black,222223,black_plus_sign,,,,null,,,,,,,,,,,,,
null,,learn_phase(without_color),224225,black_plus_sign,,,,null,GW/teeth.jpg,GW/wheelchair.jpg,,,,,,,,,,,
null,,black_cross(without_color),225007,blue,,,,null,GW/teeth.jpg,GW/wheelchair.jpg,,,,,,,,,,,
null,,rt_plussign_withcolor,225509,blue,,,,null,GW/teeth.jpg,GW/wheelchair.jpg,,,,,,,,,,,
971.9000000357628,,rt_thecrossant_black,226731,black_plus_sign,,,,50,,,0,0.9545454545454546,,,,,,,,,
null,,color_black,226832,black_plus_sign,,,,null,,,,,,,,,,,,,
null,,learn_phase(without_color),228836,black_plus_sign,,,,null,GW/snail.jpg,GW/teeth.jpg,,,,,,,,,,,
null,,black_cross(without_color),229907,green,,,,null,GW/snail.jpg,GW/teeth.jpg,,,,,,,,,,,
385.9000000357628,,rt_plussign_withcolor,230408,green,,,,50,GW/snail.jpg,GW/teeth.jpg,,,,,,,,,,,
null,,rt_thecrossant_black,231341,black_plus_sign,,,,null,,,1,0.9565217391304348,,,,,,,,,
null,,color_black,231443,black_plus_sign,,,,null,,,,,,,,,,,,,
null,,learn_phase(without_color),233446,black_plus_sign,,,,null,GW/jukebox.jpg,GW/gong.jpg,,,,,,,,,,,
null,,black_cross(without_color),234547,green,,,,null,GW/jukebox.jpg,GW/gong.jpg,,,,,,,,,,,
null,,rt_plussign_withcolor,235049,green,,,,null,GW/jukebox.jpg,GW/gong.jpg,,,,,,,,,,,
1255.8999999761581,,rt_thecrossant_black,235953,black_plus_sign,,,,50,,,1,0.9583333333333334,,,,,,,,,
null,,color_black,236054,black_plus_sign,,,,null,,,,,,,,,,,,,
null,,learn_phase(without_color),238056,black_plus_sign,,,,null,GW/barrel.jpg,GW/paint.jpg,,,,,,,,,,,
null,,black_cross(without_color),239000,green,,,,null,GW/barrel.jpg,GW/paint.jpg,,,,,,,,,,,
null,,rt_plussign_withcolor,239503,green,,,,null,GW/barrel.jpg,GW/paint.jpg,,,,,,,,,,,
1245.9000000357628,,rt_thecrossant_black,240563,black_plus_sign,,,,50,,,1,0.96,,,,,,,,,
null,,color_black,240665,black_plus_sign,,,,null,,,,,,,,,,,,,
null,,learn_phase(without_color),242668,black_plus_sign,,,,null,GW/snail.jpg,GW/teeth.jpg,,,,,,,,,,,
null,,black_cross(without_color),243758,green,,,,null,GW/snail.jpg,GW/teeth.jpg,,,,,,,,,,,
null,,rt_plussign_withcolor,244261,green,,,,null,GW/snail.jpg,GW/teeth.jpg,,,,,,,,,,,
1066,,rt_thecrossant_black,245174,black_plus_sign,,,,50,,,1,0.9615384615384616,,,,,,,,,
null,,color_black,245275,black_plus_sign,,,,null,,,,,,,,,,,,,
null,,learn_phase(without_color),247277,black_plus_sign,,,,null,GW/teeth.jpg,GW/wheelchair.jpg,,,,,,,,,,,
null,,black_cross(without_color),247760,green,,,,null,GW/teeth.jpg,GW/wheelchair.jpg,,,,,,,,,,,
null,,rt_plussign_withcolor,248262,green,,,,null,GW/teeth.jpg,GW/wheelchair.jpg,,,,,,,,,,,
1193.0999999642372,,rt_thecrossant_black,249783,black_plus_sign,,,,50,,,1,0.9629629629629629,,,,,,,,,
null,,color_black,249885,black_plus_sign,,,,null,,,,,,,,,,,,,
null,,learn_phase(without_color),251888,black_plus_sign,,,,null,GW/globe.jpg,GW/snail.jpg,,,,,,,,,,,
null,,black_cross(without_color),252931,blue,,,,null,GW/globe.jpg,GW/snail.jpg,,,,,,,,,,,
null,,rt_plussign_withcolor,253435,blue,,,,null,GW/globe.jpg,GW/snail.jpg,,,,,,,,,,,
639.6999999880791,,rt_thecrossant_black,254395,black_plus_sign,,,,49,,,1,0.9642857142857143,,,,,,,,,
null,,color_black,254496,black_plus_sign,,,,null,,,,,,,,,,,,,
null,,learn_phase(without_color),256497,black_plus_sign,,,,null,GW/globe.jpg,GW/teeth.jpg,,,,,,,,,,,
null,,black_cross(without_color),257191,blue,,,,null,GW/globe.jpg,GW/teeth.jpg,,,,,,,,,,,
485.30000001192093,,rt_plussign_withcolor,257692,blue,,,,49,GW/globe.jpg,GW/teeth.jpg,,,,,,,,,,,
null,,rt_thecrossant_black,259001,black_plus_sign,,,,null,,,1,0.9655172413793104,,,,,,,,,
null,,color_black,259102,black_plus_sign,,,,null,,,,,,,,,,,,,
null,,learn_phase(without_color),261104,black_plus_sign,,,,null,GW/basket.jpg,GW/wheelchair.jpg,,,,,,,,,,,
null,,black_cross(without_color),262038,green,,,,null,GW/basket.jpg,GW/wheelchair.jpg,,,,,,,,,,,
488.5999999642372,,rt_plussign_withcolor,262539,green,,,,50,GW/basket.jpg,GW/wheelchair.jpg,,,,,,,,,,,
null,,rt_thecrossant_black,263610,black_plus_sign,,,,null,,,1,0.9666666666666667,,,,,,,,,
null,,color_black,263711,black_plus_sign,,,,null,,,,,,,,,,,,,
null,,learn_phase(without_color),265713,black_plus_sign,,,,null,GW/barrel.jpg,GW/soldier.jpg,,,,,,,,,,,
null,,black_cross(without_color),266437,blue,,,,null,GW/barrel.jpg,GW/soldier.jpg,,,,,,,,,,,
448.5,,rt_plussign_withcolor,266937,blue,,,,49,GW/barrel.jpg,GW/soldier.jpg,,,,,,,,,,,
null,,rt_thecrossant_black,268216,black_plus_sign,,,,null,,,1,0.967741935483871,,,,,,,,,
null,,color_black,268318,black_plus_sign,,,,null,,,,,,,,,,,,,
null,,learn_phase(without_color),270320,black_plus_sign,,,,null,GW/basket.jpg,GW/dustpan.jpg,,,,,,,,,,,
null,,black_cross(without_color),271239,green,,,,null,GW/basket.jpg,GW/dustpan.jpg,,,,,,,,,,,
429,,rt_plussign_withcolor,271739,green,,,,50,GW/basket.jpg,GW/dustpan.jpg,,,,,,,,,,,
null,,rt_thecrossant_black,272824,black_plus_sign,,,,null,,,1,0.96875,,,,,,,,,
null,,color_black,272925,black_plus_sign,,,,null,,,,,,,,,,,,,
null,,learn_phase(without_color),274927,black_plus_sign,,,,null,GW/snail.jpg,GW/hat.jpg,,,,,,,,,,,
null,,black_cross(without_color),275748,green,,,,null,GW/snail.jpg,GW/hat.jpg,,,,,,,,,,,
null,,rt_plussign_withcolor,276250,green,,,,null,GW/snail.jpg,GW/hat.jpg,,,,,,,,,,,
1198.2000000476837,,rt_thecrossant_black,277431,black_plus_sign,,,,50,,,1,0.9696969696969697,,,,,,,,,
null,,color_black,277532,black_plus_sign,,,,null,,,,,,,,,,,,,
null,,learn_phase(without_color),279534,black_plus_sign,,,,null,GW/globe.jpg,GW/snail.jpg,,,,,,,,,,,
null,,black_cross(without_color),280607,blue,,,,null,GW/globe.jpg,GW/snail.jpg,,,,,,,,,,,
364.89999997615814,,rt_plussign_withcolor,281110,blue,,,,49,GW/globe.jpg,GW/snail.jpg,,,,,,,,,,,
null,,rt_thecrossant_black,282042,black_plus_sign,,,,null,,,1,0.9705882352941176,,,,,,,,,
null,,color_black,282143,black_plus_sign,,,,null,,,,,,,,,,,,,
null,,learn_phase(without_color),284144,black_plus_sign,,,,null,GW/wheelchair.jpg,GW/paint.jpg,,,,,,,,,,,
null,,black_cross(without_color),284780,blue,,,,null,GW/wheelchair.jpg,GW/paint.jpg,,,,,,,,,,,
null,,rt_plussign_withcolor,285282,blue,,,,null,GW/wheelchair.jpg,GW/paint.jpg,,,,,,,,,,,
1207.199999988079,,rt_thecrossant_black,286650,black_plus_sign,,,,49,,,1,0.9714285714285714,,,,,,,,,
null,,color_black,286751,black_plus_sign,,,,null,,,,,,,,,,,,,
null,,learn_phase(without_color),288754,black_plus_sign,,,,null,GW/basket.jpg,GW/dustpan.jpg,,,,,,,,,,,
null,,black_cross(without_color),289421,green,,,,null,GW/basket.jpg,GW/dustpan.jpg,,,,,,,,,,,
454,,rt_plussign_withcolor,289922,green,,,,50,GW/basket.jpg,GW/dustpan.jpg,,,,,,,,,,,
null,,rt_thecrossant_black,291258,black_plus_sign,,,,null,,,1,0.9722222222222222,,,,,,,,,
null,,color_black,291361,black_plus_sign,,,,null,,,,,,,,,,,,,
null,,learn_phase(without_color),293362,black_plus_sign,,,,null,GW/basket.jpg,GW/wheelchair.jpg,,,,,,,,,,,
null,,black_cross(without_color),294085,blue,,,,null,GW/basket.jpg,GW/wheelchair.jpg,,,,,,,,,,,
null,,rt_plussign_withcolor,294586,blue,,,,null,GW/basket.jpg,GW/wheelchair.jpg,,,,,,,,,,,
772.9000000357628,,rt_thecrossant_black,295867,black_plus_sign,,,,49,,,1,0.972972972972973,,,,,,,,,
null,,color_black,295969,black_plus_sign,,,,null,,,,,,,,,,,,,
null,,learn_phase(without_color),297970,black_plus_sign,,,,null,GW/jukebox.jpg,GW/gong.jpg,,,,,,,,,,,
null,,black_cross(without_color),298843,blue,,,,null,GW/jukebox.jpg,GW/gong.jpg,,,,,,,,,,,
null,,rt_plussign_withcolor,299345,blue,,,,null,GW/jukebox.jpg,GW/gong.jpg,,,,,,,,,,,
825.3999999761581,,rt_thecrossant_black,300477,black_plus_sign,,,,49,,,1,0.9736842105263158,,,,,,,,,
null,,color_black,300578,black_plus_sign,,,,null,,,,,,,,,,,,,
null,,learn_phase(without_color),302582,black_plus_sign,,,,null,GW/snail.jpg,GW/teeth.jpg,,,,,,,,,,,
null,,black_cross(without_color),303310,green,,,,null,GW/snail.jpg,GW/teeth.jpg,,,,,,,,,,,
null,,rt_plussign_withcolor,303812,green,,,,null,GW/snail.jpg,GW/teeth.jpg,,,,,,,,,,,
1036.4000000357628,,rt_thecrossant_black,305088,black_plus_sign,,,,50,,,1,0.9743589743589743,,,,,,,,,
null,,color_black,305189,black_plus_sign,,,,null,,,,,,,,,,,,,
null,,learn_phase(without_color),307191,black_plus_sign,,,,null,GW/basket.jpg,GW/wheelchair.jpg,,,,,,,,,,,
null,,black_cross(without_color),308113,blue,,,,null,GW/basket.jpg,GW/wheelchair.jpg,,,,,,,,,,,
461.19999998807907,,rt_plussign_withcolor,308615,blue,,,,49,GW/basket.jpg,GW/wheelchair.jpg,,,,,,,,,,,
null,,rt_thecrossant_black,309696,black_plus_sign,,,,null,,,1,0.975,,,,,,,,,
null,,color_black,309797,black_plus_sign,,,,null,,,,,,,,,,,,,
null,,learn_phase(without_color),311800,black_plus_sign,,,,null,GW/snail.jpg,GW/teeth.jpg,,,,,,,,,,,
null,,black_cross(without_color),312209,blue,,,,null,GW/snail.jpg,GW/teeth.jpg,,,,,,,,,,,
null,,rt_plussign_withcolor,312711,blue,,,,null,GW/snail.jpg,GW/teeth.jpg,,,,,,,,,,,
1081.2000000476837,,rt_thecrossant_black,314307,black_plus_sign,,,,49,,,1,0.975609756097561,,,,,,,,,
null,,color_black,314408,black_plus_sign,,,,null,,,,,,,,,,,,,
null,,learn_phase(without_color),316410,black_plus_sign,,,,null,GW/barrel.jpg,GW/soldier.jpg,,,,,,,,,,,
null,,black_cross(without_color),317472,green,,,,null,GW/barrel.jpg,GW/soldier.jpg,,,,,,,,,,,
360.19999998807907,,rt_plussign_withcolor,317973,green,,,,50,GW/barrel.jpg,GW/soldier.jpg,,,,,,,,,,,
null,,rt_thecrossant_black,318916,black_plus_sign,,,,null,,,1,0.9761904761904762,,,,,,,,,
null,,color_black,319017,black_plus_sign,,,,null,,,,,,,,,,,,,
null,,learn_phase(without_color),321019,black_plus_sign,,,,null,GW/teeth.jpg,GW/wheelchair.jpg,,,,,,,,,,,
null,,black_cross(without_color),321572,blue,,,,null,GW/teeth.jpg,GW/wheelchair.jpg,,,,,,,,,,,
479,,rt_plussign_withcolor,322074,blue,,,,49,GW/teeth.jpg,GW/wheelchair.jpg,,,,,,,,,,,
null,,rt_thecrossant_black,323525,black_plus_sign,,,,null,,,1,0.9767441860465116,,,,,,,,,
null,,color_black,323626,black_plus_sign,,,,null,,,,,,,,,,,,,
null,,learn_phase(without_color),325628,black_plus_sign,,,,null,GW/basket.jpg,GW/dustpan.jpg,,,,,,,,,,,
null,,black_cross(without_color),326570,blue,,,,null,GW/basket.jpg,GW/dustpan.jpg,,,,,,,,,,,
337.69999998807907,,rt_plussign_withcolor,327072,blue,,,,49,GW/basket.jpg,GW/dustpan.jpg,,,,,,,,,,,
null,,rt_thecrossant_black,328134,black_plus_sign,,,,null,,,1,0.9772727272727273,,,,,,,,,
null,,color_black,328235,black_plus_sign,,,,null,,,,,,,,,,,,,
null,,learn_phase(without_color),330238,black_plus_sign,,,,null,GW/snail.jpg,GW/hat.jpg,,,,,,,,,,,
null,,black_cross(without_color),331266,blue,,,,null,GW/snail.jpg,GW/hat.jpg,,,,,,,,,,,
null,,rt_plussign_withcolor,331769,blue,,,,null,GW/snail.jpg,GW/hat.jpg,,,,,,,,,,,
1212.300000011921,,rt_thecrossant_black,332745,black_plus_sign,,,,49,,,1,0.9777777777777777,,,,,,,,,
null,,color_black,332846,black_plus_sign,,,,null,,,,,,,,,,,,,
null,,learn_phase(without_color),334848,black_plus_sign,,,,null,GW/dustpan.jpg,GW/teeth.jpg,,,,,,,,,,,
null,,black_cross(without_color),335571,blue,,,,null,GW/dustpan.jpg,GW/teeth.jpg,,,,,,,,,,,
null,,rt_plussign_withcolor,336074,blue,,,,null,GW/dustpan.jpg,GW/teeth.jpg,,,,,,,,,,,
1182.5,,rt_thecrossant_black,337357,black_plus_sign,,,,49,,,1,0.9782608695652174,,,,,,,,,
null,,color_black,337459,black_plus_sign,,,,null,,,,,,,,,,,,,
null,,learn_phase(without_color),339460,black_plus_sign,,,,null,GW/wheelchair.jpg,GW/paint.jpg,,,,,,,,,,,
null,,black_cross(without_color),339875,blue,,,,null,GW/wheelchair.jpg,GW/paint.jpg,,,,,,,,,,,
477.30000001192093,,rt_plussign_withcolor,340377,blue,,,,49,GW/wheelchair.jpg,GW/paint.jpg,,,,,,,,,,,
null,,rt_thecrossant_black,341966,black_plus_sign,,,,null,,,1,0.9787234042553191,,,,,,,,,
null,,color_black,342068,black_plus_sign,,,,null,,,,,,,,,,,,,
null,,learn_phase(without_color),344070,black_plus_sign,,,,null,GW/globe.jpg,GW/snail.jpg,,,,,,,,,,,
null,,black_cross(without_color),345040,blue,,,,null,GW/globe.jpg,GW/snail.jpg,,,,,,,,,,,
356.10000002384186,,rt_plussign_withcolor,345542,blue,,,,49,GW/globe.jpg,GW/snail.jpg,,,,,,,,,,,
null,,rt_thecrossant_black,346575,black_plus_sign,,,,null,,,1,0.9791666666666666,,,,,,,,,
null,,color_black,346677,black_plus_sign,,,,null,,,,,,,,,,,,,
null,,learn_phase(without_color),348687,black_plus_sign,,,,null,GW/gong.jpg,GW/basket.jpg,,,,,,,,,,,
null,,black_cross(without_color),349749,blue,,,,null,GW/gong.jpg,GW/basket.jpg,,,,,,,,,,,
399,,rt_plussign_withcolor,350251,blue,,,,49,GW/gong.jpg,GW/basket.jpg,,,,,,,,,,,
null,,rt_thecrossant_black,351192,black_plus_sign,,,,null,,,1,0.9795918367346939,,,,,,,,,
null,,color_black,351294,black_plus_sign,,,,null,,,,,,,,,,,,,
null,,learn_phase(without_color),353296,black_plus_sign,,,,null,GW/dustpan.jpg,GW/teeth.jpg,,,,,,,,,,,
null,,black_cross(without_color),353743,green,,,,null,GW/dustpan.jpg,GW/teeth.jpg,,,,,,,,,,,
null,,rt_plussign_withcolor,354245,green,,,,null,GW/dustpan.jpg,GW/teeth.jpg,,,,,,,,,,,
1304.0999999642372,,rt_thecrossant_black,355804,black_plus_sign,,,,50,,,1,0.98,,,,,,,,,
null,,color_black,355905,black_plus_sign,,,,null,,,,,,,,,,,,,
null,,learn_phase(without_color),357907,black_plus_sign,,,,null,GW/snail.jpg,GW/hat.jpg,,,,,,,,,,,
null,,black_cross(without_color),358670,green,,,,null,GW/snail.jpg,GW/hat.jpg,,,,,,,,,,,
null,,rt_plussign_withcolor,359173,green,,,,null,GW/snail.jpg,GW/hat.jpg,,,,,,,,,,,
678.2999999523163,,rt_thecrossant_black,360416,black_plus_sign,,,,50,,,1,0.9803921568627451,,,,,,,,,
null,,color_black,360518,black_plus_sign,,,,null,,,,,,,,,,,,,
null,,learn_phase(without_color),362521,black_plus_sign,,,,null,GW/gong.jpg,GW/barrel.jpg,,,,,,,,,,,
null,,black_cross(without_color),363073,green,,,,null,GW/gong.jpg,GW/barrel.jpg,,,,,,,,,,,
null,,rt_plussign_withcolor,363574,green,,,,null,GW/gong.jpg,GW/barrel.jpg,,,,,,,,,,,
863.5,,rt_thecrossant_black,365026,black_plus_sign,,,,50,,,1,0.9807692307692307,,,,,,,,,
null,,color_black,365128,black_plus_sign,,,,null,,,,,,,,,,,,,
null,,learn_phase(without_color),367130,black_plus_sign,,,,null,GW/gong.jpg,GW/basket.jpg,,,,,,,,,,,
null,,black_cross(without_color),367906,blue,,,,null,GW/gong.jpg,GW/basket.jpg,,,,,,,,,,,
null,,rt_plussign_withcolor,368409,blue,,,,null,GW/gong.jpg,GW/basket.jpg,,,,,,,,,,,
659.3999999761581,,rt_thecrossant_black,369637,black_plus_sign,,,,49,,,1,0.9811320754716981,,,,,,,,,
null,,color_black,369739,black_plus_sign,,,,null,,,,,,,,,,,,,
null,,learn_phase(without_color),371742,black_plus_sign,,,,null,GW/barrel.jpg,GW/soldier.jpg,,,,,,,,,,,
null,,black_cross(without_color),372521,blue,,,,null,GW/barrel.jpg,GW/soldier.jpg,,,,,,,,,,,
498.2999999523163,,rt_plussign_withcolor,373022,blue,,,,49,GW/barrel.jpg,GW/soldier.jpg,,,,,,,,,,,
null,,rt_thecrossant_black,374248,black_plus_sign,,,,null,,,1,0.9814814814814815,,,,,,,,,
null,,color_black,374349,black_plus_sign,,,,null,,,,,,,,,,,,,
null,,learn_phase(without_color),376351,black_plus_sign,,,,null,GW/globe.jpg,GW/snail.jpg,,,,,,,,,,,
null,,black_cross(without_color),377285,green,,,,null,GW/globe.jpg,GW/snail.jpg,,,,,,,,,,,
314.80000001192093,,rt_plussign_withcolor,377787,green,,,,50,GW/globe.jpg,GW/snail.jpg,,,,,,,,,,,
null,,rt_thecrossant_black,378858,black_plus_sign,,,,null,,,1,0.9818181818181818,,,,,,,,,
null,,color_black,378958,black_plus_sign,,,,null,,,,,,,,,,,,,
null,,learn_phase(without_color),380960,black_plus_sign,,,,null,GW/barrel.jpg,GW/soldier.jpg,,,,,,,,,,,
null,,black_cross(without_color),381571,green,,,,null,GW/barrel.jpg,GW/soldier.jpg,,,,,,,,,,,
479.89999997615814,,rt_plussign_withcolor,382071,green,,,,50,GW/barrel.jpg,GW/soldier.jpg,,,,,,,,,,,
null,,rt_thecrossant_black,383465,black_plus_sign,,,,null,,,1,0.9821428571428571,,,,,,,,,
null,,color_black,383566,black_plus_sign,,,,null,,,,,,,,,,,,,
null,,learn_phase(without_color),385569,black_plus_sign,,,,null,GW/dustpan.jpg,GW/teeth.jpg,,,,,,,,,,,
null,,black_cross(without_color),386236,green,,,,null,GW/dustpan.jpg,GW/teeth.jpg,,,,,,,,,,,
null,,rt_plussign_withcolor,386739,green,,,,null,GW/dustpan.jpg,GW/teeth.jpg,,,,,,,,,,,
838.3000000119209,,rt_thecrossant_black,388076,black_plus_sign,,,,50,,,1,0.9824561403508771,,,,,,,,,
null,,color_black,388177,black_plus_sign,,,,null,,,,,,,,,,,,,
null,,learn_phase(without_color),390179,black_plus_sign,,,,null,GW/jukebox.jpg,GW/gong.jpg,,,,,,,,,,,
null,,black_cross(without_color),390827,blue,,,,null,GW/jukebox.jpg,GW/gong.jpg,,,,,,,,,,,
426.39999997615814,,rt_plussign_withcolor,391329,blue,,,,49,GW/jukebox.jpg,GW/gong.jpg,,,,,,,,,,,
null,,rt_thecrossant_black,392685,black_plus_sign,,,,null,,,1,0.9827586206896551,,,,,,,,,
null,,color_black,392788,black_plus_sign,,,,null,,,,,,,,,,,,,
null,,learn_phase(without_color),394789,black_plus_sign,,,,null,GW/barrel.jpg,GW/soldier.jpg,,,,,,,,,,,
null,,black_cross(without_color),395467,blue,,,,null,GW/barrel.jpg,GW/soldier.jpg,,,,,,,,,,,
null,,rt_plussign_withcolor,395969,blue,,,,null,GW/barrel.jpg,GW/soldier.jpg,,,,,,,,,,,
836.3999999761581,,rt_thecrossant_black,397296,black_plus_sign,,,,49,,,1,0.9830508474576272,,,,,,,,,
null,,color_black,397397,black_plus_sign,,,,null,,,,,,,,,,,,,
null,,learn_phase(without_color),399398,black_plus_sign,,,,null,GW/globe.jpg,GW/camera.jpg,,,,,,,,,,,
null,,black_cross(without_color),400349,blue,,,,null,GW/globe.jpg,GW/camera.jpg,,,,,,,,,,,
null,,rt_plussign_withcolor,400851,blue,,,,null,GW/globe.jpg,GW/camera.jpg,,,,,,,,,,,
934,,rt_thecrossant_black,401903,black_plus_sign,,,,49,,,1,0.9833333333333333,,,,,,,,,
null,,color_black,402006,black_plus_sign,,,,null,,,,,,,,,,,,,
null,,learn_phase(without_color),404008,black_plus_sign,,,,null,GW/basket.jpg,GW/wheelchair.jpg,,,,,,,,,,,
null,,black_cross(without_color),404639,blue,,,,null,GW/basket.jpg,GW/wheelchair.jpg,,,,,,,,,,,
408.0999999642372,,rt_plussign_withcolor,405139,blue,,,,49,GW/basket.jpg,GW/wheelchair.jpg,,,,,,,,,,,
null,,rt_thecrossant_black,406511,black_plus_sign,,,,null,,,1,0.9836065573770492,,,,,,,,,
null,,color_black,406612,black_plus_sign,,,,null,,,,,,,,,,,,,
null,,learn_phase(without_color),408615,black_plus_sign,,,,null,GW/snail.jpg,GW/hat.jpg,,,,,,,,,,,
null,,black_cross(without_color),409252,blue,,,,null,GW/snail.jpg,GW/hat.jpg,,,,,,,,,,,
374.5999999642372,,rt_plussign_withcolor,409754,blue,,,,49,GW/snail.jpg,GW/hat.jpg,,,,,,,,,,,
null,,rt_thecrossant_black,411124,black_plus_sign,,,,null,,,1,0.9838709677419355,,,,,,,,,
null,,color_black,411224,black_plus_sign,,,,null,,,,,,,,,,,,,
null,,learn_phase(without_color),413227,black_plus_sign,,,,null,GW/globe.jpg,GW/teeth.jpg,,,,,,,,,,,
null,,black_cross(without_color),413680,blue,,,,null,GW/globe.jpg,GW/teeth.jpg,,,,,,,,,,,
470.69999998807907,,rt_plussign_withcolor,414181,blue,,,,49,GW/globe.jpg,GW/teeth.jpg,,,,,,,,,,,
null,,rt_thecrossant_black,415732,black_plus_sign,,,,null,,,1,0.9841269841269841,,,,,,,,,
null,,color_black,415834,black_plus_sign,,,,null,,,,,,,,,,,,,
null,,learn_phase(without_color),417835,black_plus_sign,,,,null,GW/teeth.jpg,GW/wheelchair.jpg,,,,,,,,,,,
null,,black_cross(without_color),418677,blue,,,,null,GW/teeth.jpg,GW/wheelchair.jpg,,,,,,,,,,,
440.60000002384186,,rt_plussign_withcolor,419177,blue,,,,49,GW/teeth.jpg,GW/wheelchair.jpg,,,,,,,,,,,
null,,rt_thecrossant_black,420341,black_plus_sign,,,,null,,,1,0.984375,,,,,,,,,
null,,color_black,420442,black_plus_sign,,,,null,,,,,,,,,,,,,
null,,learn_phase(without_color),422445,black_plus_sign,,,,null,GW/dustpan.jpg,GW/teeth.jpg,,,,,,,,,,,
null,,black_cross(without_color),422894,blue,,,,null,GW/dustpan.jpg,GW/teeth.jpg,,,,,,,,,,,
493.30000001192093,,rt_plussign_withcolor,423395,blue,,,,49,GW/dustpan.jpg,GW/teeth.jpg,,,,,,,,,,,
null,,rt_thecrossant_black,424950,black_plus_sign,,,,null,,,1,0.9846153846153847,,,,,,,,,
null,,color_black,425052,black_plus_sign,,,,null,,,,,,,,,,,,,
null,,learn_phase(without_color),427053,black_plus_sign,,,,null,GW/globe.jpg,GW/camera.jpg,,,,,,,,,,,
null,,black_cross(without_color),428007,blue,,,,null,GW/globe.jpg,GW/camera.jpg,,,,,,,,,,,
502.69999998807907,,rt_plussign_withcolor,428511,blue,,,,49,GW/globe.jpg,GW/camera.jpg,,,,,,,,,,,
null,,rt_thecrossant_black,429560,black_plus_sign,,,,null,,,1,0.9848484848484849,,,,,,,,,
null,,color_black,429662,black_plus_sign,,,,null,,,,,,,,,,,,,
null,,learn_phase(without_color),431665,black_plus_sign,,,,null,GW/gong.jpg,GW/barrel.jpg,,,,,,,,,,,
null,,black_cross(without_color),432370,green,,,,null,GW/gong.jpg,GW/barrel.jpg,,,,,,,,,,,
null,,rt_plussign_withcolor,432872,green,,,,null,GW/gong.jpg,GW/barrel.jpg,,,,,,,,,,,
1178.6000000238419,,rt_thecrossant_black,434172,black_plus_sign,,,,50,,,1,0.9850746268656716,,,,,,,,,
null,,color_black,434273,black_plus_sign,,,,null,,,,,,,,,,,,,
null,,learn_phase(without_color),436276,black_plus_sign,,,,null,GW/jukebox.jpg,GW/gong.jpg,,,,,,,,,,,
null,,black_cross(without_color),436909,blue,,,,null,GW/jukebox.jpg,GW/gong.jpg,,,,,,,,,,,
null,,rt_plussign_withcolor,437412,blue,,,,null,GW/jukebox.jpg,GW/gong.jpg,,,,,,,,,,,
803.0999999642372,,rt_thecrossant_black,438785,black_plus_sign,,,,49,,,1,0.9852941176470589,,,,,,,,,
null,,color_black,438885,black_plus_sign,,,,null,,,,,,,,,,,,,
null,,learn_phase(without_color),440888,black_plus_sign,,,,null,GW/globe.jpg,GW/teeth.jpg,,,,,,,,,,,
null,,black_cross(without_color),441795,blue,,,,null,GW/globe.jpg,GW/teeth.jpg,,,,,,,,,,,
375.10000002384186,,rt_plussign_withcolor,442296,blue,,,,49,GW/globe.jpg,GW/teeth.jpg,,,,,,,,,,,
null,,rt_thecrossant_black,443394,black_plus_sign,,,,null,,,1,0.9855072463768116,,,,,,,,,
null,,color_black,443496,black_plus_sign,,,,null,,,,,,,,,,,,,
null,,learn_phase(without_color),445499,black_plus_sign,,,,null,GW/gong.jpg,GW/basket.jpg,,,,,,,,,,,
null,,black_cross(without_color),446468,green,,,,null,GW/gong.jpg,GW/basket.jpg,,,,,,,,,,,
418.80000001192093,,rt_plussign_withcolor,446970,green,,,,50,GW/gong.jpg,GW/basket.jpg,,,,,,,,,,,
null,,rt_thecrossant_black,448007,black_plus_sign,,,,null,,,1,0.9857142857142858,,,,,,,,,
null,,color_black,448108,black_plus_sign,,,,null,,,,,,,,,,,,,
null,,learn_phase(without_color),450110,black_plus_sign,,,,null,GW/globe.jpg,GW/teeth.jpg,,,,,,,,,,,
null,,black_cross(without_color),450620,blue,,,,null,GW/globe.jpg,GW/teeth.jpg,,,,,,,,,,,
384.69999998807907,,rt_plussign_withcolor,451122,blue,,,,49,GW/globe.jpg,GW/teeth.jpg,,,,,,,,,,,
null,,rt_thecrossant_black,452615,black_plus_sign,,,,null,,,1,0.9859154929577465,,,,,,,,,
null,,color_black,452717,black_plus_sign,,,,null,,,,,,,,,,,,,
null,,learn_phase(without_color),454720,black_plus_sign,,,,null,GW/snail.jpg,GW/teeth.jpg,,,,,,,,,,,
null,,black_cross(without_color),455542,blue,,,,null,GW/snail.jpg,GW/teeth.jpg,,,,,,,,,,,
419.5999999642372,,rt_plussign_withcolor,456043,blue,,,,49,GW/snail.jpg,GW/teeth.jpg,,,,,,,,,,,
null,,rt_thecrossant_black,457227,black_plus_sign,,,,null,,,1,0.9861111111111112,,,,,,,,,
null,,color_black,457328,black_plus_sign,,,,null,,,,,,,,,,,,,
null,,learn_phase(without_color),459330,black_plus_sign,,,,null,GW/snail.jpg,GW/hat.jpg,,,,,,,,,,,
null,,black_cross(without_color),460416,green,,,,null,GW/snail.jpg,GW/hat.jpg,,,,,,,,,,,
412.5,,rt_plussign_withcolor,460917,green,,,,50,GW/snail.jpg,GW/hat.jpg,,,,,,,,,,,
null,,rt_thecrossant_black,461836,black_plus_sign,,,,null,,,1,0.9863013698630136,,,,,,,,,
null,,color_black,461938,black_plus_sign,,,,null,,,,,,,,,,,,,
null,,learn_phase(without_color),463940,black_plus_sign,,,,null,GW/globe.jpg,GW/camera.jpg,,,,,,,,,,,
null,,black_cross(without_color),464584,blue,,,,null,GW/globe.jpg,GW/camera.jpg,,,,,,,,,,,
463,,rt_plussign_withcolor,465086,blue,,,,49,GW/globe.jpg,GW/camera.jpg,,,,,,,,,,,
null,,rt_thecrossant_black,466446,black_plus_sign,,,,null,,,1,0.9864864864864865,,,,,,,,,
null,,color_black,466549,black_plus_sign,,,,null,,,,,,,,,,,,,
null,,learn_phase(without_color),468552,black_plus_sign,,,,null,GW/snail.jpg,GW/teeth.jpg,,,,,,,,,,,
null,,black_cross(without_color),469027,blue,,,,null,GW/snail.jpg,GW/teeth.jpg,,,,,,,,,,,
476.9000000357628,,rt_plussign_withcolor,469528,blue,,,,49,GW/snail.jpg,GW/teeth.jpg,,,,,,,,,,,
null,,rt_thecrossant_black,471056,black_plus_sign,,,,null,,,1,0.9866666666666667,,,,,,,,,
null,,color_black,471156,black_plus_sign,,,,null,,,,,,,,,,,,,
null,,learn_phase(without_color),473159,black_plus_sign,,,,null,GW/dustpan.jpg,GW/teeth.jpg,,,,,,,,,,,
null,,black_cross(without_color),474021,green,,,,null,GW/dustpan.jpg,GW/teeth.jpg,,,,,,,,,,,
449.89999997615814,,rt_plussign_withcolor,474522,green,,,,50,GW/dustpan.jpg,GW/teeth.jpg,,,,,,,,,,,
null,,rt_thecrossant_black,475668,black_plus_sign,,,,null,,,1,0.9868421052631579,,,,,,,,,
null,,color_black,475771,black_plus_sign,,,,null,,,,,,,,,,,,,
null,,learn_phase(without_color),477774,black_plus_sign,,,,null,GW/dustpan.jpg,GW/globe.jpg,,,,,,,,,,,
null,,black_cross(without_color),478719,green,,,,null,GW/dustpan.jpg,GW/globe.jpg,,,,,,,,,,,
null,,rt_plussign_withcolor,479221,green,,,,null,GW/dustpan.jpg,GW/globe.jpg,,,,,,,,,,,
1008.5999999642372,,rt_thecrossant_black,480279,black_plus_sign,,,,50,,,1,0.987012987012987,,,,,,,,,
null,,color_black,480381,black_plus_sign,,,,null,,,,,,,,,,,,,
null,,learn_phase(without_color),482384,black_plus_sign,,,,null,GW/gong.jpg,GW/basket.jpg,,,,,,,,,,,
null,,black_cross(without_color),483232,blue,,,,null,GW/gong.jpg,GW/basket.jpg,,,,,,,,,,,
502.39999997615814,,rt_plussign_withcolor,483738,blue,,,,49,GW/gong.jpg,GW/basket.jpg,,,,,,,,,,,
null,,rt_thecrossant_black,484894,black_plus_sign,,,,null,,,1,0.9871794871794872,,,,,,,,,
null,,color_black,484998,black_plus_sign,,,,null,,,,,,,,,,,,,
null,,learn_phase(without_color),487000,black_plus_sign,,,,null,GW/wheelchair.jpg,GW/paint.jpg,,,,,,,,,,,
null,,black_cross(without_color),487739,green,,,,null,GW/wheelchair.jpg,GW/paint.jpg,,,,,,,,,,,
353.5999999642372,,rt_plussign_withcolor,488241,green,,,,50,GW/wheelchair.jpg,GW/paint.jpg,,,,,,,,,,,
null,,rt_thecrossant_black,489505,black_plus_sign,,,,null,,,1,0.9873417721518988,,,,,,,,,
null,,color_black,489607,black_plus_sign,,,,null,,,,,,,,,,,,,
null,,learn_phase(without_color),491609,black_plus_sign,,,,null,GW/globe.jpg,GW/snail.jpg,,,,,,,,,,,
null,,black_cross(without_color),492201,blue,,,,null,GW/globe.jpg,GW/snail.jpg,,,,,,,,,,,
null,,rt_plussign_withcolor,492703,blue,,,,null,GW/globe.jpg,GW/snail.jpg,,,,,,,,,,,
928.1999999880791,,rt_thecrossant_black,494116,black_plus_sign,,,,49,,,1,0.9875,,,,,,,,,
null,,color_black,494216,black_plus_sign,,,,null,,,,,,,,,,,,,
null,,learn_phase(without_color),496218,black_plus_sign,,,,null,GW/gong.jpg,GW/barrel.jpg,,,,,,,,,,,
null,,black_cross(without_color),496693,blue,,,,null,GW/gong.jpg,GW/barrel.jpg,,,,,,,,,,,
null,,rt_plussign_withcolor,497195,blue,,,,null,GW/gong.jpg,GW/barrel.jpg,,,,,,,,,,,
761.1999999880791,,rt_thecrossant_black,498726,black_plus_sign,,,,49,,,1,0.9876543209876543,,,,,,,,,
null,,color_black,498827,black_plus_sign,,,,null,,,,,,,,,,,,,
null,,learn_phase(without_color),500830,black_plus_sign,,,,null,GW/globe.jpg,GW/snail.jpg,,,,,,,,,,,
null,,black_cross(without_color),501414,green,,,,null,GW/globe.jpg,GW/snail.jpg,,,,,,,,,,,
470.39999997615814,,rt_plussign_withcolor,501914,green,,,,50,GW/globe.jpg,GW/snail.jpg,,,,,,,,,,,
null,,rt_thecrossant_black,503335,black_plus_sign,,,,null,,,1,0.9878048780487805,,,,,,,,,
null,,color_black,503437,black_plus_sign,,,,null,,,,,,,,,,,,,
null,,learn_phase(without_color),505439,black_plus_sign,,,,null,GW/basket.jpg,GW/wheelchair.jpg,,,,,,,,,,,
null,,black_cross(without_color),506005,green,,,,null,GW/basket.jpg,GW/wheelchair.jpg,,,,,,,,,,,
null,,rt_plussign_withcolor,506506,green,,,,null,GW/basket.jpg,GW/wheelchair.jpg,,,,,,,,,,,
738.1000000238419,,rt_thecrossant_black,507946,black_plus_sign,,,,50,,,1,0.9879518072289156,,,,,,,,,
null,,color_black,508046,black_plus_sign,,,,null,,,,,,,,,,,,,
null,,learn_phase(without_color),510050,black_plus_sign,,,,null,GW/snail.jpg,GW/teeth.jpg,,,,,,,,,,,
null,,black_cross(without_color),510590,blue,,,,null,GW/snail.jpg,GW/teeth.jpg,,,,,,,,,,,
474.30000001192093,,rt_plussign_withcolor,511090,blue,,,,49,GW/snail.jpg,GW/teeth.jpg,,,,,,,,,,,
null,,rt_thecrossant_black,512556,black_plus_sign,,,,null,,,1,0.9880952380952381,,,,,,,,,
null,,color_black,512658,black_plus_sign,,,,null,,,,,,,,,,,,,
null,,learn_phase(without_color),514661,black_plus_sign,,,,null,GW/barrel.jpg,GW/paint.jpg,,,,,,,,,,,
null,,black_cross(without_color),515601,green,,,,null,GW/barrel.jpg,GW/paint.jpg,,,,,,,,,,,
364.19999998807907,,rt_plussign_withcolor,516102,green,,,,50,GW/barrel.jpg,GW/paint.jpg,,,,,,,,,,,
null,,rt_thecrossant_black,517167,black_plus_sign,,,,null,,,1,0.9882352941176471,,,,,,,,,
null,,color_black,517268,black_plus_sign,,,,null,,,,,,,,,,,,,
null,,learn_phase(without_color),519270,black_plus_sign,,,,null,GW/jukebox.jpg,GW/gong.jpg,,,,,,,,,,,
null,,black_cross(without_color),519860,green,,,,null,GW/jukebox.jpg,GW/gong.jpg,,,,,,,,,,,
null,,rt_plussign_withcolor,520362,green,,,,null,GW/jukebox.jpg,GW/gong.jpg,,,,,,,,,,,
1108.199999988079,,rt_thecrossant_black,521777,black_plus_sign,,,,50,,,1,0.9883720930232558,,,,,,,,,
null,,color_black,521880,black_plus_sign,,,,null,,,,,,,,,,,,,
null,,learn_phase(without_color),523881,black_plus_sign,,,,null,GW/globe.jpg,GW/teeth.jpg,,,,,,,,,,,
null,,black_cross(without_color),524494,green,,,,null,GW/globe.jpg,GW/teeth.jpg,,,,,,,,,,,
null,,rt_plussign_withcolor,524995,green,,,,null,GW/globe.jpg,GW/teeth.jpg,,,,,,,,,,,
748.1999999880791,,rt_thecrossant_black,526386,black_plus_sign,,,,50,,,1,0.9885057471264368,,,,,,,,,
null,,color_black,526487,black_plus_sign,,,,null,,,,,,,,,,,,,
null,,learn_phase(without_color),528489,black_plus_sign,,,,null,GW/gong.jpg,GW/barrel.jpg,,,,,,,,,,,
null,,black_cross(without_color),529010,blue,,,,null,GW/gong.jpg,GW/barrel.jpg,,,,,,,,,,,
453.69999998807907,,rt_plussign_withcolor,529511,blue,,,,49,GW/gong.jpg,GW/barrel.jpg,,,,,,,,,,,
null,,rt_thecrossant_black,530994,black_plus_sign,,,,null,,,1,0.9886363636363636,,,,,,,,,
null,,color_black,531095,black_plus_sign,,,,null,,,,,,,,,,,,,
null,,learn_phase(without_color),533098,black_plus_sign,,,,null,GW/dustpan.jpg,GW/globe.jpg,,,,,,,,,,,
null,,black_cross(without_color),534054,green,,,,null,GW/dustpan.jpg,GW/globe.jpg,,,,,,,,,,,
471.5,,rt_plussign_withcolor,534554,green,,,,50,GW/dustpan.jpg,GW/globe.jpg,,,,,,,,,,,
null,,rt_thecrossant_black,535604,black_plus_sign,,,,null,,,1,0.9887640449438202,,,,,,,,,
null,,color_black,535705,black_plus_sign,,,,null,,,,,,,,,,,,,
null,,learn_phase(without_color),537707,black_plus_sign,,,,null,GW/wheelchair.jpg,GW/paint.jpg,,,,,,,,,,,
null,,black_cross(without_color),538326,blue,,,,null,GW/wheelchair.jpg,GW/paint.jpg,,,,,,,,,,,
null,,rt_plussign_withcolor,538829,blue,,,,null,GW/wheelchair.jpg,GW/paint.jpg,,,,,,,,,,,
1177.7000000476837,,rt_thecrossant_black,540214,black_plus_sign,,,,49,,,1,0.9888888888888889,,,,,,,,,
null,,color_black,540316,black_plus_sign,,,,null,,,,,,,,,,,,,
null,,learn_phase(without_color),542319,black_plus_sign,,,,null,GW/gong.jpg,GW/basket.jpg,,,,,,,,,,,
null,,black_cross(without_color),542721,green,,,,null,GW/gong.jpg,GW/basket.jpg,,,,,,,,,,,
null,,rt_plussign_withcolor,543224,green,,,,null,GW/gong.jpg,GW/basket.jpg,,,,,,,,,,,
901.1000000238419,,rt_thecrossant_black,544826,black_plus_sign,,,,50,,,1,0.989010989010989,,,,,,,,,
null,,color_black,544928,black_plus_sign,,,,null,,,,,,,,,,,,,
null,,learn_phase(without_color),546930,black_plus_sign,,,,null,GW/barrel.jpg,GW/paint.jpg,,,,,,,,,,,
null,,black_cross(without_color),547702,green,,,,null,GW/barrel.jpg,GW/paint.jpg,,,,,,,,,,,
371.9000000357628,,rt_plussign_withcolor,548202,green,,,,50,GW/barrel.jpg,GW/paint.jpg,,,,,,,,,,,
null,,rt_thecrossant_black,549434,black_plus_sign,,,,null,,,1,0.9891304347826086,,,,,,,,,
null,,color_black,549536,black_plus_sign,,,,null,,,,,,,,,,,,,
null,,learn_phase(without_color),551538,black_plus_sign,,,,null,GW/dustpan.jpg,GW/globe.jpg,,,,,,,,,,,
null,,black_cross(without_color),552565,green,,,,null,GW/dustpan.jpg,GW/globe.jpg,,,,,,,,,,,
425.80000001192093,,rt_plussign_withcolor,553066,green,,,,50,GW/dustpan.jpg,GW/globe.jpg,,,,,,,,,,,
null,,rt_thecrossant_black,554043,black_plus_sign,,,,null,,,1,0.989247311827957,,,,,,,,,
null,,color_black,554145,black_plus_sign,,,,null,,,,,,,,,,,,,
null,,learn_phase(without_color),556149,black_plus_sign,,,,null,GW/barrel.jpg,GW/soldier.jpg,,,,,,,,,,,
null,,black_cross(without_color),557175,green,,,,null,GW/barrel.jpg,GW/soldier.jpg,,,,,,,,,,,
null,,rt_plussign_withcolor,557677,green,,,,null,GW/barrel.jpg,GW/soldier.jpg,,,,,,,,,,,
1217.3999999761581,,rt_thecrossant_black,558655,black_plus_sign,,,,50,,,1,0.9893617021276596,,,,,,,,,
null,,color_black,558756,black_plus_sign,,,,null,,,,,,,,,,,,,
null,,learn_phase(without_color),560759,black_plus_sign,,,,null,GW/basket.jpg,GW/dustpan.jpg,,,,,,,,,,,
null,,black_cross(without_color),561652,blue,,,,null,GW/basket.jpg,GW/dustpan.jpg,,,,,,,,,,,
null,,rt_plussign_withcolor,562155,blue,,,,null,GW/basket.jpg,GW/dustpan.jpg,,,,,,,,,,,
1157.5,,rt_thecrossant_black,563267,black_plus_sign,,,,49,,,1,0.9894736842105263,,,,,,,,,
null,,color_black,563370,black_plus_sign,,,,null,,,,,,,,,,,,,
null,,learn_phase(without_color),565372,black_plus_sign,,,,null,GW/teeth.jpg,GW/wheelchair.jpg,,,,,,,,,,,
null,,black_cross(without_color),565823,green,,,,null,GW/teeth.jpg,GW/wheelchair.jpg,,,,,,,,,,,
null,,rt_plussign_withcolor,566326,green,,,,null,GW/teeth.jpg,GW/wheelchair.jpg,,,,,,,,,,,
1027.6000000238419,,rt_thecrossant_black,567880,black_plus_sign,,,,50,,,1,0.9895833333333334,,,,,,,,,
null,,color_black,567981,black_plus_sign,,,,null,,,,,,,,,,,,,
null,,learn_phase(without_color),569983,black_plus_sign,,,,null,GW/globe.jpg,GW/teeth.jpg,,,,,,,,,,,
null,,black_cross(without_color),570414,green,,,,null,GW/globe.jpg,GW/teeth.jpg,,,,,,,,,,,
null,,rt_plussign_withcolor,570915,green,,,,null,GW/globe.jpg,GW/teeth.jpg,,,,,,,,,,,
616.5999999642372,,rt_thecrossant_black,572490,black_plus_sign,,,,50,,,1,0.9896907216494846,,,,,,,,,
null,,color_black,572592,black_plus_sign,,,,null,,,,,,,,,,,,,
null,,learn_phase(without_color),574595,black_plus_sign,,,,null,GW/jukebox.jpg,GW/gong.jpg,,,,,,,,,,,
null,,black_cross(without_color),575240,blue,,,,null,GW/jukebox.jpg,GW/gong.jpg,,,,,,,,,,,
427.30000001192093,,rt_plussign_withcolor,575741,blue,,,,49,GW/jukebox.jpg,GW/gong.jpg,,,,,,,,,,,
null,,rt_thecrossant_black,577100,black_plus_sign,,,,null,,,1,0.9897959183673469,,,,,,,,,
null,,color_black,577201,black_plus_sign,,,,null,,,,,,,,,,,,,
null,,learn_phase(without_color),579204,black_plus_sign,,,,null,GW/wheelchair.jpg,GW/paint.jpg,,,,,,,,,,,
null,,black_cross(without_color),580065,blue,,,,null,GW/wheelchair.jpg,GW/paint.jpg,,,,,,,,,,,
null,,rt_plussign_withcolor,580566,blue,,,,null,GW/wheelchair.jpg,GW/paint.jpg,,,,,,,,,,,
947.7999999523163,,rt_thecrossant_black,581711,black_plus_sign,,,,50,,,0,0.9797979797979798,,,,,,,,,
null,,color_black,581812,black_plus_sign,,,,null,,,,,,,,,,,,,
null,,learn_phase(without_color),583814,black_plus_sign,,,,null,GW/gong.jpg,GW/basket.jpg,,,,,,,,,,,
null,,black_cross(without_color),584561,green,,,,null,GW/gong.jpg,GW/basket.jpg,,,,,,,,,,,
null,,rt_plussign_withcolor,585064,green,,,,null,GW/gong.jpg,GW/basket.jpg,,,,,,,,,,,
1043.300000011921,,rt_thecrossant_black,586321,black_plus_sign,,,,50,,,1,0.98,,,,,,,,,
null,,color_black,586422,black_plus_sign,,,,null,,,,,,,,,,,,,
null,,learn_phase(without_color),588423,black_plus_sign,,,,null,GW/basket.jpg,GW/dustpan.jpg,,,,,,,,,,,
null,,black_cross(without_color),589481,blue,,,,null,GW/basket.jpg,GW/dustpan.jpg,,,,,,,,,,,
361.69999998807907,,rt_plussign_withcolor,589982,blue,,,,49,GW/basket.jpg,GW/dustpan.jpg,,,,,,,,,,,
null,,rt_thecrossant_black,590926,black_plus_sign,,,,null,,,1,0.9801980198019802,,,,,,,,,
null,,color_black,591027,black_plus_sign,,,,null,,,,,,,,,,,,,
null,,learn_phase(without_color),593031,black_plus_sign,,,,null,GW/gong.jpg,GW/barrel.jpg,,,,,,,,,,,
null,,black_cross(without_color),593476,green,,,,null,GW/gong.jpg,GW/barrel.jpg,,,,,,,,,,,
462.89999997615814,,rt_plussign_withcolor,593978,green,,,,50,GW/gong.jpg,GW/barrel.jpg,,,,,,,,,,,
null,,rt_thecrossant_black,595536,black_plus_sign,,,,null,,,1,0.9803921568627451,,,,,,,,,
null,,color_black,595637,black_plus_sign,,,,null,,,,,,,,,,,,,
null,,learn_phase(without_color),597639,black_plus_sign,,,,null,GW/barrel.jpg,GW/paint.jpg,,,,,,,,,,,
null,,black_cross(without_color),598380,green,,,,null,GW/barrel.jpg,GW/paint.jpg,,,,,,,,,,,
475.5,,rt_plussign_withcolor,598882,green,,,,50,GW/barrel.jpg,GW/paint.jpg,,,,,,,,,,,
null,,rt_thecrossant_black,600145,black_plus_sign,,,,null,,,1,0.9805825242718447,,,,,,,,,
null,,color_black,600246,black_plus_sign,,,,null,,,,,,,,,,,,,
null,,learn_phase(without_color),602248,black_plus_sign,,,,null,GW/gong.jpg,GW/basket.jpg,,,,,,,,,,,
null,,black_cross(without_color),602710,blue,,,,null,GW/gong.jpg,GW/basket.jpg,,,,,,,,,,,
403.4000000357628,,rt_plussign_withcolor,603212,blue,,,,49,GW/gong.jpg,GW/basket.jpg,,,,,,,,,,,
null,,rt_thecrossant_black,604755,black_plus_sign,,,,null,,,1,0.9807692307692307,,,,,,,,,
null,,color_black,604864,black_plus_sign,,,,null,,,,,,,,,,,,,
null,,learn_phase(without_color),606866,black_plus_sign,,,,null,GW/basket.jpg,GW/dustpan.jpg,,,,,,,,,,,
null,,black_cross(without_color),607487,green,,,,null,GW/basket.jpg,GW/dustpan.jpg,,,,,,,,,,,
354.5,,rt_plussign_withcolor,607989,green,,,,50,GW/basket.jpg,GW/dustpan.jpg,,,,,,,,,,,
null,,rt_thecrossant_black,609373,black_plus_sign,,,,null,,,1,0.9809523809523809,,,,,,,,,
null,,color_black,609475,black_plus_sign,,,,null,,,,,,,,,,,,,
null,,learn_phase(without_color),611477,black_plus_sign,,,,null,GW/barrel.jpg,GW/paint.jpg,,,,,,,,,,,
null,,black_cross(without_color),612464,green,,,,null,GW/barrel.jpg,GW/paint.jpg,,,,,,,,,,,
null,,rt_plussign_withcolor,612967,green,,,,null,GW/barrel.jpg,GW/paint.jpg,,,,,,,,,,,
719.8000000119209,,rt_thecrossant_black,613984,black_plus_sign,,,,50,,,1,0.9811320754716981,,,,,,,,,
null,,color_black,614085,black_plus_sign,,,,null,,,,,,,,,,,,,
null,,learn_phase(without_color),616087,black_plus_sign,,,,null,GW/dustpan.jpg,GW/globe.jpg,,,,,,,,,,,
null,,black_cross(without_color),617116,blue,,,,null,GW/dustpan.jpg,GW/globe.jpg,,,,,,,,,,,
354.30000001192093,,rt_plussign_withcolor,617617,blue,,,,49,GW/dustpan.jpg,GW/globe.jpg,,,,,,,,,,,
null,,rt_thecrossant_black,618594,black_plus_sign,,,,null,,,1,0.9813084112149533,,,,,,,,,
null,,color_black,618695,black_plus_sign,,,,null,,,,,,,,,,,,,
null,,learn_phase(without_color),620698,black_plus_sign,,,,null,GW/teeth.jpg,GW/wheelchair.jpg,,,,,,,,,,,
null,,black_cross(without_color),621593,green,,,,null,GW/teeth.jpg,GW/wheelchair.jpg,,,,,,,,,,,
null,,rt_plussign_withcolor,622094,green,,,,null,GW/teeth.jpg,GW/wheelchair.jpg,,,,,,,,,,,
1313.199999988079,,rt_thecrossant_black,623203,black_plus_sign,,,,50,,,1,0.9814814814814815,,,,,,,,,
null,,color_black,623304,black_plus_sign,,,,null,,,,,,,,,,,,,
null,,learn_phase(without_color),625305,black_plus_sign,,,,null,GW/globe.jpg,GW/snail.jpg,,,,,,,,,,,
null,,black_cross(without_color),626026,blue,,,,null,GW/globe.jpg,GW/snail.jpg,,,,,,,,,,,
null,,rt_plussign_withcolor,626527,blue,,,,null,GW/globe.jpg,GW/snail.jpg,,,,,,,,,,,
1051.2000000476837,,rt_thecrossant_black,627811,black_plus_sign,,,,49,,,1,0.981651376146789,,,,,,,,,
null,,color_black,627912,black_plus_sign,,,,null,,,,,,,,,,,,,
null,,learn_phase(without_color),629913,black_plus_sign,,,,null,GW/dustpan.jpg,GW/globe.jpg,,,,,,,,,,,
null,,black_cross(without_color),630646,blue,,,,null,GW/dustpan.jpg,GW/globe.jpg,,,,,,,,,,,
null,,rt_plussign_withcolor,631147,blue,,,,null,GW/dustpan.jpg,GW/globe.jpg,,,,,,,,,,,
923.2999999523163,,rt_thecrossant_black,632419,black_plus_sign,,,,49,,,1,0.9818181818181818,,,,,,,,,
null,,color_black,632520,black_plus_sign,,,,null,,,,,,,,,,,,,
null,,learn_phase(without_color),634522,black_plus_sign,,,,null,GW/barrel.jpg,GW/paint.jpg,,,,,,,,,,,
null,,black_cross(without_color),635369,green,,,,null,GW/barrel.jpg,GW/paint.jpg,,,,,,,,,,,
499.89999997615814,,rt_plussign_withcolor,635870,green,,,,50,GW/barrel.jpg,GW/paint.jpg,,,,,,,,,,,
null,,rt_thecrossant_black,637029,black_plus_sign,,,,null,,,1,0.9819819819819819,,,,,,,,,
null,,color_black,637130,black_plus_sign,,,,null,,,,,,,,,,,,,
null,,learn_phase(without_color),639132,black_plus_sign,,,,null,GW/globe.jpg,GW/camera.jpg,,,,,,,,,,,
null,,black_cross(without_color),639646,blue,,,,null,GW/globe.jpg,GW/camera.jpg,,,,,,,,,,,
null,,rt_plussign_withcolor,640150,blue,,,,null,GW/globe.jpg,GW/camera.jpg,,,,,,,,,,,
1017,,rt_thecrossant_black,641640,black_plus_sign,,,,49,,,1,0.9821428571428571,,,,,,,,,
null,,color_black,641742,black_plus_sign,,,,null,,,,,,,,,,,,,
null,,learn_phase(without_color),643744,black_plus_sign,,,,null,GW/basket.jpg,GW/dustpan.jpg,,,,,,,,,,,
null,,black_cross(without_color),644584,green,,,,null,GW/basket.jpg,GW/dustpan.jpg,,,,,,,,,,,
null,,rt_plussign_withcolor,645087,green,,,,null,GW/basket.jpg,GW/dustpan.jpg,,,,,,,,,,,
830.5,,rt_thecrossant_black,646250,black_plus_sign,,,,50,,,1,0.9823008849557522,,,,,,,,,
null,,color_black,646353,black_plus_sign,,,,null,,,,,,,,,,,,,
null,,learn_phase(without_color),648356,black_plus_sign,,,,null,GW/teeth.jpg,GW/wheelchair.jpg,,,,,,,,,,,
null,,black_cross(without_color),649275,blue,,,,null,GW/teeth.jpg,GW/wheelchair.jpg,,,,,,,,,,,
null,,rt_plussign_withcolor,649777,blue,,,,null,GW/teeth.jpg,GW/wheelchair.jpg,,,,,,,,,,,
1073.2999999523163,,rt_thecrossant_black,650863,black_plus_sign,,,,49,,,1,0.9824561403508771,,,,,,,,,
null,,color_black,650964,black_plus_sign,,,,null,,,,,,,,,,,,,
null,,learn_phase(without_color),652966,black_plus_sign,,,,null,GW/dustpan.jpg,GW/globe.jpg,,,,,,,,,,,
null,,black_cross(without_color),653454,blue,,,,null,GW/dustpan.jpg,GW/globe.jpg,,,,,,,,,,,
463,,rt_plussign_withcolor,653955,blue,,,,49,GW/dustpan.jpg,GW/globe.jpg,,,,,,,,,,,
null,,rt_thecrossant_black,655471,black_plus_sign,,,,null,,,1,0.9826086956521739,,,,,,,,,
null,,color_black,655573,black_plus_sign,,,,null,,,,,,,,,,,,,
null,,learn_phase(without_color),657575,black_plus_sign,,,,null,GW/jukebox.jpg,GW/gong.jpg,,,,,,,,,,,
null,,black_cross(without_color),658595,blue,,,,null,GW/jukebox.jpg,GW/gong.jpg,,,,,,,,,,,
360.5,,rt_plussign_withcolor,659097,blue,,,,49,GW/jukebox.jpg,GW/gong.jpg,,,,,,,,,,,
null,,rt_thecrossant_black,660082,black_plus_sign,,,,null,,,1,0.9827586206896551,,,,,,,,,
null,,color_black,660183,black_plus_sign,,,,null,,,,,,,,,,,,,
null,,learn_phase(without_color),662185,black_plus_sign,,,,null,GW/dustpan.jpg,GW/globe.jpg,,,,,,,,,,,
null,,black_cross(without_color),662694,blue,,,,null,GW/dustpan.jpg,GW/globe.jpg,,,,,,,,,,,
null,,rt_plussign_withcolor,663196,blue,,,,null,GW/dustpan.jpg,GW/globe.jpg,,,,,,,,,,,
1324.300000011921,,rt_thecrossant_black,664690,black_plus_sign,,,,49,,,1,0.9829059829059829,,,,,,,,,
null,,color_black,664792,black_plus_sign,,,,null,,,,,,,,,,,,,
null,,learn_phase(without_color),666794,black_plus_sign,,,,null,GW/snail.jpg,GW/hat.jpg,,,,,,,,,,,
null,,black_cross(without_color),667723,blue,,,,null,GW/snail.jpg,GW/hat.jpg,,,,,,,,,,,
null,,rt_plussign_withcolor,668225,blue,,,,null,GW/snail.jpg,GW/hat.jpg,,,,,,,,,,,
724.1000000238419,,rt_thecrossant_black,669302,black_plus_sign,,,,49,,,1,0.9830508474576272,,,,,,,,,
null,,color_black,669403,black_plus_sign,,,,null,,,,,,,,,,,,,
null,,learn_phase(without_color),671420,black_plus_sign,,,,null,GW/barrel.jpg,GW/paint.jpg,,,,,,,,,,,
null,,black_cross(without_color),672083,blue,,,,null,GW/barrel.jpg,GW/paint.jpg,,,,,,,,,,,
null,,rt_plussign_withcolor,672586,blue,,,,null,GW/barrel.jpg,GW/paint.jpg,,,,,,,,,,,
1133.6000000238419,,rt_thecrossant_black,673927,black_plus_sign,,,,49,,,1,0.9831932773109243,,,,,,,,,
null,,color_black,674028,black_plus_sign,,,,null,,,,,,,,,,,,,
null,,learn_phase(without_color),676029,black_plus_sign,,,,null,GW/basket.jpg,GW/wheelchair.jpg,,,,,,,,,,,
null,,black_cross(without_color),677002,blue,,,,null,GW/basket.jpg,GW/wheelchair.jpg,,,,,,,,,,,
438.2000000476837,,rt_plussign_withcolor,677504,blue,,,,49,GW/basket.jpg,GW/wheelchair.jpg,,,,,,,,,,,
null,,rt_thecrossant_black,678537,black_plus_sign,,,,null,,,1,0.9833333333333333,,,,,,,,,
null,,color_black,678639,black_plus_sign,,,,null,,,,,,,,,,,,,
null,,learn_phase(without_color),680641,black_plus_sign,,,,null,GW/snail.jpg,GW/hat.jpg,,,,,,,,,,,
null,,black_cross(without_color),681372,blue,,,,null,GW/snail.jpg,GW/hat.jpg,,,,,,,,,,,
343.89999997615814,,rt_plussign_withcolor,681874,blue,,,,49,GW/snail.jpg,GW/hat.jpg,,,,,,,,,,,
null,,rt_thecrossant_black,683149,black_plus_sign,,,,null,,,1,0.9834710743801653,,,,,,,,,
null,,color_black,683251,black_plus_sign,,,,null,,,,,,,,,,,,,
null,,learn_phase(without_color),685254,black_plus_sign,,,,null,GW/dustpan.jpg,GW/teeth.jpg,,,,,,,,,,,
null,,black_cross(without_color),686022,green,,,,null,GW/dustpan.jpg,GW/teeth.jpg,,,,,,,,,,,
null,,rt_plussign_withcolor,686524,green,,,,null,GW/dustpan.jpg,GW/teeth.jpg,,,,,,,,,,,
1014.3000000119209,,rt_thecrossant_black,687761,black_plus_sign,,,,50,,,1,0.9836065573770492,,,,,,,,,
null,,color_black,687863,black_plus_sign,,,,null,,,,,,,,,,,,,
null,,learn_phase(without_color),689867,black_plus_sign,,,,null,GW/wheelchair.jpg,GW/paint.jpg,,,,,,,,,,,
null,,black_cross(without_color),690461,green,,,,null,GW/wheelchair.jpg,GW/paint.jpg,,,,,,,,,,,
null,,rt_plussign_withcolor,690964,green,,,,null,GW/wheelchair.jpg,GW/paint.jpg,,,,,,,,,,,
1002.5,,rt_thecrossant_black,692375,black_plus_sign,,,,50,,,1,0.983739837398374,,,,,,,,,
null,,color_black,692476,black_plus_sign,,,,null,,,,,,,,,,,,,
null,,learn_phase(without_color),694479,black_plus_sign,,,,null,GW/globe.jpg,GW/snail.jpg,,,,,,,,,,,
null,,black_cross(without_color),695543,green,,,,null,GW/globe.jpg,GW/snail.jpg,,,,,,,,,,,
498.2999999523163,,rt_plussign_withcolor,696044,green,,,,50,GW/globe.jpg,GW/snail.jpg,,,,,,,,,,,
null,,rt_thecrossant_black,696985,black_plus_sign,,,,null,,,1,0.9838709677419355,,,,,,,,,
null,,color_black,697087,black_plus_sign,,,,null,,,,,,,,,,,,,
null,,learn_phase(without_color),699089,black_plus_sign,,,,null,GW/teeth.jpg,GW/wheelchair.jpg,,,,,,,,,,,
null,,black_cross(without_color),700153,green,,,,null,GW/teeth.jpg,GW/wheelchair.jpg,,,,,,,,,,,
null,,rt_plussign_withcolor,700655,green,,,,null,GW/teeth.jpg,GW/wheelchair.jpg,,,,,,,,,,,
1176.699999988079,,rt_thecrossant_black,701596,black_plus_sign,,,,50,,,1,0.984,,,,,,,,,
null,,color_black,701699,black_plus_sign,,,,null,,,,,,,,,,,,,
null,,learn_phase(without_color),703702,black_plus_sign,,,,null,GW/basket.jpg,GW/wheelchair.jpg,,,,,,,,,,,
null,,black_cross(without_color),704486,green,,,,null,GW/basket.jpg,GW/wheelchair.jpg,,,,,,,,,,,
482.5,,rt_plussign_withcolor,704987,green,,,,50,GW/basket.jpg,GW/wheelchair.jpg,,,,,,,,,,,
null,,rt_thecrossant_black,706209,black_plus_sign,,,,null,,,1,0.9841269841269841,,,,,,,,,
null,,color_black,706311,black_plus_sign,,,,null,,,,,,,,,,,,,
null,,learn_phase(without_color),708313,black_plus_sign,,,,null,GW/snail.jpg,GW/hat.jpg,,,,,,,,,,,
null,,black_cross(without_color),709138,blue,,,,null,GW/snail.jpg,GW/hat.jpg,,,,,,,,,,,
476.60000002384186,,rt_plussign_withcolor,709639,blue,,,,49,GW/snail.jpg,GW/hat.jpg,,,,,,,,,,,
null,,rt_thecrossant_black,710819,black_plus_sign,,,,null,,,1,0.984251968503937,,,,,,,,,
null,,color_black,710920,black_plus_sign,,,,null,,,,,,,,,,,,,
null,,learn_phase(without_color),712921,black_plus_sign,,,,null,GW/barrel.jpg,GW/soldier.jpg,,,,,,,,,,,
null,,black_cross(without_color),713995,green,,,,null,GW/barrel.jpg,GW/soldier.jpg,,,,,,,,,,,
null,,rt_plussign_withcolor,714497,green,,,,null,GW/barrel.jpg,GW/soldier.jpg,,,,,,,,,,,
1023.6000000238419,,rt_thecrossant_black,715427,black_plus_sign,,,,50,,,1,0.984375,,,,,,,,,
null,,color_black,715529,black_plus_sign,,,,null,,,,,,,,,,,,,
8286.100000023842,,intro_1,723815,instruct,,0,Start,,,,,,,,,,,,,,
3387.899999976158,,directmemory_phase,727204,GW/globe.jpg,,,,50,,,1,1,GW/wheelchair.jpg,GW/camera.jpg,GW/paint.jpg,GW/camera.jpg,GW/wheelchair.jpg,GW/paint.jpg,1,,
null,,html-keyboard-response,728207,<p></p>,,,,null,,,,,,,,,,,,,
2575.100000023842,,directmemory_phase,730782,GW/paint.jpg,,,,49,,,1,1,GW/wheelchair.jpg,GW/jukebox.jpg,GW/basket.jpg,GW/wheelchair.jpg,GW/basket.jpg,GW/jukebox.jpg,1,,
null,,html-keyboard-response,731785,<p></p>,,,,null,,,,,,,,,,,,,
1289.5,,directmemory_phase,733075,GW/barrel.jpg,,,,50,,,1,1,GW/basket.jpg,GW/soldier.jpg,GW/snail.jpg,GW/soldier.jpg,GW/basket.jpg,GW/snail.jpg,1,,
null,,html-keyboard-response,734077,<p></p>,,,,null,,,,,,,,,,,,,
3090.199999988079,,directmemory_phase,737167,GW/wheelchair.jpg,,,,51,,,1,1,GW/hat.jpg,GW/globe.jpg,GW/basket.jpg,GW/basket.jpg,GW/globe.jpg,GW/hat.jpg,1,,
null,,html-keyboard-response,738170,<p></p>,,,,null,,,,,,,,,,,,,
2064.399999976158,,directmemory_phase,740235,GW/globe.jpg,,,,49,,,1,1,GW/snail.jpg,GW/paint.jpg,GW/basket.jpg,GW/snail.jpg,GW/basket.jpg,GW/paint.jpg,1,,
null,,html-keyboard-response,741236,<p></p>,,,,null,,,,,,,,,,,,,
1711.800000011921,,directmemory_phase,742949,GW/teeth.jpg,,,,50,,,1,1,GW/hat.jpg,GW/wheelchair.jpg,GW/soldier.jpg,GW/wheelchair.jpg,GW/hat.jpg,GW/soldier.jpg,1,,
null,,html-keyboard-response,743951,<p></p>,,,,null,,,,,,,,,,,,,
1068.1000000238419,,directmemory_phase,745019,GW/gong.jpg,,,,51,,,1,1,GW/snail.jpg,GW/paint.jpg,GW/jukebox.jpg,GW/jukebox.jpg,GW/paint.jpg,GW/snail.jpg,1,,
null,,html-keyboard-response,746021,<p></p>,,,,null,,,,,,,,,,,,,
2303.699999988079,,directmemory_phase,748325,GW/teeth.jpg,,,,49,,,1,1,GW/snail.jpg,GW/jukebox.jpg,GW/basket.jpg,GW/snail.jpg,GW/basket.jpg,GW/jukebox.jpg,1,,
null,,html-keyboard-response,749326,<p></p>,,,,null,,,,,,,,,,,,,
1589.4000000357628,,directmemory_phase,750917,GW/dustpan.jpg,,,,49,,,1,1,GW/basket.jpg,GW/paint.jpg,GW/gong.jpg,GW/basket.jpg,GW/gong.jpg,GW/paint.jpg,1,,
null,,html-keyboard-response,751920,<p></p>,,,,null,,,,,,,,,,,,,
2547.400000035763,,directmemory_phase,754467,GW/barrel.jpg,,,,50,,,1,1,GW/jukebox.jpg,GW/paint.jpg,GW/snail.jpg,GW/paint.jpg,GW/jukebox.jpg,GW/snail.jpg,1,,
null,,html-keyboard-response,755469,<p></p>,,,,null,,,,,,,,,,,,,
2180.400000035763,,directmemory_phase,757650,GW/globe.jpg,,,,51,,,1,1,GW/barrel.jpg,GW/basket.jpg,GW/teeth.jpg,GW/teeth.jpg,GW/basket.jpg,GW/barrel.jpg,1,,
null,,html-keyboard-response,758652,<p></p>,,,,null,,,,,,,,,,,,,
2864.199999988079,,directmemory_phase,761517,GW/basket.jpg,,,,49,,,1,1,GW/wheelchair.jpg,GW/soldier.jpg,GW/barrel.jpg,GW/wheelchair.jpg,GW/barrel.jpg,GW/soldier.jpg,1,,
null,,html-keyboard-response,762519,<p></p>,,,,null,,,,,,,,,,,,,
1461,,directmemory_phase,763980,GW/gong.jpg,,,,51,,,1,1,GW/snail.jpg,GW/wheelchair.jpg,GW/barrel.jpg,GW/barrel.jpg,GW/wheelchair.jpg,GW/snail.jpg,1,,
null,,html-keyboard-response,764982,<p></p>,,,,null,,,,,,,,,,,,,
1208.0999999642372,,directmemory_phase,766190,GW/dustpan.jpg,,,,50,,,1,1,GW/camera.jpg,GW/teeth.jpg,GW/soldier.jpg,GW/teeth.jpg,GW/camera.jpg,GW/soldier.jpg,1,,
null,,html-keyboard-response,767193,<p></p>,,,,null,,,,,,,,,,,,,
2246.599999964237,,directmemory_phase,769440,GW/camera.jpg,,,,51,,,1,1,GW/wheelchair.jpg,GW/snail.jpg,GW/globe.jpg,GW/globe.jpg,GW/snail.jpg,GW/wheelchair.jpg,1,,
null,,html-keyboard-response,770442,<p></p>,,,,null,,,,,,,,,,,,,
942.5,,directmemory_phase,771385,GW/paint.jpg,,,,50,,,1,1,GW/basket.jpg,GW/barrel.jpg,GW/snail.jpg,GW/barrel.jpg,GW/basket.jpg,GW/snail.jpg,1,,
null,,html-keyboard-response,772387,<p></p>,,,,null,,,,,,,,,,,,,
1961.1000000238419,,directmemory_phase,774349,GW/teeth.jpg,,,,51,,,1,1,GW/soldier.jpg,GW/basket.jpg,GW/globe.jpg,GW/globe.jpg,GW/basket.jpg,GW/soldier.jpg,1,,
null,,html-keyboard-response,775350,<p></p>,,,,null,,,,,,,,,,,,,
3099.399999976158,,directmemory_phase,778450,GW/barrel.jpg,,,,51,,,1,1,GW/teeth.jpg,GW/jukebox.jpg,GW/gong.jpg,GW/gong.jpg,GW/jukebox.jpg,GW/teeth.jpg,1,,
null,,html-keyboard-response,779452,<p></p>,,,,null,,,,,,,,,,,,,
1390.699999988079,,directmemory_phase,780843,GW/snail.jpg,,,,51,,,1,1,GW/barrel.jpg,GW/camera.jpg,GW/hat.jpg,GW/hat.jpg,GW/camera.jpg,GW/barrel.jpg,1,,
null,,html-keyboard-response,781845,<p></p>,,,,null,,,,,,,,,,,,,
1301.300000011921,,directmemory_phase,783147,GW/wheelchair.jpg,,,,50,,,1,1,GW/gong.jpg,GW/teeth.jpg,GW/hat.jpg,GW/teeth.jpg,GW/gong.jpg,GW/hat.jpg,1,,
null,,html-keyboard-response,784148,<p></p>,,,,null,,,,,,,,,,,,,
831,,directmemory_phase,784980,GW/hat.jpg,,,,51,,,1,1,GW/dustpan.jpg,GW/teeth.jpg,GW/snail.jpg,GW/snail.jpg,GW/teeth.jpg,GW/dustpan.jpg,1,,
null,,html-keyboard-response,785982,<p></p>,,,,null,,,,,,,,,,,,,
3760.300000011921,,directmemory_phase,789743,GW/jukebox.jpg,,,,51,,,1,1,GW/wheelchair.jpg,GW/barrel.jpg,GW/gong.jpg,GW/gong.jpg,GW/barrel.jpg,GW/wheelchair.jpg,1,,
null,,html-keyboard-response,790745,<p></p>,,,,null,,,,,,,,,,,,,
2071.300000011921,,directmemory_phase,792817,GW/snail.jpg,,,,50,,,1,1,GW/dustpan.jpg,GW/teeth.jpg,GW/paint.jpg,GW/teeth.jpg,GW/dustpan.jpg,GW/paint.jpg,1,,
null,,html-keyboard-response,793819,<p></p>,,,,null,,,,,,,,,,,,,
2004.8999999761581,,directmemory_phase,795824,GW/globe.jpg,,,,50,,,1,1,GW/hat.jpg,GW/dustpan.jpg,GW/jukebox.jpg,GW/dustpan.jpg,GW/hat.jpg,GW/jukebox.jpg,1,,
null,,html-keyboard-response,796826,<p></p>,,,,null,,,,,,,,,,,,,
1815.2999999523163,,directmemory_phase,798642,GW/soldier.jpg,,,,51,,,1,1,GW/wheelchair.jpg,GW/gong.jpg,GW/barrel.jpg,GW/barrel.jpg,GW/gong.jpg,GW/wheelchair.jpg,1,,
null,,html-keyboard-response,799643,<p></p>,,,,null,,,,,,,,,,,,,
2226.800000011921,,directmemory_phase,801871,GW/basket.jpg,,,,49,,,1,1,GW/gong.jpg,GW/snail.jpg,GW/paint.jpg,GW/gong.jpg,GW/paint.jpg,GW/snail.jpg,1,,
null,,html-keyboard-response,802871,<p></p>,,,,null,,,,,,,,,,,,,
3329.199999988079,,directmemory_phase,806201,GW/snail.jpg,,,,51,,,1,1,GW/paint.jpg,GW/dustpan.jpg,GW/globe.jpg,GW/globe.jpg,GW/dustpan.jpg,GW/paint.jpg,1,,
null,,html-keyboard-response,807202,<p></p>,,,,null,,,,,,,,,,,,,
1373.5999999642372,,directmemory_phase,808577,GW/basket.jpg,,,,51,,,1,1,GW/soldier.jpg,GW/globe.jpg,GW/dustpan.jpg,GW/dustpan.jpg,GW/globe.jpg,GW/soldier.jpg,1,,
null,,html-keyboard-response,809578,<p></p>,,,,null,,,,,,,,,,,,,
2806.600000023842,,directmemory_phase,812385,GW/wheelchair.jpg,,,,51,,,1,1,GW/camera.jpg,GW/barrel.jpg,GW/paint.jpg,GW/paint.jpg,GW/barrel.jpg,GW/camera.jpg,1,,
null,,html-keyboard-response,813386,<p></p>,,,,null,,,,,,,,,,,,,
4545.700000047684,,directmemory_phase,817933,GW/teeth.jpg,,,,50,,,1,1,GW/camera.jpg,GW/dustpan.jpg,GW/gong.jpg,GW/dustpan.jpg,GW/camera.jpg,GW/gong.jpg,1,,
null,,html-keyboard-response,818934,<p></p>,,,,null,,,,,,,,,,,,,
2566.5,,directmemory_phase,821501,GW/gong.jpg,,,,51,,,1,1,GW/snail.jpg,GW/paint.jpg,GW/basket.jpg,GW/basket.jpg,GW/paint.jpg,GW/snail.jpg,1,,
null,,html-keyboard-response,822503,<p></p>,,,,null,,,,,,,,,,,,,
2303.699999988079,,directmemory_phase,824807,GW/dustpan.jpg,,,,51,,,1,1,GW/hat.jpg,GW/snail.jpg,GW/globe.jpg,GW/globe.jpg,GW/snail.jpg,GW/hat.jpg,1,,
null,,html-keyboard-response,825809,<p></p>,,,,null,,,,,,,,,,,,,
11103.900000035763,,intro_1,836913,instruct,,0,,,,,,,,,,,,,,,
5536,,intro_2,842450,instruct,,1,Next,,,,,,,,,,,,,,
3443.2000000476837,,intro_3,845894,instruct,,1,Next,,,,,,,,,,,,,,
4489.100000023842,,intro_4,850384,instruct,,1,Next,,,,,,,,,,,,,,
8359.299999952316,,intro_5,858745,instruct,,1,Next,,,,,,,,,,,,,,
11007.400000035763,,intro_6,869753,instruct,,1,Next,,,,,,,,,,,,,,
11053.5,,intro_7,880807,instruct,,1,Next,,,,,,,,,,,,,,
6891.099999964237,,intro_8,887699,instruct,,1,Next,,,,,,,,,,,,,,
null,,shortestpath_phase,895201,GW/camera.jpg,,,,null,GW/paint.jpg,GW/soldier.jpg,0,0,,,,GW/paint.jpg,,,,Two Edge Diff,Four Edge Six Edge
null,,html-keyboard-response,896203,<p></p>,,,,null,,,,,,,,,,,,,
1814.7000000476837,,shortestpath_phase,898019,GW/hat.jpg,,,,49,GW/globe.jpg,GW/jukebox.jpg,1,0.5,,,,GW/globe.jpg,,,,Four Edge Diff,Two Edge Six Edge
null,,html-keyboard-response,899022,<p></p>,,,,null,,,,,,,,,,,,,
3214.5,,shortestpath_phase,902237,GW/soldier.jpg,,,,50,GW/hat.jpg,GW/teeth.jpg,1,0.6666666666666666,,,,GW/teeth.jpg,,,,Two Edge Diff,Four Edge Six Edge
null,,html-keyboard-response,903238,<p></p>,,,,null,,,,,,,,,,,,,
3760.300000011921,,shortestpath_phase,906999,GW/snail.jpg,,,,50,GW/soldier.jpg,GW/camera.jpg,1,0.75,,,,GW/camera.jpg,,,,Three Edge Diff,Three Edge Six Edge
null,,html-keyboard-response,908000,<p></p>,,,,null,,,,,,,,,,,,,
4275.199999988079,,shortestpath_phase,912276,GW/soldier.jpg,,,,49,GW/globe.jpg,GW/camera.jpg,1,0.8,,,,GW/globe.jpg,,,,One Edge Diff,Five Edge Six Edge
null,,html-keyboard-response,913278,<p></p>,,,,null,,,,,,,,,,,,,
4472.100000023842,,shortestpath_phase,917751,GW/camera.jpg,,,,49,GW/paint.jpg,GW/basket.jpg,0,0.6666666666666666,,,,GW/basket.jpg,,,,One Edge Diff,Three Edge Four Edge
null,,html-keyboard-response,918754,<p></p>,,,,null,,,,,,,,,,,,,
3499,,shortestpath_phase,922253,GW/hat.jpg,,,,49,GW/teeth.jpg,GW/basket.jpg,1,0.7142857142857143,,,,GW/teeth.jpg,,,,Two Edge Diff,Two Edge Four Edge
null,,html-keyboard-response,923254,<p></p>,,,,null,,,,,,,,,,,,,
4468,,shortestpath_phase,927723,GW/soldier.jpg,,,,50,GW/globe.jpg,GW/paint.jpg,1,0.75,,,,GW/paint.jpg,,,,Three Edge Diff,Two Edge Five Edge
null,,html-keyboard-response,928725,<p></p>,,,,null,,,,,,,,,,,,,
5050.599999964237,,shortestpath_phase,933776,GW/globe.jpg,,,,50,GW/hat.jpg,GW/soldier.jpg,0,0.6666666666666666,,,,GW/hat.jpg,,,,Three Edge Diff,Two Edge Five Edge
null,,html-keyboard-response,934778,<p></p>,,,,null,,,,,,,,,,,,,
5908.699999988079,,shortestpath_phase,940687,GW/teeth.jpg,,,,50,GW/paint.jpg,GW/soldier.jpg,0,0.6,,,,GW/paint.jpg,,,,Two Edge Diff,Two Edge Four Edge
null,,html-keyboard-response,941689,<p></p>,,,,null,,,,,,,,,,,,,
6383.199999988079,,shortestpath_phase,948073,GW/hat.jpg,,,,49,GW/jukebox.jpg,GW/basket.jpg,0,0.5454545454545454,,,,GW/basket.jpg,,,,Two Edge Diff,Four Edge Six Edge
null,,html-keyboard-response,949074,<p></p>,,,,null,,,,,,,,,,,,,
3268,,shortestpath_phase,952343,GW/soldier.jpg,,,,50,GW/camera.jpg,GW/teeth.jpg,1,0.5833333333333334,,,,GW/teeth.jpg,,,,Two Edge Diff,Four Edge Six Edge
null,,html-keyboard-response,953345,<p></p>,,,,null,,,,,,,,,,,,,
2109.400000035763,,shortestpath_phase,955456,GW/camera.jpg,,,,50,GW/soldier.jpg,GW/dustpan.jpg,1,0.6153846153846154,,,,GW/dustpan.jpg,,,,Four Edge Diff,Two Edge Six Edge
null,,html-keyboard-response,956457,<p></p>,,,,null,,,,,,,,,,,,,
5111.100000023842,,shortestpath_phase,961568,GW/barrel.jpg,,,,50,GW/hat.jpg,GW/teeth.jpg,1,0.6428571428571429,,,,GW/teeth.jpg,,,,Two Edge Diff,Three Edge Five Edge
null,,html-keyboard-response,962570,<p></p>,,,,null,,,,,,,,,,,,,
5930.600000023842,,shortestpath_phase,968502,GW/soldier.jpg,,,,50,GW/snail.jpg,GW/basket.jpg,1,0.6666666666666666,,,,GW/basket.jpg,,,,Two Edge Diff,Three Edge Five Edge
null,,html-keyboard-response,969503,<p></p>,,,,null,,,,,,,,,,,,,
4838.900000035763,,shortestpath_phase,974343,GW/barrel.jpg,,,,50,GW/camera.jpg,GW/teeth.jpg,1,0.6875,,,,GW/teeth.jpg,,,,Two Edge Diff,Three Edge Five Edge
null,,html-keyboard-response,975346,<p></p>,,,,null,,,,,,,,,,,,,
6405.300000011921,,shortestpath_phase,981752,GW/soldier.jpg,,,,49,GW/dustpan.jpg,GW/hat.jpg,1,0.7058823529411765,,,,GW/dustpan.jpg,,,,Two Edge Diff,Four Edge Six Edge
null,,html-keyboard-response,982753,<p></p>,,,,null,,,,,,,,,,,,,
5100.400000035763,,shortestpath_phase,987854,GW/wheelchair.jpg,,,,49,GW/barrel.jpg,GW/camera.jpg,1,0.7222222222222222,,,,GW/barrel.jpg,,,,One Edge Diff,Two Edge Three Edge
null,,html-keyboard-response,988856,<p></p>,,,,null,,,,,,,,,,,,,
6279.099999964237,,shortestpath_phase,995136,GW/soldier.jpg,,,,49,GW/snail.jpg,GW/camera.jpg,1,0.7368421052631579,,,,GW/snail.jpg,,,,One Edge Diff,Five Edge Six Edge
null,,html-keyboard-response,996138,<p></p>,,,,null,,,,,,,,,,,,,
null,,shortestpath_phase,1003641,GW/jukebox.jpg,,,,null,GW/snail.jpg,GW/wheelchair.jpg,0,0.7,,,,GW/wheelchair.jpg,,,,Two Edge Diff,Three Edge Five Edge
null,,html-keyboard-response,1004647,<p></p>,,,,null,,,,,,,,,,,,,
3933.5,,shortestpath_phase,1008581,GW/soldier.jpg,,,,50,GW/globe.jpg,GW/basket.jpg,1,0.7142857142857143,,,,GW/basket.jpg,,,,Two Edge Diff,Three Edge Five Edge
null,,html-keyboard-response,1009583,<p></p>,,,,null,,,,,,,,,,,,,
5315.800000011921,,shortestpath_phase,1014899,GW/hat.jpg,,,,49,GW/soldier.jpg,GW/paint.jpg,0,0.6818181818181818,,,,GW/paint.jpg,,,,Two Edge Diff,Four Edge Six Edge
null,,html-keyboard-response,1015901,<p></p>,,,,null,,,,,,,,,,,,,
3149.600000023842,,shortestpath_phase,1019052,GW/jukebox.jpg,,,,49,GW/barrel.jpg,GW/hat.jpg,1,0.6956521739130435,,,,GW/barrel.jpg,,,,Four Edge Diff,Two Edge Six Edge
null,,html-keyboard-response,1020054,<p></p>,,,,null,,,,,,,,,,,,,
2619,,shortestpath_phase,1022673,GW/camera.jpg,,,,50,GW/wheelchair.jpg,GW/barrel.jpg,0,0.6666666666666666,,,,GW/wheelchair.jpg,,,,Two Edge Diff,Three Edge Five Edge
null,,html-keyboard-response,1023675,<p></p>,,,,null,,,,,,,,,,,,,
4153.699999988079,,shortestpath_phase,1027829,GW/hat.jpg,,,,49,GW/gong.jpg,GW/soldier.jpg,1,0.68,,,,GW/gong.jpg,,,,One Edge Diff,Five Edge Six Edge
null,,html-keyboard-response,1028831,<p></p>,,,,null,,,,,,,,,,,,,
5703.599999964237,,shortestpath_phase,1034536,GW/wheelchair.jpg,,,,50,GW/jukebox.jpg,GW/barrel.jpg,1,0.6923076923076923,,,,GW/barrel.jpg,,,,One Edge Diff,Two Edge Three Edge
null,,html-keyboard-response,1035537,<p></p>,,,,null,,,,,,,,,,,,,
3875.900000035763,,shortestpath_phase,1039413,GW/hat.jpg,,,,50,GW/camera.jpg,GW/paint.jpg,0,0.6666666666666666,,,,GW/camera.jpg,,,,One Edge Diff,Three Edge Four Edge
null,,html-keyboard-response,1040415,<p></p>,,,,null,,,,,,,,,,,,,
6987.300000011921,,shortestpath_phase,1047403,GW/barrel.jpg,,,,50,GW/hat.jpg,GW/wheelchair.jpg,1,0.6785714285714286,,,,GW/wheelchair.jpg,,,,Three Edge Diff,Three Edge Six Edge
null,,html-keyboard-response,1048405,<p></p>,,,,null,,,,,,,,,,,,,
5083.800000011921,,shortestpath_phase,1053489,GW/soldier.jpg,,,,50,GW/globe.jpg,GW/teeth.jpg,1,0.6896551724137931,,,,GW/teeth.jpg,,,,One Edge Diff,Four Edge Five Edge
null,,html-keyboard-response,1054492,<p></p>,,,,null,,,,,,,,,,,,,
4372.399999976158,,shortestpath_phase,1058865,GW/barrel.jpg,,,,50,GW/camera.jpg,GW/globe.jpg,1,0.7,,,,GW/globe.jpg,,,,One Edge Diff,Four Edge Five Edge
null,,html-keyboard-response,1059868,<p></p>,,,,null,,,,,,,,,,,,,
5758.300000011921,,shortestpath_phase,1065627,GW/camera.jpg,,,,50,GW/hat.jpg,GW/paint.jpg,0,0.6774193548387096,,,,GW/hat.jpg,,,,One Edge Diff,Three Edge Four Edge
null,,html-keyboard-response,1066628,<p></p>,,,,null,,,,,,,,,,,,,
3727.399999976158,,shortestpath_phase,1070356,GW/snail.jpg,,,,50,GW/barrel.jpg,GW/paint.jpg,1,0.6875,,,,GW/paint.jpg,,,,One Edge Diff,Three Edge Four Edge
null,,html-keyboard-response,1071358,<p></p>,,,,null,,,,,,,,,,,,,
4025.199999988079,,shortestpath_phase,1075384,GW/hat.jpg,,,,50,GW/basket.jpg,GW/soldier.jpg,0,0.6666666666666666,,,,GW/basket.jpg,,,,Two Edge Diff,Four Edge Six Edge
null,,html-keyboard-response,1076386,<p></p>,,,,null,,,,,,,,,,,,,
2115.399999976158,,shortestpath_phase,1078503,GW/camera.jpg,,,,50,GW/gong.jpg,GW/dustpan.jpg,1,0.6764705882352942,,,,GW/dustpan.jpg,,,,Two Edge Diff,Two Edge Four Edge
null,,html-keyboard-response,1079504,<p></p>,,,,null,,,,,,,,,,,,,
4302.699999988079,,shortestpath_phase,1083807,GW/barrel.jpg,,,,50,GW/basket.jpg,GW/hat.jpg,0,0.6571428571428571,,,,GW/basket.jpg,,,,Three Edge Diff,Two Edge Five Edge
null,,html-keyboard-response,1084808,<p></p>,,,,null,,,,,,,,,,,,,
3500,,shortestpath_phase,1088309,GW/hat.jpg,,,,50,GW/jukebox.jpg,GW/paint.jpg,1,0.6666666666666666,,,,GW/paint.jpg,,,,Two Edge Diff,Four Edge Six Edge
null,,html-keyboard-response,1089311,<p></p>,,,,null,,,,,,,,,,,,,
4651.699999988079,,shortestpath_phase,1093963,GW/jukebox.jpg,,,,50,GW/camera.jpg,GW/dustpan.jpg,1,0.6756756756756757,,,,GW/dustpan.jpg,,,,Two Edge Diff,Three Edge Five Edge
null,,html-keyboard-response,1094964,<p></p>,,,,null,,,,,,,,,,,,,
5166.100000023842,,shortestpath_phase,1100131,GW/soldier.jpg,,,,50,GW/dustpan.jpg,GW/wheelchair.jpg,1,0.6842105263157895,,,,GW/wheelchair.jpg,,,,One Edge Diff,Three Edge Four Edge
null,,html-keyboard-response,1101133,<p></p>,,,,null,,,,,,,,,,,,,
4634.600000023842,,shortestpath_phase,1105768,GW/gong.jpg,,,,49,GW/hat.jpg,GW/camera.jpg,0,0.6666666666666666,,,,GW/camera.jpg,,,,One Edge Diff,Four Edge Five Edge
null,,html-keyboard-response,1106769,<p></p>,,,,null,,,,,,,,,,,,,
2870,,shortestpath_phase,1109640,GW/soldier.jpg,,,,50,GW/hat.jpg,GW/globe.jpg,1,0.675,,,,GW/globe.jpg,,,,One Edge Diff,Five Edge Six Edge
null,,html-keyboard-response,1110641,<p></p>,,,,null,,,,,,,,,,,,,
3206.100000023842,,shortestpath_phase,1113848,GW/snail.jpg,,,,50,GW/soldier.jpg,GW/wheelchair.jpg,1,0.6829268292682927,,,,GW/wheelchair.jpg,,,,Three Edge Diff,Three Edge Six Edge
null,,html-keyboard-response,1114850,<p></p>,,,,null,,,,,,,,,,,,,
2791.099999964237,,shortestpath_phase,1117642,GW/jukebox.jpg,,,,50,GW/wheelchair.jpg,GW/barrel.jpg,1,0.6904761904761905,,,,GW/barrel.jpg,,,,One Edge Diff,Two Edge Three Edge
null,,html-keyboard-response,1118643,<p></p>,,,,null,,,,,,,,,,,,,
1715.8999999761581,,shortestpath_phase,1120360,GW/hat.jpg,,,,49,GW/globe.jpg,GW/soldier.jpg,1,0.6976744186046512,,,,GW/globe.jpg,,,,Four Edge Diff,Two Edge Six Edge
null,,html-keyboard-response,1121361,<p></p>,,,,null,,,,,,,,,,,,,
3894,,shortestpath_phase,1125256,GW/camera.jpg,,,,49,GW/snail.jpg,GW/barrel.jpg,1,0.7045454545454546,,,,GW/snail.jpg,,,,Three Edge Diff,Three Edge Six Edge
null,,html-keyboard-response,1126257,<p></p>,,,,null,,,,,,,,,,,,,
4265,,shortestpath_phase,1130523,GW/jukebox.jpg,,,,50,GW/hat.jpg,GW/teeth.jpg,1,0.7111111111111111,,,,GW/teeth.jpg,,,,Two Edge Diff,Four Edge Six Edge
null,,html-keyboard-response,1131524,<p></p>,,,,null,,,,,,,,,,,,,
1804.3999999761581,,shortestpath_phase,1133329,GW/snail.jpg,,,,50,GW/soldier.jpg,GW/barrel.jpg,1,0.717391304347826,,,,GW/barrel.jpg,,,,One Edge Diff,Four Edge Five Edge
null,,html-keyboard-response,1134331,<p></p>,,,,null,,,,,,,,,,,,,
4613.399999976158,,shortestpath_phase,1138945,GW/basket.jpg,,,,50,GW/hat.jpg,GW/soldier.jpg,1,0.723404255319149,,,,GW/soldier.jpg,,,,One Edge Diff,Three Edge Four Edge
null,,html-keyboard-response,1139947,<p></p>,,,,null,,,,,,,,,,,,,
4457.100000023842,,shortestpath_phase,1144404,GW/hat.jpg,,,,49,GW/paint.jpg,GW/gong.jpg,1,0.7291666666666666,,,,GW/paint.jpg,,,,One Edge Diff,Four Edge Five Edge
null,,html-keyboard-response,1145407,<p></p>,,,,null,,,,,,,,,,,,,
2508.099999964237,,shortestpath_phase,1147916,GW/dustpan.jpg,,,,49,GW/camera.jpg,GW/jukebox.jpg,1,0.7346938775510204,,,,GW/camera.jpg,,,,One Edge Diff,Two Edge Three Edge
null,,html-keyboard-response,1148918,<p></p>,,,,null,,,,,,,,,,,,,
4988.399999976158,,shortestpath_phase,1153907,GW/soldier.jpg,,,,50,GW/teeth.jpg,GW/snail.jpg,0,0.72,,,,GW/teeth.jpg,,,,One Edge Diff,Four Edge Five Edge
null,,html-keyboard-response,1154909,<p></p>,,,,null,,,,,,,,,,,,,
4247.799999952316,,shortestpath_phase,1159157,GW/camera.jpg,,,,49,GW/jukebox.jpg,GW/soldier.jpg,1,0.7254901960784313,,,,GW/jukebox.jpg,,,,One Edge Diff,Five Edge Six Edge
null,,html-keyboard-response,1160159,<p></p>,,,,null,,,,,,,,,,,,,
2191.300000011921,,shortestpath_phase,1162351,GW/soldier.jpg,,,,50,GW/camera.jpg,GW/paint.jpg,1,0.7307692307692307,,,,GW/paint.jpg,,,,Four Edge Diff,Two Edge Six Edge
null,,html-keyboard-response,1163352,<p></p>,,,,null,,,,,,,,,,,,,
3551.300000011921,,shortestpath_phase,1166904,GW/camera.jpg,,,,50,GW/teeth.jpg,GW/jukebox.jpg,0,0.7169811320754716,,,,GW/teeth.jpg,,,,Three Edge Diff,Two Edge Five Edge
null,,html-keyboard-response,1167906,<p></p>,,,,null,,,,,,,,,,,,,
3647.5,,shortestpath_phase,1171554,GW/barrel.jpg,,,,49,GW/wheelchair.jpg,GW/camera.jpg,1,0.7222222222222222,,,,GW/wheelchair.jpg,,,,Three Edge Diff,Three Edge Six Edge
null,,html-keyboard-response,1172557,<p></p>,,,,null,,,,,,,,,,,,,
4180.099999964237,,shortestpath_phase,1176738,GW/paint.jpg,,,,50,GW/camera.jpg,GW/globe.jpg,1,0.7272727272727273,,,,GW/globe.jpg,,,,One Edge Diff,Three Edge Four Edge
null,,html-keyboard-response,1177740,<p></p>,,,,null,,,,,,,,,,,,,
5186.200000047684,,shortestpath_phase,1182927,GW/dustpan.jpg,,,,50,GW/jukebox.jpg,GW/gong.jpg,1,0.7321428571428571,,,,GW/gong.jpg,,,,One Edge Diff,Two Edge Three Edge
null,,html-keyboard-response,1183928,<p></p>,,,,null,,,,,,,,,,,,,
5316.399999976158,,shortestpath_phase,1189246,GW/globe.jpg,,,,50,GW/basket.jpg,GW/jukebox.jpg,0,0.7192982456140351,,,,GW/basket.jpg,,,,Two Edge Diff,Two Edge Four Edge
null,,html-keyboard-response,1190248,<p></p>,,,,null,,,,,,,,,,,,,
3747.100000023842,,shortestpath_phase,1193996,GW/dustpan.jpg,,,,49,GW/snail.jpg,GW/soldier.jpg,1,0.7241379310344828,,,,GW/snail.jpg,,,,Two Edge Diff,Two Edge Four Edge
null,,html-keyboard-response,1194998,<p></p>,,,,null,,,,,,,,,,,,,
5664.400000035763,,shortestpath_phase,1200663,GW/soldier.jpg,,,,49,GW/gong.jpg,GW/camera.jpg,1,0.7288135593220338,,,,GW/gong.jpg,,,,Four Edge Diff,Two Edge Six Edge
null,,html-keyboard-response,1201666,<p></p>,,,,null,,,,,,,,,,,,,
5304.399999976158,,shortestpath_phase,1206971,GW/jukebox.jpg,,,,49,GW/globe.jpg,GW/hat.jpg,1,0.7333333333333333,,,,GW/globe.jpg,,,,Two Edge Diff,Four Edge Six Edge
null,,html-keyboard-response,1207973,<p></p>,,,,null,,,,,,,,,,,,,
4423.899999976158,,shortestpath_phase,1212398,GW/soldier.jpg,,,,49,GW/gong.jpg,GW/hat.jpg,1,0.7377049180327869,,,,GW/gong.jpg,,,,Four Edge Diff,Two Edge Six Edge
null,,html-keyboard-response,1213400,<p></p>,,,,null,,,,,,,,,,,,,
4218.900000035763,,shortestpath_phase,1217620,GW/snail.jpg,,,,49,GW/camera.jpg,GW/jukebox.jpg,1,0.7419354838709677,,,,GW/camera.jpg,,,,Three Edge Diff,Three Edge Six Edge
null,,html-keyboard-response,1218622,<p></p>,,,,null,,,,,,,,,,,,,
2038.1000000238419,,shortestpath_phase,1220661,GW/jukebox.jpg,,,,49,GW/barrel.jpg,GW/camera.jpg,1,0.746031746031746,,,,GW/barrel.jpg,,,,Three Edge Diff,Three Edge Six Edge
null,,html-keyboard-response,1221662,<p></p>,,,,null,,,,,,,,,,,,,
3650.300000011921,,shortestpath_phase,1225313,GW/camera.jpg,,,,49,GW/jukebox.jpg,GW/wheelchair.jpg,0,0.734375,,,,GW/wheelchair.jpg,,,,Two Edge Diff,Three Edge Five Edge
null,,html-keyboard-response,1226315,<p></p>,,,,null,,,,,,,,,,,,,
4824,,shortestpath_phase,1231140,GW/barrel.jpg,,,,49,GW/basket.jpg,GW/camera.jpg,1,0.7384615384615385,,,,GW/basket.jpg,,,,Three Edge Diff,Three Edge Six Edge
null,,html-keyboard-response,1232141,<p></p>,,,,null,,,,,,,,,,,,,
3122.800000011921,,shortestpath_phase,1235265,GW/hat.jpg,,,,50,GW/jukebox.jpg,GW/teeth.jpg,1,0.7424242424242424,,,,GW/teeth.jpg,,,,Four Edge Diff,Two Edge Six Edge
null,,html-keyboard-response,1236266,<p></p>,,,,null,,,,,,,,,,,,,
3998.300000011921,,shortestpath_phase,1240265,GW/soldier.jpg,,,,49,GW/globe.jpg,GW/dustpan.jpg,0,0.7313432835820896,,,,GW/dustpan.jpg,,,,One Edge Diff,Four Edge Five Edge
null,,html-keyboard-response,1241266,<p></p>,,,,null,,,,,,,,,,,,,
4364.400000035763,,shortestpath_phase,1245631,GW/basket.jpg,,,,50,GW/soldier.jpg,GW/barrel.jpg,1,0.7352941176470589,,,,GW/barrel.jpg,,,,One Edge Diff,Two Edge Three Edge
null,,html-keyboard-response,1246632,<p></p>,,,,null,,,,,,,,,,,,,
4806.600000023842,,shortestpath_phase,1251439,GW/soldier.jpg,,,,50,GW/globe.jpg,GW/gong.jpg,1,0.7391304347826086,,,,GW/gong.jpg,,,,Three Edge Diff,Three Edge Six Edge
null,,html-keyboard-response,1252441,<p></p>,,,,null,,,,,,,,,,,,,
3727,,shortestpath_phase,1256169,GW/jukebox.jpg,,,,49,GW/basket.jpg,GW/snail.jpg,1,0.7428571428571429,,,,GW/basket.jpg,,,,Three Edge Diff,Two Edge Five Edge
null,,html-keyboard-response,1257171,<p></p>,,,,null,,,,,,,,,,,,,
4219.800000011921,,shortestpath_phase,1261391,GW/paint.jpg,,,,49,GW/globe.jpg,GW/hat.jpg,1,0.7464788732394366,,,,GW/globe.jpg,,,,One Edge Diff,Three Edge Four Edge
null,,html-keyboard-response,1262392,<p></p>,,,,null,,,,,,,,,,,,,
4141,,shortestpath_phase,1266534,GW/hat.jpg,,,,49,GW/gong.jpg,GW/jukebox.jpg,1,0.75,,,,GW/gong.jpg,,,,One Edge Diff,Five Edge Six Edge
null,,html-keyboard-response,1267535,<p></p>,,,,null,,,,,,,,,,,,,
3294.5,,shortestpath_phase,1270831,GW/wheelchair.jpg,,,,49,GW/globe.jpg,GW/soldier.jpg,1,0.7534246575342466,,,,GW/globe.jpg,,,,One Edge Diff,Two Edge Three Edge
null,,html-keyboard-response,1271832,<p></p>,,,,null,,,,,,,,,,,,,
3632.2999999523163,,shortestpath_phase,1275465,GW/gong.jpg,,,,50,GW/snail.jpg,GW/soldier.jpg,1,0.7567567567567568,,,,GW/soldier.jpg,,,,Two Edge Diff,Two Edge Four Edge
null,,html-keyboard-response,1276467,<p></p>,,,,null,,,,,,,,,,,,,
5103.899999976158,,shortestpath_phase,1281571,GW/camera.jpg,,,,49,GW/barrel.jpg,GW/soldier.jpg,1,0.76,,,,GW/barrel.jpg,,,,One Edge Diff,Five Edge Six Edge
null,,html-keyboard-response,1282573,<p></p>,,,,null,,,,,,,,,,,,,
4715.399999976158,,shortestpath_phase,1287289,GW/snail.jpg,,,,50,GW/jukebox.jpg,GW/paint.jpg,1,0.7631578947368421,,,,GW/paint.jpg,,,,Two Edge Diff,Three Edge Five Edge
null,,html-keyboard-response,1288294,<p></p>,,,,null,,,,,,,,,,,,,
3524.5,,shortestpath_phase,1291819,GW/camera.jpg,,,,50,GW/jukebox.jpg,GW/gong.jpg,1,0.7662337662337663,,,,GW/gong.jpg,,,,One Edge Diff,Four Edge Five Edge
null,,html-keyboard-response,1292821,<p></p>,,,,null,,,,,,,,,,,,,
3892.100000023842,,shortestpath_phase,1296714,GW/hat.jpg,,,,50,GW/gong.jpg,GW/dustpan.jpg,1,0.7692307692307693,,,,GW/dustpan.jpg,,,,Two Edge Diff,Three Edge Five Edge
null,,html-keyboard-response,1297716,<p></p>,,,,null,,,,,,,,,,,,,
2662.899999976158,,shortestpath_phase,1300380,GW/soldier.jpg,,,,50,GW/teeth.jpg,GW/paint.jpg,1,0.7721518987341772,,,,GW/paint.jpg,,,,Two Edge Diff,Two Edge Four Edge
null,,html-keyboard-response,1301381,<p></p>,,,,null,,,,,,,,,,,,,
4501.800000011921,,shortestpath_phase,1305884,GW/hat.jpg,,,,49,GW/barrel.jpg,GW/jukebox.jpg,1,0.775,,,,GW/barrel.jpg,,,,One Edge Diff,Five Edge Six Edge
null,,html-keyboard-response,1306887,<p></p>,,,,null,,,,,,,,,,,,,
3181.7000000476837,,shortestpath_phase,1310069,GW/basket.jpg,,,,50,GW/hat.jpg,GW/jukebox.jpg,1,0.7777777777777778,,,,GW/jukebox.jpg,,,,Two Edge Diff,Two Edge Four Edge
null,,html-keyboard-response,1311071,<p></p>,,,,null,,,,,,,,,,,,,
3965.2000000476837,,shortestpath_phase,1315037,GW/gong.jpg,,,,49,GW/wheelchair.jpg,GW/hat.jpg,1,0.7804878048780488,,,,GW/wheelchair.jpg,,,,Three Edge Diff,Two Edge Five Edge
null,,html-keyboard-response,1316038,<p></p>,,,,null,,,,,,,,,,,,,
3439.7000000476837,,shortestpath_phase,1319479,GW/jukebox.jpg,,,,49,GW/basket.jpg,GW/hat.jpg,1,0.7831325301204819,,,,GW/basket.jpg,,,,Four Edge Diff,Two Edge Six Edge
null,,html-keyboard-response,1320480,<p></p>,,,,null,,,,,,,,,,,,,
4540.799999952316,,shortestpath_phase,1325022,GW/gong.jpg,,,,49,GW/globe.jpg,GW/camera.jpg,1,0.7857142857142857,,,,GW/globe.jpg,,,,One Edge Diff,Three Edge Four Edge
null,,html-keyboard-response,1326024,<p></p>,,,,null,,,,,,,,,,,,,
5455.100000023842,,shortestpath_phase,1331480,GW/soldier.jpg,,,,49,GW/snail.jpg,GW/hat.jpg,1,0.788235294117647,,,,GW/snail.jpg,,,,One Edge Diff,Five Edge Six Edge
null,,html-keyboard-response,1332482,<p></p>,,,,null,,,,,,,,,,,,,
5143.899999976158,,shortestpath_phase,1337626,GW/gong.jpg,,,,50,GW/dustpan.jpg,GW/camera.jpg,0,0.7790697674418605,,,,GW/dustpan.jpg,,,,Two Edge Diff,Two Edge Four Edge
null,,html-keyboard-response,1338628,<p></p>,,,,null,,,,,,,,,,,,,
4708.100000023842,,shortestpath_phase,1343337,GW/snail.jpg,,,,49,GW/basket.jpg,GW/soldier.jpg,1,0.7816091954022989,,,,GW/basket.jpg,,,,Two Edge Diff,Three Edge Five Edge
null,,html-keyboard-response,1344338,<p></p>,,,,null,,,,,,,,,,,,,
5022.600000023842,,shortestpath_phase,1349362,GW/hat.jpg,,,,50,GW/teeth.jpg,GW/soldier.jpg,0,0.7727272727272727,,,,GW/teeth.jpg,,,,Four Edge Diff,Two Edge Six Edge
null,,html-keyboard-response,1350363,<p></p>,,,,null,,,,,,,,,,,,,
4437.300000011921,,shortestpath_phase,1354801,GW/basket.jpg,,,,50,GW/camera.jpg,GW/jukebox.jpg,1,0.7752808988764045,,,,GW/jukebox.jpg,,,,One Edge Diff,Two Edge Three Edge
null,,html-keyboard-response,1355803,<p></p>,,,,null,,,,,,,,,,,,,
3115.399999976158,,shortestpath_phase,1358919,GW/wheelchair.jpg,,,,50,GW/soldier.jpg,GW/snail.jpg,1,0.7777777777777778,,,,GW/snail.jpg,,,,One Edge Diff,Two Edge Three Edge
null,,html-keyboard-response,1359920,<p></p>,,,,null,,,,,,,,,,,,,
5169.300000011921,,shortestpath_phase,1365089,GW/soldier.jpg,,,,49,GW/dustpan.jpg,GW/camera.jpg,1,0.7802197802197802,,,,GW/dustpan.jpg,,,,Two Edge Diff,Four Edge Six Edge
null,,html-keyboard-response,1366092,<p></p>,,,,null,,,,,,,,,,,,,
5165.599999964237,,shortestpath_phase,1371258,GW/camera.jpg,,,,49,GW/teeth.jpg,GW/soldier.jpg,1,0.782608695652174,,,,GW/teeth.jpg,,,,Four Edge Diff,Two Edge Six Edge
null,,html-keyboard-response,1372261,<p></p>,,,,null,,,,,,,,,,,,,
3128.100000023842,,shortestpath_phase,1375389,GW/globe.jpg,,,,49,GW/basket.jpg,GW/paint.jpg,1,0.7849462365591398,,,,GW/basket.jpg,,,,One Edge Diff,Two Edge Three Edge
null,,html-keyboard-response,1376391,<p></p>,,,,null,,,,,,,,,,,,,
3522.100000023842,,shortestpath_phase,1379914,GW/camera.jpg,,,,49,GW/gong.jpg,GW/soldier.jpg,1,0.7872340425531915,,,,GW/gong.jpg,,,,Two Edge Diff,Four Edge Six Edge
null,,html-keyboard-response,1380916,<p></p>,,,,null,,,,,,,,,,,,,
4568.800000011921,,shortestpath_phase,1385486,GW/hat.jpg,,,,49,GW/barrel.jpg,GW/paint.jpg,0,0.7789473684210526,,,,GW/paint.jpg,,,,One Edge Diff,Four Edge Five Edge
null,,html-keyboard-response,1386487,<p></p>,,,,null,,,,,,,,,,,,,
3787.600000023842,,shortestpath_phase,1390276,GW/barrel.jpg,,,,50,GW/teeth.jpg,GW/wheelchair.jpg,1,0.78125,,,,GW/wheelchair.jpg,,,,One Edge Diff,Two Edge Three Edge
null,,html-keyboard-response,1391278,<p></p>,,,,null,,,,,,,,,,,,,
4690.800000011921,,shortestpath_phase,1395969,GW/globe.jpg,,,,49,GW/paint.jpg,GW/jukebox.jpg,1,0.7835051546391752,,,,GW/paint.jpg,,,,One Edge Diff,Three Edge Four Edge
null,,html-keyboard-response,1396971,<p></p>,,,,null,,,,,,,,,,,,,
4003.199999988079,,shortestpath_phase,1400975,GW/hat.jpg,,,,50,GW/basket.jpg,GW/dustpan.jpg,1,0.7857142857142857,,,,GW/dustpan.jpg,,,,One Edge Diff,Three Edge Four Edge
null,,html-keyboard-response,1401976,<p></p>,,,,null,,,,,,,,,,,,,
4182.699999988079,,shortestpath_phase,1406160,GW/jukebox.jpg,,,,50,GW/snail.jpg,GW/barrel.jpg,1,0.7878787878787878,,,,GW/barrel.jpg,,,,Three Edge Diff,Three Edge Six Edge
null,,html-keyboard-response,1407161,<p></p>,,,,null,,,,,,,,,,,,,
2198.300000011921,,shortestpath_phase,1409360,GW/hat.jpg,,,,50,GW/barrel.jpg,GW/globe.jpg,1,0.79,,,,GW/globe.jpg,,,,Three Edge Diff,Two Edge Five Edge
null,,html-keyboard-response,1410363,<p></p>,,,,null,,,,,,,,,,,,,
3073.5,,shortestpath_phase,1413438,GW/soldier.jpg,,,,50,GW/paint.jpg,GW/hat.jpg,0,0.7821782178217822,,,,GW/paint.jpg,,,,Four Edge Diff,Two Edge Six Edge
null,,html-keyboard-response,1414439,<p></p>,,,,null,,,,,,,,,,,,,
3388.400000035763,,shortestpath_phase,1417828,GW/hat.jpg,,,,50,GW/soldier.jpg,GW/barrel.jpg,1,0.7843137254901961,,,,GW/barrel.jpg,,,,One Edge Diff,Five Edge Six Edge
null,,html-keyboard-response,1418829,<p></p>,,,,null,,,,,,,,,,,,,
5267.799999952316,,shortestpath_phase,1424098,GW/gong.jpg,,,,49,GW/paint.jpg,GW/hat.jpg,1,0.7864077669902912,,,,GW/paint.jpg,,,,Three Edge Diff,Two Edge Five Edge
null,,html-keyboard-response,1425101,<p></p>,,,,null,,,,,,,,,,,,,
3724.699999988079,,shortestpath_phase,1428827,GW/barrel.jpg,,,,50,GW/wheelchair.jpg,GW/globe.jpg,0,0.7788461538461539,,,,GW/wheelchair.jpg,,,,Two Edge Diff,Two Edge Four Edge
null,,html-keyboard-response,1429829,<p></p>,,,,null,,,,,,,,,,,,,
3625.300000011921,,shortestpath_phase,1433456,GW/hat.jpg,,,,49,GW/camera.jpg,GW/barrel.jpg,1,0.780952380952381,,,,GW/camera.jpg,,,,Two Edge Diff,Three Edge Five Edge
null,,html-keyboard-response,1434457,<p></p>,,,,null,,,,,,,,,,,,,
5101.599999964237,,shortestpath_phase,1439559,GW/soldier.jpg,,,,49,GW/snail.jpg,GW/paint.jpg,0,0.7735849056603774,,,,GW/paint.jpg,,,,Three Edge Diff,Two Edge Five Edge
null,,html-keyboard-response,1440560,<p></p>,,,,null,,,,,,,,,,,,,
3318.7999999523163,,shortestpath_phase,1443880,GW/jukebox.jpg,,,,49,GW/hat.jpg,GW/camera.jpg,0,0.7663551401869159,,,,GW/camera.jpg,,,,One Edge Diff,Five Edge Six Edge
null,,html-keyboard-response,1444882,<p></p>,,,,null,,,,,,,,,,,,,
4421.600000023842,,shortestpath_phase,1449304,GW/paint.jpg,,,,50,GW/basket.jpg,GW/jukebox.jpg,0,0.7592592592592593,,,,GW/basket.jpg,,,,One Edge Diff,Two Edge Three Edge
null,,html-keyboard-response,1450305,<p></p>,,,,null,,,,,,,,,,,,,
4508.600000023842,,shortestpath_phase,1454814,GW/camera.jpg,,,,49,GW/snail.jpg,GW/soldier.jpg,1,0.7614678899082569,,,,GW/snail.jpg,,,,Four Edge Diff,Two Edge Six Edge
null,,html-keyboard-response,1455816,<p></p>,,,,null,,,,,,,,,,,,,
3667.5,,shortestpath_phase,1459484,GW/gong.jpg,,,,50,GW/paint.jpg,GW/snail.jpg,0,0.7545454545454545,,,,GW/paint.jpg,,,,Two Edge Diff,Two Edge Four Edge
null,,html-keyboard-response,1460486,<p></p>,,,,null,,,,,,,,,,,,,
4286,,shortestpath_phase,1464772,GW/soldier.jpg,,,,49,GW/snail.jpg,GW/dustpan.jpg,0,0.7477477477477478,,,,GW/dustpan.jpg,,,,One Edge Diff,Four Edge Five Edge
null,,html-keyboard-response,1465774,<p></p>,,,,null,,,,,,,,,,,,,
3694.300000011921,,shortestpath_phase,1469469,GW/snail.jpg,,,,50,GW/gong.jpg,GW/jukebox.jpg,0,0.7410714285714286,,,,GW/gong.jpg,,,,One Edge Diff,Four Edge Five Edge
null,,html-keyboard-response,1470470,<p></p>,,,,null,,,,,,,,,,,,,
3804.300000011921,,shortestpath_phase,1474275,GW/globe.jpg,,,,50,GW/soldier.jpg,GW/basket.jpg,1,0.7433628318584071,,,,GW/basket.jpg,,,,Three Edge Diff,Three Edge Six Edge
null,,html-keyboard-response,1475277,<p></p>,,,,null,,,,,,,,,,,,,
1419.0999999642372,,shortestpath_phase,1476696,GW/camera.jpg,,,,49,GW/dustpan.jpg,GW/jukebox.jpg,1,0.7456140350877193,,,,GW/dustpan.jpg,,,,Three Edge Diff,Three Edge Six Edge
null,,html-keyboard-response,1477698,<p></p>,,,,null,,,,,,,,,,,,,
1633.300000011921,,shortestpath_phase,1479332,GW/hat.jpg,,,,50,GW/gong.jpg,GW/globe.jpg,1,0.7478260869565218,,,,GW/globe.jpg,,,,Three Edge Diff,Two Edge Five Edge
null,,html-keyboard-response,1480333,<p></p>,,,,null,,,,,,,,,,,,,
2946.399999976158,,shortestpath_phase,1483281,GW/barrel.jpg,,,,49,GW/wheelchair.jpg,GW/camera.jpg,1,0.75,,,,GW/wheelchair.jpg,,,,Three Edge Diff,Two Edge Five Edge
null,,html-keyboard-response,1484282,<p></p>,,,,null,,,,,,,,,,,,,
3306.199999988079,,shortestpath_phase,1487589,GW/jukebox.jpg,,,,50,GW/hat.jpg,GW/snail.jpg,1,0.7521367521367521,,,,GW/snail.jpg,,,,One Edge Diff,Five Edge Six Edge
null,,html-keyboard-response,1488591,<p></p>,,,,null,,,,,,,,,,,,,
3593.600000023842,,shortestpath_phase,1492185,GW/barrel.jpg,,,,50,GW/hat.jpg,GW/wheelchair.jpg,1,0.7542372881355932,,,,GW/wheelchair.jpg,,,,Three Edge Diff,Two Edge Five Edge
null,,html-keyboard-response,1493189,<p></p>,,,,null,,,,,,,,,,,,,
3470.5,,shortestpath_phase,1496660,GW/teeth.jpg,,,,49,GW/paint.jpg,GW/jukebox.jpg,1,0.7563025210084033,,,,GW/paint.jpg,,,,Two Edge Diff,Two Edge Four Edge
null,,html-keyboard-response,1497661,<p></p>,,,,null,,,,,,,,,,,,,
4597.600000023842,,shortestpath_phase,1502259,GW/barrel.jpg,,,,49,GW/snail.jpg,GW/dustpan.jpg,0,0.75,,,,GW/dustpan.jpg,,,,One Edge Diff,Three Edge Four Edge
null,,html-keyboard-response,1503260,<p></p>,,,,null,,,,,,,,,,,,,
1644.300000011921,,shortestpath_phase,1504905,GW/camera.jpg,,,,49,GW/paint.jpg,GW/jukebox.jpg,1,0.7520661157024794,,,,GW/paint.jpg,,,,One Edge Diff,Four Edge Five Edge
null,,html-keyboard-response,1505907,<p></p>,,,,null,,,,,,,,,,,,,
14552.800000011921,,intro_1,1520461,instruct,,0,,,,,,,,,,,,,,,
18238.5,,intro_2,1538700,instruct,,1,Next,,,,,,,,,,,,,,
3983.600000023842,,intro_3,1542685,instruct,,1,Next,,,,,,,,,,,,,,
