rt,responses,trial_type,time_elapsed,stimulus,graphorder,button_pressed,response,key_press,stimulus_left,stimulus_right,accuracy,cumulative_accuracy,stimulus_down_left,stimulus_down_mid,stimulus_down_right,stimulus_correct,stimulus_short,stimulus_far,weighted_accuracy,missedtrial,condition,specific_pairs
5915.4000000059605,{worker_id:5c1ffe5295f978000173df84},id_enter,5917,id_enter,GW/paint.jpg; GW/gong.jpg; GW/camera.jpg; GW/soldier.jpg; GW/dustpan.jpg; GW/wheelchair.jpg; GW/jukebox.jpg; GW/teeth.jpg; GW/basket.jpg; GW/globe.jpg; GW/barrel.jpg; GW/snail.jpg; GW/hat.jpg,,,,,,,,,,,,,,,,,
10232.89999999106,,fullscreen,16154,fullscreen,,0,,,,,,,,,,,,,,,,
7878.0999999940395,,intro_1,24045,instruct,,0,,,,,,,,,,,,,,,,
6733.800000011921,,intro_2,30780,instruct,,1,Next,,,,,,,,,,,,,,,
6074.199999988079,,intro_3,36855,instruct,,1,Next,,,,,,,,,,,,,,,
null,,learn_prac_1,38857,lean_prac_1,,,,null,,,,,,,,,,,,,,
null,,html-keyboard-response,39859,<p></p>,,,,null,,,,,,,,,,,,,,
2110.2999999970198,,intro_1,41970,instruct,,0,,,,,,,,,,,,,,,,
3659.2999999970198,,intro_2,45631,instruct,,1,Next,,,,,,,,,,,,,,,
null,,learn_prac_2,47632,lean_prac_2,,,,null,,,,,,,,,,,,,,
null,,html-keyboard-response,48634,<p></p>,,,,null,,,,,,,,,,,,,,
2305.7999999970198,,intro_1,50941,instruct,,0,,,,,,,,,,,,,,,,
2391.5,,intro_2,53333,instruct,,1,Next,,,,,,,,,,,,,,,
13942,,intro_3,67277,instruct,,1,Next,,,,,,,,,,,,,,,
null,,prac_atten_color_black,67681,black_plus_sign,,,,null,,,,,,,,,,,,,,
612.7999999970198,,prac_atten_color,68680,prac_stop_color,,,,49,,,,,,,,,,,,,,
null,,prac_atten_color_black,70681,black_plus_sign,,,,null,,,,,,,,,,,,,,
null,,prac_atten_color_black,71101,black_plus_sign,,,,null,,,,,,,,,,,,,,
670,,prac_atten_color,71883,prac_stop_color,,,,50,,,,,,,,,,,,,,
null,,prac_atten_color_black,73884,black_plus_sign,,,,null,,,,,,,,,,,,,,
null,,prac_atten_color_black,74506,black_plus_sign,,,,null,,,,,,,,,,,,,,
748.7000000029802,,prac_atten_color,75544,prac_stop_color,,,,50,,,,,,,,,,,,,,
null,,prac_atten_color_black,77545,black_plus_sign,,,,null,,,,,,,,,,,,,,
null,,prac_atten_color_black,77911,black_plus_sign,,,,null,,,,,,,,,,,,,,
438.59999999403954,,prac_atten_color,78588,prac_stop_color,,,,49,,,,,,,,,,,,,,
null,,prac_atten_color_black,80589,black_plus_sign,,,,null,,,,,,,,,,,,,,
null,,prac_atten_color_black,81323,black_plus_sign,,,,null,,,,,,,,,,,,,,
451.5,,prac_atten_color,82372,prac_stop_color,,,,50,,,,,,,,,,,,,,
null,,prac_atten_color_black,84373,black_plus_sign,,,,null,,,,,,,,,,,,,,
null,,prac_atten_color_black,84727,black_plus_sign,,,,null,,,,,,,,,,,,,,
607.2000000029802,,prac_atten_color,85352,prac_stop_color,,,,50,,,,,,,,,,,,,,
null,,prac_atten_color_black,87354,black_plus_sign,,,,null,,,,,,,,,,,,,,
null,,prac_atten_color_black,88141,black_plus_sign,,,,null,,,,,,,,,,,,,,
422,,prac_atten_color,88646,prac_stop_color,,,,49,,,,,,,,,,,,,,
null,,prac_atten_color_black,90648,black_plus_sign,,,,null,,,,,,,,,,,,,,
null,,prac_atten_color_black,91546,black_plus_sign,,,,null,,,,,,,,,,,,,,
615.2000000029802,,prac_atten_color,92176,prac_stop_color,,,,50,,,,,,,,,,,,,,
null,,prac_atten_color_black,94178,black_plus_sign,,,,null,,,,,,,,,,,,,,
null,,prac_atten_color_black,94950,black_plus_sign,,,,null,,,,,,,,,,,,,,
497.3999999910593,,prac_atten_color,95624,prac_stop_color,,,,49,,,,,,,,,,,,,,
null,,prac_atten_color_black,97626,black_plus_sign,,,,null,,,,,,,,,,,,,,
null,,prac_atten_color_black,98356,black_plus_sign,,,,null,,,,,,,,,,,,,,
null,,prac_atten_color,98901,prac_stop_color,,,,null,,,,,,,,,,,,,,
29.100000008940697,,prac_atten_color_black,100903,black_plus_sign,,,,49,,,,,,,,,,,,,,
4984.5,,attentioncheck_feedback,105889,cross_check_feedback,,0,,,,,,,,,,,,,,,,
12115.20000000298,,last_instruct,118004,instruct,,,,32,,,,,,,,,,,,,,
null,,learn_phase(without_color),120006,black_plus_sign,,,,null,GW/barrel.jpg,GW/snail.jpg,,,,,,,,,,,,
null,,black_cross(without_color),120584,blue,,,,null,GW/barrel.jpg,GW/snail.jpg,,,,,,,,,,,,
null,,rt_plussign_withcolor,121085,blue,,,,null,GW/barrel.jpg,GW/snail.jpg,,,,,,,,,,,,
889.6000000089407,,rt_thecrossant_black,122512,black_plus_sign,,,,49,,,1,1,,,,,,,,,,
null,,color_black,122614,black_plus_sign,,,,null,,,,,,,,,,,,,,
null,,learn_phase(without_color),124616,black_plus_sign,,,,null,GW/gong.jpg,GW/soldier.jpg,,,,,,,,,,,,
null,,black_cross(without_color),125366,green,,,,null,GW/gong.jpg,GW/soldier.jpg,,,,,,,,,,,,
null,,rt_plussign_withcolor,125867,green,,,,null,GW/gong.jpg,GW/soldier.jpg,,,,,,,,,,,,
null,,rt_thecrossant_black,127121,black_plus_sign,,,,null,,,,1,,,,,,,,,,
null,,color_black,127223,black_plus_sign,,,,null,,,,,,,,,,,,,,
null,,learn_phase(without_color),129225,black_plus_sign,,,,null,GW/teeth.jpg,GW/globe.jpg,,,,,,,,,,,,
null,,black_cross(without_color),129642,green,,,,null,GW/teeth.jpg,GW/globe.jpg,,,,,,,,,,,,
null,,rt_plussign_withcolor,130145,green,,,,null,GW/teeth.jpg,GW/globe.jpg,,,,,,,,,,,,
911.4000000059605,,rt_thecrossant_black,131734,black_plus_sign,,,,50,,,1,1,,,,,,,,,,
null,,color_black,131836,black_plus_sign,,,,null,,,,,,,,,,,,,,
null,,learn_phase(without_color),133838,black_plus_sign,,,,null,GW/camera.jpg,GW/wheelchair.jpg,,,,,,,,,,,,
null,,black_cross(without_color),134595,green,,,,null,GW/camera.jpg,GW/wheelchair.jpg,,,,,,,,,,,,
null,,rt_plussign_withcolor,135095,green,,,,null,GW/camera.jpg,GW/wheelchair.jpg,,,,,,,,,,,,
701.2000000029802,,rt_thecrossant_black,136343,black_plus_sign,,,,50,,,1,1,,,,,,,,,,
null,,color_black,136444,black_plus_sign,,,,null,,,,,,,,,,,,,,
null,,learn_phase(without_color),138446,black_plus_sign,,,,null,GW/jukebox.jpg,GW/hat.jpg,,,,,,,,,,,,
null,,black_cross(without_color),139248,blue,,,,null,GW/jukebox.jpg,GW/hat.jpg,,,,,,,,,,,,
null,,rt_plussign_withcolor,139749,blue,,,,null,GW/jukebox.jpg,GW/hat.jpg,,,,,,,,,,,,
1080.7999999970198,,rt_thecrossant_black,140952,black_plus_sign,,,,49,,,1,1,,,,,,,,,,
null,,color_black,141054,black_plus_sign,,,,null,,,,,,,,,,,,,,
null,,learn_phase(without_color),143055,black_plus_sign,,,,null,GW/gong.jpg,GW/camera.jpg,,,,,,,,,,,,
null,,black_cross(without_color),143986,blue,,,,null,GW/gong.jpg,GW/camera.jpg,,,,,,,,,,,,
null,,rt_plussign_withcolor,144487,blue,,,,null,GW/gong.jpg,GW/camera.jpg,,,,,,,,,,,,
1088.5,,rt_thecrossant_black,145559,black_plus_sign,,,,49,,,1,1,,,,,,,,,,
null,,color_black,145661,black_plus_sign,,,,null,,,,,,,,,,,,,,
null,,learn_phase(without_color),147663,black_plus_sign,,,,null,GW/camera.jpg,GW/wheelchair.jpg,,,,,,,,,,,,
null,,black_cross(without_color),148309,green,,,,null,GW/camera.jpg,GW/wheelchair.jpg,,,,,,,,,,,,
null,,rt_plussign_withcolor,148810,green,,,,null,GW/camera.jpg,GW/wheelchair.jpg,,,,,,,,,,,,
1266.5,,rt_thecrossant_black,150168,black_plus_sign,,,,50,,,1,1,,,,,,,,,,
null,,color_black,150271,black_plus_sign,,,,null,,,,,,,,,,,,,,
null,,learn_phase(without_color),152272,black_plus_sign,,,,null,GW/teeth.jpg,GW/globe.jpg,,,,,,,,,,,,
null,,black_cross(without_color),152996,green,,,,null,GW/teeth.jpg,GW/globe.jpg,,,,,,,,,,,,
null,,rt_plussign_withcolor,153499,green,,,,null,GW/teeth.jpg,GW/globe.jpg,,,,,,,,,,,,
884.2000000029802,,rt_thecrossant_black,154778,black_plus_sign,,,,50,,,1,1,,,,,,,,,,
null,,color_black,154880,black_plus_sign,,,,null,,,,,,,,,,,,,,
null,,learn_phase(without_color),156882,black_plus_sign,,,,null,GW/soldier.jpg,GW/dustpan.jpg,,,,,,,,,,,,
null,,black_cross(without_color),157417,green,,,,null,GW/soldier.jpg,GW/dustpan.jpg,,,,,,,,,,,,
null,,rt_plussign_withcolor,157918,green,,,,null,GW/soldier.jpg,GW/dustpan.jpg,,,,,,,,,,,,
1046.2999999970198,,rt_thecrossant_black,159386,black_plus_sign,,,,50,,,1,1,,,,,,,,,,
null,,color_black,159487,black_plus_sign,,,,null,,,,,,,,,,,,,,
null,,learn_phase(without_color),161490,black_plus_sign,,,,null,GW/soldier.jpg,GW/snail.jpg,,,,,,,,,,,,
null,,black_cross(without_color),162052,green,,,,null,GW/soldier.jpg,GW/snail.jpg,,,,,,,,,,,,
null,,rt_plussign_withcolor,162559,green,,,,null,GW/soldier.jpg,GW/snail.jpg,,,,,,,,,,,,
767.5,,rt_thecrossant_black,164002,black_plus_sign,,,,50,,,1,1,,,,,,,,,,
null,,color_black,164103,black_plus_sign,,,,null,,,,,,,,,,,,,,
null,,learn_phase(without_color),166105,black_plus_sign,,,,null,GW/wheelchair.jpg,GW/jukebox.jpg,,,,,,,,,,,,
null,,black_cross(without_color),166922,green,,,,null,GW/wheelchair.jpg,GW/jukebox.jpg,,,,,,,,,,,,
null,,rt_plussign_withcolor,167423,green,,,,null,GW/wheelchair.jpg,GW/jukebox.jpg,,,,,,,,,,,,
838.7000000029802,,rt_thecrossant_black,168610,black_plus_sign,,,,50,,,1,1,,,,,,,,,,
null,,color_black,168712,black_plus_sign,,,,null,,,,,,,,,,,,,,
null,,learn_phase(without_color),170714,black_plus_sign,,,,null,GW/wheelchair.jpg,GW/basket.jpg,,,,,,,,,,,,
null,,black_cross(without_color),171480,blue,,,,null,GW/wheelchair.jpg,GW/basket.jpg,,,,,,,,,,,,
null,,rt_plussign_withcolor,171994,blue,,,,null,GW/wheelchair.jpg,GW/basket.jpg,,,,,,,,,,,,
1042.6000000089407,,rt_thecrossant_black,173233,black_plus_sign,,,,49,,,1,1,,,,,,,,,,
null,,color_black,173335,black_plus_sign,,,,null,,,,,,,,,,,,,,
null,,learn_phase(without_color),175337,black_plus_sign,,,,null,GW/jukebox.jpg,GW/basket.jpg,,,,,,,,,,,,
null,,black_cross(without_color),176050,green,,,,null,GW/jukebox.jpg,GW/basket.jpg,,,,,,,,,,,,
null,,rt_plussign_withcolor,176551,green,,,,null,GW/jukebox.jpg,GW/basket.jpg,,,,,,,,,,,,
983,,rt_thecrossant_black,177843,black_plus_sign,,,,50,,,1,1,,,,,,,,,,
null,,color_black,177944,black_plus_sign,,,,null,,,,,,,,,,,,,,
null,,learn_phase(without_color),179947,black_plus_sign,,,,null,GW/soldier.jpg,GW/snail.jpg,,,,,,,,,,,,
null,,black_cross(without_color),181024,green,,,,null,GW/soldier.jpg,GW/snail.jpg,,,,,,,,,,,,
null,,rt_plussign_withcolor,181525,green,,,,null,GW/soldier.jpg,GW/snail.jpg,,,,,,,,,,,,
877.4000000059605,,rt_thecrossant_black,182450,black_plus_sign,,,,50,,,1,1,,,,,,,,,,
null,,color_black,182552,black_plus_sign,,,,null,,,,,,,,,,,,,,
null,,learn_phase(without_color),184553,black_plus_sign,,,,null,GW/soldier.jpg,GW/dustpan.jpg,,,,,,,,,,,,
null,,black_cross(without_color),185284,green,,,,null,GW/soldier.jpg,GW/dustpan.jpg,,,,,,,,,,,,
null,,rt_plussign_withcolor,185785,green,,,,null,GW/soldier.jpg,GW/dustpan.jpg,,,,,,,,,,,,
1684,,rt_thecrossant_black,187058,black_plus_sign,,,,50,,,1,1,,,,,,,,,,
null,,color_black,187160,black_plus_sign,,,,null,,,,,,,,,,,,,,
null,,learn_phase(without_color),189162,black_plus_sign,,,,null,GW/jukebox.jpg,GW/hat.jpg,,,,,,,,,,,,
null,,black_cross(without_color),190012,green,,,,null,GW/jukebox.jpg,GW/hat.jpg,,,,,,,,,,,,
null,,rt_plussign_withcolor,190513,green,,,,null,GW/jukebox.jpg,GW/hat.jpg,,,,,,,,,,,,
848.4000000059605,,rt_thecrossant_black,191669,black_plus_sign,,,,49,,,0,0.9333333333333333,,,,,,,,,,
null,,color_black,191771,black_plus_sign,,,,null,,,,,,,,,,,,,,
null,,learn_phase(without_color),193773,black_plus_sign,,,,null,GW/wheelchair.jpg,GW/basket.jpg,,,,,,,,,,,,
null,,black_cross(without_color),194635,blue,,,,null,GW/wheelchair.jpg,GW/basket.jpg,,,,,,,,,,,,
null,,rt_plussign_withcolor,195136,blue,,,,null,GW/wheelchair.jpg,GW/basket.jpg,,,,,,,,,,,,
1272.7000000029802,,rt_thecrossant_black,196278,black_plus_sign,,,,49,,,1,0.9375,,,,,,,,,,
null,,color_black,196387,black_plus_sign,,,,null,,,,,,,,,,,,,,
null,,learn_phase(without_color),198389,black_plus_sign,,,,null,GW/soldier.jpg,GW/snail.jpg,,,,,,,,,,,,
null,,black_cross(without_color),199366,green,,,,null,GW/soldier.jpg,GW/snail.jpg,,,,,,,,,,,,
null,,rt_plussign_withcolor,199867,green,,,,null,GW/soldier.jpg,GW/snail.jpg,,,,,,,,,,,,
1412.2999999970198,,rt_thecrossant_black,200894,black_plus_sign,,,,50,,,1,0.9411764705882353,,,,,,,,,,
null,,color_black,200996,black_plus_sign,,,,null,,,,,,,,,,,,,,
null,,learn_phase(without_color),202998,black_plus_sign,,,,null,GW/teeth.jpg,GW/basket.jpg,,,,,,,,,,,,
null,,black_cross(without_color),203445,blue,,,,null,GW/teeth.jpg,GW/basket.jpg,,,,,,,,,,,,
null,,rt_plussign_withcolor,203947,blue,,,,null,GW/teeth.jpg,GW/basket.jpg,,,,,,,,,,,,
1430.7999999970198,,rt_thecrossant_black,205503,black_plus_sign,,,,49,,,1,0.9444444444444444,,,,,,,,,,
null,,color_black,205604,black_plus_sign,,,,null,,,,,,,,,,,,,,
null,,learn_phase(without_color),207606,black_plus_sign,,,,null,GW/gong.jpg,GW/camera.jpg,,,,,,,,,,,,
null,,black_cross(without_color),208474,blue,,,,null,GW/gong.jpg,GW/camera.jpg,,,,,,,,,,,,
null,,rt_plussign_withcolor,208976,blue,,,,null,GW/gong.jpg,GW/camera.jpg,,,,,,,,,,,,
669.5,,rt_thecrossant_black,210126,black_plus_sign,,,,49,,,1,0.9473684210526315,,,,,,,,,,
null,,color_black,210227,black_plus_sign,,,,null,,,,,,,,,,,,,,
null,,learn_phase(without_color),212229,black_plus_sign,,,,null,GW/camera.jpg,GW/wheelchair.jpg,,,,,,,,,,,,
null,,black_cross(without_color),212665,green,,,,null,GW/camera.jpg,GW/wheelchair.jpg,,,,,,,,,,,,
null,,rt_plussign_withcolor,213166,green,,,,null,GW/camera.jpg,GW/wheelchair.jpg,,,,,,,,,,,,
1351.9000000059605,,rt_thecrossant_black,214733,black_plus_sign,,,,50,,,1,0.95,,,,,,,,,,
null,,color_black,214835,black_plus_sign,,,,null,,,,,,,,,,,,,,
null,,learn_phase(without_color),216837,black_plus_sign,,,,null,GW/jukebox.jpg,GW/hat.jpg,,,,,,,,,,,,
null,,black_cross(without_color),217336,green,,,,null,GW/jukebox.jpg,GW/hat.jpg,,,,,,,,,,,,
null,,rt_plussign_withcolor,217838,green,,,,null,GW/jukebox.jpg,GW/hat.jpg,,,,,,,,,,,,
1009.9000000059605,,rt_thecrossant_black,219343,black_plus_sign,,,,50,,,1,0.9523809523809523,,,,,,,,,,
null,,color_black,219444,black_plus_sign,,,,null,,,,,,,,,,,,,,
null,,learn_phase(without_color),221446,black_plus_sign,,,,null,GW/jukebox.jpg,GW/teeth.jpg,,,,,,,,,,,,
null,,black_cross(without_color),221916,blue,,,,null,GW/jukebox.jpg,GW/teeth.jpg,,,,,,,,,,,,
null,,rt_plussign_withcolor,222418,blue,,,,null,GW/jukebox.jpg,GW/teeth.jpg,,,,,,,,,,,,
769.2999999970198,,rt_thecrossant_black,223951,black_plus_sign,,,,49,,,1,0.9545454545454546,,,,,,,,,,
null,,color_black,224053,black_plus_sign,,,,null,,,,,,,,,,,,,,
null,,learn_phase(without_color),226055,black_plus_sign,,,,null,GW/camera.jpg,GW/wheelchair.jpg,,,,,,,,,,,,
null,,black_cross(without_color),226813,blue,,,,null,GW/camera.jpg,GW/wheelchair.jpg,,,,,,,,,,,,
null,,rt_plussign_withcolor,227315,blue,,,,null,GW/camera.jpg,GW/wheelchair.jpg,,,,,,,,,,,,
765.4000000059605,,rt_thecrossant_black,228560,black_plus_sign,,,,49,,,1,0.9565217391304348,,,,,,,,,,
null,,color_black,228662,black_plus_sign,,,,null,,,,,,,,,,,,,,
null,,learn_phase(without_color),230664,black_plus_sign,,,,null,GW/camera.jpg,GW/barrel.jpg,,,,,,,,,,,,
null,,black_cross(without_color),231320,blue,,,,null,GW/camera.jpg,GW/barrel.jpg,,,,,,,,,,,,
null,,rt_plussign_withcolor,231822,blue,,,,null,GW/camera.jpg,GW/barrel.jpg,,,,,,,,,,,,
943.7000000029802,,rt_thecrossant_black,233169,black_plus_sign,,,,49,,,1,0.9583333333333334,,,,,,,,,,
null,,color_black,233272,black_plus_sign,,,,null,,,,,,,,,,,,,,
null,,learn_phase(without_color),235273,black_plus_sign,,,,null,GW/basket.jpg,GW/barrel.jpg,,,,,,,,,,,,
null,,black_cross(without_color),235806,blue,,,,null,GW/basket.jpg,GW/barrel.jpg,,,,,,,,,,,,
null,,rt_plussign_withcolor,236308,blue,,,,null,GW/basket.jpg,GW/barrel.jpg,,,,,,,,,,,,
970.0999999940395,,rt_thecrossant_black,237779,black_plus_sign,,,,49,,,1,0.96,,,,,,,,,,
null,,color_black,237881,black_plus_sign,,,,null,,,,,,,,,,,,,,
null,,learn_phase(without_color),239883,black_plus_sign,,,,null,GW/soldier.jpg,GW/snail.jpg,,,,,,,,,,,,
null,,black_cross(without_color),240495,green,,,,null,GW/soldier.jpg,GW/snail.jpg,,,,,,,,,,,,
null,,rt_plussign_withcolor,240996,green,,,,null,GW/soldier.jpg,GW/snail.jpg,,,,,,,,,,,,
703,,rt_thecrossant_black,242387,black_plus_sign,,,,50,,,1,0.9615384615384616,,,,,,,,,,
null,,color_black,242489,black_plus_sign,,,,null,,,,,,,,,,,,,,
null,,learn_phase(without_color),244491,black_plus_sign,,,,null,GW/jukebox.jpg,GW/teeth.jpg,,,,,,,,,,,,
null,,black_cross(without_color),245208,blue,,,,null,GW/jukebox.jpg,GW/teeth.jpg,,,,,,,,,,,,
null,,rt_plussign_withcolor,245710,blue,,,,null,GW/jukebox.jpg,GW/teeth.jpg,,,,,,,,,,,,
737.5,,rt_thecrossant_black,246995,black_plus_sign,,,,49,,,1,0.9629629629629629,,,,,,,,,,
null,,color_black,247097,black_plus_sign,,,,null,,,,,,,,,,,,,,
null,,learn_phase(without_color),249099,black_plus_sign,,,,null,GW/teeth.jpg,GW/basket.jpg,,,,,,,,,,,,
null,,black_cross(without_color),249894,blue,,,,null,GW/teeth.jpg,GW/basket.jpg,,,,,,,,,,,,
null,,rt_plussign_withcolor,250395,blue,,,,null,GW/teeth.jpg,GW/basket.jpg,,,,,,,,,,,,
936.5999999940395,,rt_thecrossant_black,251603,black_plus_sign,,,,49,,,1,0.9642857142857143,,,,,,,,,,
null,,color_black,251705,black_plus_sign,,,,null,,,,,,,,,,,,,,
null,,learn_phase(without_color),253707,black_plus_sign,,,,null,GW/jukebox.jpg,GW/teeth.jpg,,,,,,,,,,,,
null,,black_cross(without_color),254326,green,,,,null,GW/jukebox.jpg,GW/teeth.jpg,,,,,,,,,,,,
null,,rt_plussign_withcolor,254827,green,,,,null,GW/jukebox.jpg,GW/teeth.jpg,,,,,,,,,,,,
965.4000000059605,,rt_thecrossant_black,256220,black_plus_sign,,,,50,,,1,0.9655172413793104,,,,,,,,,,
null,,color_black,256322,black_plus_sign,,,,null,,,,,,,,,,,,,,
null,,learn_phase(without_color),258323,black_plus_sign,,,,null,GW/gong.jpg,GW/camera.jpg,,,,,,,,,,,,
null,,black_cross(without_color),259077,blue,,,,null,GW/gong.jpg,GW/camera.jpg,,,,,,,,,,,,
null,,rt_plussign_withcolor,259579,blue,,,,null,GW/gong.jpg,GW/camera.jpg,,,,,,,,,,,,
857.4000000059605,,rt_thecrossant_black,260829,black_plus_sign,,,,49,,,1,0.9666666666666667,,,,,,,,,,
null,,color_black,260931,black_plus_sign,,,,null,,,,,,,,,,,,,,
null,,learn_phase(without_color),262933,black_plus_sign,,,,null,GW/teeth.jpg,GW/basket.jpg,,,,,,,,,,,,
null,,black_cross(without_color),263486,green,,,,null,GW/teeth.jpg,GW/basket.jpg,,,,,,,,,,,,
null,,rt_plussign_withcolor,263987,green,,,,null,GW/teeth.jpg,GW/basket.jpg,,,,,,,,,,,,
1231,,rt_thecrossant_black,265446,black_plus_sign,,,,50,,,1,0.967741935483871,,,,,,,,,,
null,,color_black,265548,black_plus_sign,,,,null,,,,,,,,,,,,,,
null,,learn_phase(without_color),267550,black_plus_sign,,,,null,GW/gong.jpg,GW/camera.jpg,,,,,,,,,,,,
null,,black_cross(without_color),268491,blue,,,,null,GW/gong.jpg,GW/camera.jpg,,,,,,,,,,,,
453.09999999403954,,rt_plussign_withcolor,268993,blue,,,,49,GW/gong.jpg,GW/camera.jpg,,,,,,,,,,,,
null,,rt_thecrossant_black,270056,black_plus_sign,,,,null,,,1,0.96875,,,,,,,,,,
null,,color_black,270158,black_plus_sign,,,,null,,,,,,,,,,,,,,
null,,learn_phase(without_color),272160,black_plus_sign,,,,null,GW/jukebox.jpg,GW/basket.jpg,,,,,,,,,,,,
null,,black_cross(without_color),273194,green,,,,null,GW/jukebox.jpg,GW/basket.jpg,,,,,,,,,,,,
null,,rt_plussign_withcolor,273696,green,,,,null,GW/jukebox.jpg,GW/basket.jpg,,,,,,,,,,,,
1190.1000000089407,,rt_thecrossant_black,274666,black_plus_sign,,,,50,,,1,0.9696969696969697,,,,,,,,,,
null,,color_black,274767,black_plus_sign,,,,null,,,,,,,,,,,,,,
null,,learn_phase(without_color),276768,black_plus_sign,,,,null,GW/gong.jpg,GW/camera.jpg,,,,,,,,,,,,
null,,black_cross(without_color),277302,blue,,,,null,GW/gong.jpg,GW/camera.jpg,,,,,,,,,,,,
null,,rt_plussign_withcolor,277804,blue,,,,null,GW/gong.jpg,GW/camera.jpg,,,,,,,,,,,,
1223.4000000059605,,rt_thecrossant_black,279275,black_plus_sign,,,,49,,,1,0.9705882352941176,,,,,,,,,,
null,,color_black,279381,black_plus_sign,,,,null,,,,,,,,,,,,,,
null,,learn_phase(without_color),281383,black_plus_sign,,,,null,GW/soldier.jpg,GW/snail.jpg,,,,,,,,,,,,
null,,black_cross(without_color),282079,green,,,,null,GW/soldier.jpg,GW/snail.jpg,,,,,,,,,,,,
null,,rt_plussign_withcolor,282580,green,,,,null,GW/soldier.jpg,GW/snail.jpg,,,,,,,,,,,,
847.2999999970198,,rt_thecrossant_black,283888,black_plus_sign,,,,50,,,1,0.9714285714285714,,,,,,,,,,
null,,color_black,283990,black_plus_sign,,,,null,,,,,,,,,,,,,,
null,,learn_phase(without_color),285992,black_plus_sign,,,,null,GW/gong.jpg,GW/soldier.jpg,,,,,,,,,,,,
null,,black_cross(without_color),286819,blue,,,,null,GW/gong.jpg,GW/soldier.jpg,,,,,,,,,,,,
null,,rt_plussign_withcolor,287320,blue,,,,null,GW/gong.jpg,GW/soldier.jpg,,,,,,,,,,,,
862.5,,rt_thecrossant_black,288497,black_plus_sign,,,,49,,,1,0.9722222222222222,,,,,,,,,,
null,,color_black,288599,black_plus_sign,,,,null,,,,,,,,,,,,,,
null,,learn_phase(without_color),290600,black_plus_sign,,,,null,GW/camera.jpg,GW/barrel.jpg,,,,,,,,,,,,
null,,black_cross(without_color),291005,blue,,,,null,GW/camera.jpg,GW/barrel.jpg,,,,,,,,,,,,
null,,rt_plussign_withcolor,291506,blue,,,,null,GW/camera.jpg,GW/barrel.jpg,,,,,,,,,,,,
1017.7999999970198,,rt_thecrossant_black,293105,black_plus_sign,,,,49,,,1,0.972972972972973,,,,,,,,,,
null,,color_black,293207,black_plus_sign,,,,null,,,,,,,,,,,,,,
null,,learn_phase(without_color),295209,black_plus_sign,,,,null,GW/gong.jpg,GW/soldier.jpg,,,,,,,,,,,,
null,,black_cross(without_color),296034,blue,,,,null,GW/gong.jpg,GW/soldier.jpg,,,,,,,,,,,,
null,,rt_plussign_withcolor,296536,blue,,,,null,GW/gong.jpg,GW/soldier.jpg,,,,,,,,,,,,
605.3999999910593,,rt_thecrossant_black,297716,black_plus_sign,,,,49,,,1,0.9736842105263158,,,,,,,,,,
null,,color_black,297817,black_plus_sign,,,,null,,,,,,,,,,,,,,
null,,learn_phase(without_color),299819,black_plus_sign,,,,null,GW/camera.jpg,GW/barrel.jpg,,,,,,,,,,,,
null,,black_cross(without_color),300382,blue,,,,null,GW/camera.jpg,GW/barrel.jpg,,,,,,,,,,,,
null,,rt_plussign_withcolor,300885,blue,,,,null,GW/camera.jpg,GW/barrel.jpg,,,,,,,,,,,,
1005.0999999940395,,rt_thecrossant_black,302339,black_plus_sign,,,,49,,,1,0.9743589743589743,,,,,,,,,,
null,,color_black,302442,black_plus_sign,,,,null,,,,,,,,,,,,,,
null,,learn_phase(without_color),304444,black_plus_sign,,,,null,GW/basket.jpg,GW/barrel.jpg,,,,,,,,,,,,
null,,black_cross(without_color),305527,blue,,,,null,GW/basket.jpg,GW/barrel.jpg,,,,,,,,,,,,
null,,rt_plussign_withcolor,306028,blue,,,,null,GW/basket.jpg,GW/barrel.jpg,,,,,,,,,,,,
669,,rt_thecrossant_black,306949,black_plus_sign,,,,49,,,1,0.975,,,,,,,,,,
null,,color_black,307050,black_plus_sign,,,,null,,,,,,,,,,,,,,
null,,learn_phase(without_color),309052,black_plus_sign,,,,null,GW/jukebox.jpg,GW/basket.jpg,,,,,,,,,,,,
null,,black_cross(without_color),309872,green,,,,null,GW/jukebox.jpg,GW/basket.jpg,,,,,,,,,,,,
null,,rt_plussign_withcolor,310372,green,,,,null,GW/jukebox.jpg,GW/basket.jpg,,,,,,,,,,,,
1206.2999999970198,,rt_thecrossant_black,311557,black_plus_sign,,,,50,,,1,0.975609756097561,,,,,,,,,,
null,,color_black,311659,black_plus_sign,,,,null,,,,,,,,,,,,,,
null,,learn_phase(without_color),313661,black_plus_sign,,,,null,GW/barrel.jpg,GW/snail.jpg,,,,,,,,,,,,
null,,black_cross(without_color),314266,green,,,,null,GW/barrel.jpg,GW/snail.jpg,,,,,,,,,,,,
null,,rt_plussign_withcolor,314768,green,,,,null,GW/barrel.jpg,GW/snail.jpg,,,,,,,,,,,,
1069.4000000059605,,rt_thecrossant_black,316166,black_plus_sign,,,,50,,,1,0.9761904761904762,,,,,,,,,,
null,,color_black,316268,black_plus_sign,,,,null,,,,,,,,,,,,,,
null,,learn_phase(without_color),318271,black_plus_sign,,,,null,GW/teeth.jpg,GW/basket.jpg,,,,,,,,,,,,
null,,black_cross(without_color),319296,blue,,,,null,GW/teeth.jpg,GW/basket.jpg,,,,,,,,,,,,
null,,rt_plussign_withcolor,319798,blue,,,,null,GW/teeth.jpg,GW/basket.jpg,,,,,,,,,,,,
749.6999999880791,,rt_thecrossant_black,320791,black_plus_sign,,,,50,,,0,0.9534883720930233,,,,,,,,,,
null,,color_black,320893,black_plus_sign,,,,null,,,,,,,,,,,,,,
null,,learn_phase(without_color),322894,black_plus_sign,,,,null,GW/gong.jpg,GW/soldier.jpg,,,,,,,,,,,,
null,,black_cross(without_color),323342,green,,,,null,GW/gong.jpg,GW/soldier.jpg,,,,,,,,,,,,
null,,rt_plussign_withcolor,323843,green,,,,null,GW/gong.jpg,GW/soldier.jpg,,,,,,,,,,,,
1375.7000000029802,,rt_thecrossant_black,325400,black_plus_sign,,,,49,,,0,0.9318181818181818,,,,,,,,,,
null,,warning_page,328403,warning,,,,null,,,,,,,,,,,,,,
null,,color_black,328505,black_plus_sign,,,,null,,,,,,,,,,,,,,
null,,learn_phase(without_color),330507,black_plus_sign,,,,null,GW/camera.jpg,GW/barrel.jpg,,,,,,,,,,,,
null,,black_cross(without_color),330997,blue,,,,null,GW/camera.jpg,GW/barrel.jpg,,,,,,,,,,,,
null,,rt_plussign_withcolor,331498,blue,,,,null,GW/camera.jpg,GW/barrel.jpg,,,,,,,,,,,,
877.7999999970198,,rt_thecrossant_black,333012,black_plus_sign,,,,49,,,1,0.9333333333333333,,,,,,,,,,
null,,color_black,333113,black_plus_sign,,,,null,,,,,,,,,,,,,,
null,,learn_phase(without_color),335116,black_plus_sign,,,,null,GW/jukebox.jpg,GW/teeth.jpg,,,,,,,,,,,,
null,,black_cross(without_color),336159,green,,,,null,GW/jukebox.jpg,GW/teeth.jpg,,,,,,,,,,,,
null,,rt_plussign_withcolor,336661,green,,,,null,GW/jukebox.jpg,GW/teeth.jpg,,,,,,,,,,,,
719.6999999880791,,rt_thecrossant_black,337622,black_plus_sign,,,,50,,,1,0.9347826086956522,,,,,,,,,,
null,,color_black,337723,black_plus_sign,,,,null,,,,,,,,,,,,,,
null,,learn_phase(without_color),339725,black_plus_sign,,,,null,GW/teeth.jpg,GW/globe.jpg,,,,,,,,,,,,
null,,black_cross(without_color),340806,green,,,,null,GW/teeth.jpg,GW/globe.jpg,,,,,,,,,,,,
null,,rt_plussign_withcolor,341308,green,,,,null,GW/teeth.jpg,GW/globe.jpg,,,,,,,,,,,,
1344.7999999970198,,rt_thecrossant_black,342230,black_plus_sign,,,,50,,,1,0.9361702127659575,,,,,,,,,,
null,,color_black,342339,black_plus_sign,,,,null,,,,,,,,,,,,,,
null,,learn_phase(without_color),344341,black_plus_sign,,,,null,GW/gong.jpg,GW/soldier.jpg,,,,,,,,,,,,
null,,black_cross(without_color),345299,blue,,,,null,GW/gong.jpg,GW/soldier.jpg,,,,,,,,,,,,
null,,rt_plussign_withcolor,345801,blue,,,,null,GW/gong.jpg,GW/soldier.jpg,,,,,,,,,,,,
1349.5,,rt_thecrossant_black,346848,black_plus_sign,,,,49,,,1,0.9375,,,,,,,,,,
null,,color_black,346949,black_plus_sign,,,,null,,,,,,,,,,,,,,
null,,learn_phase(without_color),348952,black_plus_sign,,,,null,GW/jukebox.jpg,GW/teeth.jpg,,,,,,,,,,,,
null,,black_cross(without_color),349397,blue,,,,null,GW/jukebox.jpg,GW/teeth.jpg,,,,,,,,,,,,
null,,rt_plussign_withcolor,349908,blue,,,,null,GW/jukebox.jpg,GW/teeth.jpg,,,,,,,,,,,,
1312.199999988079,,rt_thecrossant_black,351475,black_plus_sign,,,,49,,,1,0.9387755102040817,,,,,,,,,,
null,,color_black,351577,black_plus_sign,,,,null,,,,,,,,,,,,,,
null,,learn_phase(without_color),353579,black_plus_sign,,,,null,GW/camera.jpg,GW/barrel.jpg,,,,,,,,,,,,
null,,black_cross(without_color),354200,blue,,,,null,GW/camera.jpg,GW/barrel.jpg,,,,,,,,,,,,
500.79999999701977,,rt_plussign_withcolor,354702,blue,,,,49,GW/camera.jpg,GW/barrel.jpg,,,,,,,,,,,,
null,,rt_thecrossant_black,356085,black_plus_sign,,,,null,,,1,0.94,,,,,,,,,,
null,,color_black,356186,black_plus_sign,,,,null,,,,,,,,,,,,,,
null,,learn_phase(without_color),358187,black_plus_sign,,,,null,GW/gong.jpg,GW/soldier.jpg,,,,,,,,,,,,
null,,black_cross(without_color),358688,green,,,,null,GW/gong.jpg,GW/soldier.jpg,,,,,,,,,,,,
null,,rt_plussign_withcolor,359190,green,,,,null,GW/gong.jpg,GW/soldier.jpg,,,,,,,,,,,,
872.7999999970198,,rt_thecrossant_black,360696,black_plus_sign,,,,50,,,1,0.9411764705882353,,,,,,,,,,
null,,color_black,360798,black_plus_sign,,,,null,,,,,,,,,,,,,,
null,,learn_phase(without_color),362801,black_plus_sign,,,,null,GW/teeth.jpg,GW/basket.jpg,,,,,,,,,,,,
null,,black_cross(without_color),363721,blue,,,,null,GW/teeth.jpg,GW/basket.jpg,,,,,,,,,,,,
null,,rt_plussign_withcolor,364223,blue,,,,null,GW/teeth.jpg,GW/basket.jpg,,,,,,,,,,,,
663,,rt_thecrossant_black,365307,black_plus_sign,,,,49,,,1,0.9423076923076923,,,,,,,,,,
null,,color_black,365409,black_plus_sign,,,,null,,,,,,,,,,,,,,
null,,learn_phase(without_color),367410,black_plus_sign,,,,null,GW/paint.jpg,GW/gong.jpg,,,,,,,,,,,,
null,,black_cross(without_color),368402,green,,,,null,GW/paint.jpg,GW/gong.jpg,,,,,,,,,,,,
null,,rt_plussign_withcolor,368904,green,,,,null,GW/paint.jpg,GW/gong.jpg,,,,,,,,,,,,
1098.699999988079,,rt_thecrossant_black,369917,black_plus_sign,,,,50,,,1,0.9433962264150944,,,,,,,,,,
null,,color_black,370019,black_plus_sign,,,,null,,,,,,,,,,,,,,
null,,learn_phase(without_color),372021,black_plus_sign,,,,null,GW/teeth.jpg,GW/globe.jpg,,,,,,,,,,,,
null,,black_cross(without_color),372967,blue,,,,null,GW/teeth.jpg,GW/globe.jpg,,,,,,,,,,,,
null,,rt_plussign_withcolor,373468,blue,,,,null,GW/teeth.jpg,GW/globe.jpg,,,,,,,,,,,,
1094.2000000029802,,rt_thecrossant_black,374537,black_plus_sign,,,,49,,,1,0.9444444444444444,,,,,,,,,,
null,,color_black,374639,black_plus_sign,,,,null,,,,,,,,,,,,,,
null,,learn_phase(without_color),376641,black_plus_sign,,,,null,GW/wheelchair.jpg,GW/jukebox.jpg,,,,,,,,,,,,
null,,black_cross(without_color),377449,blue,,,,null,GW/wheelchair.jpg,GW/jukebox.jpg,,,,,,,,,,,,
null,,rt_plussign_withcolor,377950,blue,,,,null,GW/wheelchair.jpg,GW/jukebox.jpg,,,,,,,,,,,,
1263.5,,rt_thecrossant_black,379155,black_plus_sign,,,,49,,,1,0.9454545454545454,,,,,,,,,,
null,,color_black,379258,black_plus_sign,,,,null,,,,,,,,,,,,,,
null,,learn_phase(without_color),381261,black_plus_sign,,,,null,GW/jukebox.jpg,GW/hat.jpg,,,,,,,,,,,,
null,,black_cross(without_color),382040,green,,,,null,GW/jukebox.jpg,GW/hat.jpg,,,,,,,,,,,,
null,,rt_plussign_withcolor,382541,green,,,,null,GW/jukebox.jpg,GW/hat.jpg,,,,,,,,,,,,
1118,,rt_thecrossant_black,383767,black_plus_sign,,,,50,,,1,0.9464285714285714,,,,,,,,,,
null,,color_black,383869,black_plus_sign,,,,null,,,,,,,,,,,,,,
null,,learn_phase(without_color),385871,black_plus_sign,,,,null,GW/wheelchair.jpg,GW/basket.jpg,,,,,,,,,,,,
null,,black_cross(without_color),386931,green,,,,null,GW/wheelchair.jpg,GW/basket.jpg,,,,,,,,,,,,
null,,rt_plussign_withcolor,387433,green,,,,null,GW/wheelchair.jpg,GW/basket.jpg,,,,,,,,,,,,
970.7999999970198,,rt_thecrossant_black,388376,black_plus_sign,,,,50,,,1,0.9473684210526315,,,,,,,,,,
null,,color_black,388478,black_plus_sign,,,,null,,,,,,,,,,,,,,
null,,learn_phase(without_color),390480,black_plus_sign,,,,null,GW/wheelchair.jpg,GW/jukebox.jpg,,,,,,,,,,,,
null,,black_cross(without_color),391118,green,,,,null,GW/wheelchair.jpg,GW/jukebox.jpg,,,,,,,,,,,,
null,,rt_plussign_withcolor,391620,green,,,,null,GW/wheelchair.jpg,GW/jukebox.jpg,,,,,,,,,,,,
1266.3999999910593,,rt_thecrossant_black,392985,black_plus_sign,,,,50,,,1,0.9482758620689655,,,,,,,,,,
null,,color_black,393087,black_plus_sign,,,,null,,,,,,,,,,,,,,
null,,learn_phase(without_color),395089,black_plus_sign,,,,null,GW/teeth.jpg,GW/globe.jpg,,,,,,,,,,,,
null,,black_cross(without_color),395594,green,,,,null,GW/teeth.jpg,GW/globe.jpg,,,,,,,,,,,,
null,,rt_plussign_withcolor,396095,green,,,,null,GW/teeth.jpg,GW/globe.jpg,,,,,,,,,,,,
920.7000000029802,,rt_thecrossant_black,397594,black_plus_sign,,,,50,,,1,0.9491525423728814,,,,,,,,,,
null,,color_black,397697,black_plus_sign,,,,null,,,,,,,,,,,,,,
null,,learn_phase(without_color),399699,black_plus_sign,,,,null,GW/wheelchair.jpg,GW/basket.jpg,,,,,,,,,,,,
null,,black_cross(without_color),400704,blue,,,,null,GW/wheelchair.jpg,GW/basket.jpg,,,,,,,,,,,,
null,,rt_plussign_withcolor,401206,blue,,,,null,GW/wheelchair.jpg,GW/basket.jpg,,,,,,,,,,,,
650.9000000059605,,rt_thecrossant_black,402205,black_plus_sign,,,,49,,,1,0.95,,,,,,,,,,
null,,color_black,402306,black_plus_sign,,,,null,,,,,,,,,,,,,,
null,,learn_phase(without_color),404309,black_plus_sign,,,,null,GW/wheelchair.jpg,GW/jukebox.jpg,,,,,,,,,,,,
null,,black_cross(without_color),405095,blue,,,,null,GW/wheelchair.jpg,GW/jukebox.jpg,,,,,,,,,,,,
null,,rt_plussign_withcolor,405597,blue,,,,null,GW/wheelchair.jpg,GW/jukebox.jpg,,,,,,,,,,,,
1330.5,,rt_thecrossant_black,406814,black_plus_sign,,,,49,,,1,0.9508196721311475,,,,,,,,,,
null,,color_black,406916,black_plus_sign,,,,null,,,,,,,,,,,,,,
null,,learn_phase(without_color),408919,black_plus_sign,,,,null,GW/camera.jpg,GW/wheelchair.jpg,,,,,,,,,,,,
null,,black_cross(without_color),409949,green,,,,null,GW/camera.jpg,GW/wheelchair.jpg,,,,,,,,,,,,
null,,rt_plussign_withcolor,410451,green,,,,null,GW/camera.jpg,GW/wheelchair.jpg,,,,,,,,,,,,
928.5,,rt_thecrossant_black,411425,black_plus_sign,,,,50,,,1,0.9516129032258065,,,,,,,,,,
null,,color_black,411528,black_plus_sign,,,,null,,,,,,,,,,,,,,
null,,learn_phase(without_color),413530,black_plus_sign,,,,null,GW/basket.jpg,GW/barrel.jpg,,,,,,,,,,,,
null,,black_cross(without_color),414622,blue,,,,null,GW/basket.jpg,GW/barrel.jpg,,,,,,,,,,,,
null,,rt_plussign_withcolor,415123,blue,,,,null,GW/basket.jpg,GW/barrel.jpg,,,,,,,,,,,,
1336.2000000029802,,rt_thecrossant_black,416035,black_plus_sign,,,,49,,,1,0.9523809523809523,,,,,,,,,,
null,,color_black,416136,black_plus_sign,,,,null,,,,,,,,,,,,,,
null,,learn_phase(without_color),418138,black_plus_sign,,,,null,GW/wheelchair.jpg,GW/basket.jpg,,,,,,,,,,,,
null,,black_cross(without_color),418994,blue,,,,null,GW/wheelchair.jpg,GW/basket.jpg,,,,,,,,,,,,
null,,rt_plussign_withcolor,419495,blue,,,,null,GW/wheelchair.jpg,GW/basket.jpg,,,,,,,,,,,,
1352.800000011921,,rt_thecrossant_black,420643,black_plus_sign,,,,49,,,1,0.953125,,,,,,,,,,
null,,color_black,420744,black_plus_sign,,,,null,,,,,,,,,,,,,,
null,,learn_phase(without_color),422746,black_plus_sign,,,,null,GW/gong.jpg,GW/camera.jpg,,,,,,,,,,,,
null,,black_cross(without_color),423720,blue,,,,null,GW/gong.jpg,GW/camera.jpg,,,,,,,,,,,,
null,,rt_plussign_withcolor,424221,blue,,,,null,GW/gong.jpg,GW/camera.jpg,,,,,,,,,,,,
1108.3999999910593,,rt_thecrossant_black,425252,black_plus_sign,,,,49,,,1,0.9538461538461539,,,,,,,,,,
null,,color_black,425353,black_plus_sign,,,,null,,,,,,,,,,,,,,
null,,learn_phase(without_color),427362,black_plus_sign,,,,null,GW/barrel.jpg,GW/snail.jpg,,,,,,,,,,,,
null,,black_cross(without_color),428138,green,,,,null,GW/barrel.jpg,GW/snail.jpg,,,,,,,,,,,,
null,,rt_plussign_withcolor,428640,green,,,,null,GW/barrel.jpg,GW/snail.jpg,,,,,,,,,,,,
1200.2000000029802,,rt_thecrossant_black,429878,black_plus_sign,,,,49,,,0,0.9393939393939394,,,,,,,,,,
null,,color_black,429992,black_plus_sign,,,,null,,,,,,,,,,,,,,
null,,learn_phase(without_color),431993,black_plus_sign,,,,null,GW/paint.jpg,GW/gong.jpg,,,,,,,,,,,,
null,,black_cross(without_color),433003,blue,,,,null,GW/paint.jpg,GW/gong.jpg,,,,,,,,,,,,
null,,rt_plussign_withcolor,433505,blue,,,,null,GW/paint.jpg,GW/gong.jpg,,,,,,,,,,,,
945.0999999940395,,rt_thecrossant_black,434501,black_plus_sign,,,,49,,,1,0.9402985074626866,,,,,,,,,,
null,,color_black,434603,black_plus_sign,,,,null,,,,,,,,,,,,,,
null,,learn_phase(without_color),436605,black_plus_sign,,,,null,GW/soldier.jpg,GW/snail.jpg,,,,,,,,,,,,
null,,black_cross(without_color),437156,green,,,,null,GW/soldier.jpg,GW/snail.jpg,,,,,,,,,,,,
null,,rt_plussign_withcolor,437658,green,,,,null,GW/soldier.jpg,GW/snail.jpg,,,,,,,,,,,,
1133.2000000029802,,rt_thecrossant_black,439111,black_plus_sign,,,,50,,,1,0.9411764705882353,,,,,,,,,,
null,,color_black,439214,black_plus_sign,,,,null,,,,,,,,,,,,,,
null,,learn_phase(without_color),441217,black_plus_sign,,,,null,GW/gong.jpg,GW/soldier.jpg,,,,,,,,,,,,
null,,black_cross(without_color),442077,blue,,,,null,GW/gong.jpg,GW/soldier.jpg,,,,,,,,,,,,
null,,rt_plussign_withcolor,442579,blue,,,,null,GW/gong.jpg,GW/soldier.jpg,,,,,,,,,,,,
682,,rt_thecrossant_black,443722,black_plus_sign,,,,49,,,1,0.9420289855072463,,,,,,,,,,
null,,color_black,443823,black_plus_sign,,,,null,,,,,,,,,,,,,,
null,,learn_phase(without_color),445825,black_plus_sign,,,,null,GW/basket.jpg,GW/barrel.jpg,,,,,,,,,,,,
null,,black_cross(without_color),446276,green,,,,null,GW/basket.jpg,GW/barrel.jpg,,,,,,,,,,,,
null,,rt_plussign_withcolor,446778,green,,,,null,GW/basket.jpg,GW/barrel.jpg,,,,,,,,,,,,
1077.4000000059605,,rt_thecrossant_black,448330,black_plus_sign,,,,50,,,1,0.9428571428571428,,,,,,,,,,
null,,color_black,448432,black_plus_sign,,,,null,,,,,,,,,,,,,,
null,,learn_phase(without_color),450434,black_plus_sign,,,,null,GW/barrel.jpg,GW/snail.jpg,,,,,,,,,,,,
null,,black_cross(without_color),451108,blue,,,,null,GW/barrel.jpg,GW/snail.jpg,,,,,,,,,,,,
null,,rt_plussign_withcolor,451609,blue,,,,null,GW/barrel.jpg,GW/snail.jpg,,,,,,,,,,,,
603.6000000089407,,rt_thecrossant_black,452939,black_plus_sign,,,,49,,,1,0.9436619718309859,,,,,,,,,,
null,,color_black,453048,black_plus_sign,,,,null,,,,,,,,,,,,,,
null,,learn_phase(without_color),455051,black_plus_sign,,,,null,GW/basket.jpg,GW/barrel.jpg,,,,,,,,,,,,
null,,black_cross(without_color),456092,blue,,,,null,GW/basket.jpg,GW/barrel.jpg,,,,,,,,,,,,
null,,rt_plussign_withcolor,456594,blue,,,,null,GW/basket.jpg,GW/barrel.jpg,,,,,,,,,,,,
783.1000000089407,,rt_thecrossant_black,457557,black_plus_sign,,,,49,,,1,0.9444444444444444,,,,,,,,,,
null,,color_black,457658,black_plus_sign,,,,null,,,,,,,,,,,,,,
null,,learn_phase(without_color),459660,black_plus_sign,,,,null,GW/camera.jpg,GW/barrel.jpg,,,,,,,,,,,,
null,,black_cross(without_color),460273,green,,,,null,GW/camera.jpg,GW/barrel.jpg,,,,,,,,,,,,
null,,rt_plussign_withcolor,460775,green,,,,null,GW/camera.jpg,GW/barrel.jpg,,,,,,,,,,,,
1407.7000000029802,,rt_thecrossant_black,462166,black_plus_sign,,,,50,,,1,0.9452054794520548,,,,,,,,,,
null,,color_black,462282,black_plus_sign,,,,null,,,,,,,,,,,,,,
null,,learn_phase(without_color),464284,black_plus_sign,,,,null,GW/jukebox.jpg,GW/basket.jpg,,,,,,,,,,,,
null,,black_cross(without_color),465300,blue,,,,null,GW/jukebox.jpg,GW/basket.jpg,,,,,,,,,,,,
null,,rt_plussign_withcolor,465802,blue,,,,null,GW/jukebox.jpg,GW/basket.jpg,,,,,,,,,,,,
870.2999999970198,,rt_thecrossant_black,466799,black_plus_sign,,,,49,,,1,0.9459459459459459,,,,,,,,,,
null,,color_black,466901,black_plus_sign,,,,null,,,,,,,,,,,,,,
null,,learn_phase(without_color),468902,black_plus_sign,,,,null,GW/jukebox.jpg,GW/teeth.jpg,,,,,,,,,,,,
null,,black_cross(without_color),469870,green,,,,null,GW/jukebox.jpg,GW/teeth.jpg,,,,,,,,,,,,
null,,rt_plussign_withcolor,470372,green,,,,null,GW/jukebox.jpg,GW/teeth.jpg,,,,,,,,,,,,
1471.2000000029802,,rt_thecrossant_black,471414,black_plus_sign,,,,50,,,1,0.9466666666666667,,,,,,,,,,
null,,color_black,471516,black_plus_sign,,,,null,,,,,,,,,,,,,,
null,,learn_phase(without_color),473517,black_plus_sign,,,,null,GW/soldier.jpg,GW/dustpan.jpg,,,,,,,,,,,,
null,,black_cross(without_color),474444,green,,,,null,GW/soldier.jpg,GW/dustpan.jpg,,,,,,,,,,,,
null,,rt_plussign_withcolor,474946,green,,,,null,GW/soldier.jpg,GW/dustpan.jpg,,,,,,,,,,,,
1306.7000000029802,,rt_thecrossant_black,476030,black_plus_sign,,,,50,,,1,0.9473684210526315,,,,,,,,,,
null,,color_black,476133,black_plus_sign,,,,null,,,,,,,,,,,,,,
null,,learn_phase(without_color),478139,black_plus_sign,,,,null,GW/teeth.jpg,GW/basket.jpg,,,,,,,,,,,,
null,,black_cross(without_color),479119,green,,,,null,GW/teeth.jpg,GW/basket.jpg,,,,,,,,,,,,
null,,rt_plussign_withcolor,479621,green,,,,null,GW/teeth.jpg,GW/basket.jpg,,,,,,,,,,,,
1072.5999999940395,,rt_thecrossant_black,480645,black_plus_sign,,,,50,,,1,0.948051948051948,,,,,,,,,,
null,,color_black,480747,black_plus_sign,,,,null,,,,,,,,,,,,,,
null,,learn_phase(without_color),482750,black_plus_sign,,,,null,GW/camera.jpg,GW/barrel.jpg,,,,,,,,,,,,
null,,black_cross(without_color),483250,blue,,,,null,GW/camera.jpg,GW/barrel.jpg,,,,,,,,,,,,
null,,rt_plussign_withcolor,483752,blue,,,,null,GW/camera.jpg,GW/barrel.jpg,,,,,,,,,,,,
1273.0999999940395,,rt_thecrossant_black,485254,black_plus_sign,,,,49,,,1,0.9487179487179487,,,,,,,,,,
null,,color_black,485357,black_plus_sign,,,,null,,,,,,,,,,,,,,
null,,learn_phase(without_color),487359,black_plus_sign,,,,null,GW/barrel.jpg,GW/snail.jpg,,,,,,,,,,,,
null,,black_cross(without_color),487776,green,,,,null,GW/barrel.jpg,GW/snail.jpg,,,,,,,,,,,,
null,,rt_plussign_withcolor,488287,green,,,,null,GW/barrel.jpg,GW/snail.jpg,,,,,,,,,,,,
643.0999999940395,,rt_thecrossant_black,489874,black_plus_sign,,,,50,,,1,0.9493670886075949,,,,,,,,,,
null,,color_black,489977,black_plus_sign,,,,null,,,,,,,,,,,,,,
null,,learn_phase(without_color),491988,black_plus_sign,,,,null,GW/camera.jpg,GW/barrel.jpg,,,,,,,,,,,,
null,,black_cross(without_color),492564,blue,,,,null,GW/camera.jpg,GW/barrel.jpg,,,,,,,,,,,,
null,,rt_plussign_withcolor,493066,blue,,,,null,GW/camera.jpg,GW/barrel.jpg,,,,,,,,,,,,
748.2000000029802,,rt_thecrossant_black,494493,black_plus_sign,,,,49,,,1,0.95,,,,,,,,,,
null,,color_black,494595,black_plus_sign,,,,null,,,,,,,,,,,,,,
null,,learn_phase(without_color),496598,black_plus_sign,,,,null,GW/teeth.jpg,GW/globe.jpg,,,,,,,,,,,,
null,,black_cross(without_color),497399,green,,,,null,GW/teeth.jpg,GW/globe.jpg,,,,,,,,,,,,
465.1000000089407,,rt_plussign_withcolor,497900,green,,,,50,GW/teeth.jpg,GW/globe.jpg,,,,,,,,,,,,
null,,rt_thecrossant_black,499103,black_plus_sign,,,,null,,,1,0.9506172839506173,,,,,,,,,,
null,,color_black,499204,black_plus_sign,,,,null,,,,,,,,,,,,,,
null,,learn_phase(without_color),501206,black_plus_sign,,,,null,GW/barrel.jpg,GW/snail.jpg,,,,,,,,,,,,
null,,black_cross(without_color),501718,blue,,,,null,GW/barrel.jpg,GW/snail.jpg,,,,,,,,,,,,
null,,rt_plussign_withcolor,502221,blue,,,,null,GW/barrel.jpg,GW/snail.jpg,,,,,,,,,,,,
1011.4000000059605,,rt_thecrossant_black,503712,black_plus_sign,,,,49,,,1,0.9512195121951219,,,,,,,,,,
null,,color_black,503822,black_plus_sign,,,,null,,,,,,,,,,,,,,
null,,learn_phase(without_color),505825,black_plus_sign,,,,null,GW/wheelchair.jpg,GW/basket.jpg,,,,,,,,,,,,
null,,black_cross(without_color),506551,green,,,,null,GW/wheelchair.jpg,GW/basket.jpg,,,,,,,,,,,,
null,,rt_plussign_withcolor,507054,green,,,,null,GW/wheelchair.jpg,GW/basket.jpg,,,,,,,,,,,,
648.6000000089407,,rt_thecrossant_black,508330,black_plus_sign,,,,49,,,0,0.9397590361445783,,,,,,,,,,
null,,color_black,508431,black_plus_sign,,,,null,,,,,,,,,,,,,,
null,,learn_phase(without_color),510432,black_plus_sign,,,,null,GW/jukebox.jpg,GW/hat.jpg,,,,,,,,,,,,
null,,black_cross(without_color),511333,green,,,,null,GW/jukebox.jpg,GW/hat.jpg,,,,,,,,,,,,
null,,rt_plussign_withcolor,511835,green,,,,null,GW/jukebox.jpg,GW/hat.jpg,,,,,,,,,,,,
892.7999999970198,,rt_thecrossant_black,512938,black_plus_sign,,,,50,,,1,0.9404761904761905,,,,,,,,,,
null,,color_black,513040,black_plus_sign,,,,null,,,,,,,,,,,,,,
null,,learn_phase(without_color),515042,black_plus_sign,,,,null,GW/paint.jpg,GW/gong.jpg,,,,,,,,,,,,
null,,black_cross(without_color),515803,blue,,,,null,GW/paint.jpg,GW/gong.jpg,,,,,,,,,,,,
418.09999999403954,,rt_plussign_withcolor,516305,blue,,,,49,GW/paint.jpg,GW/gong.jpg,,,,,,,,,,,,
null,,rt_thecrossant_black,517548,black_plus_sign,,,,null,,,1,0.9411764705882353,,,,,,,,,,
null,,color_black,517650,black_plus_sign,,,,null,,,,,,,,,,,,,,
null,,learn_phase(without_color),519652,black_plus_sign,,,,null,GW/gong.jpg,GW/camera.jpg,,,,,,,,,,,,
null,,black_cross(without_color),520441,green,,,,null,GW/gong.jpg,GW/camera.jpg,,,,,,,,,,,,
null,,rt_plussign_withcolor,520942,green,,,,null,GW/gong.jpg,GW/camera.jpg,,,,,,,,,,,,
1099,,rt_thecrossant_black,522168,black_plus_sign,,,,50,,,1,0.9418604651162791,,,,,,,,,,
null,,color_black,522270,black_plus_sign,,,,null,,,,,,,,,,,,,,
null,,learn_phase(without_color),524273,black_plus_sign,,,,null,GW/teeth.jpg,GW/globe.jpg,,,,,,,,,,,,
null,,black_cross(without_color),525107,green,,,,null,GW/teeth.jpg,GW/globe.jpg,,,,,,,,,,,,
null,,rt_plussign_withcolor,525609,green,,,,null,GW/teeth.jpg,GW/globe.jpg,,,,,,,,,,,,
910.2999999970198,,rt_thecrossant_black,526778,black_plus_sign,,,,50,,,1,0.9425287356321839,,,,,,,,,,
null,,color_black,526880,black_plus_sign,,,,null,,,,,,,,,,,,,,
null,,learn_phase(without_color),528882,black_plus_sign,,,,null,GW/teeth.jpg,GW/basket.jpg,,,,,,,,,,,,
null,,black_cross(without_color),529948,green,,,,null,GW/teeth.jpg,GW/basket.jpg,,,,,,,,,,,,
null,,rt_plussign_withcolor,530450,green,,,,null,GW/teeth.jpg,GW/basket.jpg,,,,,,,,,,,,
1036.4000000059605,,rt_thecrossant_black,531387,black_plus_sign,,,,50,,,1,0.9431818181818182,,,,,,,,,,
null,,color_black,531489,black_plus_sign,,,,null,,,,,,,,,,,,,,
null,,learn_phase(without_color),533491,black_plus_sign,,,,null,GW/paint.jpg,GW/gong.jpg,,,,,,,,,,,,
null,,black_cross(without_color),534306,blue,,,,null,GW/paint.jpg,GW/gong.jpg,,,,,,,,,,,,
423.1000000089407,,rt_plussign_withcolor,534808,blue,,,,49,GW/paint.jpg,GW/gong.jpg,,,,,,,,,,,,
null,,rt_thecrossant_black,535997,black_plus_sign,,,,null,,,1,0.9438202247191011,,,,,,,,,,
null,,color_black,536099,black_plus_sign,,,,null,,,,,,,,,,,,,,
null,,learn_phase(without_color),538102,black_plus_sign,,,,null,GW/basket.jpg,GW/barrel.jpg,,,,,,,,,,,,
null,,black_cross(without_color),539154,blue,,,,null,GW/basket.jpg,GW/barrel.jpg,,,,,,,,,,,,
null,,rt_plussign_withcolor,539663,blue,,,,null,GW/basket.jpg,GW/barrel.jpg,,,,,,,,,,,,
1365.7000000029802,,rt_thecrossant_black,540614,black_plus_sign,,,,49,,,1,0.9444444444444444,,,,,,,,,,
null,,color_black,540716,black_plus_sign,,,,null,,,,,,,,,,,,,,
null,,learn_phase(without_color),542718,black_plus_sign,,,,null,GW/soldier.jpg,GW/dustpan.jpg,,,,,,,,,,,,
null,,black_cross(without_color),543796,green,,,,null,GW/soldier.jpg,GW/dustpan.jpg,,,,,,,,,,,,
null,,rt_plussign_withcolor,544303,green,,,,null,GW/soldier.jpg,GW/dustpan.jpg,,,,,,,,,,,,
1197.7999999970198,,rt_thecrossant_black,545234,black_plus_sign,,,,50,,,1,0.945054945054945,,,,,,,,,,
null,,color_black,545336,black_plus_sign,,,,null,,,,,,,,,,,,,,
null,,learn_phase(without_color),547339,black_plus_sign,,,,null,GW/jukebox.jpg,GW/basket.jpg,,,,,,,,,,,,
null,,black_cross(without_color),547871,blue,,,,null,GW/jukebox.jpg,GW/basket.jpg,,,,,,,,,,,,
null,,rt_plussign_withcolor,548373,blue,,,,null,GW/jukebox.jpg,GW/basket.jpg,,,,,,,,,,,,
1434.199999988079,,rt_thecrossant_black,549852,black_plus_sign,,,,49,,,1,0.9456521739130435,,,,,,,,,,
null,,color_black,549955,black_plus_sign,,,,null,,,,,,,,,,,,,,
null,,learn_phase(without_color),551956,black_plus_sign,,,,null,GW/wheelchair.jpg,GW/basket.jpg,,,,,,,,,,,,
null,,black_cross(without_color),552385,green,,,,null,GW/wheelchair.jpg,GW/basket.jpg,,,,,,,,,,,,
null,,rt_plussign_withcolor,552886,green,,,,null,GW/wheelchair.jpg,GW/basket.jpg,,,,,,,,,,,,
982.5,,rt_thecrossant_black,554461,black_plus_sign,,,,50,,,1,0.946236559139785,,,,,,,,,,
null,,color_black,554562,black_plus_sign,,,,null,,,,,,,,,,,,,,
null,,learn_phase(without_color),556564,black_plus_sign,,,,null,GW/soldier.jpg,GW/dustpan.jpg,,,,,,,,,,,,
null,,black_cross(without_color),557145,blue,,,,null,GW/soldier.jpg,GW/dustpan.jpg,,,,,,,,,,,,
437.40000000596046,,rt_plussign_withcolor,557646,blue,,,,49,GW/soldier.jpg,GW/dustpan.jpg,,,,,,,,,,,,
null,,rt_thecrossant_black,559071,black_plus_sign,,,,null,,,1,0.9468085106382979,,,,,,,,,,
null,,color_black,559174,black_plus_sign,,,,null,,,,,,,,,,,,,,
null,,learn_phase(without_color),561175,black_plus_sign,,,,null,GW/gong.jpg,GW/camera.jpg,,,,,,,,,,,,
null,,black_cross(without_color),562084,blue,,,,null,GW/gong.jpg,GW/camera.jpg,,,,,,,,,,,,
null,,rt_plussign_withcolor,562586,blue,,,,null,GW/gong.jpg,GW/camera.jpg,,,,,,,,,,,,
835,,rt_thecrossant_black,563680,black_plus_sign,,,,49,,,1,0.9473684210526315,,,,,,,,,,
null,,color_black,563785,black_plus_sign,,,,null,,,,,,,,,,,,,,
null,,learn_phase(without_color),565786,black_plus_sign,,,,null,GW/teeth.jpg,GW/globe.jpg,,,,,,,,,,,,
null,,black_cross(without_color),566218,green,,,,null,GW/teeth.jpg,GW/globe.jpg,,,,,,,,,,,,
null,,rt_plussign_withcolor,566720,green,,,,null,GW/teeth.jpg,GW/globe.jpg,,,,,,,,,,,,
1270.300000011921,,rt_thecrossant_black,568292,black_plus_sign,,,,50,,,1,0.9479166666666666,,,,,,,,,,
null,,color_black,568395,black_plus_sign,,,,null,,,,,,,,,,,,,,
null,,learn_phase(without_color),570397,black_plus_sign,,,,null,GW/wheelchair.jpg,GW/jukebox.jpg,,,,,,,,,,,,
null,,black_cross(without_color),571078,green,,,,null,GW/wheelchair.jpg,GW/jukebox.jpg,,,,,,,,,,,,
null,,rt_plussign_withcolor,571580,green,,,,null,GW/wheelchair.jpg,GW/jukebox.jpg,,,,,,,,,,,,
712.6000000089407,,rt_thecrossant_black,572905,black_plus_sign,,,,50,,,1,0.9484536082474226,,,,,,,,,,
null,,color_black,573007,black_plus_sign,,,,null,,,,,,,,,,,,,,
null,,learn_phase(without_color),575009,black_plus_sign,,,,null,GW/wheelchair.jpg,GW/basket.jpg,,,,,,,,,,,,
null,,black_cross(without_color),575564,green,,,,null,GW/wheelchair.jpg,GW/basket.jpg,,,,,,,,,,,,
null,,rt_plussign_withcolor,576066,green,,,,null,GW/wheelchair.jpg,GW/basket.jpg,,,,,,,,,,,,
1049.2000000029802,,rt_thecrossant_black,577515,black_plus_sign,,,,50,,,1,0.9489795918367347,,,,,,,,,,
null,,color_black,577624,black_plus_sign,,,,null,,,,,,,,,,,,,,
null,,learn_phase(without_color),579627,black_plus_sign,,,,null,GW/jukebox.jpg,GW/hat.jpg,,,,,,,,,,,,
null,,black_cross(without_color),580506,green,,,,null,GW/jukebox.jpg,GW/hat.jpg,,,,,,,,,,,,
null,,rt_plussign_withcolor,581008,green,,,,null,GW/jukebox.jpg,GW/hat.jpg,,,,,,,,,,,,
792.7999999970198,,rt_thecrossant_black,582134,black_plus_sign,,,,50,,,1,0.9494949494949495,,,,,,,,,,
null,,color_black,582235,black_plus_sign,,,,null,,,,,,,,,,,,,,
null,,learn_phase(without_color),584237,black_plus_sign,,,,null,GW/camera.jpg,GW/wheelchair.jpg,,,,,,,,,,,,
null,,black_cross(without_color),584873,green,,,,null,GW/camera.jpg,GW/wheelchair.jpg,,,,,,,,,,,,
null,,rt_plussign_withcolor,585374,green,,,,null,GW/camera.jpg,GW/wheelchair.jpg,,,,,,,,,,,,
1265.3999999910593,,rt_thecrossant_black,586742,black_plus_sign,,,,50,,,1,0.95,,,,,,,,,,
null,,color_black,586844,black_plus_sign,,,,null,,,,,,,,,,,,,,
null,,learn_phase(without_color),588846,black_plus_sign,,,,null,GW/paint.jpg,GW/gong.jpg,,,,,,,,,,,,
null,,black_cross(without_color),589346,green,,,,null,GW/paint.jpg,GW/gong.jpg,,,,,,,,,,,,
null,,rt_plussign_withcolor,589848,green,,,,null,GW/paint.jpg,GW/gong.jpg,,,,,,,,,,,,
782.4000000059605,,rt_thecrossant_black,591353,black_plus_sign,,,,50,,,1,0.9504950495049505,,,,,,,,,,
null,,color_black,591455,black_plus_sign,,,,null,,,,,,,,,,,,,,
null,,learn_phase(without_color),593458,black_plus_sign,,,,null,GW/wheelchair.jpg,GW/jukebox.jpg,,,,,,,,,,,,
null,,black_cross(without_color),594080,blue,,,,null,GW/wheelchair.jpg,GW/jukebox.jpg,,,,,,,,,,,,
488.40000000596046,,rt_plussign_withcolor,594582,blue,,,,49,GW/wheelchair.jpg,GW/jukebox.jpg,,,,,,,,,,,,
null,,rt_thecrossant_black,595964,black_plus_sign,,,,null,,,1,0.9509803921568627,,,,,,,,,,
null,,color_black,596066,black_plus_sign,,,,null,,,,,,,,,,,,,,
null,,learn_phase(without_color),598067,black_plus_sign,,,,null,GW/gong.jpg,GW/soldier.jpg,,,,,,,,,,,,
null,,black_cross(without_color),598664,blue,,,,null,GW/gong.jpg,GW/soldier.jpg,,,,,,,,,,,,
null,,rt_plussign_withcolor,599165,blue,,,,null,GW/gong.jpg,GW/soldier.jpg,,,,,,,,,,,,
926.7999999970198,,rt_thecrossant_black,600573,black_plus_sign,,,,49,,,1,0.9514563106796117,,,,,,,,,,
null,,color_black,600674,black_plus_sign,,,,null,,,,,,,,,,,,,,
null,,learn_phase(without_color),602677,black_plus_sign,,,,null,GW/teeth.jpg,GW/basket.jpg,,,,,,,,,,,,
null,,black_cross(without_color),603717,green,,,,null,GW/teeth.jpg,GW/basket.jpg,,,,,,,,,,,,
null,,rt_plussign_withcolor,604219,green,,,,null,GW/teeth.jpg,GW/basket.jpg,,,,,,,,,,,,
745.2000000029802,,rt_thecrossant_black,605182,black_plus_sign,,,,50,,,1,0.9519230769230769,,,,,,,,,,
null,,color_black,605284,black_plus_sign,,,,null,,,,,,,,,,,,,,
null,,learn_phase(without_color),607286,black_plus_sign,,,,null,GW/jukebox.jpg,GW/basket.jpg,,,,,,,,,,,,
null,,black_cross(without_color),607995,blue,,,,null,GW/jukebox.jpg,GW/basket.jpg,,,,,,,,,,,,
null,,rt_plussign_withcolor,608497,blue,,,,null,GW/jukebox.jpg,GW/basket.jpg,,,,,,,,,,,,
1203.7000000029802,,rt_thecrossant_black,609794,black_plus_sign,,,,49,,,1,0.9523809523809523,,,,,,,,,,
null,,color_black,609896,black_plus_sign,,,,null,,,,,,,,,,,,,,
null,,learn_phase(without_color),611898,black_plus_sign,,,,null,GW/jukebox.jpg,GW/hat.jpg,,,,,,,,,,,,
null,,black_cross(without_color),612690,blue,,,,null,GW/jukebox.jpg,GW/hat.jpg,,,,,,,,,,,,
null,,rt_plussign_withcolor,613192,blue,,,,null,GW/jukebox.jpg,GW/hat.jpg,,,,,,,,,,,,
890.2999999970198,,rt_thecrossant_black,614404,black_plus_sign,,,,49,,,1,0.9528301886792453,,,,,,,,,,
null,,color_black,614506,black_plus_sign,,,,null,,,,,,,,,,,,,,
null,,learn_phase(without_color),616508,black_plus_sign,,,,null,GW/soldier.jpg,GW/snail.jpg,,,,,,,,,,,,
null,,black_cross(without_color),617052,blue,,,,null,GW/soldier.jpg,GW/snail.jpg,,,,,,,,,,,,
null,,rt_plussign_withcolor,617553,blue,,,,null,GW/soldier.jpg,GW/snail.jpg,,,,,,,,,,,,
983.5,,rt_thecrossant_black,619026,black_plus_sign,,,,49,,,1,0.9532710280373832,,,,,,,,,,
null,,color_black,619128,black_plus_sign,,,,null,,,,,,,,,,,,,,
null,,learn_phase(without_color),621130,black_plus_sign,,,,null,GW/jukebox.jpg,GW/teeth.jpg,,,,,,,,,,,,
null,,black_cross(without_color),621879,green,,,,null,GW/jukebox.jpg,GW/teeth.jpg,,,,,,,,,,,,
null,,rt_plussign_withcolor,622380,green,,,,null,GW/jukebox.jpg,GW/teeth.jpg,,,,,,,,,,,,
1038.2000000029802,,rt_thecrossant_black,623635,black_plus_sign,,,,50,,,1,0.9537037037037037,,,,,,,,,,
null,,color_black,623736,black_plus_sign,,,,null,,,,,,,,,,,,,,
null,,learn_phase(without_color),625740,black_plus_sign,,,,null,GW/jukebox.jpg,GW/hat.jpg,,,,,,,,,,,,
null,,black_cross(without_color),626260,blue,,,,null,GW/jukebox.jpg,GW/hat.jpg,,,,,,,,,,,,
null,,rt_plussign_withcolor,626762,blue,,,,null,GW/jukebox.jpg,GW/hat.jpg,,,,,,,,,,,,
1018.5999999940395,,rt_thecrossant_black,628250,black_plus_sign,,,,49,,,1,0.9541284403669725,,,,,,,,,,
null,,color_black,628352,black_plus_sign,,,,null,,,,,,,,,,,,,,
null,,learn_phase(without_color),630354,black_plus_sign,,,,null,GW/soldier.jpg,GW/snail.jpg,,,,,,,,,,,,
null,,black_cross(without_color),631270,green,,,,null,GW/soldier.jpg,GW/snail.jpg,,,,,,,,,,,,
null,,rt_plussign_withcolor,631771,green,,,,null,GW/soldier.jpg,GW/snail.jpg,,,,,,,,,,,,
807.9000000059605,,rt_thecrossant_black,632860,black_plus_sign,,,,50,,,1,0.9545454545454546,,,,,,,,,,
null,,color_black,632963,black_plus_sign,,,,null,,,,,,,,,,,,,,
null,,learn_phase(without_color),634966,black_plus_sign,,,,null,GW/barrel.jpg,GW/snail.jpg,,,,,,,,,,,,
null,,black_cross(without_color),635403,green,,,,null,GW/barrel.jpg,GW/snail.jpg,,,,,,,,,,,,
null,,rt_plussign_withcolor,635904,green,,,,null,GW/barrel.jpg,GW/snail.jpg,,,,,,,,,,,,
1117.3999999910593,,rt_thecrossant_black,637470,black_plus_sign,,,,50,,,1,0.954954954954955,,,,,,,,,,
null,,color_black,637572,black_plus_sign,,,,null,,,,,,,,,,,,,,
null,,learn_phase(without_color),639573,black_plus_sign,,,,null,GW/wheelchair.jpg,GW/jukebox.jpg,,,,,,,,,,,,
null,,black_cross(without_color),640544,blue,,,,null,GW/wheelchair.jpg,GW/jukebox.jpg,,,,,,,,,,,,
413,,rt_plussign_withcolor,641046,blue,,,,49,GW/wheelchair.jpg,GW/jukebox.jpg,,,,,,,,,,,,
null,,rt_thecrossant_black,642092,black_plus_sign,,,,null,,,1,0.9553571428571429,,,,,,,,,,
null,,color_black,642194,black_plus_sign,,,,null,,,,,,,,,,,,,,
null,,learn_phase(without_color),644197,black_plus_sign,,,,null,GW/jukebox.jpg,GW/teeth.jpg,,,,,,,,,,,,
null,,black_cross(without_color),645291,green,,,,null,GW/jukebox.jpg,GW/teeth.jpg,,,,,,,,,,,,
null,,rt_plussign_withcolor,645793,green,,,,null,GW/jukebox.jpg,GW/teeth.jpg,,,,,,,,,,,,
1126.8999999910593,,rt_thecrossant_black,646702,black_plus_sign,,,,50,,,1,0.9557522123893806,,,,,,,,,,
null,,color_black,646804,black_plus_sign,,,,null,,,,,,,,,,,,,,
null,,learn_phase(without_color),648808,black_plus_sign,,,,null,GW/soldier.jpg,GW/dustpan.jpg,,,,,,,,,,,,
null,,black_cross(without_color),649576,blue,,,,null,GW/soldier.jpg,GW/dustpan.jpg,,,,,,,,,,,,
null,,rt_plussign_withcolor,650077,blue,,,,null,GW/soldier.jpg,GW/dustpan.jpg,,,,,,,,,,,,
1349,,rt_thecrossant_black,651314,black_plus_sign,,,,49,,,1,0.956140350877193,,,,,,,,,,
null,,color_black,651415,black_plus_sign,,,,null,,,,,,,,,,,,,,
null,,learn_phase(without_color),653418,black_plus_sign,,,,null,GW/paint.jpg,GW/gong.jpg,,,,,,,,,,,,
null,,black_cross(without_color),653890,green,,,,null,GW/paint.jpg,GW/gong.jpg,,,,,,,,,,,,
null,,rt_plussign_withcolor,654392,green,,,,null,GW/paint.jpg,GW/gong.jpg,,,,,,,,,,,,
1176.5,,rt_thecrossant_black,655923,black_plus_sign,,,,50,,,1,0.9565217391304348,,,,,,,,,,
null,,color_black,656025,black_plus_sign,,,,null,,,,,,,,,,,,,,
null,,learn_phase(without_color),658027,black_plus_sign,,,,null,GW/basket.jpg,GW/barrel.jpg,,,,,,,,,,,,
null,,black_cross(without_color),658697,green,,,,null,GW/basket.jpg,GW/barrel.jpg,,,,,,,,,,,,
null,,rt_plussign_withcolor,659199,green,,,,null,GW/basket.jpg,GW/barrel.jpg,,,,,,,,,,,,
638.9000000059605,,rt_thecrossant_black,660533,black_plus_sign,,,,50,,,1,0.9568965517241379,,,,,,,,,,
null,,color_black,660635,black_plus_sign,,,,null,,,,,,,,,,,,,,
null,,learn_phase(without_color),662638,black_plus_sign,,,,null,GW/soldier.jpg,GW/dustpan.jpg,,,,,,,,,,,,
null,,black_cross(without_color),663559,green,,,,null,GW/soldier.jpg,GW/dustpan.jpg,,,,,,,,,,,,
null,,rt_plussign_withcolor,664061,green,,,,null,GW/soldier.jpg,GW/dustpan.jpg,,,,,,,,,,,,
826.7999999970198,,rt_thecrossant_black,665143,black_plus_sign,,,,50,,,1,0.9572649572649573,,,,,,,,,,
null,,color_black,665245,black_plus_sign,,,,null,,,,,,,,,,,,,,
null,,learn_phase(without_color),667247,black_plus_sign,,,,null,GW/paint.jpg,GW/gong.jpg,,,,,,,,,,,,
null,,black_cross(without_color),667701,green,,,,null,GW/paint.jpg,GW/gong.jpg,,,,,,,,,,,,
null,,rt_plussign_withcolor,668210,green,,,,null,GW/paint.jpg,GW/gong.jpg,,,,,,,,,,,,
null,,rt_thecrossant_black,669759,black_plus_sign,,,,null,,,,0.9572649572649573,,,,,,,,,,
null,,color_black,669861,black_plus_sign,,,,null,,,,,,,,,,,,,,
null,,learn_phase(without_color),671862,black_plus_sign,,,,null,GW/camera.jpg,GW/wheelchair.jpg,,,,,,,,,,,,
null,,black_cross(without_color),672430,blue,,,,null,GW/camera.jpg,GW/wheelchair.jpg,,,,,,,,,,,,
null,,rt_plussign_withcolor,672933,blue,,,,null,GW/camera.jpg,GW/wheelchair.jpg,,,,,,,,,,,,
675.2999999970198,,rt_thecrossant_black,674368,black_plus_sign,,,,49,,,1,0.9576271186440678,,,,,,,,,,
null,,color_black,674477,black_plus_sign,,,,null,,,,,,,,,,,,,,
null,,learn_phase(without_color),676479,black_plus_sign,,,,null,GW/basket.jpg,GW/barrel.jpg,,,,,,,,,,,,
null,,black_cross(without_color),677059,green,,,,null,GW/basket.jpg,GW/barrel.jpg,,,,,,,,,,,,
null,,rt_plussign_withcolor,677561,green,,,,null,GW/basket.jpg,GW/barrel.jpg,,,,,,,,,,,,
802.6000000089407,,rt_thecrossant_black,678986,black_plus_sign,,,,50,,,1,0.957983193277311,,,,,,,,,,
null,,color_black,679092,black_plus_sign,,,,null,,,,,,,,,,,,,,
null,,learn_phase(without_color),681095,black_plus_sign,,,,null,GW/wheelchair.jpg,GW/jukebox.jpg,,,,,,,,,,,,
null,,black_cross(without_color),682166,blue,,,,null,GW/wheelchair.jpg,GW/jukebox.jpg,,,,,,,,,,,,
null,,rt_plussign_withcolor,682668,blue,,,,null,GW/wheelchair.jpg,GW/jukebox.jpg,,,,,,,,,,,,
857.5999999940395,,rt_thecrossant_black,683602,black_plus_sign,,,,49,,,1,0.9583333333333334,,,,,,,,,,
null,,color_black,683703,black_plus_sign,,,,null,,,,,,,,,,,,,,
null,,learn_phase(without_color),685707,black_plus_sign,,,,null,GW/camera.jpg,GW/wheelchair.jpg,,,,,,,,,,,,
null,,black_cross(without_color),686476,green,,,,null,GW/camera.jpg,GW/wheelchair.jpg,,,,,,,,,,,,
null,,rt_plussign_withcolor,686987,green,,,,null,GW/camera.jpg,GW/wheelchair.jpg,,,,,,,,,,,,
1547.8999999910593,,rt_thecrossant_black,688221,black_plus_sign,,,,50,,,1,0.9586776859504132,,,,,,,,,,
null,,color_black,688324,black_plus_sign,,,,null,,,,,,,,,,,,,,
null,,learn_phase(without_color),690325,black_plus_sign,,,,null,GW/barrel.jpg,GW/snail.jpg,,,,,,,,,,,,
null,,black_cross(without_color),690860,green,,,,null,GW/barrel.jpg,GW/snail.jpg,,,,,,,,,,,,
null,,rt_plussign_withcolor,691362,green,,,,null,GW/barrel.jpg,GW/snail.jpg,,,,,,,,,,,,
1125,,rt_thecrossant_black,692831,black_plus_sign,,,,50,,,1,0.9590163934426229,,,,,,,,,,
null,,color_black,692933,black_plus_sign,,,,null,,,,,,,,,,,,,,
null,,learn_phase(without_color),694935,black_plus_sign,,,,null,GW/paint.jpg,GW/gong.jpg,,,,,,,,,,,,
null,,black_cross(without_color),695628,blue,,,,null,GW/paint.jpg,GW/gong.jpg,,,,,,,,,,,,
null,,rt_plussign_withcolor,696141,blue,,,,null,GW/paint.jpg,GW/gong.jpg,,,,,,,,,,,,
747.8999999910593,,rt_thecrossant_black,697453,black_plus_sign,,,,49,,,1,0.959349593495935,,,,,,,,,,
null,,color_black,697556,black_plus_sign,,,,null,,,,,,,,,,,,,,
null,,learn_phase(without_color),699558,black_plus_sign,,,,null,GW/jukebox.jpg,GW/basket.jpg,,,,,,,,,,,,
null,,black_cross(without_color),700037,blue,,,,null,GW/jukebox.jpg,GW/basket.jpg,,,,,,,,,,,,
null,,rt_plussign_withcolor,700539,blue,,,,null,GW/jukebox.jpg,GW/basket.jpg,,,,,,,,,,,,
1163.7999999970198,,rt_thecrossant_black,702064,black_plus_sign,,,,49,,,1,0.9596774193548387,,,,,,,,,,
null,,color_black,702165,black_plus_sign,,,,null,,,,,,,,,,,,,,
null,,learn_phase(without_color),704167,black_plus_sign,,,,null,GW/jukebox.jpg,GW/basket.jpg,,,,,,,,,,,,
null,,black_cross(without_color),705214,blue,,,,null,GW/jukebox.jpg,GW/basket.jpg,,,,,,,,,,,,
null,,rt_plussign_withcolor,705715,blue,,,,null,GW/jukebox.jpg,GW/basket.jpg,,,,,,,,,,,,
728.9000000059605,,rt_thecrossant_black,706672,black_plus_sign,,,,49,,,1,0.96,,,,,,,,,,
null,,color_black,706774,black_plus_sign,,,,null,,,,,,,,,,,,,,
null,,learn_phase(without_color),708775,black_plus_sign,,,,null,GW/soldier.jpg,GW/dustpan.jpg,,,,,,,,,,,,
null,,black_cross(without_color),709194,green,,,,null,GW/soldier.jpg,GW/dustpan.jpg,,,,,,,,,,,,
null,,rt_plussign_withcolor,709697,green,,,,null,GW/soldier.jpg,GW/dustpan.jpg,,,,,,,,,,,,
1689.5999999940395,,rt_thecrossant_black,711282,black_plus_sign,,,,50,,,1,0.9603174603174603,,,,,,,,,,
null,,color_black,711385,black_plus_sign,,,,null,,,,,,,,,,,,,,
12297.20000000298,,intro_1,723684,instruct,,0,Start,,,,,,,,,,,,,,,
5617.4000000059605,,directmemory_phase,729303,GW/globe.jpg,,,,50,,,1,1,GW/jukebox.jpg,GW/teeth.jpg,GW/hat.jpg,GW/teeth.jpg,GW/jukebox.jpg,GW/hat.jpg,1,,,
null,,html-keyboard-response,730305,<p></p>,,,,null,,,,,,,,,,,,,,
1700.0999999940395,,directmemory_phase,732006,GW/barrel.jpg,,,,50,,,1,1,GW/gong.jpg,GW/basket.jpg,GW/dustpan.jpg,GW/basket.jpg,GW/gong.jpg,GW/dustpan.jpg,1,,,
null,,html-keyboard-response,733008,<p></p>,,,,null,,,,,,,,,,,,,,
1292.800000011921,,directmemory_phase,734302,GW/soldier.jpg,,,,49,,,1,1,GW/snail.jpg,GW/jukebox.jpg,GW/barrel.jpg,GW/snail.jpg,GW/barrel.jpg,GW/jukebox.jpg,1,,,
null,,html-keyboard-response,735305,<p></p>,,,,null,,,,,,,,,,,,,,
2456.1000000089407,,directmemory_phase,737762,GW/jukebox.jpg,,,,49,,,1,1,GW/teeth.jpg,GW/snail.jpg,GW/globe.jpg,GW/teeth.jpg,GW/globe.jpg,GW/snail.jpg,1,,,
null,,html-keyboard-response,738763,<p></p>,,,,null,,,,,,,,,,,,,,
2045.8999999910593,,directmemory_phase,740810,GW/paint.jpg,,,,51,,,1,1,GW/wheelchair.jpg,GW/camera.jpg,GW/gong.jpg,GW/gong.jpg,GW/camera.jpg,GW/wheelchair.jpg,1,,,
null,,html-keyboard-response,741813,<p></p>,,,,null,,,,,,,,,,,,,,
2805.5,,directmemory_phase,744619,GW/basket.jpg,,,,51,,,1,1,GW/dustpan.jpg,GW/globe.jpg,GW/jukebox.jpg,GW/jukebox.jpg,GW/globe.jpg,GW/dustpan.jpg,1,,,
null,,html-keyboard-response,745625,<p></p>,,,,null,,,,,,,,,,,,,,
1364.5,,directmemory_phase,746990,GW/camera.jpg,,,,49,,,1,1,GW/gong.jpg,GW/teeth.jpg,GW/snail.jpg,GW/gong.jpg,GW/snail.jpg,GW/teeth.jpg,1,,,
null,,html-keyboard-response,747992,<p></p>,,,,null,,,,,,,,,,,,,,
1680.5,,directmemory_phase,749674,GW/wheelchair.jpg,,,,50,,,0,0.875,GW/dustpan.jpg,GW/teeth.jpg,GW/jukebox.jpg,GW/jukebox.jpg,GW/teeth.jpg,GW/dustpan.jpg,0.5,closer,,
null,,html-keyboard-response,750675,<p></p>,,,,null,,,,,,,,,,,,,,
1318.3999999910593,,directmemory_phase,751995,GW/basket.jpg,,,,50,,,1,0.8888888888888888,GW/hat.jpg,GW/barrel.jpg,GW/paint.jpg,GW/barrel.jpg,GW/hat.jpg,GW/paint.jpg,1,,,
null,,html-keyboard-response,752997,<p></p>,,,,null,,,,,,,,,,,,,,
2842.9000000059605,,directmemory_phase,755841,GW/soldier.jpg,,,,50,,,0,0.8,GW/wheelchair.jpg,GW/barrel.jpg,GW/dustpan.jpg,GW/dustpan.jpg,GW/barrel.jpg,GW/wheelchair.jpg,0.5,closer,,
null,,html-keyboard-response,756844,<p></p>,,,,null,,,,,,,,,,,,,,
3037.0999999940395,,directmemory_phase,759882,GW/barrel.jpg,,,,50,,,0,0.7272727272727273,GW/hat.jpg,GW/teeth.jpg,GW/snail.jpg,GW/snail.jpg,GW/teeth.jpg,GW/hat.jpg,0.5,closer,,
null,,html-keyboard-response,760883,<p></p>,,,,null,,,,,,,,,,,,,,
2082,,directmemory_phase,762966,GW/soldier.jpg,,,,49,,,1,0.75,GW/gong.jpg,GW/basket.jpg,GW/camera.jpg,GW/gong.jpg,GW/camera.jpg,GW/basket.jpg,1,,,
null,,html-keyboard-response,763968,<p></p>,,,,null,,,,,,,,,,,,,,
4094.2000000029802,,directmemory_phase,768063,GW/camera.jpg,,,,51,,,0,0.6923076923076923,GW/barrel.jpg,GW/teeth.jpg,GW/soldier.jpg,GW/barrel.jpg,GW/soldier.jpg,GW/teeth.jpg,0.5,closer,,
null,,html-keyboard-response,769064,<p></p>,,,,null,,,,,,,,,,,,,,
2217,,directmemory_phase,771282,GW/jukebox.jpg,,,,51,,,0,0.6428571428571429,GW/wheelchair.jpg,GW/soldier.jpg,GW/barrel.jpg,GW/wheelchair.jpg,GW/barrel.jpg,GW/soldier.jpg,0.5,closer,,
null,,html-keyboard-response,772284,<p></p>,,,,null,,,,,,,,,,,,,,
2706.0999999940395,,directmemory_phase,774991,GW/gong.jpg,,,,49,,,0,0.6,GW/hat.jpg,GW/snail.jpg,GW/paint.jpg,GW/paint.jpg,GW/snail.jpg,GW/hat.jpg,0.5,closer,,
null,,html-keyboard-response,775994,<p></p>,,,,null,,,,,,,,,,,,,,
1807.5,,directmemory_phase,777802,GW/wheelchair.jpg,,,,50,,,1,0.625,GW/hat.jpg,GW/basket.jpg,GW/globe.jpg,GW/basket.jpg,GW/hat.jpg,GW/globe.jpg,1,,,
null,,html-keyboard-response,778804,<p></p>,,,,null,,,,,,,,,,,,,,
2517.8999999910593,,directmemory_phase,781323,GW/teeth.jpg,,,,50,,,1,0.6470588235294118,GW/hat.jpg,GW/globe.jpg,GW/gong.jpg,GW/globe.jpg,GW/hat.jpg,GW/gong.jpg,1,,,
null,,html-keyboard-response,782325,<p></p>,,,,null,,,,,,,,,,,,,,
2254.5999999940395,,directmemory_phase,784581,GW/jukebox.jpg,,,,50,,,0,0.6111111111111112,GW/hat.jpg,GW/paint.jpg,GW/barrel.jpg,GW/hat.jpg,GW/barrel.jpg,GW/paint.jpg,0.5,closer,,
null,,html-keyboard-response,785583,<p></p>,,,,null,,,,,,,,,,,,,,
2996.5,,directmemory_phase,788581,GW/basket.jpg,,,,50,,,1,0.631578947368421,GW/snail.jpg,GW/wheelchair.jpg,GW/gong.jpg,GW/wheelchair.jpg,GW/snail.jpg,GW/gong.jpg,1,,,
null,,html-keyboard-response,789582,<p></p>,,,,null,,,,,,,,,,,,,,
3500.3999999910593,,directmemory_phase,793084,GW/gong.jpg,,,,49,,,0,0.6,GW/wheelchair.jpg,GW/camera.jpg,GW/teeth.jpg,GW/camera.jpg,GW/wheelchair.jpg,GW/teeth.jpg,0.5,closer,,
null,,html-keyboard-response,794092,<p></p>,,,,null,,,,,,,,,,,,,,
3292.9000000059605,,directmemory_phase,797386,GW/jukebox.jpg,,,,49,,,0,0.5714285714285714,GW/barrel.jpg,GW/basket.jpg,GW/gong.jpg,GW/basket.jpg,GW/barrel.jpg,GW/gong.jpg,0.5,closer,,
null,,html-keyboard-response,798387,<p></p>,,,,null,,,,,,,,,,,,,,
2116.2999999970198,,directmemory_phase,800504,GW/wheelchair.jpg,,,,51,,,1,0.5909090909090909,GW/globe.jpg,GW/gong.jpg,GW/camera.jpg,GW/camera.jpg,GW/gong.jpg,GW/globe.jpg,1,,,
null,,html-keyboard-response,801507,<p></p>,,,,null,,,,,,,,,,,,,,
1931.5999999940395,,directmemory_phase,803439,GW/dustpan.jpg,,,,50,,,0,0.5652173913043478,GW/soldier.jpg,GW/paint.jpg,GW/snail.jpg,GW/soldier.jpg,GW/snail.jpg,GW/paint.jpg,0.5,closer,,
null,,html-keyboard-response,804441,<p></p>,,,,null,,,,,,,,,,,,,,
1068.4000000059605,,directmemory_phase,805511,GW/camera.jpg,,,,51,,,1,0.5833333333333334,GW/dustpan.jpg,GW/basket.jpg,GW/wheelchair.jpg,GW/wheelchair.jpg,GW/basket.jpg,GW/dustpan.jpg,1,,,
null,,html-keyboard-response,806513,<p></p>,,,,null,,,,,,,,,,,,,,
3127.7000000029802,,directmemory_phase,809642,GW/gong.jpg,,,,50,,,1,0.6,GW/dustpan.jpg,GW/soldier.jpg,GW/basket.jpg,GW/soldier.jpg,GW/dustpan.jpg,GW/basket.jpg,1,,,
null,,html-keyboard-response,810644,<p></p>,,,,null,,,,,,,,,,,,,,
2758.2000000029802,,directmemory_phase,813403,GW/barrel.jpg,,,,50,,,0,0.5769230769230769,GW/dustpan.jpg,GW/jukebox.jpg,GW/camera.jpg,GW/camera.jpg,GW/jukebox.jpg,GW/dustpan.jpg,0.5,closer,,
null,,html-keyboard-response,814405,<p></p>,,,,null,,,,,,,,,,,,,,
1071.2999999970198,,directmemory_phase,815477,GW/snail.jpg,,,,51,,,1,0.5925925925925926,GW/globe.jpg,GW/gong.jpg,GW/soldier.jpg,GW/soldier.jpg,GW/gong.jpg,GW/globe.jpg,1,,,
null,,html-keyboard-response,816480,<p></p>,,,,null,,,,,,,,,,,,,,
1509.5999999940395,,directmemory_phase,817991,GW/hat.jpg,,,,51,,,1,0.6071428571428571,GW/snail.jpg,GW/basket.jpg,GW/jukebox.jpg,GW/jukebox.jpg,GW/basket.jpg,GW/snail.jpg,1,,,
null,,html-keyboard-response,818993,<p></p>,,,,null,,,,,,,,,,,,,,
3926.2000000029802,,directmemory_phase,822921,GW/snail.jpg,,,,50,,,0,0.5862068965517241,GW/barrel.jpg,GW/paint.jpg,GW/basket.jpg,GW/barrel.jpg,GW/basket.jpg,GW/paint.jpg,0.5,closer,,
null,,html-keyboard-response,823933,<p></p>,,,,null,,,,,,,,,,,,,,
2799.2000000029802,,directmemory_phase,826733,GW/teeth.jpg,,,,51,,,1,0.6,GW/snail.jpg,GW/barrel.jpg,GW/jukebox.jpg,GW/jukebox.jpg,GW/barrel.jpg,GW/snail.jpg,1,,,
null,,html-keyboard-response,827735,<p></p>,,,,null,,,,,,,,,,,,,,
3409.4000000059605,,directmemory_phase,831146,,,,,50,,,1,0.6129032258064516,,,,,,,0.5,closer,,
null,,html-keyboard-response,832148,<p></p>,,,,null,,,,,,,,,,,,,,
null,,directmemory_phase,838650,,,,,null,,,0,0.59375,,,,,,,0,,,
null,,html-keyboard-response,839652,<p></p>,,,,null,,,,,,,,,,,,,,
19127.20000000298,,intro_1,858780,instruct,,0,,,,,,,,,,,,,,,,
5863.29999999702,,intro_2,864645,instruct,,1,Next,,,,,,,,,,,,,,,
3306,,intro_3,867953,instruct,,1,Next,,,,,,,,,,,,,,,
9974.5,,intro_4,877929,instruct,,1,Next,,,,,,,,,,,,,,,
6088.4000000059605,,intro_5,884019,instruct,,1,Next,,,,,,,,,,,,,,,
10836.20000000298,,intro_6,894856,instruct,,1,Next,,,,,,,,,,,,,,,
3868.7999999970198,,intro_7,898727,instruct,,1,Next,,,,,,,,,,,,,,,
5241.100000008941,,intro_8,903969,instruct,,1,Next,,,,,,,,,,,,,,,
2021.2000000029802,,shortestpath_phase,905992,GW/dustpan.jpg,,,,50,GW/globe.jpg,GW/basket.jpg,1,1,,,,GW/basket.jpg,,,,,Two Edge Diff,Four Edge Six Edge
null,,html-keyboard-response,906994,<p></p>,,,,null,,,,,,,,,,,,,,
2737.4000000059605,,shortestpath_phase,909732,GW/teeth.jpg,,,,49,GW/hat.jpg,GW/paint.jpg,1,1,,,,GW/hat.jpg,,,,,Three Edge Diff,Two Edge Five Edge
null,,html-keyboard-response,910733,<p></p>,,,,null,,,,,,,,,,,,,,
1574.699999988079,,shortestpath_phase,912309,GW/gong.jpg,,,,49,GW/basket.jpg,GW/dustpan.jpg,0,0.6666666666666666,,,,GW/dustpan.jpg,,,,,One Edge Diff,Two Edge Three Edge
null,,html-keyboard-response,913311,<p></p>,,,,null,,,,,,,,,,,,,,
1813.199999988079,,shortestpath_phase,915125,GW/hat.jpg,,,,50,GW/dustpan.jpg,GW/basket.jpg,1,0.75,,,,GW/basket.jpg,,,,,Four Edge Diff,Two Edge Six Edge
null,,html-keyboard-response,916127,<p></p>,,,,null,,,,,,,,,,,,,,
1461.5,,shortestpath_phase,917589,GW/gong.jpg,,,,50,GW/wheelchair.jpg,GW/jukebox.jpg,0,0.6,,,,GW/wheelchair.jpg,,,,,One Edge Diff,Two Edge Three Edge
null,,html-keyboard-response,918591,<p></p>,,,,null,,,,,,,,,,,,,,
1592,,shortestpath_phase,920184,GW/soldier.jpg,,,,49,GW/teeth.jpg,GW/hat.jpg,1,0.6666666666666666,,,,GW/teeth.jpg,,,,,One Edge Diff,Four Edge Five Edge
null,,html-keyboard-response,921187,<p></p>,,,,null,,,,,,,,,,,,,,
2637.9000000059605,,shortestpath_phase,923826,GW/dustpan.jpg,,,,49,GW/teeth.jpg,GW/gong.jpg,0,0.5714285714285714,,,,GW/gong.jpg,,,,,Three Edge Diff,Three Edge Six Edge
null,,html-keyboard-response,924827,<p></p>,,,,null,,,,,,,,,,,,,,
1691.7000000029802,,shortestpath_phase,926520,GW/teeth.jpg,,,,50,GW/wheelchair.jpg,GW/soldier.jpg,0,0.5,,,,GW/wheelchair.jpg,,,,,Two Edge Diff,Two Edge Four Edge
null,,html-keyboard-response,927521,<p></p>,,,,null,,,,,,,,,,,,,,
1666.1000000089407,,shortestpath_phase,929188,GW/dustpan.jpg,,,,49,GW/hat.jpg,GW/snail.jpg,0,0.4444444444444444,,,,GW/snail.jpg,,,,,Four Edge Diff,Two Edge Six Edge
null,,html-keyboard-response,930190,<p></p>,,,,null,,,,,,,,,,,,,,
1774.4000000059605,,shortestpath_phase,931965,GW/teeth.jpg,,,,49,GW/gong.jpg,GW/paint.jpg,1,0.5,,,,GW/gong.jpg,,,,,One Edge Diff,Four Edge Five Edge
null,,html-keyboard-response,932967,<p></p>,,,,null,,,,,,,,,,,,,,
2053.0999999940395,,shortestpath_phase,935022,GW/soldier.jpg,,,,50,GW/hat.jpg,GW/wheelchair.jpg,1,0.5454545454545454,,,,GW/wheelchair.jpg,,,,,Two Edge Diff,Three Edge Five Edge
null,,html-keyboard-response,936023,<p></p>,,,,null,,,,,,,,,,,,,,
1679.6000000089407,,shortestpath_phase,937704,GW/basket.jpg,,,,50,GW/paint.jpg,GW/camera.jpg,1,0.5833333333333334,,,,GW/camera.jpg,,,,,Two Edge Diff,Two Edge Four Edge
null,,html-keyboard-response,938706,<p></p>,,,,null,,,,,,,,,,,,,,
1756.2000000029802,,shortestpath_phase,940464,GW/teeth.jpg,,,,49,GW/wheelchair.jpg,GW/dustpan.jpg,1,0.6153846153846154,,,,GW/wheelchair.jpg,,,,,Three Edge Diff,Two Edge Five Edge
null,,html-keyboard-response,941466,<p></p>,,,,null,,,,,,,,,,,,,,
1546,,shortestpath_phase,943013,GW/paint.jpg,,,,50,GW/teeth.jpg,GW/camera.jpg,1,0.6428571428571429,,,,GW/camera.jpg,,,,,Three Edge Diff,Three Edge Six Edge
null,,html-keyboard-response,944015,<p></p>,,,,null,,,,,,,,,,,,,,
1740.6000000089407,,shortestpath_phase,945757,GW/globe.jpg,,,,50,GW/dustpan.jpg,GW/soldier.jpg,1,0.6666666666666666,,,,GW/soldier.jpg,,,,,One Edge Diff,Five Edge Six Edge
null,,html-keyboard-response,946759,<p></p>,,,,null,,,,,,,,,,,,,,
1611.7999999970198,,shortestpath_phase,948372,GW/hat.jpg,,,,50,GW/soldier.jpg,GW/gong.jpg,1,0.6875,,,,GW/gong.jpg,,,,,One Edge Diff,Four Edge Five Edge
null,,html-keyboard-response,949373,<p></p>,,,,null,,,,,,,,,,,,,,
1532.7999999970198,,shortestpath_phase,950907,GW/dustpan.jpg,,,,49,GW/globe.jpg,GW/snail.jpg,0,0.6470588235294118,,,,GW/snail.jpg,,,,,Four Edge Diff,Two Edge Six Edge
null,,html-keyboard-response,951909,<p></p>,,,,null,,,,,,,,,,,,,,
1989.7999999970198,,shortestpath_phase,953900,GW/gong.jpg,,,,50,GW/globe.jpg,GW/wheelchair.jpg,1,0.6666666666666666,,,,GW/wheelchair.jpg,,,,,Three Edge Diff,Three Edge Six Edge
null,,html-keyboard-response,954902,<p></p>,,,,null,,,,,,,,,,,,,,
1961.8999999910593,,shortestpath_phase,956864,GW/snail.jpg,,,,49,GW/jukebox.jpg,GW/globe.jpg,1,0.6842105263157895,,,,GW/jukebox.jpg,,,,,One Edge Diff,Three Edge Four Edge
null,,html-keyboard-response,957867,<p></p>,,,,null,,,,,,,,,,,,,,
2523.8999999910593,,shortestpath_phase,960392,GW/paint.jpg,,,,49,GW/soldier.jpg,GW/globe.jpg,1,0.7,,,,GW/soldier.jpg,,,,,Four Edge Diff,Two Edge Six Edge
null,,html-keyboard-response,961394,<p></p>,,,,null,,,,,,,,,,,,,,
1098,,shortestpath_phase,962493,GW/dustpan.jpg,,,,50,GW/teeth.jpg,GW/globe.jpg,0,0.6666666666666666,,,,GW/teeth.jpg,,,,,One Edge Diff,Five Edge Six Edge
null,,html-keyboard-response,963495,<p></p>,,,,null,,,,,,,,,,,,,,
1126.7999999970198,,shortestpath_phase,964622,GW/soldier.jpg,,,,49,GW/hat.jpg,GW/paint.jpg,0,0.6363636363636364,,,,GW/paint.jpg,,,,,Three Edge Diff,Three Edge Six Edge
null,,html-keyboard-response,965624,<p></p>,,,,null,,,,,,,,,,,,,,
1185.7000000029802,,shortestpath_phase,966810,GW/dustpan.jpg,,,,50,GW/globe.jpg,GW/wheelchair.jpg,1,0.6521739130434783,,,,GW/wheelchair.jpg,,,,,Two Edge Diff,Four Edge Six Edge
null,,html-keyboard-response,967813,<p></p>,,,,null,,,,,,,,,,,,,,
1926.2000000029802,,shortestpath_phase,969740,GW/hat.jpg,,,,50,GW/dustpan.jpg,GW/paint.jpg,1,0.6666666666666666,,,,GW/paint.jpg,,,,,One Edge Diff,Five Edge Six Edge
null,,html-keyboard-response,970742,<p></p>,,,,null,,,,,,,,,,,,,,
1085.7999999970198,,shortestpath_phase,971829,GW/teeth.jpg,,,,49,GW/wheelchair.jpg,GW/paint.jpg,1,0.68,,,,GW/wheelchair.jpg,,,,,Three Edge Diff,Two Edge Five Edge
null,,html-keyboard-response,972830,<p></p>,,,,null,,,,,,,,,,,,,,
1474.7999999970198,,shortestpath_phase,974306,GW/dustpan.jpg,,,,50,GW/hat.jpg,GW/gong.jpg,1,0.6923076923076923,,,,GW/gong.jpg,,,,,Four Edge Diff,Two Edge Six Edge
null,,html-keyboard-response,975309,<p></p>,,,,null,,,,,,,,,,,,,,
2392.199999988079,,shortestpath_phase,977702,GW/camera.jpg,,,,50,GW/teeth.jpg,GW/globe.jpg,0,0.6666666666666666,,,,GW/teeth.jpg,,,,,One Edge Diff,Three Edge Four Edge
null,,html-keyboard-response,978705,<p></p>,,,,null,,,,,,,,,,,,,,
1286.2999999970198,,shortestpath_phase,979992,GW/globe.jpg,,,,49,GW/dustpan.jpg,GW/jukebox.jpg,0,0.6428571428571429,,,,GW/jukebox.jpg,,,,,Four Edge Diff,Two Edge Six Edge
null,,html-keyboard-response,980995,<p></p>,,,,null,,,,,,,,,,,,,,
1202.5,,shortestpath_phase,982199,GW/camera.jpg,,,,50,GW/basket.jpg,GW/teeth.jpg,0,0.6206896551724138,,,,GW/basket.jpg,,,,,One Edge Diff,Two Edge Three Edge
null,,html-keyboard-response,983201,<p></p>,,,,null,,,,,,,,,,,,,,
1069.699999988079,,shortestpath_phase,984272,GW/jukebox.jpg,,,,49,GW/soldier.jpg,GW/snail.jpg,0,0.6,,,,GW/snail.jpg,,,,,One Edge Diff,Three Edge Four Edge
null,,html-keyboard-response,985281,<p></p>,,,,null,,,,,,,,,,,,,,
1289.6000000089407,,shortestpath_phase,986571,GW/hat.jpg,,,,50,GW/barrel.jpg,GW/soldier.jpg,0,0.5806451612903226,,,,GW/barrel.jpg,,,,,Two Edge Diff,Three Edge Five Edge
null,,html-keyboard-response,987574,<p></p>,,,,null,,,,,,,,,,,,,,
1554,,shortestpath_phase,989129,GW/snail.jpg,,,,50,GW/gong.jpg,GW/hat.jpg,0,0.5625,,,,GW/gong.jpg,,,,,Two Edge Diff,Two Edge Four Edge
null,,html-keyboard-response,990130,<p></p>,,,,null,,,,,,,,,,,,,,
1074.3999999910593,,shortestpath_phase,991206,GW/globe.jpg,,,,49,GW/wheelchair.jpg,GW/camera.jpg,1,0.5757575757575758,,,,GW/wheelchair.jpg,,,,,One Edge Diff,Three Edge Four Edge
null,,html-keyboard-response,992207,<p></p>,,,,null,,,,,,,,,,,,,,
1822,,shortestpath_phase,994030,GW/paint.jpg,,,,49,GW/hat.jpg,GW/snail.jpg,0,0.5588235294117647,,,,GW/snail.jpg,,,,,Two Edge Diff,Three Edge Five Edge
null,,html-keyboard-response,995032,<p></p>,,,,null,,,,,,,,,,,,,,
1148.6000000089407,,shortestpath_phase,996182,GW/gong.jpg,,,,50,GW/globe.jpg,GW/teeth.jpg,1,0.5714285714285714,,,,GW/teeth.jpg,,,,,One Edge Diff,Four Edge Five Edge
null,,html-keyboard-response,997183,<p></p>,,,,null,,,,,,,,,,,,,,
1364.5,,shortestpath_phase,998549,GW/globe.jpg,,,,50,GW/snail.jpg,GW/dustpan.jpg,0,0.5555555555555556,,,,GW/snail.jpg,,,,,Two Edge Diff,Four Edge Six Edge
null,,html-keyboard-response,999550,<p></p>,,,,null,,,,,,,,,,,,,,
1617.9000000059605,,shortestpath_phase,1001169,GW/hat.jpg,,,,50,GW/teeth.jpg,GW/soldier.jpg,0,0.5405405405405406,,,,GW/teeth.jpg,,,,,Three Edge Diff,Three Edge Six Edge
null,,html-keyboard-response,1002171,<p></p>,,,,null,,,,,,,,,,,,,,
2623.9000000059605,,shortestpath_phase,1004796,GW/jukebox.jpg,,,,50,GW/soldier.jpg,GW/globe.jpg,1,0.5526315789473685,,,,GW/globe.jpg,,,,,Two Edge Diff,Two Edge Four Edge
null,,html-keyboard-response,1005798,<p></p>,,,,null,,,,,,,,,,,,,,
1830.4000000059605,,shortestpath_phase,1007630,GW/gong.jpg,,,,49,GW/globe.jpg,GW/snail.jpg,0,0.5384615384615384,,,,GW/snail.jpg,,,,,Three Edge Diff,Two Edge Five Edge
null,,html-keyboard-response,1008632,<p></p>,,,,null,,,,,,,,,,,,,,
2100.4000000059605,,shortestpath_phase,1010733,GW/jukebox.jpg,,,,50,GW/camera.jpg,GW/snail.jpg,0,0.525,,,,GW/camera.jpg,,,,,One Edge Diff,Two Edge Three Edge
null,,html-keyboard-response,1011735,<p></p>,,,,null,,,,,,,,,,,,,,
1413.2999999970198,,shortestpath_phase,1013150,GW/soldier.jpg,,,,49,GW/paint.jpg,GW/wheelchair.jpg,1,0.5365853658536586,,,,GW/paint.jpg,,,,,One Edge Diff,Two Edge Three Edge
null,,html-keyboard-response,1014152,<p></p>,,,,null,,,,,,,,,,,,,,
1429.5,,shortestpath_phase,1015582,GW/globe.jpg,,,,49,GW/jukebox.jpg,GW/paint.jpg,1,0.5476190476190477,,,,GW/jukebox.jpg,,,,,Four Edge Diff,Two Edge Six Edge
null,,html-keyboard-response,1016585,<p></p>,,,,null,,,,,,,,,,,,,,
1731.4000000059605,,shortestpath_phase,1018317,GW/camera.jpg,,,,50,GW/dustpan.jpg,GW/soldier.jpg,1,0.5581395348837209,,,,GW/soldier.jpg,,,,,One Edge Diff,Two Edge Three Edge
null,,html-keyboard-response,1019319,<p></p>,,,,null,,,,,,,,,,,,,,
1452.1000000089407,,shortestpath_phase,1020772,GW/paint.jpg,,,,49,GW/jukebox.jpg,GW/globe.jpg,1,0.5681818181818182,,,,GW/jukebox.jpg,,,,,Two Edge Diff,Four Edge Six Edge
null,,html-keyboard-response,1021774,<p></p>,,,,null,,,,,,,,,,,,,,
1132.7000000029802,,shortestpath_phase,1022907,GW/camera.jpg,,,,49,GW/globe.jpg,GW/basket.jpg,0,0.5555555555555556,,,,GW/basket.jpg,,,,,Two Edge Diff,Two Edge Four Edge
null,,html-keyboard-response,1023909,<p></p>,,,,null,,,,,,,,,,,,,,
1088.5,,shortestpath_phase,1024999,GW/soldier.jpg,,,,49,GW/globe.jpg,GW/teeth.jpg,0,0.5434782608695652,,,,GW/teeth.jpg,,,,,One Edge Diff,Four Edge Five Edge
null,,html-keyboard-response,1026001,<p></p>,,,,null,,,,,,,,,,,,,,
1476.5999999940395,,shortestpath_phase,1027478,GW/hat.jpg,,,,49,GW/gong.jpg,GW/camera.jpg,0,0.5319148936170213,,,,GW/camera.jpg,,,,,One Edge Diff,Three Edge Four Edge
null,,html-keyboard-response,1028481,<p></p>,,,,null,,,,,,,,,,,,,,
773.2000000029802,,shortestpath_phase,1029255,GW/globe.jpg,,,,50,GW/basket.jpg,GW/gong.jpg,0,0.5208333333333334,,,,GW/basket.jpg,,,,,Three Edge Diff,Two Edge Five Edge
null,,html-keyboard-response,1030257,<p></p>,,,,null,,,,,,,,,,,,,,
2144.0999999940395,,shortestpath_phase,1032403,GW/hat.jpg,,,,49,GW/dustpan.jpg,GW/wheelchair.jpg,0,0.5102040816326531,,,,GW/wheelchair.jpg,,,,,Four Edge Diff,Two Edge Six Edge
null,,html-keyboard-response,1033405,<p></p>,,,,null,,,,,,,,,,,,,,
1384.7999999970198,,shortestpath_phase,1034791,GW/camera.jpg,,,,49,GW/paint.jpg,GW/teeth.jpg,1,0.52,,,,GW/paint.jpg,,,,,One Edge Diff,Two Edge Three Edge
null,,html-keyboard-response,1035793,<p></p>,,,,null,,,,,,,,,,,,,,
2700.4000000059605,,shortestpath_phase,1038495,GW/teeth.jpg,,,,50,GW/soldier.jpg,GW/hat.jpg,1,0.5294117647058824,,,,GW/hat.jpg,,,,,Two Edge Diff,Two Edge Four Edge
null,,html-keyboard-response,1039497,<p></p>,,,,null,,,,,,,,,,,,,,
1258.4000000059605,,shortestpath_phase,1040757,GW/paint.jpg,,,,49,GW/basket.jpg,GW/globe.jpg,1,0.5384615384615384,,,,GW/basket.jpg,,,,,Two Edge Diff,Four Edge Six Edge
null,,html-keyboard-response,1041759,<p></p>,,,,null,,,,,,,,,,,,,,
1183.3999999910593,,shortestpath_phase,1042944,GW/globe.jpg,,,,49,GW/gong.jpg,GW/paint.jpg,1,0.5471698113207547,,,,GW/gong.jpg,,,,,One Edge Diff,Five Edge Six Edge
null,,html-keyboard-response,1043945,<p></p>,,,,null,,,,,,,,,,,,,,
3470.7999999970198,,shortestpath_phase,1047417,GW/basket.jpg,,,,49,GW/soldier.jpg,GW/hat.jpg,0,0.5370370370370371,,,,GW/hat.jpg,,,,,One Edge Diff,Two Edge Three Edge
null,,html-keyboard-response,1048419,<p></p>,,,,null,,,,,,,,,,,,,,
1707.7000000029802,,shortestpath_phase,1050128,GW/globe.jpg,,,,49,GW/gong.jpg,GW/dustpan.jpg,1,0.5454545454545454,,,,GW/gong.jpg,,,,,One Edge Diff,Five Edge Six Edge
null,,html-keyboard-response,1051130,<p></p>,,,,null,,,,,,,,,,,,,,
1540.7000000029802,,shortestpath_phase,1052672,GW/teeth.jpg,,,,50,GW/soldier.jpg,GW/paint.jpg,0,0.5357142857142857,,,,GW/soldier.jpg,,,,,One Edge Diff,Four Edge Five Edge
null,,html-keyboard-response,1053683,<p></p>,,,,null,,,,,,,,,,,,,,
996,,shortestpath_phase,1054680,GW/paint.jpg,,,,49,GW/jukebox.jpg,GW/teeth.jpg,1,0.543859649122807,,,,GW/jukebox.jpg,,,,,One Edge Diff,Four Edge Five Edge
null,,html-keyboard-response,1055681,<p></p>,,,,null,,,,,,,,,,,,,,
2070.9000000059605,,shortestpath_phase,1057753,GW/teeth.jpg,,,,49,GW/hat.jpg,GW/dustpan.jpg,1,0.5517241379310345,,,,GW/hat.jpg,,,,,Three Edge Diff,Three Edge Six Edge
null,,html-keyboard-response,1058755,<p></p>,,,,null,,,,,,,,,,,,,,
1914.2000000029802,,shortestpath_phase,1060671,GW/dustpan.jpg,,,,50,GW/hat.jpg,GW/jukebox.jpg,1,0.559322033898305,,,,GW/jukebox.jpg,,,,,One Edge Diff,Five Edge Six Edge
null,,html-keyboard-response,1061673,<p></p>,,,,null,,,,,,,,,,,,,,
1226.7999999970198,,shortestpath_phase,1062901,GW/snail.jpg,,,,49,GW/hat.jpg,GW/teeth.jpg,0,0.55,,,,GW/teeth.jpg,,,,,One Edge Diff,Three Edge Four Edge
null,,html-keyboard-response,1063903,<p></p>,,,,null,,,,,,,,,,,,,,
1115.2000000029802,,shortestpath_phase,1065019,GW/camera.jpg,,,,50,GW/globe.jpg,GW/dustpan.jpg,1,0.5573770491803278,,,,GW/dustpan.jpg,,,,,One Edge Diff,Three Edge Four Edge
null,,html-keyboard-response,1066022,<p></p>,,,,null,,,,,,,,,,,,,,
1895.7999999970198,,shortestpath_phase,1067919,GW/hat.jpg,,,,49,GW/teeth.jpg,GW/snail.jpg,1,0.5645161290322581,,,,GW/teeth.jpg,,,,,Two Edge Diff,Two Edge Four Edge
null,,html-keyboard-response,1068920,<p></p>,,,,null,,,,,,,,,,,,,,
987,,shortestpath_phase,1069908,GW/paint.jpg,,,,50,GW/teeth.jpg,GW/soldier.jpg,1,0.5714285714285714,,,,GW/soldier.jpg,,,,,Three Edge Diff,Two Edge Five Edge
null,,html-keyboard-response,1070910,<p></p>,,,,null,,,,,,,,,,,,,,
1220.5,,shortestpath_phase,1072132,GW/globe.jpg,,,,49,GW/gong.jpg,GW/barrel.jpg,0,0.5625,,,,GW/barrel.jpg,,,,,Two Edge Diff,Three Edge Five Edge
null,,html-keyboard-response,1073134,<p></p>,,,,null,,,,,,,,,,,,,,
1206.9000000059605,,shortestpath_phase,1074341,GW/paint.jpg,,,,49,GW/hat.jpg,GW/basket.jpg,0,0.5538461538461539,,,,GW/basket.jpg,,,,,One Edge Diff,Four Edge Five Edge
null,,html-keyboard-response,1075343,<p></p>,,,,null,,,,,,,,,,,,,,
1143.4000000059605,,shortestpath_phase,1076488,GW/hat.jpg,,,,50,GW/snail.jpg,GW/soldier.jpg,0,0.5454545454545454,,,,GW/snail.jpg,,,,,One Edge Diff,Four Edge Five Edge
null,,html-keyboard-response,1077490,<p></p>,,,,null,,,,,,,,,,,,,,
870.8999999910593,,shortestpath_phase,1078362,GW/gong.jpg,,,,49,GW/globe.jpg,GW/basket.jpg,0,0.5373134328358209,,,,GW/basket.jpg,,,,,Two Edge Diff,Three Edge Five Edge
null,,html-keyboard-response,1079364,<p></p>,,,,null,,,,,,,,,,,,,,
1308.7999999970198,,shortestpath_phase,1080674,GW/dustpan.jpg,,,,49,GW/teeth.jpg,GW/camera.jpg,0,0.5294117647058824,,,,GW/camera.jpg,,,,,Two Edge Diff,Three Edge Five Edge
null,,html-keyboard-response,1081676,<p></p>,,,,null,,,,,,,,,,,,,,
1340.7999999970198,,shortestpath_phase,1083018,GW/gong.jpg,,,,49,GW/hat.jpg,GW/globe.jpg,1,0.5362318840579711,,,,GW/hat.jpg,,,,,One Edge Diff,Four Edge Five Edge
null,,html-keyboard-response,1084020,<p></p>,,,,null,,,,,,,,,,,,,,
1217.699999988079,,shortestpath_phase,1085239,GW/paint.jpg,,,,49,GW/barrel.jpg,GW/hat.jpg,1,0.5428571428571428,,,,GW/barrel.jpg,,,,,Two Edge Diff,Three Edge Five Edge
null,,html-keyboard-response,1086241,<p></p>,,,,null,,,,,,,,,,,,,,
1278.1000000089407,,shortestpath_phase,1087520,GW/globe.jpg,,,,50,GW/snail.jpg,GW/hat.jpg,1,0.5492957746478874,,,,GW/hat.jpg,,,,,One Edge Diff,Three Edge Four Edge
null,,html-keyboard-response,1088523,<p></p>,,,,null,,,,,,,,,,,,,,
1114.5999999940395,,shortestpath_phase,1089638,GW/paint.jpg,,,,49,GW/soldier.jpg,GW/dustpan.jpg,1,0.5555555555555556,,,,GW/soldier.jpg,,,,,One Edge Diff,Two Edge Three Edge
null,,html-keyboard-response,1090646,<p></p>,,,,null,,,,,,,,,,,,,,
1106.2999999970198,,shortestpath_phase,1091753,GW/globe.jpg,,,,50,GW/camera.jpg,GW/paint.jpg,0,0.547945205479452,,,,GW/camera.jpg,,,,,Two Edge Diff,Four Edge Six Edge
null,,html-keyboard-response,1092755,<p></p>,,,,null,,,,,,,,,,,,,,
1488.2000000029802,,shortestpath_phase,1094244,GW/soldier.jpg,,,,49,GW/hat.jpg,GW/barrel.jpg,0,0.5405405405405406,,,,GW/barrel.jpg,,,,,Three Edge Diff,Three Edge Six Edge
null,,html-keyboard-response,1095246,<p></p>,,,,null,,,,,,,,,,,,,,
1158.2000000029802,,shortestpath_phase,1096405,GW/gong.jpg,,,,50,GW/teeth.jpg,GW/basket.jpg,1,0.5466666666666666,,,,GW/basket.jpg,,,,,One Edge Diff,Three Edge Four Edge
null,,html-keyboard-response,1097408,<p></p>,,,,null,,,,,,,,,,,,,,
907.1999999880791,,shortestpath_phase,1098316,GW/soldier.jpg,,,,49,GW/camera.jpg,GW/globe.jpg,1,0.5526315789473685,,,,GW/camera.jpg,,,,,Three Edge Diff,Two Edge Five Edge
null,,html-keyboard-response,1099318,<p></p>,,,,null,,,,,,,,,,,,,,
1795.7000000029802,,shortestpath_phase,1101115,GW/gong.jpg,,,,50,GW/barrel.jpg,GW/jukebox.jpg,0,0.5454545454545454,,,,GW/barrel.jpg,,,,,One Edge Diff,Two Edge Three Edge
null,,html-keyboard-response,1102118,<p></p>,,,,null,,,,,,,,,,,,,,
1206.4000000059605,,shortestpath_phase,1103325,GW/soldier.jpg,,,,49,GW/globe.jpg,GW/paint.jpg,0,0.5384615384615384,,,,GW/paint.jpg,,,,,Three Edge Diff,Three Edge Six Edge
null,,html-keyboard-response,1104327,<p></p>,,,,null,,,,,,,,,,,,,,
1416.300000011921,,shortestpath_phase,1105744,GW/gong.jpg,,,,49,GW/jukebox.jpg,GW/globe.jpg,1,0.5443037974683544,,,,GW/jukebox.jpg,,,,,Two Edge Diff,Three Edge Five Edge
null,,html-keyboard-response,1106746,<p></p>,,,,null,,,,,,,,,,,,,,
1116.2000000029802,,shortestpath_phase,1107864,GW/soldier.jpg,,,,49,GW/paint.jpg,GW/jukebox.jpg,1,0.55,,,,GW/paint.jpg,,,,,Two Edge Diff,Two Edge Four Edge
null,,html-keyboard-response,1108866,<p></p>,,,,null,,,,,,,,,,,,,,
1047,,shortestpath_phase,1109914,GW/dustpan.jpg,,,,49,GW/basket.jpg,GW/hat.jpg,1,0.5555555555555556,,,,GW/basket.jpg,,,,,Two Edge Diff,Four Edge Six Edge
null,,html-keyboard-response,1110916,<p></p>,,,,null,,,,,,,,,,,,,,
1236.9000000059605,,shortestpath_phase,1112154,GW/paint.jpg,,,,50,GW/barrel.jpg,GW/jukebox.jpg,0,0.5487804878048781,,,,GW/barrel.jpg,,,,,One Edge Diff,Three Edge Four Edge
null,,html-keyboard-response,1113157,<p></p>,,,,null,,,,,,,,,,,,,,
1024,,shortestpath_phase,1114182,GW/dustpan.jpg,,,,49,GW/hat.jpg,GW/teeth.jpg,0,0.5421686746987951,,,,GW/teeth.jpg,,,,,One Edge Diff,Five Edge Six Edge
null,,html-keyboard-response,1115184,<p></p>,,,,null,,,,,,,,,,,,,,
1153.2999999970198,,shortestpath_phase,1116338,GW/globe.jpg,,,,50,GW/dustpan.jpg,GW/basket.jpg,1,0.5476190476190477,,,,GW/basket.jpg,,,,,Four Edge Diff,Two Edge Six Edge
null,,html-keyboard-response,1117341,<p></p>,,,,null,,,,,,,,,,,,,,
1962.5,,shortestpath_phase,1119304,GW/dustpan.jpg,,,,50,GW/gong.jpg,GW/barrel.jpg,0,0.5411764705882353,,,,GW/gong.jpg,,,,,One Edge Diff,Two Edge Three Edge
null,,html-keyboard-response,1120306,<p></p>,,,,null,,,,,,,,,,,,,,
1464.2000000029802,,shortestpath_phase,1121772,GW/paint.jpg,,,,49,GW/globe.jpg,GW/teeth.jpg,0,0.5348837209302325,,,,GW/teeth.jpg,,,,,One Edge Diff,Five Edge Six Edge
null,,html-keyboard-response,1122774,<p></p>,,,,null,,,,,,,,,,,,,,
1126,,shortestpath_phase,1123901,GW/hat.jpg,,,,49,GW/soldier.jpg,GW/dustpan.jpg,1,0.5402298850574713,,,,GW/soldier.jpg,,,,,One Edge Diff,Five Edge Six Edge
null,,html-keyboard-response,1124918,<p></p>,,,,null,,,,,,,,,,,,,,
1216.7999999970198,,shortestpath_phase,1126135,GW/gong.jpg,,,,50,GW/barrel.jpg,GW/globe.jpg,0,0.5340909090909091,,,,GW/barrel.jpg,,,,,Three Edge Diff,Two Edge Five Edge
null,,html-keyboard-response,1127138,<p></p>,,,,null,,,,,,,,,,,,,,
991.5,,shortestpath_phase,1128130,GW/hat.jpg,,,,50,GW/basket.jpg,GW/paint.jpg,0,0.5280898876404494,,,,GW/basket.jpg,,,,,Three Edge Diff,Three Edge Six Edge
null,,html-keyboard-response,1129132,<p></p>,,,,null,,,,,,,,,,,,,,
933.8000000119209,,shortestpath_phase,1130067,GW/camera.jpg,,,,49,GW/globe.jpg,GW/snail.jpg,0,0.5222222222222223,,,,GW/snail.jpg,,,,,Two Edge Diff,Two Edge Four Edge
null,,html-keyboard-response,1131069,<p></p>,,,,null,,,,,,,,,,,,,,
963.1000000089407,,shortestpath_phase,1132034,GW/hat.jpg,,,,49,GW/soldier.jpg,GW/wheelchair.jpg,0,0.5164835164835165,,,,GW/wheelchair.jpg,,,,,Three Edge Diff,Three Edge Six Edge
null,,html-keyboard-response,1133047,<p></p>,,,,null,,,,,,,,,,,,,,
1380.5,,shortestpath_phase,1134428,GW/dustpan.jpg,,,,50,GW/paint.jpg,GW/basket.jpg,0,0.5108695652173914,,,,GW/paint.jpg,,,,,One Edge Diff,Three Edge Four Edge
null,,html-keyboard-response,1135431,<p></p>,,,,null,,,,,,,,,,,,,,
1052.9000000059605,,shortestpath_phase,1136485,GW/hat.jpg,,,,49,GW/snail.jpg,GW/paint.jpg,1,0.5161290322580645,,,,GW/snail.jpg,,,,,One Edge Diff,Four Edge Five Edge
null,,html-keyboard-response,1137487,<p></p>,,,,null,,,,,,,,,,,,,,
1316.8999999910593,,shortestpath_phase,1138805,GW/paint.jpg,,,,50,GW/basket.jpg,GW/camera.jpg,1,0.5212765957446809,,,,GW/camera.jpg,,,,,Two Edge Diff,Two Edge Four Edge
null,,html-keyboard-response,1139807,<p></p>,,,,null,,,,,,,,,,,,,,
1240.4000000059605,,shortestpath_phase,1141049,GW/dustpan.jpg,,,,50,GW/gong.jpg,GW/jukebox.jpg,0,0.5157894736842106,,,,GW/gong.jpg,,,,,Three Edge Diff,Three Edge Six Edge
null,,html-keyboard-response,1142052,<p></p>,,,,null,,,,,,,,,,,,,,
915.7000000029802,,shortestpath_phase,1142969,GW/hat.jpg,,,,49,GW/soldier.jpg,GW/camera.jpg,0,0.5104166666666666,,,,GW/camera.jpg,,,,,Two Edge Diff,Three Edge Five Edge
null,,html-keyboard-response,1143972,<p></p>,,,,null,,,,,,,,,,,,,,
1131.2999999970198,,shortestpath_phase,1145104,GW/globe.jpg,,,,49,GW/paint.jpg,GW/snail.jpg,0,0.5051546391752577,,,,GW/snail.jpg,,,,,Two Edge Diff,Four Edge Six Edge
null,,html-keyboard-response,1146106,<p></p>,,,,null,,,,,,,,,,,,,,
1152.7999999970198,,shortestpath_phase,1147260,GW/paint.jpg,,,,49,GW/hat.jpg,GW/globe.jpg,1,0.5102040816326531,,,,GW/hat.jpg,,,,,One Edge Diff,Five Edge Six Edge
null,,html-keyboard-response,1148262,<p></p>,,,,null,,,,,,,,,,,,,,
2129.7000000029802,,shortestpath_phase,1150393,GW/gong.jpg,,,,49,GW/snail.jpg,GW/basket.jpg,1,0.5151515151515151,,,,GW/snail.jpg,,,,,One Edge Diff,Two Edge Three Edge
null,,html-keyboard-response,1151409,<p></p>,,,,null,,,,,,,,,,,,,,
1082.2000000029802,,shortestpath_phase,1152492,GW/dustpan.jpg,,,,50,GW/jukebox.jpg,GW/globe.jpg,0,0.51,,,,GW/jukebox.jpg,,,,,One Edge Diff,Five Edge Six Edge
null,,html-keyboard-response,1153494,<p></p>,,,,null,,,,,,,,,,,,,,
965.9000000059605,,shortestpath_phase,1154461,GW/hat.jpg,,,,49,GW/snail.jpg,GW/dustpan.jpg,1,0.5148514851485149,,,,GW/snail.jpg,,,,,Two Edge Diff,Four Edge Six Edge
null,,html-keyboard-response,1155463,<p></p>,,,,null,,,,,,,,,,,,,,
1627.5,,shortestpath_phase,1157092,GW/dustpan.jpg,,,,49,GW/globe.jpg,GW/gong.jpg,0,0.5098039215686274,,,,GW/gong.jpg,,,,,Four Edge Diff,Two Edge Six Edge
null,,html-keyboard-response,1158094,<p></p>,,,,null,,,,,,,,,,,,,,
1168.5,,shortestpath_phase,1159264,GW/soldier.jpg,,,,49,GW/hat.jpg,GW/paint.jpg,0,0.5048543689320388,,,,GW/paint.jpg,,,,,Three Edge Diff,Two Edge Five Edge
null,,html-keyboard-response,1160266,<p></p>,,,,null,,,,,,,,,,,,,,
1104.7000000029802,,shortestpath_phase,1161372,GW/dustpan.jpg,,,,50,GW/jukebox.jpg,GW/gong.jpg,1,0.5096153846153846,,,,GW/gong.jpg,,,,,Three Edge Diff,Two Edge Five Edge
null,,html-keyboard-response,1162374,<p></p>,,,,null,,,,,,,,,,,,,,
839.7000000029802,,shortestpath_phase,1163214,GW/paint.jpg,,,,49,GW/globe.jpg,GW/camera.jpg,0,0.5047619047619047,,,,GW/camera.jpg,,,,,Four Edge Diff,Two Edge Six Edge
null,,html-keyboard-response,1164216,<p></p>,,,,null,,,,,,,,,,,,,,
1584.7000000029802,,shortestpath_phase,1165802,GW/globe.jpg,,,,49,GW/soldier.jpg,GW/snail.jpg,0,0.5,,,,GW/snail.jpg,,,,,One Edge Diff,Four Edge Five Edge
null,,html-keyboard-response,1166804,<p></p>,,,,null,,,,,,,,,,,,,,
961.2000000029802,,shortestpath_phase,1167766,GW/hat.jpg,,,,50,GW/teeth.jpg,GW/dustpan.jpg,0,0.4953271028037383,,,,GW/teeth.jpg,,,,,Four Edge Diff,Two Edge Six Edge
null,,html-keyboard-response,1168769,<p></p>,,,,null,,,,,,,,,,,,,,
1277.699999988079,,shortestpath_phase,1170048,GW/gong.jpg,,,,49,GW/snail.jpg,GW/globe.jpg,1,0.5,,,,GW/snail.jpg,,,,,Three Edge Diff,Three Edge Six Edge
null,,html-keyboard-response,1171050,<p></p>,,,,null,,,,,,,,,,,,,,
2522.300000011921,,shortestpath_phase,1173573,GW/wheelchair.jpg,,,,50,GW/dustpan.jpg,GW/hat.jpg,1,0.5045871559633027,,,,GW/hat.jpg,,,,,Two Edge Diff,Two Edge Four Edge
null,,html-keyboard-response,1174576,<p></p>,,,,null,,,,,,,,,,,,,,
1714.2000000029802,,shortestpath_phase,1176291,GW/gong.jpg,,,,50,GW/barrel.jpg,GW/teeth.jpg,0,0.5,,,,GW/barrel.jpg,,,,,Two Edge Diff,Two Edge Four Edge
null,,html-keyboard-response,1177296,<p></p>,,,,null,,,,,,,,,,,,,,
1170.4000000059605,,shortestpath_phase,1178468,GW/hat.jpg,,,,49,GW/camera.jpg,GW/snail.jpg,1,0.5045045045045045,,,,GW/camera.jpg,,,,,One Edge Diff,Three Edge Four Edge
null,,html-keyboard-response,1179470,<p></p>,,,,null,,,,,,,,,,,,,,
2367.5,,shortestpath_phase,1181838,GW/globe.jpg,,,,49,GW/soldier.jpg,GW/wheelchair.jpg,0,0.5,,,,GW/wheelchair.jpg,,,,,Two Edge Diff,Three Edge Five Edge
null,,html-keyboard-response,1182840,<p></p>,,,,null,,,,,,,,,,,,,,
1390.0999999940395,,shortestpath_phase,1184232,GW/hat.jpg,,,,49,GW/gong.jpg,GW/dustpan.jpg,1,0.504424778761062,,,,GW/gong.jpg,,,,,Two Edge Diff,Four Edge Six Edge
null,,html-keyboard-response,1185234,<p></p>,,,,null,,,,,,,,,,,,,,
3882.4000000059605,,shortestpath_phase,1189118,GW/globe.jpg,,,,50,GW/dustpan.jpg,GW/camera.jpg,1,0.5087719298245614,,,,GW/camera.jpg,,,,,Two Edge Diff,Four Edge Six Edge
null,,html-keyboard-response,1190120,<p></p>,,,,null,,,,,,,,,,,,,,
1025.1000000089407,,shortestpath_phase,1191146,GW/hat.jpg,,,,49,GW/barrel.jpg,GW/paint.jpg,1,0.5130434782608696,,,,GW/barrel.jpg,,,,,Two Edge Diff,Three Edge Five Edge
null,,html-keyboard-response,1192148,<p></p>,,,,null,,,,,,,,,,,,,,
1418.7999999970198,,shortestpath_phase,1193568,GW/dustpan.jpg,,,,49,GW/wheelchair.jpg,GW/hat.jpg,1,0.5172413793103449,,,,GW/wheelchair.jpg,,,,,Two Edge Diff,Four Edge Six Edge
null,,html-keyboard-response,1194577,<p></p>,,,,null,,,,,,,,,,,,,,
1127,,shortestpath_phase,1195705,GW/globe.jpg,,,,49,GW/paint.jpg,GW/soldier.jpg,0,0.5128205128205128,,,,GW/soldier.jpg,,,,,One Edge Diff,Five Edge Six Edge
null,,html-keyboard-response,1196706,<p></p>,,,,null,,,,,,,,,,,,,,
982.0999999940395,,shortestpath_phase,1197689,GW/hat.jpg,,,,49,GW/teeth.jpg,GW/soldier.jpg,1,0.5169491525423728,,,,GW/teeth.jpg,,,,,Three Edge Diff,Two Edge Five Edge
null,,html-keyboard-response,1198692,<p></p>,,,,null,,,,,,,,,,,,,,
997.5999999940395,,shortestpath_phase,1199691,GW/globe.jpg,,,,49,GW/soldier.jpg,GW/basket.jpg,0,0.5126050420168067,,,,GW/basket.jpg,,,,,Three Edge Diff,Two Edge Five Edge
null,,html-keyboard-response,1200692,<p></p>,,,,null,,,,,,,,,,,,,,
1977.199999988079,,shortestpath_phase,1202671,GW/jukebox.jpg,,,,49,GW/dustpan.jpg,GW/snail.jpg,0,0.5083333333333333,,,,GW/snail.jpg,,,,,Two Edge Diff,Three Edge Five Edge
null,,html-keyboard-response,1203675,<p></p>,,,,null,,,,,,,,,,,,,,
2552.5,,shortestpath_phase,1206229,GW/globe.jpg,,,,49,GW/basket.jpg,GW/paint.jpg,1,0.512396694214876,,,,GW/basket.jpg,,,,,Four Edge Diff,Two Edge Six Edge
null,,html-keyboard-response,1207231,<p></p>,,,,null,,,,,,,,,,,,,,
12549.79999999702,,intro_1,1219782,instruct,,0,,,,,,,,,,,,,,,,
9073.09999999404,,intro_2,1228857,instruct,,1,Next,,,,,,,,,,,,,,,
2578.7000000029802,,intro_3,1231437,instruct,,1,Next,,,,,,,,,,,,,,,
