rt,responses,trial_type,time_elapsed,stimulus,graphorder,button_pressed,response,key_press,stimulus_left,stimulus_right,accuracy,cumulative_accuracy,stimulus_down_left,stimulus_down_mid,stimulus_down_right,stimulus_correct,stimulus_short,stimulus_far,weighted_accuracy,missedtrial,condition,specific_pairs
34745.89999985695,{worker_id:5d4ac837d2844e0001ecf699},id_enter,34748,id_enter,GW/globe.jpg; GW/dustpan.jpg; GW/paint.jpg; GW/barrel.jpg; GW/basket.jpg; GW/wheelchair.jpg; GW/soldier.jpg; GW/camera.jpg; GW/teeth.jpg; GW/snail.jpg; GW/hat.jpg; GW/gong.jpg; GW/jukebox.jpg,,,,,,,,,,,,,,,,,
2429.899999856949,,fullscreen,37183,fullscreen,,0,,,,,,,,,,,,,,,,
1136.0999999046326,,intro_1,38321,instruct,,0,,,,,,,,,,,,,,,,
1436.4000000953674,,intro_2,39759,instruct,,1,Next,,,,,,,,,,,,,,,
6647.099999904633,,intro_3,46407,instruct,,1,Next,,,,,,,,,,,,,,,
null,,learn_prac_1,48413,lean_prac_1,,,,null,,,,,,,,,,,,,,
null,,html-keyboard-response,49418,<p></p>,,,,null,,,,,,,,,,,,,,
4035.7000000476837,,intro_1,53455,instruct,,0,,,,,,,,,,,,,,,,
1343,,intro_2,54799,instruct,,1,Next,,,,,,,,,,,,,,,
null,,learn_prac_2,56813,lean_prac_2,,,,null,,,,,,,,,,,,,,
null,,html-keyboard-response,57828,<p></p>,,,,null,,,,,,,,,,,,,,
6885.700000047684,,intro_1,64715,instruct,,0,,,,,,,,,,,,,,,,
2756.9000000953674,,intro_2,67474,instruct,,1,Next,,,,,,,,,,,,,,,
3511.0999999046326,,intro_3,70986,instruct,,1,Next,,,,,,,,,,,,,,,
null,,prac_atten_color_black,71839,black_plus_sign,,,,null,,,,,,,,,,,,,,
null,,prac_atten_color,72406,prac_stop_color,,,,null,,,,,,,,,,,,,,
null,,prac_atten_color_black,74409,black_plus_sign,,,,null,,,,,,,,,,,,,,
5977.400000095367,,attentioncheck_help,80388,instruct,,,,32,,,,,,,,,,,,,,
null,,prac_atten_color_black,81252,black_plus_sign,,,,null,,,,,,,,,,,,,,
null,,prac_atten_color,81772,prac_stop_color,,,,null,,,,,,,,,,,,,,
24.399999856948853,,prac_atten_color_black,83777,black_plus_sign,,,,50,,,,,,,,,,,,,,
null,,prac_atten_color_black,84682,black_plus_sign,,,,null,,,,,,,,,,,,,,
606.5,,prac_atten_color,85294,prac_stop_color,,,,50,,,,,,,,,,,,,,
null,,prac_atten_color_black,87299,black_plus_sign,,,,null,,,,,,,,,,,,,,
null,,prac_atten_color_black,88091,black_plus_sign,,,,null,,,,,,,,,,,,,,
488.2000000476837,,prac_atten_color,88936,prac_stop_color,,,,49,,,,,,,,,,,,,,
null,,prac_atten_color_black,90941,black_plus_sign,,,,null,,,,,,,,,,,,,,
null,,prac_atten_color_black,91520,black_plus_sign,,,,null,,,,,,,,,,,,,,
418.7999999523163,,prac_atten_color,92013,prac_stop_color,,,,50,,,,,,,,,,,,,,
null,,prac_atten_color_black,94026,black_plus_sign,,,,null,,,,,,,,,,,,,,
null,,prac_atten_color_black,94963,black_plus_sign,,,,null,,,,,,,,,,,,,,
435.7000000476837,,prac_atten_color,95554,prac_stop_color,,,,50,,,,,,,,,,,,,,
null,,prac_atten_color_black,97559,black_plus_sign,,,,null,,,,,,,,,,,,,,
null,,prac_atten_color_black,98384,black_plus_sign,,,,null,,,,,,,,,,,,,,
541.3999998569489,,prac_atten_color,98928,prac_stop_color,,,,49,,,,,,,,,,,,,,
null,,prac_atten_color_black,100935,black_plus_sign,,,,null,,,,,,,,,,,,,,
null,,prac_atten_color_black,101807,black_plus_sign,,,,null,,,,,,,,,,,,,,
436.40000009536743,,prac_atten_color,102821,prac_stop_color,,,,50,,,,,,,,,,,,,,
null,,prac_atten_color_black,104822,black_plus_sign,,,,null,,,,,,,,,,,,,,
null,,prac_atten_color_black,105217,black_plus_sign,,,,null,,,,,,,,,,,,,,
613.5999999046326,,prac_atten_color,106293,prac_stop_color,,,,49,,,,,,,,,,,,,,
null,,prac_atten_color_black,108304,black_plus_sign,,,,null,,,,,,,,,,,,,,
null,,prac_atten_color_black,108649,black_plus_sign,,,,null,,,,,,,,,,,,,,
607.5999999046326,,prac_atten_color,109419,prac_stop_color,,,,49,,,,,,,,,,,,,,
null,,prac_atten_color_black,111434,black_plus_sign,,,,null,,,,,,,,,,,,,,
2297.7999999523163,,attentioncheck_feedback,113733,cross_check_feedback,,0,,,,,,,,,,,,,,,,
2666.9000000953674,,last_instruct,116401,instruct,,,,32,,,,,,,,,,,,,,
null,,learn_phase(without_color),118410,black_plus_sign,,,,null,GW/soldier.jpg,GW/teeth.jpg,,,,,,,,,,,,
null,,black_cross(without_color),119096,blue,,,,null,GW/soldier.jpg,GW/teeth.jpg,,,,,,,,,,,,
409.39999985694885,,rt_plussign_withcolor,119610,blue,,,,49,GW/soldier.jpg,GW/teeth.jpg,,,,,,,,,,,,
null,,rt_thecrossant_black,120946,black_plus_sign,,,,null,,,1,1,,,,,,,,,,
null,,color_black,121061,black_plus_sign,,,,null,,,,,,,,,,,,,,
null,,learn_phase(without_color),123070,black_plus_sign,,,,null,GW/paint.jpg,GW/wheelchair.jpg,,,,,,,,,,,,
null,,black_cross(without_color),124107,blue,,,,null,GW/paint.jpg,GW/wheelchair.jpg,,,,,,,,,,,,
null,,rt_plussign_withcolor,124616,blue,,,,null,GW/paint.jpg,GW/wheelchair.jpg,,,,,,,,,,,,
949.5999999046326,,rt_thecrossant_black,125596,black_plus_sign,,,,49,,,1,1,,,,,,,,,,
null,,color_black,125705,black_plus_sign,,,,null,,,,,,,,,,,,,,
null,,learn_phase(without_color),127718,black_plus_sign,,,,null,GW/wheelchair.jpg,GW/soldier.jpg,,,,,,,,,,,,
null,,black_cross(without_color),128721,blue,,,,null,GW/wheelchair.jpg,GW/soldier.jpg,,,,,,,,,,,,
null,,rt_plussign_withcolor,129232,blue,,,,null,GW/wheelchair.jpg,GW/soldier.jpg,,,,,,,,,,,,
1356.7999999523163,,rt_thecrossant_black,130248,black_plus_sign,,,,49,,,1,1,,,,,,,,,,
null,,color_black,130350,black_plus_sign,,,,null,,,,,,,,,,,,,,
null,,learn_phase(without_color),132362,black_plus_sign,,,,null,GW/soldier.jpg,GW/jukebox.jpg,,,,,,,,,,,,
null,,black_cross(without_color),133000,blue,,,,null,GW/soldier.jpg,GW/jukebox.jpg,,,,,,,,,,,,
null,,rt_plussign_withcolor,133509,blue,,,,null,GW/soldier.jpg,GW/jukebox.jpg,,,,,,,,,,,,
1095.9000000953674,,rt_thecrossant_black,134892,black_plus_sign,,,,49,,,1,1,,,,,,,,,,
null,,color_black,135008,black_plus_sign,,,,null,,,,,,,,,,,,,,
null,,learn_phase(without_color),137022,black_plus_sign,,,,null,GW/hat.jpg,GW/gong.jpg,,,,,,,,,,,,
null,,black_cross(without_color),137728,green,,,,null,GW/hat.jpg,GW/gong.jpg,,,,,,,,,,,,
365.30000019073486,,rt_plussign_withcolor,138235,green,,,,50,GW/hat.jpg,GW/gong.jpg,,,,,,,,,,,,
null,,rt_thecrossant_black,139553,black_plus_sign,,,,null,,,1,1,,,,,,,,,,
null,,color_black,139670,black_plus_sign,,,,null,,,,,,,,,,,,,,
null,,learn_phase(without_color),141684,black_plus_sign,,,,null,GW/camera.jpg,GW/teeth.jpg,,,,,,,,,,,,
null,,black_cross(without_color),142229,green,,,,null,GW/camera.jpg,GW/teeth.jpg,,,,,,,,,,,,
null,,rt_plussign_withcolor,142744,green,,,,null,GW/camera.jpg,GW/teeth.jpg,,,,,,,,,,,,
917.5,,rt_thecrossant_black,144214,black_plus_sign,,,,50,,,1,1,,,,,,,,,,
null,,color_black,144330,black_plus_sign,,,,null,,,,,,,,,,,,,,
null,,learn_phase(without_color),146343,black_plus_sign,,,,null,GW/camera.jpg,GW/snail.jpg,,,,,,,,,,,,
null,,black_cross(without_color),146966,green,,,,null,GW/camera.jpg,GW/snail.jpg,,,,,,,,,,,,
null,,rt_plussign_withcolor,147475,green,,,,null,GW/camera.jpg,GW/snail.jpg,,,,,,,,,,,,
863.2000000476837,,rt_thecrossant_black,148861,black_plus_sign,,,,50,,,1,1,,,,,,,,,,
null,,color_black,148965,black_plus_sign,,,,null,,,,,,,,,,,,,,
null,,learn_phase(without_color),150975,black_plus_sign,,,,null,GW/barrel.jpg,GW/gong.jpg,,,,,,,,,,,,
null,,black_cross(without_color),151559,blue,,,,null,GW/barrel.jpg,GW/gong.jpg,,,,,,,,,,,,
null,,rt_plussign_withcolor,152069,blue,,,,null,GW/barrel.jpg,GW/gong.jpg,,,,,,,,,,,,
850.5999999046326,,rt_thecrossant_black,153506,black_plus_sign,,,,49,,,1,1,,,,,,,,,,
null,,color_black,153623,black_plus_sign,,,,null,,,,,,,,,,,,,,
null,,learn_phase(without_color),155637,black_plus_sign,,,,null,GW/soldier.jpg,GW/teeth.jpg,,,,,,,,,,,,
null,,black_cross(without_color),156588,blue,,,,null,GW/soldier.jpg,GW/teeth.jpg,,,,,,,,,,,,
null,,rt_plussign_withcolor,157100,blue,,,,null,GW/soldier.jpg,GW/teeth.jpg,,,,,,,,,,,,
688.2999999523163,,rt_thecrossant_black,158168,black_plus_sign,,,,49,,,1,1,,,,,,,,,,
null,,color_black,158291,black_plus_sign,,,,null,,,,,,,,,,,,,,
null,,learn_phase(without_color),160301,black_plus_sign,,,,null,GW/barrel.jpg,GW/basket.jpg,,,,,,,,,,,,
null,,black_cross(without_color),161329,blue,,,,null,GW/barrel.jpg,GW/basket.jpg,,,,,,,,,,,,
435.19999980926514,,rt_plussign_withcolor,161843,blue,,,,49,GW/barrel.jpg,GW/basket.jpg,,,,,,,,,,,,
null,,rt_thecrossant_black,162830,black_plus_sign,,,,null,,,1,1,,,,,,,,,,
null,,color_black,162942,black_plus_sign,,,,null,,,,,,,,,,,,,,
null,,learn_phase(without_color),164953,black_plus_sign,,,,null,GW/camera.jpg,GW/snail.jpg,,,,,,,,,,,,
null,,black_cross(without_color),165528,blue,,,,null,GW/camera.jpg,GW/snail.jpg,,,,,,,,,,,,
488.5,,rt_plussign_withcolor,166030,blue,,,,49,GW/camera.jpg,GW/snail.jpg,,,,,,,,,,,,
null,,rt_thecrossant_black,167482,black_plus_sign,,,,null,,,1,1,,,,,,,,,,
null,,color_black,167585,black_plus_sign,,,,null,,,,,,,,,,,,,,
null,,learn_phase(without_color),169587,black_plus_sign,,,,null,GW/wheelchair.jpg,GW/soldier.jpg,,,,,,,,,,,,
null,,black_cross(without_color),170603,green,,,,null,GW/wheelchair.jpg,GW/soldier.jpg,,,,,,,,,,,,
null,,rt_plussign_withcolor,171112,green,,,,null,GW/wheelchair.jpg,GW/soldier.jpg,,,,,,,,,,,,
703,,rt_thecrossant_black,172116,black_plus_sign,,,,49,,,0,0.9166666666666666,,,,,,,,,,
null,,color_black,172232,black_plus_sign,,,,null,,,,,,,,,,,,,,
null,,learn_phase(without_color),174243,black_plus_sign,,,,null,GW/teeth.jpg,GW/hat.jpg,,,,,,,,,,,,
null,,black_cross(without_color),175351,green,,,,null,GW/teeth.jpg,GW/hat.jpg,,,,,,,,,,,,
null,,rt_plussign_withcolor,175855,green,,,,null,GW/teeth.jpg,GW/hat.jpg,,,,,,,,,,,,
1419.3999998569489,,rt_thecrossant_black,176778,black_plus_sign,,,,50,,,1,0.9230769230769231,,,,,,,,,,
null,,color_black,176893,black_plus_sign,,,,null,,,,,,,,,,,,,,
null,,learn_phase(without_color),178903,black_plus_sign,,,,null,GW/barrel.jpg,GW/gong.jpg,,,,,,,,,,,,
null,,black_cross(without_color),179354,green,,,,null,GW/barrel.jpg,GW/gong.jpg,,,,,,,,,,,,
null,,rt_plussign_withcolor,179867,green,,,,null,GW/barrel.jpg,GW/gong.jpg,,,,,,,,,,,,
1308.7000000476837,,rt_thecrossant_black,181441,black_plus_sign,,,,50,,,1,0.9285714285714286,,,,,,,,,,
null,,color_black,181552,black_plus_sign,,,,null,,,,,,,,,,,,,,
null,,learn_phase(without_color),183565,black_plus_sign,,,,null,GW/soldier.jpg,GW/jukebox.jpg,,,,,,,,,,,,
null,,black_cross(without_color),184628,blue,,,,null,GW/soldier.jpg,GW/jukebox.jpg,,,,,,,,,,,,
358.5,,rt_plussign_withcolor,185143,blue,,,,49,GW/soldier.jpg,GW/jukebox.jpg,,,,,,,,,,,,
null,,rt_thecrossant_black,186103,black_plus_sign,,,,null,,,1,0.9333333333333333,,,,,,,,,,
null,,color_black,186214,black_plus_sign,,,,null,,,,,,,,,,,,,,
null,,learn_phase(without_color),188226,black_plus_sign,,,,null,GW/soldier.jpg,GW/teeth.jpg,,,,,,,,,,,,
null,,black_cross(without_color),188818,green,,,,null,GW/soldier.jpg,GW/teeth.jpg,,,,,,,,,,,,
500.90000009536743,,rt_plussign_withcolor,189321,green,,,,50,GW/soldier.jpg,GW/teeth.jpg,,,,,,,,,,,,
null,,rt_thecrossant_black,190755,black_plus_sign,,,,null,,,1,0.9375,,,,,,,,,,
null,,color_black,190872,black_plus_sign,,,,null,,,,,,,,,,,,,,
null,,learn_phase(without_color),192882,black_plus_sign,,,,null,GW/wheelchair.jpg,GW/soldier.jpg,,,,,,,,,,,,
null,,black_cross(without_color),193462,green,,,,null,GW/wheelchair.jpg,GW/soldier.jpg,,,,,,,,,,,,
null,,rt_plussign_withcolor,193966,green,,,,null,GW/wheelchair.jpg,GW/soldier.jpg,,,,,,,,,,,,
699.5,,rt_thecrossant_black,195400,black_plus_sign,,,,50,,,1,0.9411764705882353,,,,,,,,,,
null,,color_black,195502,black_plus_sign,,,,null,,,,,,,,,,,,,,
null,,learn_phase(without_color),197515,black_plus_sign,,,,null,GW/hat.jpg,GW/gong.jpg,,,,,,,,,,,,
null,,black_cross(without_color),198440,green,,,,null,GW/hat.jpg,GW/gong.jpg,,,,,,,,,,,,
334.7999999523163,,rt_plussign_withcolor,198941,green,,,,50,GW/hat.jpg,GW/gong.jpg,,,,,,,,,,,,
null,,rt_thecrossant_black,200028,black_plus_sign,,,,null,,,1,0.9444444444444444,,,,,,,,,,
null,,color_black,200130,black_plus_sign,,,,null,,,,,,,,,,,,,,
null,,learn_phase(without_color),202140,black_plus_sign,,,,null,GW/globe.jpg,GW/dustpan.jpg,,,,,,,,,,,,
null,,black_cross(without_color),203144,blue,,,,null,GW/globe.jpg,GW/dustpan.jpg,,,,,,,,,,,,
400.5,,rt_plussign_withcolor,203646,blue,,,,49,GW/globe.jpg,GW/dustpan.jpg,,,,,,,,,,,,
null,,rt_thecrossant_black,204651,black_plus_sign,,,,null,,,1,0.9473684210526315,,,,,,,,,,
null,,color_black,204767,black_plus_sign,,,,null,,,,,,,,,,,,,,
null,,learn_phase(without_color),206782,black_plus_sign,,,,null,GW/barrel.jpg,GW/basket.jpg,,,,,,,,,,,,
null,,black_cross(without_color),207221,green,,,,null,GW/barrel.jpg,GW/basket.jpg,,,,,,,,,,,,
null,,rt_plussign_withcolor,207733,green,,,,null,GW/barrel.jpg,GW/basket.jpg,,,,,,,,,,,,
1296.3999998569489,,rt_thecrossant_black,209314,black_plus_sign,,,,50,,,1,0.95,,,,,,,,,,
null,,color_black,209416,black_plus_sign,,,,null,,,,,,,,,,,,,,
null,,learn_phase(without_color),211418,black_plus_sign,,,,null,GW/camera.jpg,GW/teeth.jpg,,,,,,,,,,,,
null,,black_cross(without_color),212337,green,,,,null,GW/camera.jpg,GW/teeth.jpg,,,,,,,,,,,,
504.40000009536743,,rt_plussign_withcolor,212843,green,,,,50,GW/camera.jpg,GW/teeth.jpg,,,,,,,,,,,,
null,,rt_thecrossant_black,213945,black_plus_sign,,,,null,,,1,0.9523809523809523,,,,,,,,,,
null,,color_black,214048,black_plus_sign,,,,null,,,,,,,,,,,,,,
null,,learn_phase(without_color),216061,black_plus_sign,,,,null,GW/soldier.jpg,GW/camera.jpg,,,,,,,,,,,,
null,,black_cross(without_color),216484,blue,,,,null,GW/soldier.jpg,GW/camera.jpg,,,,,,,,,,,,
null,,rt_plussign_withcolor,216987,blue,,,,null,GW/soldier.jpg,GW/camera.jpg,,,,,,,,,,,,
1075.6000001430511,,rt_thecrossant_black,218591,black_plus_sign,,,,49,,,1,0.9545454545454546,,,,,,,,,,
null,,color_black,218707,black_plus_sign,,,,null,,,,,,,,,,,,,,
null,,learn_phase(without_color),220715,black_plus_sign,,,,null,GW/paint.jpg,GW/wheelchair.jpg,,,,,,,,,,,,
null,,black_cross(without_color),221427,green,,,,null,GW/paint.jpg,GW/wheelchair.jpg,,,,,,,,,,,,
495.30000019073486,,rt_plussign_withcolor,221929,green,,,,50,GW/paint.jpg,GW/wheelchair.jpg,,,,,,,,,,,,
null,,rt_thecrossant_black,223234,black_plus_sign,,,,null,,,1,0.9565217391304348,,,,,,,,,,
null,,color_black,223335,black_plus_sign,,,,null,,,,,,,,,,,,,,
null,,learn_phase(without_color),225348,black_plus_sign,,,,null,GW/camera.jpg,GW/teeth.jpg,,,,,,,,,,,,
null,,black_cross(without_color),226193,blue,,,,null,GW/camera.jpg,GW/teeth.jpg,,,,,,,,,,,,
null,,rt_plussign_withcolor,226700,blue,,,,null,GW/camera.jpg,GW/teeth.jpg,,,,,,,,,,,,
889.5,,rt_thecrossant_black,227874,black_plus_sign,,,,49,,,1,0.9583333333333334,,,,,,,,,,
null,,color_black,227978,black_plus_sign,,,,null,,,,,,,,,,,,,,
null,,learn_phase(without_color),229991,black_plus_sign,,,,null,GW/teeth.jpg,GW/hat.jpg,,,,,,,,,,,,
null,,black_cross(without_color),231012,blue,,,,null,GW/teeth.jpg,GW/hat.jpg,,,,,,,,,,,,
null,,rt_plussign_withcolor,231519,blue,,,,null,GW/teeth.jpg,GW/hat.jpg,,,,,,,,,,,,
1040.5,,rt_thecrossant_black,232513,black_plus_sign,,,,49,,,1,0.96,,,,,,,,,,
null,,color_black,232623,black_plus_sign,,,,null,,,,,,,,,,,,,,
null,,learn_phase(without_color),234634,black_plus_sign,,,,null,GW/paint.jpg,GW/hat.jpg,,,,,,,,,,,,
null,,black_cross(without_color),235637,green,,,,null,GW/paint.jpg,GW/hat.jpg,,,,,,,,,,,,
461,,rt_plussign_withcolor,236152,green,,,,50,GW/paint.jpg,GW/hat.jpg,,,,,,,,,,,,
null,,rt_thecrossant_black,237168,black_plus_sign,,,,null,,,1,0.9615384615384616,,,,,,,,,,
null,,color_black,237285,black_plus_sign,,,,null,,,,,,,,,,,,,,
null,,learn_phase(without_color),239295,black_plus_sign,,,,null,GW/teeth.jpg,GW/hat.jpg,,,,,,,,,,,,
null,,black_cross(without_color),240143,blue,,,,null,GW/teeth.jpg,GW/hat.jpg,,,,,,,,,,,,
341.69999980926514,,rt_plussign_withcolor,240647,blue,,,,49,GW/teeth.jpg,GW/hat.jpg,,,,,,,,,,,,
null,,rt_thecrossant_black,241820,black_plus_sign,,,,null,,,1,0.9629629629629629,,,,,,,,,,
null,,color_black,241927,black_plus_sign,,,,null,,,,,,,,,,,,,,
null,,learn_phase(without_color),243941,black_plus_sign,,,,null,GW/soldier.jpg,GW/teeth.jpg,,,,,,,,,,,,
null,,black_cross(without_color),245035,blue,,,,null,GW/soldier.jpg,GW/teeth.jpg,,,,,,,,,,,,
422.2999999523163,,rt_plussign_withcolor,245541,blue,,,,49,GW/soldier.jpg,GW/teeth.jpg,,,,,,,,,,,,
null,,rt_thecrossant_black,246464,black_plus_sign,,,,null,,,1,0.9642857142857143,,,,,,,,,,
null,,color_black,246572,black_plus_sign,,,,null,,,,,,,,,,,,,,
null,,learn_phase(without_color),248584,black_plus_sign,,,,null,GW/camera.jpg,GW/teeth.jpg,,,,,,,,,,,,
null,,black_cross(without_color),249542,blue,,,,null,GW/camera.jpg,GW/teeth.jpg,,,,,,,,,,,,
null,,rt_plussign_withcolor,250048,blue,,,,null,GW/camera.jpg,GW/teeth.jpg,,,,,,,,,,,,
1309.4000000953674,,rt_thecrossant_black,251105,black_plus_sign,,,,50,,,0,0.9310344827586207,,,,,,,,,,
null,,color_black,251217,black_plus_sign,,,,null,,,,,,,,,,,,,,
null,,learn_phase(without_color),253229,black_plus_sign,,,,null,GW/soldier.jpg,GW/camera.jpg,,,,,,,,,,,,
null,,black_cross(without_color),254045,green,,,,null,GW/soldier.jpg,GW/camera.jpg,,,,,,,,,,,,
null,,rt_plussign_withcolor,254556,green,,,,null,GW/soldier.jpg,GW/camera.jpg,,,,,,,,,,,,
1161.4000000953674,,rt_thecrossant_black,255771,black_plus_sign,,,,50,,,1,0.9333333333333333,,,,,,,,,,
null,,color_black,255878,black_plus_sign,,,,null,,,,,,,,,,,,,,
null,,learn_phase(without_color),257885,black_plus_sign,,,,null,GW/wheelchair.jpg,GW/teeth.jpg,,,,,,,,,,,,
null,,black_cross(without_color),258643,blue,,,,null,GW/wheelchair.jpg,GW/teeth.jpg,,,,,,,,,,,,
null,,rt_plussign_withcolor,259153,blue,,,,null,GW/wheelchair.jpg,GW/teeth.jpg,,,,,,,,,,,,
1001.2999999523163,,rt_thecrossant_black,260411,black_plus_sign,,,,49,,,1,0.9354838709677419,,,,,,,,,,
null,,color_black,260522,black_plus_sign,,,,null,,,,,,,,,,,,,,
null,,learn_phase(without_color),262532,black_plus_sign,,,,null,GW/camera.jpg,GW/snail.jpg,,,,,,,,,,,,
null,,black_cross(without_color),263275,blue,,,,null,GW/camera.jpg,GW/snail.jpg,,,,,,,,,,,,
null,,rt_plussign_withcolor,263781,blue,,,,null,GW/camera.jpg,GW/snail.jpg,,,,,,,,,,,,
887.5999999046326,,rt_thecrossant_black,265051,black_plus_sign,,,,49,,,1,0.9375,,,,,,,,,,
null,,color_black,265166,black_plus_sign,,,,null,,,,,,,,,,,,,,
null,,learn_phase(without_color),267178,black_plus_sign,,,,null,GW/wheelchair.jpg,GW/teeth.jpg,,,,,,,,,,,,
null,,black_cross(without_color),268025,green,,,,null,GW/wheelchair.jpg,GW/teeth.jpg,,,,,,,,,,,,
null,,rt_plussign_withcolor,268531,green,,,,null,GW/wheelchair.jpg,GW/teeth.jpg,,,,,,,,,,,,
893.8000001907349,,rt_thecrossant_black,269704,black_plus_sign,,,,50,,,1,0.9393939393939394,,,,,,,,,,
null,,color_black,269808,black_plus_sign,,,,null,,,,,,,,,,,,,,
null,,learn_phase(without_color),271811,black_plus_sign,,,,null,GW/wheelchair.jpg,GW/soldier.jpg,,,,,,,,,,,,
null,,black_cross(without_color),272588,blue,,,,null,GW/wheelchair.jpg,GW/soldier.jpg,,,,,,,,,,,,
null,,rt_plussign_withcolor,273099,blue,,,,null,GW/wheelchair.jpg,GW/soldier.jpg,,,,,,,,,,,,
1075.0999999046326,,rt_thecrossant_black,274339,black_plus_sign,,,,49,,,1,0.9411764705882353,,,,,,,,,,
null,,color_black,274454,black_plus_sign,,,,null,,,,,,,,,,,,,,
null,,learn_phase(without_color),276467,black_plus_sign,,,,null,GW/globe.jpg,GW/dustpan.jpg,,,,,,,,,,,,
null,,black_cross(without_color),277420,green,,,,null,GW/globe.jpg,GW/dustpan.jpg,,,,,,,,,,,,
null,,rt_plussign_withcolor,277934,green,,,,null,GW/globe.jpg,GW/dustpan.jpg,,,,,,,,,,,,
869.2999999523163,,rt_thecrossant_black,279001,black_plus_sign,,,,50,,,1,0.9428571428571428,,,,,,,,,,
null,,color_black,279106,black_plus_sign,,,,null,,,,,,,,,,,,,,
null,,learn_phase(without_color),281120,black_plus_sign,,,,null,GW/camera.jpg,GW/teeth.jpg,,,,,,,,,,,,
null,,black_cross(without_color),282175,green,,,,null,GW/camera.jpg,GW/teeth.jpg,,,,,,,,,,,,
null,,rt_plussign_withcolor,282683,green,,,,null,GW/camera.jpg,GW/teeth.jpg,,,,,,,,,,,,
1187.3000001907349,,rt_thecrossant_black,283649,black_plus_sign,,,,50,,,1,0.9444444444444444,,,,,,,,,,
null,,color_black,283765,black_plus_sign,,,,null,,,,,,,,,,,,,,
null,,learn_phase(without_color),285767,black_plus_sign,,,,null,GW/camera.jpg,GW/snail.jpg,,,,,,,,,,,,
null,,black_cross(without_color),286316,green,,,,null,GW/camera.jpg,GW/snail.jpg,,,,,,,,,,,,
null,,rt_plussign_withcolor,286818,green,,,,null,GW/camera.jpg,GW/snail.jpg,,,,,,,,,,,,
1368.8999998569489,,rt_thecrossant_black,288284,black_plus_sign,,,,49,,,0,0.918918918918919,,,,,,,,,,
null,,color_black,288391,black_plus_sign,,,,null,,,,,,,,,,,,,,
null,,learn_phase(without_color),290398,black_plus_sign,,,,null,GW/soldier.jpg,GW/camera.jpg,,,,,,,,,,,,
null,,black_cross(without_color),291240,green,,,,null,GW/soldier.jpg,GW/camera.jpg,,,,,,,,,,,,
351.30000019073486,,rt_plussign_withcolor,291744,green,,,,50,GW/soldier.jpg,GW/camera.jpg,,,,,,,,,,,,
null,,rt_thecrossant_black,292917,black_plus_sign,,,,null,,,1,0.9210526315789473,,,,,,,,,,
null,,color_black,293018,black_plus_sign,,,,null,,,,,,,,,,,,,,
null,,learn_phase(without_color),295035,black_plus_sign,,,,null,GW/wheelchair.jpg,GW/teeth.jpg,,,,,,,,,,,,
null,,black_cross(without_color),296092,blue,,,,null,GW/wheelchair.jpg,GW/teeth.jpg,,,,,,,,,,,,
null,,rt_plussign_withcolor,296604,blue,,,,null,GW/wheelchair.jpg,GW/teeth.jpg,,,,,,,,,,,,
997.7999999523163,,rt_thecrossant_black,297560,black_plus_sign,,,,49,,,1,0.9230769230769231,,,,,,,,,,
null,,color_black,297675,black_plus_sign,,,,null,,,,,,,,,,,,,,
null,,learn_phase(without_color),299683,black_plus_sign,,,,null,GW/paint.jpg,GW/hat.jpg,,,,,,,,,,,,
null,,black_cross(without_color),300340,blue,,,,null,GW/paint.jpg,GW/hat.jpg,,,,,,,,,,,,
null,,rt_plussign_withcolor,300851,blue,,,,null,GW/paint.jpg,GW/hat.jpg,,,,,,,,,,,,
1286.7000000476837,,rt_thecrossant_black,302203,black_plus_sign,,,,49,,,1,0.925,,,,,,,,,,
null,,color_black,302319,black_plus_sign,,,,null,,,,,,,,,,,,,,
null,,learn_phase(without_color),304332,black_plus_sign,,,,null,GW/barrel.jpg,GW/gong.jpg,,,,,,,,,,,,
null,,black_cross(without_color),305219,blue,,,,null,GW/barrel.jpg,GW/gong.jpg,,,,,,,,,,,,
467.5,,rt_plussign_withcolor,305734,blue,,,,49,GW/barrel.jpg,GW/gong.jpg,,,,,,,,,,,,
null,,rt_thecrossant_black,306858,black_plus_sign,,,,null,,,1,0.926829268292683,,,,,,,,,,
null,,color_black,306964,black_plus_sign,,,,null,,,,,,,,,,,,,,
null,,learn_phase(without_color),308973,black_plus_sign,,,,null,GW/camera.jpg,GW/teeth.jpg,,,,,,,,,,,,
null,,black_cross(without_color),309864,green,,,,null,GW/camera.jpg,GW/teeth.jpg,,,,,,,,,,,,
457.60000014305115,,rt_plussign_withcolor,310377,green,,,,50,GW/camera.jpg,GW/teeth.jpg,,,,,,,,,,,,
null,,rt_thecrossant_black,311503,black_plus_sign,,,,null,,,1,0.9285714285714286,,,,,,,,,,
null,,color_black,311609,black_plus_sign,,,,null,,,,,,,,,,,,,,
null,,learn_phase(without_color),313620,black_plus_sign,,,,null,GW/hat.jpg,GW/gong.jpg,,,,,,,,,,,,
null,,black_cross(without_color),314413,blue,,,,null,GW/hat.jpg,GW/gong.jpg,,,,,,,,,,,,
null,,rt_plussign_withcolor,314917,blue,,,,null,GW/hat.jpg,GW/gong.jpg,,,,,,,,,,,,
1071.3999998569489,,rt_thecrossant_black,316143,black_plus_sign,,,,49,,,1,0.9302325581395349,,,,,,,,,,
null,,color_black,316253,black_plus_sign,,,,null,,,,,,,,,,,,,,
null,,learn_phase(without_color),318263,black_plus_sign,,,,null,GW/wheelchair.jpg,GW/soldier.jpg,,,,,,,,,,,,
null,,black_cross(without_color),318873,blue,,,,null,GW/wheelchair.jpg,GW/soldier.jpg,,,,,,,,,,,,
null,,rt_plussign_withcolor,319379,blue,,,,null,GW/wheelchair.jpg,GW/soldier.jpg,,,,,,,,,,,,
905.4000000953674,,rt_thecrossant_black,320788,black_plus_sign,,,,49,,,1,0.9318181818181818,,,,,,,,,,
null,,color_black,320897,black_plus_sign,,,,null,,,,,,,,,,,,,,
null,,learn_phase(without_color),322907,black_plus_sign,,,,null,GW/dustpan.jpg,GW/paint.jpg,,,,,,,,,,,,
null,,black_cross(without_color),323530,green,,,,null,GW/dustpan.jpg,GW/paint.jpg,,,,,,,,,,,,
null,,rt_plussign_withcolor,324038,green,,,,null,GW/dustpan.jpg,GW/paint.jpg,,,,,,,,,,,,
766.7999999523163,,rt_thecrossant_black,325425,black_plus_sign,,,,50,,,1,0.9333333333333333,,,,,,,,,,
null,,color_black,325540,black_plus_sign,,,,null,,,,,,,,,,,,,,
null,,learn_phase(without_color),327553,black_plus_sign,,,,null,GW/barrel.jpg,GW/gong.jpg,,,,,,,,,,,,
null,,black_cross(without_color),328176,blue,,,,null,GW/barrel.jpg,GW/gong.jpg,,,,,,,,,,,,
null,,rt_plussign_withcolor,328686,blue,,,,null,GW/barrel.jpg,GW/gong.jpg,,,,,,,,,,,,
741.8999998569489,,rt_thecrossant_black,330081,black_plus_sign,,,,49,,,1,0.9347826086956522,,,,,,,,,,
null,,color_black,330184,black_plus_sign,,,,null,,,,,,,,,,,,,,
null,,learn_phase(without_color),332187,black_plus_sign,,,,null,GW/wheelchair.jpg,GW/teeth.jpg,,,,,,,,,,,,
null,,black_cross(without_color),332618,green,,,,null,GW/wheelchair.jpg,GW/teeth.jpg,,,,,,,,,,,,
null,,rt_plussign_withcolor,333133,green,,,,null,GW/wheelchair.jpg,GW/teeth.jpg,,,,,,,,,,,,
861.5,,rt_thecrossant_black,334713,black_plus_sign,,,,50,,,1,0.9361702127659575,,,,,,,,,,
null,,color_black,334829,black_plus_sign,,,,null,,,,,,,,,,,,,,
null,,learn_phase(without_color),336845,black_plus_sign,,,,null,GW/wheelchair.jpg,GW/soldier.jpg,,,,,,,,,,,,
null,,black_cross(without_color),337268,green,,,,null,GW/wheelchair.jpg,GW/soldier.jpg,,,,,,,,,,,,
null,,rt_plussign_withcolor,337782,green,,,,null,GW/wheelchair.jpg,GW/soldier.jpg,,,,,,,,,,,,
1139.6999998092651,,rt_thecrossant_black,339374,black_plus_sign,,,,50,,,1,0.9375,,,,,,,,,,
null,,color_black,339490,black_plus_sign,,,,null,,,,,,,,,,,,,,
null,,learn_phase(without_color),341498,black_plus_sign,,,,null,GW/globe.jpg,GW/dustpan.jpg,,,,,,,,,,,,
null,,black_cross(without_color),342337,blue,,,,null,GW/globe.jpg,GW/dustpan.jpg,,,,,,,,,,,,
null,,rt_plussign_withcolor,342849,blue,,,,null,GW/globe.jpg,GW/dustpan.jpg,,,,,,,,,,,,
536.7000000476837,,rt_thecrossant_black,344019,black_plus_sign,,,,49,,,1,0.9387755102040817,,,,,,,,,,
null,,color_black,344136,black_plus_sign,,,,null,,,,,,,,,,,,,,
null,,learn_phase(without_color),346147,black_plus_sign,,,,null,GW/paint.jpg,GW/hat.jpg,,,,,,,,,,,,
null,,black_cross(without_color),347020,green,,,,null,GW/paint.jpg,GW/hat.jpg,,,,,,,,,,,,
488.2999999523163,,rt_plussign_withcolor,347523,green,,,,50,GW/paint.jpg,GW/hat.jpg,,,,,,,,,,,,
null,,rt_thecrossant_black,348670,black_plus_sign,,,,null,,,1,0.94,,,,,,,,,,
null,,color_black,348777,black_plus_sign,,,,null,,,,,,,,,,,,,,
null,,learn_phase(without_color),350783,black_plus_sign,,,,null,GW/teeth.jpg,GW/hat.jpg,,,,,,,,,,,,
null,,black_cross(without_color),351492,blue,,,,null,GW/teeth.jpg,GW/hat.jpg,,,,,,,,,,,,
null,,rt_plussign_withcolor,352005,blue,,,,null,GW/teeth.jpg,GW/hat.jpg,,,,,,,,,,,,
982.8999998569489,,rt_thecrossant_black,353324,black_plus_sign,,,,49,,,1,0.9411764705882353,,,,,,,,,,
null,,color_black,353439,black_plus_sign,,,,null,,,,,,,,,,,,,,
null,,learn_phase(without_color),355449,black_plus_sign,,,,null,GW/camera.jpg,GW/teeth.jpg,,,,,,,,,,,,
null,,black_cross(without_color),356467,blue,,,,null,GW/camera.jpg,GW/teeth.jpg,,,,,,,,,,,,
429.59999990463257,,rt_plussign_withcolor,356983,blue,,,,49,GW/camera.jpg,GW/teeth.jpg,,,,,,,,,,,,
null,,rt_thecrossant_black,357983,black_plus_sign,,,,null,,,1,0.9423076923076923,,,,,,,,,,
null,,color_black,358100,black_plus_sign,,,,null,,,,,,,,,,,,,,
null,,learn_phase(without_color),360110,black_plus_sign,,,,null,GW/dustpan.jpg,GW/paint.jpg,,,,,,,,,,,,
null,,black_cross(without_color),361066,blue,,,,null,GW/dustpan.jpg,GW/paint.jpg,,,,,,,,,,,,
null,,rt_plussign_withcolor,361575,blue,,,,null,GW/dustpan.jpg,GW/paint.jpg,,,,,,,,,,,,
1208.6000001430511,,rt_thecrossant_black,362645,black_plus_sign,,,,49,,,1,0.9433962264150944,,,,,,,,,,
null,,color_black,362761,black_plus_sign,,,,null,,,,,,,,,,,,,,
null,,learn_phase(without_color),364773,black_plus_sign,,,,null,GW/barrel.jpg,GW/gong.jpg,,,,,,,,,,,,
null,,black_cross(without_color),365459,blue,,,,null,GW/barrel.jpg,GW/gong.jpg,,,,,,,,,,,,
null,,rt_plussign_withcolor,365970,blue,,,,null,GW/barrel.jpg,GW/gong.jpg,,,,,,,,,,,,
1173.0999999046326,,rt_thecrossant_black,367307,black_plus_sign,,,,49,,,1,0.9444444444444444,,,,,,,,,,
null,,color_black,367423,black_plus_sign,,,,null,,,,,,,,,,,,,,
null,,learn_phase(without_color),369433,black_plus_sign,,,,null,GW/camera.jpg,GW/teeth.jpg,,,,,,,,,,,,
null,,black_cross(without_color),370260,blue,,,,null,GW/camera.jpg,GW/teeth.jpg,,,,,,,,,,,,
468.2000000476837,,rt_plussign_withcolor,370770,blue,,,,49,GW/camera.jpg,GW/teeth.jpg,,,,,,,,,,,,
null,,rt_thecrossant_black,371973,black_plus_sign,,,,null,,,1,0.9454545454545454,,,,,,,,,,
null,,color_black,372084,black_plus_sign,,,,null,,,,,,,,,,,,,,
null,,learn_phase(without_color),374095,black_plus_sign,,,,null,GW/globe.jpg,GW/dustpan.jpg,,,,,,,,,,,,
null,,black_cross(without_color),375006,green,,,,null,GW/globe.jpg,GW/dustpan.jpg,,,,,,,,,,,,
null,,rt_plussign_withcolor,375511,green,,,,null,GW/globe.jpg,GW/dustpan.jpg,,,,,,,,,,,,
923.2000000476837,,rt_thecrossant_black,376614,black_plus_sign,,,,50,,,1,0.9464285714285714,,,,,,,,,,
null,,color_black,376729,black_plus_sign,,,,null,,,,,,,,,,,,,,
null,,learn_phase(without_color),378739,black_plus_sign,,,,null,GW/barrel.jpg,GW/basket.jpg,,,,,,,,,,,,
null,,black_cross(without_color),379487,blue,,,,null,GW/barrel.jpg,GW/basket.jpg,,,,,,,,,,,,
null,,rt_plussign_withcolor,380001,blue,,,,null,GW/barrel.jpg,GW/basket.jpg,,,,,,,,,,,,
1029.9000000953674,,rt_thecrossant_black,381266,black_plus_sign,,,,49,,,1,0.9473684210526315,,,,,,,,,,
null,,color_black,381372,black_plus_sign,,,,null,,,,,,,,,,,,,,
null,,learn_phase(without_color),383376,black_plus_sign,,,,null,GW/globe.jpg,GW/dustpan.jpg,,,,,,,,,,,,
null,,black_cross(without_color),384339,blue,,,,null,GW/globe.jpg,GW/dustpan.jpg,,,,,,,,,,,,
433.7999999523163,,rt_plussign_withcolor,384850,blue,,,,49,GW/globe.jpg,GW/dustpan.jpg,,,,,,,,,,,,
null,,rt_thecrossant_black,385916,black_plus_sign,,,,null,,,1,0.9482758620689655,,,,,,,,,,
null,,color_black,386033,black_plus_sign,,,,null,,,,,,,,,,,,,,
null,,learn_phase(without_color),388042,black_plus_sign,,,,null,GW/dustpan.jpg,GW/paint.jpg,,,,,,,,,,,,
null,,black_cross(without_color),388953,green,,,,null,GW/dustpan.jpg,GW/paint.jpg,,,,,,,,,,,,
null,,rt_plussign_withcolor,389456,green,,,,null,GW/dustpan.jpg,GW/paint.jpg,,,,,,,,,,,,
1337.7000000476837,,rt_thecrossant_black,390563,black_plus_sign,,,,50,,,1,0.9491525423728814,,,,,,,,,,
null,,color_black,390680,black_plus_sign,,,,null,,,,,,,,,,,,,,
null,,learn_phase(without_color),392687,black_plus_sign,,,,null,GW/paint.jpg,GW/wheelchair.jpg,,,,,,,,,,,,
null,,black_cross(without_color),393323,green,,,,null,GW/paint.jpg,GW/wheelchair.jpg,,,,,,,,,,,,
null,,rt_plussign_withcolor,393836,green,,,,null,GW/paint.jpg,GW/wheelchair.jpg,,,,,,,,,,,,
1241.7000000476837,,rt_thecrossant_black,395229,black_plus_sign,,,,49,,,0,0.9333333333333333,,,,,,,,,,
null,,color_black,395338,black_plus_sign,,,,null,,,,,,,,,,,,,,
null,,learn_phase(without_color),397355,black_plus_sign,,,,null,GW/camera.jpg,GW/snail.jpg,,,,,,,,,,,,
null,,black_cross(without_color),397849,green,,,,null,GW/camera.jpg,GW/snail.jpg,,,,,,,,,,,,
null,,rt_plussign_withcolor,398358,green,,,,null,GW/camera.jpg,GW/snail.jpg,,,,,,,,,,,,
780.9000000953674,,rt_thecrossant_black,399888,black_plus_sign,,,,50,,,1,0.9344262295081968,,,,,,,,,,
null,,color_black,399999,black_plus_sign,,,,null,,,,,,,,,,,,,,
null,,learn_phase(without_color),402008,black_plus_sign,,,,null,GW/dustpan.jpg,GW/paint.jpg,,,,,,,,,,,,
null,,black_cross(without_color),402618,green,,,,null,GW/dustpan.jpg,GW/paint.jpg,,,,,,,,,,,,
null,,rt_plussign_withcolor,403124,green,,,,null,GW/dustpan.jpg,GW/paint.jpg,,,,,,,,,,,,
947.7000000476837,,rt_thecrossant_black,404538,black_plus_sign,,,,50,,,1,0.9354838709677419,,,,,,,,,,
null,,color_black,404643,black_plus_sign,,,,null,,,,,,,,,,,,,,
null,,learn_phase(without_color),406655,black_plus_sign,,,,null,GW/paint.jpg,GW/wheelchair.jpg,,,,,,,,,,,,
null,,black_cross(without_color),407377,green,,,,null,GW/paint.jpg,GW/wheelchair.jpg,,,,,,,,,,,,
463.2999999523163,,rt_plussign_withcolor,407890,green,,,,50,GW/paint.jpg,GW/wheelchair.jpg,,,,,,,,,,,,
null,,rt_thecrossant_black,409187,black_plus_sign,,,,null,,,1,0.9365079365079365,,,,,,,,,,
null,,color_black,409304,black_plus_sign,,,,null,,,,,,,,,,,,,,
null,,learn_phase(without_color),411314,black_plus_sign,,,,null,GW/teeth.jpg,GW/hat.jpg,,,,,,,,,,,,
null,,black_cross(without_color),411876,blue,,,,null,GW/teeth.jpg,GW/hat.jpg,,,,,,,,,,,,
null,,rt_plussign_withcolor,412380,blue,,,,null,GW/teeth.jpg,GW/hat.jpg,,,,,,,,,,,,
929.2000000476837,,rt_thecrossant_black,413842,black_plus_sign,,,,49,,,1,0.9375,,,,,,,,,,
null,,color_black,413948,black_plus_sign,,,,null,,,,,,,,,,,,,,
null,,learn_phase(without_color),415960,black_plus_sign,,,,null,GW/hat.jpg,GW/gong.jpg,,,,,,,,,,,,
null,,black_cross(without_color),416869,green,,,,null,GW/hat.jpg,GW/gong.jpg,,,,,,,,,,,,
440,,rt_plussign_withcolor,417376,green,,,,50,GW/hat.jpg,GW/gong.jpg,,,,,,,,,,,,
null,,rt_thecrossant_black,418485,black_plus_sign,,,,null,,,1,0.9384615384615385,,,,,,,,,,
null,,color_black,418592,black_plus_sign,,,,null,,,,,,,,,,,,,,
null,,learn_phase(without_color),420605,black_plus_sign,,,,null,GW/dustpan.jpg,GW/barrel.jpg,,,,,,,,,,,,
null,,black_cross(without_color),421278,green,,,,null,GW/dustpan.jpg,GW/barrel.jpg,,,,,,,,,,,,
null,,rt_plussign_withcolor,421784,green,,,,null,GW/dustpan.jpg,GW/barrel.jpg,,,,,,,,,,,,
1279.2999999523163,,rt_thecrossant_black,423138,black_plus_sign,,,,50,,,1,0.9393939393939394,,,,,,,,,,
null,,color_black,423254,black_plus_sign,,,,null,,,,,,,,,,,,,,
null,,learn_phase(without_color),425261,black_plus_sign,,,,null,GW/barrel.jpg,GW/gong.jpg,,,,,,,,,,,,
null,,black_cross(without_color),426003,green,,,,null,GW/barrel.jpg,GW/gong.jpg,,,,,,,,,,,,
null,,rt_plussign_withcolor,426514,green,,,,null,GW/barrel.jpg,GW/gong.jpg,,,,,,,,,,,,
1025.5999999046326,,rt_thecrossant_black,427782,black_plus_sign,,,,50,,,1,0.9402985074626866,,,,,,,,,,
null,,color_black,427898,black_plus_sign,,,,null,,,,,,,,,,,,,,
null,,learn_phase(without_color),429905,black_plus_sign,,,,null,GW/paint.jpg,GW/wheelchair.jpg,,,,,,,,,,,,
null,,black_cross(without_color),430820,green,,,,null,GW/paint.jpg,GW/wheelchair.jpg,,,,,,,,,,,,
397.7000000476837,,rt_plussign_withcolor,431324,green,,,,50,GW/paint.jpg,GW/wheelchair.jpg,,,,,,,,,,,,
null,,rt_thecrossant_black,432423,black_plus_sign,,,,null,,,1,0.9411764705882353,,,,,,,,,,
null,,color_black,432525,black_plus_sign,,,,null,,,,,,,,,,,,,,
null,,learn_phase(without_color),434538,black_plus_sign,,,,null,GW/dustpan.jpg,GW/barrel.jpg,,,,,,,,,,,,
null,,black_cross(without_color),435588,blue,,,,null,GW/dustpan.jpg,GW/barrel.jpg,,,,,,,,,,,,
null,,rt_plussign_withcolor,436101,blue,,,,null,GW/dustpan.jpg,GW/barrel.jpg,,,,,,,,,,,,
1062.5,,rt_thecrossant_black,437058,black_plus_sign,,,,49,,,1,0.9420289855072463,,,,,,,,,,
null,,color_black,437170,black_plus_sign,,,,null,,,,,,,,,,,,,,
null,,learn_phase(without_color),439179,black_plus_sign,,,,null,GW/soldier.jpg,GW/jukebox.jpg,,,,,,,,,,,,
null,,black_cross(without_color),439965,blue,,,,null,GW/soldier.jpg,GW/jukebox.jpg,,,,,,,,,,,,
null,,rt_plussign_withcolor,440476,blue,,,,null,GW/soldier.jpg,GW/jukebox.jpg,,,,,,,,,,,,
1357.2999999523163,,rt_thecrossant_black,441711,black_plus_sign,,,,49,,,1,0.9428571428571428,,,,,,,,,,
null,,color_black,441814,black_plus_sign,,,,null,,,,,,,,,,,,,,
null,,learn_phase(without_color),443816,black_plus_sign,,,,null,GW/globe.jpg,GW/dustpan.jpg,,,,,,,,,,,,
null,,black_cross(without_color),444784,blue,,,,null,GW/globe.jpg,GW/dustpan.jpg,,,,,,,,,,,,
null,,rt_plussign_withcolor,445288,blue,,,,null,GW/globe.jpg,GW/dustpan.jpg,,,,,,,,,,,,
1061.5,,rt_thecrossant_black,446336,black_plus_sign,,,,49,,,1,0.9436619718309859,,,,,,,,,,
null,,color_black,446441,black_plus_sign,,,,null,,,,,,,,,,,,,,
null,,learn_phase(without_color),448457,black_plus_sign,,,,null,GW/soldier.jpg,GW/teeth.jpg,,,,,,,,,,,,
null,,black_cross(without_color),448891,blue,,,,null,GW/soldier.jpg,GW/teeth.jpg,,,,,,,,,,,,
null,,rt_plussign_withcolor,449395,blue,,,,null,GW/soldier.jpg,GW/teeth.jpg,,,,,,,,,,,,
1508.3000001907349,,rt_thecrossant_black,450987,black_plus_sign,,,,49,,,1,0.9444444444444444,,,,,,,,,,
null,,color_black,451103,black_plus_sign,,,,null,,,,,,,,,,,,,,
null,,learn_phase(without_color),453112,black_plus_sign,,,,null,GW/barrel.jpg,GW/basket.jpg,,,,,,,,,,,,
null,,black_cross(without_color),453644,green,,,,null,GW/barrel.jpg,GW/basket.jpg,,,,,,,,,,,,
null,,rt_plussign_withcolor,454147,green,,,,null,GW/barrel.jpg,GW/basket.jpg,,,,,,,,,,,,
779.7000000476837,,rt_thecrossant_black,455633,black_plus_sign,,,,50,,,1,0.9452054794520548,,,,,,,,,,
null,,color_black,455747,black_plus_sign,,,,null,,,,,,,,,,,,,,
null,,learn_phase(without_color),457761,black_plus_sign,,,,null,GW/paint.jpg,GW/hat.jpg,,,,,,,,,,,,
null,,black_cross(without_color),458802,blue,,,,null,GW/paint.jpg,GW/hat.jpg,,,,,,,,,,,,
null,,rt_plussign_withcolor,459308,blue,,,,null,GW/paint.jpg,GW/hat.jpg,,,,,,,,,,,,
794.3999998569489,,rt_thecrossant_black,460289,black_plus_sign,,,,49,,,1,0.9459459459459459,,,,,,,,,,
null,,color_black,460394,black_plus_sign,,,,null,,,,,,,,,,,,,,
null,,learn_phase(without_color),462411,black_plus_sign,,,,null,GW/barrel.jpg,GW/basket.jpg,,,,,,,,,,,,
null,,black_cross(without_color),463126,green,,,,null,GW/barrel.jpg,GW/basket.jpg,,,,,,,,,,,,
null,,rt_plussign_withcolor,463633,green,,,,null,GW/barrel.jpg,GW/basket.jpg,,,,,,,,,,,,
1319.2999999523163,,rt_thecrossant_black,464943,black_plus_sign,,,,50,,,1,0.9466666666666667,,,,,,,,,,
null,,color_black,465051,black_plus_sign,,,,null,,,,,,,,,,,,,,
null,,learn_phase(without_color),467058,black_plus_sign,,,,null,GW/dustpan.jpg,GW/barrel.jpg,,,,,,,,,,,,
null,,black_cross(without_color),467954,green,,,,null,GW/dustpan.jpg,GW/barrel.jpg,,,,,,,,,,,,
null,,rt_plussign_withcolor,468466,green,,,,null,GW/dustpan.jpg,GW/barrel.jpg,,,,,,,,,,,,
1286.0999999046326,,rt_thecrossant_black,469597,black_plus_sign,,,,50,,,1,0.9473684210526315,,,,,,,,,,
null,,color_black,469713,black_plus_sign,,,,null,,,,,,,,,,,,,,
null,,learn_phase(without_color),471719,black_plus_sign,,,,null,GW/barrel.jpg,GW/basket.jpg,,,,,,,,,,,,
null,,black_cross(without_color),472805,green,,,,null,GW/barrel.jpg,GW/basket.jpg,,,,,,,,,,,,
355.90000009536743,,rt_plussign_withcolor,473314,green,,,,50,GW/barrel.jpg,GW/basket.jpg,,,,,,,,,,,,
null,,rt_thecrossant_black,474241,black_plus_sign,,,,null,,,1,0.948051948051948,,,,,,,,,,
null,,color_black,474347,black_plus_sign,,,,null,,,,,,,,,,,,,,
null,,learn_phase(without_color),476362,black_plus_sign,,,,null,GW/globe.jpg,GW/dustpan.jpg,,,,,,,,,,,,
null,,black_cross(without_color),477038,green,,,,null,GW/globe.jpg,GW/dustpan.jpg,,,,,,,,,,,,
null,,rt_plussign_withcolor,477549,green,,,,null,GW/globe.jpg,GW/dustpan.jpg,,,,,,,,,,,,
1312.2999999523163,,rt_thecrossant_black,478886,black_plus_sign,,,,50,,,1,0.9487179487179487,,,,,,,,,,
null,,color_black,478988,black_plus_sign,,,,null,,,,,,,,,,,,,,
null,,learn_phase(without_color),481005,black_plus_sign,,,,null,GW/soldier.jpg,GW/jukebox.jpg,,,,,,,,,,,,
null,,black_cross(without_color),481542,green,,,,null,GW/soldier.jpg,GW/jukebox.jpg,,,,,,,,,,,,
null,,rt_plussign_withcolor,482043,green,,,,null,GW/soldier.jpg,GW/jukebox.jpg,,,,,,,,,,,,
973.6000001430511,,rt_thecrossant_black,483513,black_plus_sign,,,,50,,,1,0.9493670886075949,,,,,,,,,,
null,,color_black,483630,black_plus_sign,,,,null,,,,,,,,,,,,,,
null,,learn_phase(without_color),485633,black_plus_sign,,,,null,GW/paint.jpg,GW/wheelchair.jpg,,,,,,,,,,,,
null,,black_cross(without_color),486606,blue,,,,null,GW/paint.jpg,GW/wheelchair.jpg,,,,,,,,,,,,
null,,rt_plussign_withcolor,487117,blue,,,,null,GW/paint.jpg,GW/wheelchair.jpg,,,,,,,,,,,,
737,,rt_thecrossant_black,488155,black_plus_sign,,,,49,,,1,0.95,,,,,,,,,,
null,,color_black,488260,black_plus_sign,,,,null,,,,,,,,,,,,,,
null,,learn_phase(without_color),490277,black_plus_sign,,,,null,GW/wheelchair.jpg,GW/teeth.jpg,,,,,,,,,,,,
null,,black_cross(without_color),490876,blue,,,,null,GW/wheelchair.jpg,GW/teeth.jpg,,,,,,,,,,,,
null,,rt_plussign_withcolor,491381,blue,,,,null,GW/wheelchair.jpg,GW/teeth.jpg,,,,,,,,,,,,
1219.9000000953674,,rt_thecrossant_black,492799,black_plus_sign,,,,49,,,1,0.9506172839506173,,,,,,,,,,
null,,color_black,492904,black_plus_sign,,,,null,,,,,,,,,,,,,,
null,,learn_phase(without_color),494912,black_plus_sign,,,,null,GW/hat.jpg,GW/gong.jpg,,,,,,,,,,,,
null,,black_cross(without_color),495457,blue,,,,null,GW/hat.jpg,GW/gong.jpg,,,,,,,,,,,,
null,,rt_plussign_withcolor,495959,blue,,,,null,GW/hat.jpg,GW/gong.jpg,,,,,,,,,,,,
770.2999999523163,,rt_thecrossant_black,497435,black_plus_sign,,,,49,,,1,0.9512195121951219,,,,,,,,,,
null,,color_black,497545,black_plus_sign,,,,null,,,,,,,,,,,,,,
null,,learn_phase(without_color),499555,black_plus_sign,,,,null,GW/paint.jpg,GW/wheelchair.jpg,,,,,,,,,,,,
null,,black_cross(without_color),500461,green,,,,null,GW/paint.jpg,GW/wheelchair.jpg,,,,,,,,,,,,
345.09999990463257,,rt_plussign_withcolor,500967,green,,,,50,GW/paint.jpg,GW/wheelchair.jpg,,,,,,,,,,,,
null,,rt_thecrossant_black,502082,black_plus_sign,,,,null,,,1,0.9518072289156626,,,,,,,,,,
null,,color_black,502189,black_plus_sign,,,,null,,,,,,,,,,,,,,
null,,learn_phase(without_color),504199,black_plus_sign,,,,null,GW/hat.jpg,GW/gong.jpg,,,,,,,,,,,,
null,,black_cross(without_color),504978,blue,,,,null,GW/hat.jpg,GW/gong.jpg,,,,,,,,,,,,
null,,rt_plussign_withcolor,505480,blue,,,,null,GW/hat.jpg,GW/gong.jpg,,,,,,,,,,,,
1359.2000000476837,,rt_thecrossant_black,506719,black_plus_sign,,,,49,,,1,0.9523809523809523,,,,,,,,,,
null,,color_black,506834,black_plus_sign,,,,null,,,,,,,,,,,,,,
null,,learn_phase(without_color),508851,black_plus_sign,,,,null,GW/barrel.jpg,GW/gong.jpg,,,,,,,,,,,,
null,,black_cross(without_color),509532,blue,,,,null,GW/barrel.jpg,GW/gong.jpg,,,,,,,,,,,,
null,,rt_plussign_withcolor,510040,blue,,,,null,GW/barrel.jpg,GW/gong.jpg,,,,,,,,,,,,
1261.8000001907349,,rt_thecrossant_black,511380,black_plus_sign,,,,49,,,1,0.9529411764705882,,,,,,,,,,
null,,color_black,511495,black_plus_sign,,,,null,,,,,,,,,,,,,,
null,,learn_phase(without_color),513501,black_plus_sign,,,,null,GW/soldier.jpg,GW/teeth.jpg,,,,,,,,,,,,
null,,black_cross(without_color),514104,green,,,,null,GW/soldier.jpg,GW/teeth.jpg,,,,,,,,,,,,
null,,rt_plussign_withcolor,514606,green,,,,null,GW/soldier.jpg,GW/teeth.jpg,,,,,,,,,,,,
788.3999998569489,,rt_thecrossant_black,516022,black_plus_sign,,,,50,,,1,0.9534883720930233,,,,,,,,,,
null,,color_black,516139,black_plus_sign,,,,null,,,,,,,,,,,,,,
null,,learn_phase(without_color),518153,black_plus_sign,,,,null,GW/soldier.jpg,GW/camera.jpg,,,,,,,,,,,,
null,,black_cross(without_color),518956,blue,,,,null,GW/soldier.jpg,GW/camera.jpg,,,,,,,,,,,,
null,,rt_plussign_withcolor,519464,blue,,,,null,GW/soldier.jpg,GW/camera.jpg,,,,,,,,,,,,
712.2000000476837,,rt_thecrossant_black,520680,black_plus_sign,,,,49,,,1,0.9540229885057471,,,,,,,,,,
null,,color_black,520796,black_plus_sign,,,,null,,,,,,,,,,,,,,
null,,learn_phase(without_color),522806,black_plus_sign,,,,null,GW/soldier.jpg,GW/jukebox.jpg,,,,,,,,,,,,
null,,black_cross(without_color),523292,green,,,,null,GW/soldier.jpg,GW/jukebox.jpg,,,,,,,,,,,,
null,,rt_plussign_withcolor,523807,green,,,,null,GW/soldier.jpg,GW/jukebox.jpg,,,,,,,,,,,,
1008,,rt_thecrossant_black,525336,black_plus_sign,,,,50,,,1,0.9545454545454546,,,,,,,,,,
null,,color_black,525443,black_plus_sign,,,,null,,,,,,,,,,,,,,
null,,learn_phase(without_color),527453,black_plus_sign,,,,null,GW/dustpan.jpg,GW/barrel.jpg,,,,,,,,,,,,
null,,black_cross(without_color),527955,green,,,,null,GW/dustpan.jpg,GW/barrel.jpg,,,,,,,,,,,,
null,,rt_plussign_withcolor,528466,green,,,,null,GW/dustpan.jpg,GW/barrel.jpg,,,,,,,,,,,,
838.4000000953674,,rt_thecrossant_black,529977,black_plus_sign,,,,50,,,1,0.9550561797752809,,,,,,,,,,
null,,color_black,530088,black_plus_sign,,,,null,,,,,,,,,,,,,,
null,,learn_phase(without_color),532100,black_plus_sign,,,,null,GW/soldier.jpg,GW/teeth.jpg,,,,,,,,,,,,
null,,black_cross(without_color),533119,green,,,,null,GW/soldier.jpg,GW/teeth.jpg,,,,,,,,,,,,
470.2999999523163,,rt_plussign_withcolor,533634,green,,,,50,GW/soldier.jpg,GW/teeth.jpg,,,,,,,,,,,,
null,,rt_thecrossant_black,534635,black_plus_sign,,,,null,,,1,0.9555555555555556,,,,,,,,,,
null,,color_black,534748,black_plus_sign,,,,null,,,,,,,,,,,,,,
null,,learn_phase(without_color),536761,black_plus_sign,,,,null,GW/dustpan.jpg,GW/paint.jpg,,,,,,,,,,,,
null,,black_cross(without_color),537664,blue,,,,null,GW/dustpan.jpg,GW/paint.jpg,,,,,,,,,,,,
null,,rt_plussign_withcolor,538170,blue,,,,null,GW/dustpan.jpg,GW/paint.jpg,,,,,,,,,,,,
1317.7999999523163,,rt_thecrossant_black,539297,black_plus_sign,,,,49,,,1,0.9560439560439561,,,,,,,,,,
null,,color_black,539409,black_plus_sign,,,,null,,,,,,,,,,,,,,
null,,learn_phase(without_color),541419,black_plus_sign,,,,null,GW/camera.jpg,GW/snail.jpg,,,,,,,,,,,,
null,,black_cross(without_color),542452,blue,,,,null,GW/camera.jpg,GW/snail.jpg,,,,,,,,,,,,
null,,rt_plussign_withcolor,542965,blue,,,,null,GW/camera.jpg,GW/snail.jpg,,,,,,,,,,,,
1019.6999998092651,,rt_thecrossant_black,543956,black_plus_sign,,,,49,,,1,0.9565217391304348,,,,,,,,,,
null,,color_black,544071,black_plus_sign,,,,null,,,,,,,,,,,,,,
null,,learn_phase(without_color),546084,black_plus_sign,,,,null,GW/soldier.jpg,GW/teeth.jpg,,,,,,,,,,,,
null,,black_cross(without_color),547196,blue,,,,null,GW/soldier.jpg,GW/teeth.jpg,,,,,,,,,,,,
null,,rt_plussign_withcolor,547709,blue,,,,null,GW/soldier.jpg,GW/teeth.jpg,,,,,,,,,,,,
1335.7999999523163,,rt_thecrossant_black,548614,black_plus_sign,,,,49,,,1,0.956989247311828,,,,,,,,,,
null,,color_black,548730,black_plus_sign,,,,null,,,,,,,,,,,,,,
null,,learn_phase(without_color),550737,black_plus_sign,,,,null,GW/paint.jpg,GW/hat.jpg,,,,,,,,,,,,
null,,black_cross(without_color),551288,green,,,,null,GW/paint.jpg,GW/hat.jpg,,,,,,,,,,,,
null,,rt_plussign_withcolor,551791,green,,,,null,GW/paint.jpg,GW/hat.jpg,,,,,,,,,,,,
1393.7999999523163,,rt_thecrossant_black,553263,black_plus_sign,,,,50,,,1,0.9574468085106383,,,,,,,,,,
null,,color_black,553376,black_plus_sign,,,,null,,,,,,,,,,,,,,
null,,learn_phase(without_color),555388,black_plus_sign,,,,null,GW/dustpan.jpg,GW/barrel.jpg,,,,,,,,,,,,
null,,black_cross(without_color),556262,blue,,,,null,GW/dustpan.jpg,GW/barrel.jpg,,,,,,,,,,,,
459.5,,rt_plussign_withcolor,556772,blue,,,,49,GW/dustpan.jpg,GW/barrel.jpg,,,,,,,,,,,,
null,,rt_thecrossant_black,557930,black_plus_sign,,,,null,,,1,0.9578947368421052,,,,,,,,,,
null,,color_black,558037,black_plus_sign,,,,null,,,,,,,,,,,,,,
null,,learn_phase(without_color),560050,black_plus_sign,,,,null,GW/dustpan.jpg,GW/paint.jpg,,,,,,,,,,,,
null,,black_cross(without_color),560688,blue,,,,null,GW/dustpan.jpg,GW/paint.jpg,,,,,,,,,,,,
null,,rt_plussign_withcolor,561196,blue,,,,null,GW/dustpan.jpg,GW/paint.jpg,,,,,,,,,,,,
1424.7000000476837,,rt_thecrossant_black,562583,black_plus_sign,,,,49,,,1,0.9583333333333334,,,,,,,,,,
null,,color_black,562698,black_plus_sign,,,,null,,,,,,,,,,,,,,
null,,learn_phase(without_color),564702,black_plus_sign,,,,null,GW/teeth.jpg,GW/hat.jpg,,,,,,,,,,,,
null,,black_cross(without_color),565698,green,,,,null,GW/teeth.jpg,GW/hat.jpg,,,,,,,,,,,,
499.89999985694885,,rt_plussign_withcolor,566200,green,,,,50,GW/teeth.jpg,GW/hat.jpg,,,,,,,,,,,,
null,,rt_thecrossant_black,567211,black_plus_sign,,,,null,,,1,0.9587628865979382,,,,,,,,,,
null,,color_black,567326,black_plus_sign,,,,null,,,,,,,,,,,,,,
null,,learn_phase(without_color),569328,black_plus_sign,,,,null,GW/dustpan.jpg,GW/barrel.jpg,,,,,,,,,,,,
null,,black_cross(without_color),569795,blue,,,,null,GW/dustpan.jpg,GW/barrel.jpg,,,,,,,,,,,,
null,,rt_plussign_withcolor,570307,blue,,,,null,GW/dustpan.jpg,GW/barrel.jpg,,,,,,,,,,,,
1769.5,,rt_thecrossant_black,571854,black_plus_sign,,,,49,,,1,0.9591836734693877,,,,,,,,,,
null,,color_black,571972,black_plus_sign,,,,null,,,,,,,,,,,,,,
null,,learn_phase(without_color),573986,black_plus_sign,,,,null,GW/soldier.jpg,GW/camera.jpg,,,,,,,,,,,,
null,,black_cross(without_color),575066,green,,,,null,GW/soldier.jpg,GW/camera.jpg,,,,,,,,,,,,
null,,rt_plussign_withcolor,575568,green,,,,null,GW/soldier.jpg,GW/camera.jpg,,,,,,,,,,,,
902.2000000476837,,rt_thecrossant_black,576500,black_plus_sign,,,,50,,,1,0.9595959595959596,,,,,,,,,,
null,,color_black,576615,black_plus_sign,,,,null,,,,,,,,,,,,,,
null,,learn_phase(without_color),578629,black_plus_sign,,,,null,GW/wheelchair.jpg,GW/soldier.jpg,,,,,,,,,,,,
null,,black_cross(without_color),579167,green,,,,null,GW/wheelchair.jpg,GW/soldier.jpg,,,,,,,,,,,,
null,,rt_plussign_withcolor,579672,green,,,,null,GW/wheelchair.jpg,GW/soldier.jpg,,,,,,,,,,,,
1420,,rt_thecrossant_black,581165,black_plus_sign,,,,50,,,1,0.96,,,,,,,,,,
null,,color_black,581274,black_plus_sign,,,,null,,,,,,,,,,,,,,
null,,learn_phase(without_color),583285,black_plus_sign,,,,null,GW/barrel.jpg,GW/basket.jpg,,,,,,,,,,,,
null,,black_cross(without_color),584133,blue,,,,null,GW/barrel.jpg,GW/basket.jpg,,,,,,,,,,,,
498.2000000476837,,rt_plussign_withcolor,584634,blue,,,,49,GW/barrel.jpg,GW/basket.jpg,,,,,,,,,,,,
null,,rt_thecrossant_black,585809,black_plus_sign,,,,null,,,1,0.9603960396039604,,,,,,,,,,
null,,color_black,585918,black_plus_sign,,,,null,,,,,,,,,,,,,,
null,,learn_phase(without_color),587929,black_plus_sign,,,,null,GW/soldier.jpg,GW/jukebox.jpg,,,,,,,,,,,,
null,,black_cross(without_color),588411,green,,,,null,GW/soldier.jpg,GW/jukebox.jpg,,,,,,,,,,,,
364.7999999523163,,rt_plussign_withcolor,588918,green,,,,50,GW/soldier.jpg,GW/jukebox.jpg,,,,,,,,,,,,
null,,rt_thecrossant_black,590452,black_plus_sign,,,,null,,,1,0.9607843137254902,,,,,,,,,,
null,,color_black,590562,black_plus_sign,,,,null,,,,,,,,,,,,,,
null,,learn_phase(without_color),592573,black_plus_sign,,,,null,GW/teeth.jpg,GW/hat.jpg,,,,,,,,,,,,
null,,black_cross(without_color),593513,blue,,,,null,GW/teeth.jpg,GW/hat.jpg,,,,,,,,,,,,
null,,rt_plussign_withcolor,594021,blue,,,,null,GW/teeth.jpg,GW/hat.jpg,,,,,,,,,,,,
613.2999999523163,,rt_thecrossant_black,595104,black_plus_sign,,,,49,,,1,0.9611650485436893,,,,,,,,,,
null,,color_black,595207,black_plus_sign,,,,null,,,,,,,,,,,,,,
null,,learn_phase(without_color),597219,black_plus_sign,,,,null,GW/dustpan.jpg,GW/barrel.jpg,,,,,,,,,,,,
null,,black_cross(without_color),597952,green,,,,null,GW/dustpan.jpg,GW/barrel.jpg,,,,,,,,,,,,
null,,rt_plussign_withcolor,598457,green,,,,null,GW/dustpan.jpg,GW/barrel.jpg,,,,,,,,,,,,
1038.6999998092651,,rt_thecrossant_black,599750,black_plus_sign,,,,50,,,1,0.9615384615384616,,,,,,,,,,
null,,color_black,599865,black_plus_sign,,,,null,,,,,,,,,,,,,,
null,,learn_phase(without_color),601879,black_plus_sign,,,,null,GW/soldier.jpg,GW/jukebox.jpg,,,,,,,,,,,,
null,,black_cross(without_color),602664,green,,,,null,GW/soldier.jpg,GW/jukebox.jpg,,,,,,,,,,,,
null,,rt_plussign_withcolor,603176,green,,,,null,GW/soldier.jpg,GW/jukebox.jpg,,,,,,,,,,,,
887.9000000953674,,rt_thecrossant_black,604400,black_plus_sign,,,,50,,,1,0.9619047619047619,,,,,,,,,,
null,,color_black,604512,black_plus_sign,,,,null,,,,,,,,,,,,,,
null,,learn_phase(without_color),606522,black_plus_sign,,,,null,GW/camera.jpg,GW/snail.jpg,,,,,,,,,,,,
null,,black_cross(without_color),607509,blue,,,,null,GW/camera.jpg,GW/snail.jpg,,,,,,,,,,,,
null,,rt_plussign_withcolor,608021,blue,,,,null,GW/camera.jpg,GW/snail.jpg,,,,,,,,,,,,
927.7000000476837,,rt_thecrossant_black,609056,black_plus_sign,,,,49,,,1,0.9622641509433962,,,,,,,,,,
null,,color_black,609173,black_plus_sign,,,,null,,,,,,,,,,,,,,
null,,learn_phase(without_color),611184,black_plus_sign,,,,null,GW/paint.jpg,GW/hat.jpg,,,,,,,,,,,,
null,,black_cross(without_color),612267,green,,,,null,GW/paint.jpg,GW/hat.jpg,,,,,,,,,,,,
408.60000014305115,,rt_plussign_withcolor,612783,green,,,,50,GW/paint.jpg,GW/hat.jpg,,,,,,,,,,,,
null,,rt_thecrossant_black,613724,black_plus_sign,,,,null,,,1,0.9626168224299065,,,,,,,,,,
null,,color_black,613834,black_plus_sign,,,,null,,,,,,,,,,,,,,
null,,learn_phase(without_color),615847,black_plus_sign,,,,null,GW/dustpan.jpg,GW/barrel.jpg,,,,,,,,,,,,
null,,black_cross(without_color),616678,green,,,,null,GW/dustpan.jpg,GW/barrel.jpg,,,,,,,,,,,,
null,,rt_plussign_withcolor,617190,green,,,,null,GW/dustpan.jpg,GW/barrel.jpg,,,,,,,,,,,,
1282.9000000953674,,rt_thecrossant_black,618373,black_plus_sign,,,,50,,,1,0.9629629629629629,,,,,,,,,,
null,,color_black,618478,black_plus_sign,,,,null,,,,,,,,,,,,,,
null,,learn_phase(without_color),620489,black_plus_sign,,,,null,GW/dustpan.jpg,GW/paint.jpg,,,,,,,,,,,,
null,,black_cross(without_color),620940,green,,,,null,GW/dustpan.jpg,GW/paint.jpg,,,,,,,,,,,,
null,,rt_plussign_withcolor,621451,green,,,,null,GW/dustpan.jpg,GW/paint.jpg,,,,,,,,,,,,
1195.5999999046326,,rt_thecrossant_black,623020,black_plus_sign,,,,50,,,1,0.963302752293578,,,,,,,,,,
null,,color_black,623136,black_plus_sign,,,,null,,,,,,,,,,,,,,
null,,learn_phase(without_color),625149,black_plus_sign,,,,null,GW/soldier.jpg,GW/jukebox.jpg,,,,,,,,,,,,
null,,black_cross(without_color),626128,green,,,,null,GW/soldier.jpg,GW/jukebox.jpg,,,,,,,,,,,,
null,,rt_plussign_withcolor,626645,green,,,,null,GW/soldier.jpg,GW/jukebox.jpg,,,,,,,,,,,,
null,,rt_thecrossant_black,627683,black_plus_sign,,,,null,,,,0.963302752293578,,,,,,,,,,
null,,color_black,627786,black_plus_sign,,,,null,,,,,,,,,,,,,,
null,,learn_phase(without_color),629792,black_plus_sign,,,,null,GW/barrel.jpg,GW/gong.jpg,,,,,,,,,,,,
null,,black_cross(without_color),630376,green,,,,null,GW/barrel.jpg,GW/gong.jpg,,,,,,,,,,,,
420.2000000476837,,rt_plussign_withcolor,630882,green,,,,50,GW/barrel.jpg,GW/gong.jpg,,,,,,,,,,,,
null,,rt_thecrossant_black,632313,black_plus_sign,,,,null,,,1,0.9636363636363636,,,,,,,,,,
null,,color_black,632430,black_plus_sign,,,,null,,,,,,,,,,,,,,
null,,learn_phase(without_color),634436,black_plus_sign,,,,null,GW/wheelchair.jpg,GW/soldier.jpg,,,,,,,,,,,,
null,,black_cross(without_color),635263,blue,,,,null,GW/wheelchair.jpg,GW/soldier.jpg,,,,,,,,,,,,
null,,rt_plussign_withcolor,635769,blue,,,,null,GW/wheelchair.jpg,GW/soldier.jpg,,,,,,,,,,,,
751,,rt_thecrossant_black,636968,black_plus_sign,,,,49,,,1,0.963963963963964,,,,,,,,,,
null,,color_black,637085,black_plus_sign,,,,null,,,,,,,,,,,,,,
null,,learn_phase(without_color),639089,black_plus_sign,,,,null,GW/wheelchair.jpg,GW/teeth.jpg,,,,,,,,,,,,
null,,black_cross(without_color),640162,green,,,,null,GW/wheelchair.jpg,GW/teeth.jpg,,,,,,,,,,,,
399.5,,rt_plussign_withcolor,640666,green,,,,50,GW/wheelchair.jpg,GW/teeth.jpg,,,,,,,,,,,,
null,,rt_thecrossant_black,641607,black_plus_sign,,,,null,,,1,0.9642857142857143,,,,,,,,,,
null,,color_black,641715,black_plus_sign,,,,null,,,,,,,,,,,,,,
null,,learn_phase(without_color),643728,black_plus_sign,,,,null,GW/paint.jpg,GW/hat.jpg,,,,,,,,,,,,
null,,black_cross(without_color),644794,blue,,,,null,GW/paint.jpg,GW/hat.jpg,,,,,,,,,,,,
null,,rt_plussign_withcolor,645296,blue,,,,null,GW/paint.jpg,GW/hat.jpg,,,,,,,,,,,,
1196.0999999046326,,rt_thecrossant_black,646249,black_plus_sign,,,,50,,,0,0.9557522123893806,,,,,,,,,,
null,,color_black,646360,black_plus_sign,,,,null,,,,,,,,,,,,,,
null,,learn_phase(without_color),648366,black_plus_sign,,,,null,GW/camera.jpg,GW/snail.jpg,,,,,,,,,,,,
null,,black_cross(without_color),648885,blue,,,,null,GW/camera.jpg,GW/snail.jpg,,,,,,,,,,,,
474.5,,rt_plussign_withcolor,649386,blue,,,,49,GW/camera.jpg,GW/snail.jpg,,,,,,,,,,,,
null,,rt_thecrossant_black,650880,black_plus_sign,,,,null,,,1,0.956140350877193,,,,,,,,,,
null,,color_black,650988,black_plus_sign,,,,null,,,,,,,,,,,,,,
null,,learn_phase(without_color),652998,black_plus_sign,,,,null,GW/soldier.jpg,GW/camera.jpg,,,,,,,,,,,,
null,,black_cross(without_color),654018,blue,,,,null,GW/soldier.jpg,GW/camera.jpg,,,,,,,,,,,,
null,,rt_plussign_withcolor,654531,blue,,,,null,GW/soldier.jpg,GW/camera.jpg,,,,,,,,,,,,
665.7999999523163,,rt_thecrossant_black,655518,black_plus_sign,,,,49,,,1,0.9565217391304348,,,,,,,,,,
null,,color_black,655634,black_plus_sign,,,,null,,,,,,,,,,,,,,
null,,learn_phase(without_color),657646,black_plus_sign,,,,null,GW/hat.jpg,GW/gong.jpg,,,,,,,,,,,,
null,,black_cross(without_color),658143,green,,,,null,GW/hat.jpg,GW/gong.jpg,,,,,,,,,,,,
null,,rt_plussign_withcolor,658655,green,,,,null,GW/hat.jpg,GW/gong.jpg,,,,,,,,,,,,
1134.1000001430511,,rt_thecrossant_black,660180,black_plus_sign,,,,50,,,1,0.9568965517241379,,,,,,,,,,
null,,color_black,660294,black_plus_sign,,,,null,,,,,,,,,,,,,,
null,,learn_phase(without_color),662300,black_plus_sign,,,,null,GW/wheelchair.jpg,GW/teeth.jpg,,,,,,,,,,,,
null,,black_cross(without_color),662771,green,,,,null,GW/wheelchair.jpg,GW/teeth.jpg,,,,,,,,,,,,
null,,rt_plussign_withcolor,663282,green,,,,null,GW/wheelchair.jpg,GW/teeth.jpg,,,,,,,,,,,,
700.4000000953674,,rt_thecrossant_black,664830,black_plus_sign,,,,50,,,1,0.9572649572649573,,,,,,,,,,
null,,color_black,664937,black_plus_sign,,,,null,,,,,,,,,,,,,,
null,,learn_phase(without_color),666946,black_plus_sign,,,,null,GW/barrel.jpg,GW/basket.jpg,,,,,,,,,,,,
null,,black_cross(without_color),667934,green,,,,null,GW/barrel.jpg,GW/basket.jpg,,,,,,,,,,,,
null,,rt_plussign_withcolor,668446,green,,,,null,GW/barrel.jpg,GW/basket.jpg,,,,,,,,,,,,
573,,rt_thecrossant_black,669474,black_plus_sign,,,,50,,,1,0.9576271186440678,,,,,,,,,,
null,,color_black,669582,black_plus_sign,,,,null,,,,,,,,,,,,,,
null,,learn_phase(without_color),671591,black_plus_sign,,,,null,GW/globe.jpg,GW/dustpan.jpg,,,,,,,,,,,,
null,,black_cross(without_color),672105,blue,,,,null,GW/globe.jpg,GW/dustpan.jpg,,,,,,,,,,,,
null,,rt_plussign_withcolor,672622,blue,,,,null,GW/globe.jpg,GW/dustpan.jpg,,,,,,,,,,,,
1189,,rt_thecrossant_black,674136,black_plus_sign,,,,49,,,1,0.957983193277311,,,,,,,,,,
null,,color_black,674243,black_plus_sign,,,,null,,,,,,,,,,,,,,
null,,learn_phase(without_color),676253,black_plus_sign,,,,null,GW/hat.jpg,GW/gong.jpg,,,,,,,,,,,,
null,,black_cross(without_color),676675,blue,,,,null,GW/hat.jpg,GW/gong.jpg,,,,,,,,,,,,
null,,rt_plussign_withcolor,677186,blue,,,,null,GW/hat.jpg,GW/gong.jpg,,,,,,,,,,,,
701.0999999046326,,rt_thecrossant_black,678776,black_plus_sign,,,,49,,,1,0.9583333333333334,,,,,,,,,,
null,,color_black,678887,black_plus_sign,,,,null,,,,,,,,,,,,,,
null,,learn_phase(without_color),680892,black_plus_sign,,,,null,GW/soldier.jpg,GW/camera.jpg,,,,,,,,,,,,
null,,black_cross(without_color),681490,green,,,,null,GW/soldier.jpg,GW/camera.jpg,,,,,,,,,,,,
477.2000000476837,,rt_plussign_withcolor,681993,green,,,,50,GW/soldier.jpg,GW/camera.jpg,,,,,,,,,,,,
null,,rt_thecrossant_black,683420,black_plus_sign,,,,null,,,1,0.9586776859504132,,,,,,,,,,
null,,color_black,683531,black_plus_sign,,,,null,,,,,,,,,,,,,,
null,,learn_phase(without_color),685537,black_plus_sign,,,,null,GW/wheelchair.jpg,GW/teeth.jpg,,,,,,,,,,,,
null,,black_cross(without_color),686499,green,,,,null,GW/wheelchair.jpg,GW/teeth.jpg,,,,,,,,,,,,
467.2999999523163,,rt_plussign_withcolor,687011,green,,,,50,GW/wheelchair.jpg,GW/teeth.jpg,,,,,,,,,,,,
null,,rt_thecrossant_black,688070,black_plus_sign,,,,null,,,1,0.9590163934426229,,,,,,,,,,
null,,color_black,688174,black_plus_sign,,,,null,,,,,,,,,,,,,,
null,,learn_phase(without_color),690187,black_plus_sign,,,,null,GW/dustpan.jpg,GW/paint.jpg,,,,,,,,,,,,
null,,black_cross(without_color),690907,green,,,,null,GW/dustpan.jpg,GW/paint.jpg,,,,,,,,,,,,
null,,rt_plussign_withcolor,691424,green,,,,null,GW/dustpan.jpg,GW/paint.jpg,,,,,,,,,,,,
1129.3000001907349,,rt_thecrossant_black,692721,black_plus_sign,,,,50,,,1,0.959349593495935,,,,,,,,,,
null,,color_black,692823,black_plus_sign,,,,null,,,,,,,,,,,,,,
null,,learn_phase(without_color),694834,black_plus_sign,,,,null,GW/teeth.jpg,GW/hat.jpg,,,,,,,,,,,,
null,,black_cross(without_color),695265,blue,,,,null,GW/teeth.jpg,GW/hat.jpg,,,,,,,,,,,,
null,,rt_plussign_withcolor,695779,blue,,,,null,GW/teeth.jpg,GW/hat.jpg,,,,,,,,,,,,
842.4000000953674,,rt_thecrossant_black,697371,black_plus_sign,,,,49,,,1,0.9596774193548387,,,,,,,,,,
null,,color_black,697485,black_plus_sign,,,,null,,,,,,,,,,,,,,
null,,learn_phase(without_color),699503,black_plus_sign,,,,null,GW/paint.jpg,GW/wheelchair.jpg,,,,,,,,,,,,
null,,black_cross(without_color),700077,blue,,,,null,GW/paint.jpg,GW/wheelchair.jpg,,,,,,,,,,,,
null,,rt_plussign_withcolor,700588,blue,,,,null,GW/paint.jpg,GW/wheelchair.jpg,,,,,,,,,,,,
610.5999999046326,,rt_thecrossant_black,702025,black_plus_sign,,,,49,,,1,0.96,,,,,,,,,,
null,,color_black,702141,black_plus_sign,,,,null,,,,,,,,,,,,,,
null,,learn_phase(without_color),704145,black_plus_sign,,,,null,GW/paint.jpg,GW/hat.jpg,,,,,,,,,,,,
null,,black_cross(without_color),704823,blue,,,,null,GW/paint.jpg,GW/hat.jpg,,,,,,,,,,,,
null,,rt_plussign_withcolor,705334,blue,,,,null,GW/paint.jpg,GW/hat.jpg,,,,,,,,,,,,
777.6000001430511,,rt_thecrossant_black,706673,black_plus_sign,,,,49,,,1,0.9603174603174603,,,,,,,,,,
null,,color_black,706785,black_plus_sign,,,,null,,,,,,,,,,,,,,
null,,learn_phase(without_color),708797,black_plus_sign,,,,null,GW/soldier.jpg,GW/camera.jpg,,,,,,,,,,,,
null,,black_cross(without_color),709404,green,,,,null,GW/soldier.jpg,GW/camera.jpg,,,,,,,,,,,,
424,,rt_plussign_withcolor,709913,green,,,,50,GW/soldier.jpg,GW/camera.jpg,,,,,,,,,,,,
null,,rt_thecrossant_black,711325,black_plus_sign,,,,null,,,1,0.9606299212598425,,,,,,,,,,
null,,color_black,711443,black_plus_sign,,,,null,,,,,,,,,,,,,,
4882.900000095367,,intro_1,716329,instruct,,0,Start,,,,,,,,,,,,,,,
null,,directmemory_phase,722837,GW/wheelchair.jpg,,,,null,,,0,0,GW/camera.jpg,GW/soldier.jpg,GW/snail.jpg,GW/soldier.jpg,GW/camera.jpg,GW/snail.jpg,0,,,
null,,html-keyboard-response,723849,<p></p>,,,,null,,,,,,,,,,,,,,
3139.7999999523163,,directmemory_phase,726991,GW/teeth.jpg,,,,50,,,1,0.5,GW/jukebox.jpg,GW/camera.jpg,GW/barrel.jpg,GW/camera.jpg,GW/jukebox.jpg,GW/barrel.jpg,1,,,
null,,html-keyboard-response,727995,<p></p>,,,,null,,,,,,,,,,,,,,
1969.5999999046326,,directmemory_phase,729966,GW/basket.jpg,,,,51,,,1,0.6666666666666666,GW/wheelchair.jpg,GW/gong.jpg,GW/barrel.jpg,GW/barrel.jpg,GW/gong.jpg,GW/wheelchair.jpg,1,,,
null,,html-keyboard-response,730973,<p></p>,,,,null,,,,,,,,,,,,,,
1732.9000000953674,,directmemory_phase,732708,GW/jukebox.jpg,,,,51,,,1,0.75,GW/paint.jpg,GW/wheelchair.jpg,GW/soldier.jpg,GW/soldier.jpg,GW/wheelchair.jpg,GW/paint.jpg,1,,,
null,,html-keyboard-response,733721,<p></p>,,,,null,,,,,,,,,,,,,,
2530.399999856949,,directmemory_phase,736253,GW/dustpan.jpg,,,,51,,,1,0.8,GW/teeth.jpg,GW/gong.jpg,GW/paint.jpg,GW/paint.jpg,GW/gong.jpg,GW/teeth.jpg,1,,,
null,,html-keyboard-response,737267,<p></p>,,,,null,,,,,,,,,,,,,,
2360.9000000953674,,directmemory_phase,739629,GW/camera.jpg,,,,49,,,1,0.8333333333333334,GW/snail.jpg,GW/barrel.jpg,GW/jukebox.jpg,GW/snail.jpg,GW/jukebox.jpg,GW/barrel.jpg,1,,,
null,,html-keyboard-response,740641,<p></p>,,,,null,,,,,,,,,,,,,,
4018.0999999046326,,directmemory_phase,744660,GW/hat.jpg,,,,50,,,1,0.8571428571428571,GW/dustpan.jpg,GW/teeth.jpg,GW/jukebox.jpg,GW/teeth.jpg,GW/dustpan.jpg,GW/jukebox.jpg,1,,,
null,,html-keyboard-response,745672,<p></p>,,,,null,,,,,,,,,,,,,,
2395.9000000953674,,directmemory_phase,748069,GW/snail.jpg,,,,49,,,1,0.875,GW/camera.jpg,GW/wheelchair.jpg,GW/soldier.jpg,GW/camera.jpg,GW/soldier.jpg,GW/wheelchair.jpg,1,,,
null,,html-keyboard-response,749087,<p></p>,,,,null,,,,,,,,,,,,,,
2075.399999856949,,directmemory_phase,751163,GW/hat.jpg,,,,51,,,1,0.8888888888888888,GW/basket.jpg,GW/soldier.jpg,GW/paint.jpg,GW/paint.jpg,GW/soldier.jpg,GW/basket.jpg,1,,,
null,,html-keyboard-response,752180,<p></p>,,,,null,,,,,,,,,,,,,,
4496.5,,directmemory_phase,756680,GW/wheelchair.jpg,,,,50,,,0,0.8,GW/globe.jpg,GW/dustpan.jpg,GW/teeth.jpg,GW/teeth.jpg,GW/dustpan.jpg,GW/globe.jpg,0.5,closer,,
null,,html-keyboard-response,757688,<p></p>,,,,null,,,,,,,,,,,,,,
2033.8000001907349,,directmemory_phase,759723,GW/hat.jpg,,,,49,,,1,0.8181818181818182,GW/gong.jpg,GW/jukebox.jpg,GW/camera.jpg,GW/gong.jpg,GW/camera.jpg,GW/jukebox.jpg,1,,,
null,,html-keyboard-response,760728,<p></p>,,,,null,,,,,,,,,,,,,,
1432.9000000953674,,directmemory_phase,762162,GW/barrel.jpg,,,,51,,,1,0.8333333333333334,GW/teeth.jpg,GW/paint.jpg,GW/basket.jpg,GW/basket.jpg,GW/paint.jpg,GW/teeth.jpg,1,,,
null,,html-keyboard-response,763167,<p></p>,,,,null,,,,,,,,,,,,,,
1770,,directmemory_phase,764939,GW/paint.jpg,,,,51,,,1,0.8461538461538461,GW/jukebox.jpg,GW/globe.jpg,GW/dustpan.jpg,GW/dustpan.jpg,GW/globe.jpg,GW/jukebox.jpg,1,,,
null,,html-keyboard-response,765946,<p></p>,,,,null,,,,,,,,,,,,,,
3390.600000143051,,directmemory_phase,769338,GW/soldier.jpg,,,,50,,,1,0.8571428571428571,GW/paint.jpg,GW/teeth.jpg,GW/dustpan.jpg,GW/teeth.jpg,GW/paint.jpg,GW/dustpan.jpg,1,,,
null,,html-keyboard-response,770341,<p></p>,,,,null,,,,,,,,,,,,,,
5237.699999809265,,directmemory_phase,775580,GW/barrel.jpg,,,,49,,,1,0.8666666666666667,GW/gong.jpg,GW/camera.jpg,GW/paint.jpg,GW/gong.jpg,GW/paint.jpg,GW/camera.jpg,1,,,
null,,html-keyboard-response,776584,<p></p>,,,,null,,,,,,,,,,,,,,
1725.7000000476837,,directmemory_phase,778312,GW/soldier.jpg,,,,50,,,1,0.875,GW/hat.jpg,GW/wheelchair.jpg,GW/barrel.jpg,GW/wheelchair.jpg,GW/hat.jpg,GW/barrel.jpg,1,,,
null,,html-keyboard-response,779327,<p></p>,,,,null,,,,,,,,,,,,,,
3922.5999999046326,,directmemory_phase,783251,GW/dustpan.jpg,,,,50,,,1,0.8823529411764706,GW/hat.jpg,GW/barrel.jpg,GW/soldier.jpg,GW/barrel.jpg,GW/hat.jpg,GW/soldier.jpg,1,,,
null,,html-keyboard-response,784256,<p></p>,,,,null,,,,,,,,,,,,,,
2464.899999856949,,directmemory_phase,786724,GW/soldier.jpg,,,,51,,,1,0.8888888888888888,GW/gong.jpg,GW/hat.jpg,GW/camera.jpg,GW/camera.jpg,GW/hat.jpg,GW/gong.jpg,1,,,
null,,html-keyboard-response,787739,<p></p>,,,,null,,,,,,,,,,,,,,
2358.0999999046326,,directmemory_phase,790099,GW/barrel.jpg,,,,49,,,1,0.8947368421052632,GW/dustpan.jpg,GW/camera.jpg,GW/hat.jpg,GW/dustpan.jpg,GW/hat.jpg,GW/camera.jpg,1,,,
null,,html-keyboard-response,791101,<p></p>,,,,null,,,,,,,,,,,,,,
4062.699999809265,,directmemory_phase,795165,GW/wheelchair.jpg,,,,49,,,1,0.9,GW/paint.jpg,GW/basket.jpg,GW/hat.jpg,GW/paint.jpg,GW/hat.jpg,GW/basket.jpg,1,,,
null,,html-keyboard-response,796177,<p></p>,,,,null,,,,,,,,,,,,,,
5520.899999856949,,directmemory_phase,801699,GW/globe.jpg,,,,49,,,1,0.9047619047619048,GW/dustpan.jpg,GW/gong.jpg,GW/paint.jpg,GW/dustpan.jpg,GW/paint.jpg,GW/gong.jpg,1,,,
null,,html-keyboard-response,802716,<p></p>,,,,null,,,,,,,,,,,,,,
3014.5999999046326,,directmemory_phase,805732,GW/teeth.jpg,,,,51,,,1,0.9090909090909091,GW/barrel.jpg,GW/jukebox.jpg,GW/hat.jpg,GW/hat.jpg,GW/jukebox.jpg,GW/barrel.jpg,1,,,
null,,html-keyboard-response,806747,<p></p>,,,,null,,,,,,,,,,,,,,
1995.2000000476837,,directmemory_phase,808743,GW/gong.jpg,,,,49,,,1,0.9130434782608695,GW/barrel.jpg,GW/camera.jpg,GW/basket.jpg,GW/barrel.jpg,GW/basket.jpg,GW/camera.jpg,1,,,
null,,html-keyboard-response,809759,<p></p>,,,,null,,,,,,,,,,,,,,
4077.899999856949,,directmemory_phase,813839,GW/camera.jpg,,,,49,,,1,0.9166666666666666,GW/teeth.jpg,GW/barrel.jpg,GW/hat.jpg,GW/teeth.jpg,GW/hat.jpg,GW/barrel.jpg,1,,,
null,,html-keyboard-response,814847,<p></p>,,,,null,,,,,,,,,,,,,,
3347.7000000476837,,directmemory_phase,818197,GW/paint.jpg,,,,51,,,1,0.92,GW/basket.jpg,GW/barrel.jpg,GW/hat.jpg,GW/hat.jpg,GW/barrel.jpg,GW/basket.jpg,1,,,
null,,html-keyboard-response,819206,<p></p>,,,,null,,,,,,,,,,,,,,
1805.5999999046326,,directmemory_phase,821013,GW/teeth.jpg,,,,51,,,1,0.9230769230769231,GW/barrel.jpg,GW/paint.jpg,GW/soldier.jpg,GW/soldier.jpg,GW/paint.jpg,GW/barrel.jpg,1,,,
null,,html-keyboard-response,822029,<p></p>,,,,null,,,,,,,,,,,,,,
2064.5,,directmemory_phase,824096,GW/gong.jpg,,,,49,,,1,0.9259259259259259,GW/hat.jpg,GW/globe.jpg,GW/dustpan.jpg,GW/hat.jpg,GW/dustpan.jpg,GW/globe.jpg,1,,,
null,,html-keyboard-response,825104,<p></p>,,,,null,,,,,,,,,,,,,,
2840.0999999046326,,directmemory_phase,827946,GW/teeth.jpg,,,,49,,,1,0.9285714285714286,GW/wheelchair.jpg,GW/globe.jpg,GW/jukebox.jpg,GW/wheelchair.jpg,GW/jukebox.jpg,GW/globe.jpg,1,,,
null,,html-keyboard-response,828952,<p></p>,,,,null,,,,,,,,,,,,,,
4973.600000143051,,directmemory_phase,833927,GW/dustpan.jpg,,,,50,,,0,0.896551724137931,GW/camera.jpg,GW/wheelchair.jpg,GW/globe.jpg,GW/globe.jpg,GW/wheelchair.jpg,GW/camera.jpg,0.5,closer,,
null,,html-keyboard-response,834944,<p></p>,,,,null,,,,,,,,,,,,,,
3735,,directmemory_phase,838681,GW/soldier.jpg,,,,51,,,1,0.9,GW/globe.jpg,GW/snail.jpg,GW/jukebox.jpg,GW/jukebox.jpg,GW/snail.jpg,GW/globe.jpg,1,,,
null,,html-keyboard-response,839690,<p></p>,,,,null,,,,,,,,,,,,,,
2239.0999999046326,,directmemory_phase,841930,GW/paint.jpg,,,,49,,,1,0.9032258064516129,GW/wheelchair.jpg,GW/snail.jpg,GW/gong.jpg,GW/wheelchair.jpg,GW/gong.jpg,GW/snail.jpg,1,,,
null,,html-keyboard-response,842940,<p></p>,,,,null,,,,,,,,,,,,,,
2030.2000000476837,,directmemory_phase,844972,GW/camera.jpg,,,,51,,,1,0.90625,GW/barrel.jpg,GW/jukebox.jpg,GW/soldier.jpg,GW/soldier.jpg,GW/jukebox.jpg,GW/barrel.jpg,1,,,
null,,html-keyboard-response,845979,<p></p>,,,,null,,,,,,,,,,,,,,
2509.2999999523163,,intro_1,848491,instruct,,0,,,,,,,,,,,,,,,,
3140.100000143051,,intro_2,851633,instruct,,1,Next,,,,,,,,,,,,,,,
1655.7999999523163,,intro_3,853291,instruct,,1,Next,,,,,,,,,,,,,,,
1280.2999999523163,,intro_4,854573,instruct,,1,Next,,,,,,,,,,,,,,,
2152,,intro_5,856727,instruct,,1,Next,,,,,,,,,,,,,,,
1843.8999998569489,,intro_6,858573,instruct,,1,Next,,,,,,,,,,,,,,,
3981.899999856949,,intro_7,862557,instruct,,1,Next,,,,,,,,,,,,,,,
5729.099999904633,,intro_8,868288,instruct,,1,Next,,,,,,,,,,,,,,,
4793.899999856949,,shortestpath_phase,873084,GW/paint.jpg,,,,49,GW/globe.jpg,GW/snail.jpg,1,1,,,,GW/globe.jpg,,,,,Two Edge Diff,Two Edge Four Edge
null,,html-keyboard-response,874093,<p></p>,,,,null,,,,,,,,,,,,,,
4059.5999999046326,,shortestpath_phase,878155,GW/soldier.jpg,,,,50,GW/basket.jpg,GW/hat.jpg,1,1,,,,GW/hat.jpg,,,,,Three Edge Diff,Two Edge Five Edge
null,,html-keyboard-response,879166,<p></p>,,,,null,,,,,,,,,,,,,,
2635.0999999046326,,shortestpath_phase,881803,GW/paint.jpg,,,,49,GW/barrel.jpg,GW/snail.jpg,1,1,,,,GW/barrel.jpg,,,,,Two Edge Diff,Two Edge Four Edge
null,,html-keyboard-response,882820,<p></p>,,,,null,,,,,,,,,,,,,,
4972,,shortestpath_phase,887793,GW/basket.jpg,,,,49,GW/globe.jpg,GW/teeth.jpg,1,1,,,,GW/globe.jpg,,,,,One Edge Diff,Three Edge Four Edge
null,,html-keyboard-response,888810,<p></p>,,,,null,,,,,,,,,,,,,,
3844.5,,shortestpath_phase,892656,GW/jukebox.jpg,,,,49,GW/camera.jpg,GW/dustpan.jpg,1,1,,,,GW/camera.jpg,,,,,Two Edge Diff,Two Edge Four Edge
null,,html-keyboard-response,893673,<p></p>,,,,null,,,,,,,,,,,,,,
3668.199999809265,,shortestpath_phase,897343,GW/basket.jpg,,,,49,GW/camera.jpg,GW/hat.jpg,0,0.8333333333333334,,,,GW/hat.jpg,,,,,Two Edge Diff,Three Edge Five Edge
null,,html-keyboard-response,898350,<p></p>,,,,null,,,,,,,,,,,,,,
5368.299999952316,,shortestpath_phase,903720,GW/globe.jpg,,,,49,GW/snail.jpg,GW/camera.jpg,0,0.7142857142857143,,,,GW/camera.jpg,,,,,One Edge Diff,Five Edge Six Edge
null,,html-keyboard-response,904726,<p></p>,,,,null,,,,,,,,,,,,,,
2517.7000000476837,,shortestpath_phase,907246,GW/basket.jpg,,,,50,GW/snail.jpg,GW/dustpan.jpg,1,0.75,,,,GW/dustpan.jpg,,,,,Four Edge Diff,Two Edge Six Edge
null,,html-keyboard-response,908250,<p></p>,,,,null,,,,,,,,,,,,,,
2692.100000143051,,shortestpath_phase,910944,GW/jukebox.jpg,,,,50,GW/basket.jpg,GW/wheelchair.jpg,1,0.7777777777777778,,,,GW/wheelchair.jpg,,,,,Four Edge Diff,Two Edge Six Edge
null,,html-keyboard-response,911950,<p></p>,,,,null,,,,,,,,,,,,,,
3019.5,,shortestpath_phase,914972,GW/globe.jpg,,,,50,GW/snail.jpg,GW/barrel.jpg,1,0.8,,,,GW/barrel.jpg,,,,,Four Edge Diff,Two Edge Six Edge
null,,html-keyboard-response,915989,<p></p>,,,,null,,,,,,,,,,,,,,
1481,,shortestpath_phase,917472,GW/jukebox.jpg,,,,50,GW/basket.jpg,GW/camera.jpg,1,0.8181818181818182,,,,GW/camera.jpg,,,,,Four Edge Diff,Two Edge Six Edge
null,,html-keyboard-response,918490,<p></p>,,,,null,,,,,,,,,,,,,,
3128.399999856949,,shortestpath_phase,921620,GW/globe.jpg,,,,50,GW/soldier.jpg,GW/snail.jpg,0,0.75,,,,GW/soldier.jpg,,,,,Two Edge Diff,Four Edge Six Edge
null,,html-keyboard-response,922632,<p></p>,,,,null,,,,,,,,,,,,,,
4355.100000143051,,shortestpath_phase,926989,GW/jukebox.jpg,,,,50,GW/basket.jpg,GW/dustpan.jpg,1,0.7692307692307693,,,,GW/dustpan.jpg,,,,,Two Edge Diff,Four Edge Six Edge
null,,html-keyboard-response,927995,<p></p>,,,,null,,,,,,,,,,,,,,
4329,,shortestpath_phase,932326,GW/globe.jpg,,,,50,GW/jukebox.jpg,GW/paint.jpg,1,0.7857142857142857,,,,GW/paint.jpg,,,,,Three Edge Diff,Three Edge Six Edge
null,,html-keyboard-response,933333,<p></p>,,,,null,,,,,,,,,,,,,,
5335.799999952316,,shortestpath_phase,938671,GW/basket.jpg,,,,50,GW/snail.jpg,GW/teeth.jpg,1,0.8,,,,GW/teeth.jpg,,,,,Two Edge Diff,Four Edge Six Edge
null,,html-keyboard-response,939689,<p></p>,,,,null,,,,,,,,,,,,,,
4176.699999809265,,shortestpath_phase,943868,GW/paint.jpg,,,,50,GW/jukebox.jpg,GW/snail.jpg,0,0.75,,,,GW/jukebox.jpg,,,,,One Edge Diff,Three Edge Four Edge
null,,html-keyboard-response,944876,<p></p>,,,,null,,,,,,,,,,,,,,
2095.2999999523163,,shortestpath_phase,946973,GW/basket.jpg,,,,50,GW/snail.jpg,GW/gong.jpg,1,0.7647058823529411,,,,GW/gong.jpg,,,,,Four Edge Diff,Two Edge Six Edge
null,,html-keyboard-response,947988,<p></p>,,,,null,,,,,,,,,,,,,,
4724.799999952316,,shortestpath_phase,952715,GW/snail.jpg,,,,49,GW/teeth.jpg,GW/globe.jpg,1,0.7777777777777778,,,,GW/teeth.jpg,,,,,Four Edge Diff,Two Edge Six Edge
null,,html-keyboard-response,953729,<p></p>,,,,null,,,,,,,,,,,,,,
3521.2000000476837,,shortestpath_phase,957253,GW/jukebox.jpg,,,,50,GW/globe.jpg,GW/paint.jpg,1,0.7894736842105263,,,,GW/paint.jpg,,,,,Two Edge Diff,Three Edge Five Edge
null,,html-keyboard-response,958256,<p></p>,,,,null,,,,,,,,,,,,,,
4732,,shortestpath_phase,962990,GW/snail.jpg,,,,50,GW/dustpan.jpg,GW/gong.jpg,1,0.8,,,,GW/gong.jpg,,,,,One Edge Diff,Four Edge Five Edge
null,,html-keyboard-response,964002,<p></p>,,,,null,,,,,,,,,,,,,,
2713.2999999523163,,shortestpath_phase,966718,GW/barrel.jpg,,,,49,GW/hat.jpg,GW/jukebox.jpg,1,0.8095238095238095,,,,GW/hat.jpg,,,,,Three Edge Diff,Two Edge Five Edge
null,,html-keyboard-response,967722,<p></p>,,,,null,,,,,,,,,,,,,,
5633.700000047684,,shortestpath_phase,973357,GW/snail.jpg,,,,50,GW/basket.jpg,GW/paint.jpg,1,0.8181818181818182,,,,GW/paint.jpg,,,,,Two Edge Diff,Four Edge Six Edge
null,,html-keyboard-response,974372,<p></p>,,,,null,,,,,,,,,,,,,,
5004.599999904633,,shortestpath_phase,979378,GW/barrel.jpg,,,,50,GW/wheelchair.jpg,GW/jukebox.jpg,0,0.782608695652174,,,,GW/wheelchair.jpg,,,,,Two Edge Diff,Three Edge Five Edge
null,,html-keyboard-response,980398,<p></p>,,,,null,,,,,,,,,,,,,,
4641.099999904633,,shortestpath_phase,985040,GW/snail.jpg,,,,50,GW/dustpan.jpg,GW/teeth.jpg,1,0.7916666666666666,,,,GW/teeth.jpg,,,,,Three Edge Diff,Two Edge Five Edge
null,,html-keyboard-response,986057,<p></p>,,,,null,,,,,,,,,,,,,,
3195.2999999523163,,shortestpath_phase,989254,GW/globe.jpg,,,,49,GW/paint.jpg,GW/snail.jpg,1,0.8,,,,GW/paint.jpg,,,,,Four Edge Diff,Two Edge Six Edge
null,,html-keyboard-response,990262,<p></p>,,,,null,,,,,,,,,,,,,,
6442.599999904633,,shortestpath_phase,996706,GW/snail.jpg,,,,50,GW/barrel.jpg,GW/basket.jpg,0,0.7692307692307693,,,,GW/barrel.jpg,,,,,One Edge Diff,Five Edge Six Edge
null,,html-keyboard-response,997719,<p></p>,,,,null,,,,,,,,,,,,,,
1309.9000000953674,,shortestpath_phase,999030,GW/jukebox.jpg,,,,50,GW/paint.jpg,GW/dustpan.jpg,0,0.7407407407407407,,,,GW/paint.jpg,,,,,One Edge Diff,Three Edge Four Edge
null,,html-keyboard-response,1000043,<p></p>,,,,null,,,,,,,,,,,,,,
6450.099999904633,,shortestpath_phase,1006494,GW/snail.jpg,,,,50,GW/barrel.jpg,GW/wheelchair.jpg,1,0.75,,,,GW/wheelchair.jpg,,,,,Two Edge Diff,Three Edge Five Edge
null,,html-keyboard-response,1007497,<p></p>,,,,null,,,,,,,,,,,,,,
5243.600000143051,,shortestpath_phase,1012742,GW/jukebox.jpg,,,,50,GW/teeth.jpg,GW/globe.jpg,0,0.7241379310344828,,,,GW/teeth.jpg,,,,,Three Edge Diff,Two Edge Five Edge
null,,html-keyboard-response,1013755,<p></p>,,,,null,,,,,,,,,,,,,,
2473.2000000476837,,shortestpath_phase,1016230,GW/snail.jpg,,,,49,GW/globe.jpg,GW/dustpan.jpg,0,0.7,,,,GW/dustpan.jpg,,,,,One Edge Diff,Five Edge Six Edge
null,,html-keyboard-response,1017235,<p></p>,,,,null,,,,,,,,,,,,,,
1893.3000001907349,,shortestpath_phase,1019129,GW/basket.jpg,,,,49,GW/soldier.jpg,GW/jukebox.jpg,1,0.7096774193548387,,,,GW/soldier.jpg,,,,,One Edge Diff,Five Edge Six Edge
null,,html-keyboard-response,1020140,<p></p>,,,,null,,,,,,,,,,,,,,
2448,,shortestpath_phase,1022590,GW/dustpan.jpg,,,,50,GW/snail.jpg,GW/gong.jpg,1,0.71875,,,,GW/gong.jpg,,,,,Three Edge Diff,Two Edge Five Edge
null,,html-keyboard-response,1023599,<p></p>,,,,null,,,,,,,,,,,,,,
6481.200000047684,,shortestpath_phase,1030082,GW/basket.jpg,,,,49,GW/teeth.jpg,GW/hat.jpg,0,0.696969696969697,,,,GW/hat.jpg,,,,,One Edge Diff,Three Edge Four Edge
null,,html-keyboard-response,1031085,<p></p>,,,,null,,,,,,,,,,,,,,
3605,,shortestpath_phase,1034692,GW/snail.jpg,,,,49,GW/soldier.jpg,GW/hat.jpg,1,0.7058823529411765,,,,GW/soldier.jpg,,,,,One Edge Diff,Two Edge Three Edge
null,,html-keyboard-response,1035699,<p></p>,,,,null,,,,,,,,,,,,,,
3021.9000000953674,,shortestpath_phase,1038722,GW/basket.jpg,,,,50,GW/soldier.jpg,GW/gong.jpg,1,0.7142857142857143,,,,GW/gong.jpg,,,,,Three Edge Diff,Three Edge Six Edge
null,,html-keyboard-response,1039740,<p></p>,,,,null,,,,,,,,,,,,,,
2174.5,,shortestpath_phase,1041916,GW/snail.jpg,,,,49,GW/barrel.jpg,GW/paint.jpg,0,0.6944444444444444,,,,GW/paint.jpg,,,,,One Edge Diff,Four Edge Five Edge
null,,html-keyboard-response,1042921,<p></p>,,,,null,,,,,,,,,,,,,,
6395.5,,shortestpath_phase,1049318,GW/dustpan.jpg,,,,49,GW/snail.jpg,GW/basket.jpg,0,0.6756756756756757,,,,GW/basket.jpg,,,,,Three Edge Diff,Three Edge Six Edge
null,,html-keyboard-response,1050327,<p></p>,,,,null,,,,,,,,,,,,,,
2864.5999999046326,,shortestpath_phase,1053193,GW/globe.jpg,,,,50,GW/jukebox.jpg,GW/snail.jpg,0,0.6578947368421053,,,,GW/jukebox.jpg,,,,,One Edge Diff,Five Edge Six Edge
null,,html-keyboard-response,1054212,<p></p>,,,,null,,,,,,,,,,,,,,
3652.4000000953674,,shortestpath_phase,1057867,GW/basket.jpg,,,,50,GW/camera.jpg,GW/paint.jpg,1,0.6666666666666666,,,,GW/paint.jpg,,,,,Two Edge Diff,Three Edge Five Edge
null,,html-keyboard-response,1058872,<p></p>,,,,null,,,,,,,,,,,,,,
2310.2999999523163,,shortestpath_phase,1061184,GW/jukebox.jpg,,,,49,GW/wheelchair.jpg,GW/snail.jpg,1,0.675,,,,GW/wheelchair.jpg,,,,,One Edge Diff,Two Edge Three Edge
null,,html-keyboard-response,1062195,<p></p>,,,,null,,,,,,,,,,,,,,
3234.899999856949,,shortestpath_phase,1065431,GW/basket.jpg,,,,49,GW/camera.jpg,GW/jukebox.jpg,1,0.6829268292682927,,,,GW/camera.jpg,,,,,One Edge Diff,Five Edge Six Edge
null,,html-keyboard-response,1066438,<p></p>,,,,null,,,,,,,,,,,,,,
5023.600000143051,,shortestpath_phase,1071463,GW/dustpan.jpg,,,,49,GW/camera.jpg,GW/teeth.jpg,0,0.6666666666666666,,,,GW/teeth.jpg,,,,,One Edge Diff,Three Edge Four Edge
null,,html-keyboard-response,1072467,<p></p>,,,,null,,,,,,,,,,,,,,
4626.800000190735,,shortestpath_phase,1077096,GW/snail.jpg,,,,50,GW/paint.jpg,GW/globe.jpg,0,0.6511627906976745,,,,GW/paint.jpg,,,,,Two Edge Diff,Four Edge Six Edge
null,,html-keyboard-response,1078111,<p></p>,,,,null,,,,,,,,,,,,,,
2791.800000190735,,shortestpath_phase,1080905,GW/globe.jpg,,,,49,GW/camera.jpg,GW/teeth.jpg,0,0.6363636363636364,,,,GW/teeth.jpg,,,,,One Edge Diff,Four Edge Five Edge
null,,html-keyboard-response,1081922,<p></p>,,,,null,,,,,,,,,,,,,,
5294,,shortestpath_phase,1087219,GW/jukebox.jpg,,,,49,GW/basket.jpg,GW/barrel.jpg,0,0.6222222222222222,,,,GW/barrel.jpg,,,,,One Edge Diff,Five Edge Six Edge
null,,html-keyboard-response,1088230,<p></p>,,,,null,,,,,,,,,,,,,,
4508.5,,shortestpath_phase,1092740,GW/basket.jpg,,,,49,GW/jukebox.jpg,GW/teeth.jpg,0,0.6086956521739131,,,,GW/teeth.jpg,,,,,Two Edge Diff,Four Edge Six Edge
null,,html-keyboard-response,1093758,<p></p>,,,,null,,,,,,,,,,,,,,
1872.2000000476837,,shortestpath_phase,1095631,GW/snail.jpg,,,,49,GW/globe.jpg,GW/soldier.jpg,0,0.5957446808510638,,,,GW/soldier.jpg,,,,,Four Edge Diff,Two Edge Six Edge
null,,html-keyboard-response,1096638,<p></p>,,,,null,,,,,,,,,,,,,,
5292.5,,shortestpath_phase,1101932,GW/jukebox.jpg,,,,50,GW/basket.jpg,GW/teeth.jpg,1,0.6041666666666666,,,,GW/teeth.jpg,,,,,Four Edge Diff,Two Edge Six Edge
null,,html-keyboard-response,1102947,<p></p>,,,,null,,,,,,,,,,,,,,
4628.900000095367,,shortestpath_phase,1107577,GW/dustpan.jpg,,,,50,GW/basket.jpg,GW/snail.jpg,0,0.5918367346938775,,,,GW/basket.jpg,,,,,Three Edge Diff,Two Edge Five Edge
null,,html-keyboard-response,1108589,<p></p>,,,,null,,,,,,,,,,,,,,
4299.099999904633,,shortestpath_phase,1112890,GW/globe.jpg,,,,49,GW/teeth.jpg,GW/snail.jpg,1,0.6,,,,GW/teeth.jpg,,,,,Two Edge Diff,Four Edge Six Edge
null,,html-keyboard-response,1113909,<p></p>,,,,null,,,,,,,,,,,,,,
4688,,shortestpath_phase,1118599,GW/hat.jpg,,,,50,GW/barrel.jpg,GW/jukebox.jpg,0,0.5882352941176471,,,,GW/barrel.jpg,,,,,One Edge Diff,Two Edge Three Edge
null,,html-keyboard-response,1119610,<p></p>,,,,null,,,,,,,,,,,,,,
1622.5,,shortestpath_phase,1121234,GW/wheelchair.jpg,,,,50,GW/snail.jpg,GW/basket.jpg,0,0.5769230769230769,,,,GW/snail.jpg,,,,,One Edge Diff,Three Edge Four Edge
null,,html-keyboard-response,1122240,<p></p>,,,,null,,,,,,,,,,,,,,
3603.0999999046326,,shortestpath_phase,1125845,GW/globe.jpg,,,,49,GW/jukebox.jpg,GW/soldier.jpg,0,0.5660377358490566,,,,GW/soldier.jpg,,,,,One Edge Diff,Four Edge Five Edge
null,,html-keyboard-response,1126860,<p></p>,,,,null,,,,,,,,,,,,,,
5498.200000047684,,shortestpath_phase,1132361,GW/snail.jpg,,,,50,GW/paint.jpg,GW/wheelchair.jpg,1,0.5740740740740741,,,,GW/wheelchair.jpg,,,,,One Edge Diff,Three Edge Four Edge
null,,html-keyboard-response,1133366,<p></p>,,,,null,,,,,,,,,,,,,,
2569.2000000476837,,shortestpath_phase,1135937,GW/camera.jpg,,,,50,GW/basket.jpg,GW/dustpan.jpg,1,0.5818181818181818,,,,GW/dustpan.jpg,,,,,One Edge Diff,Four Edge Five Edge
null,,html-keyboard-response,1136956,<p></p>,,,,null,,,,,,,,,,,,,,
5885.299999952316,,shortestpath_phase,1142844,GW/snail.jpg,,,,49,GW/dustpan.jpg,GW/soldier.jpg,0,0.5714285714285714,,,,GW/soldier.jpg,,,,,Three Edge Diff,Three Edge Six Edge
null,,html-keyboard-response,1143860,<p></p>,,,,null,,,,,,,,,,,,,,
5766.799999952316,,shortestpath_phase,1149629,GW/dustpan.jpg,,,,49,GW/gong.jpg,GW/camera.jpg,1,0.5789473684210527,,,,GW/gong.jpg,,,,,Two Edge Diff,Two Edge Four Edge
null,,html-keyboard-response,1150634,<p></p>,,,,null,,,,,,,,,,,,,,
3159.9000000953674,,shortestpath_phase,1153796,GW/camera.jpg,,,,50,GW/globe.jpg,GW/wheelchair.jpg,1,0.5862068965517241,,,,GW/wheelchair.jpg,,,,,Three Edge Diff,Two Edge Five Edge
null,,html-keyboard-response,1154800,<p></p>,,,,null,,,,,,,,,,,,,,
5420.800000190735,,shortestpath_phase,1160222,GW/basket.jpg,,,,50,GW/jukebox.jpg,GW/dustpan.jpg,1,0.5932203389830508,,,,GW/dustpan.jpg,,,,,Four Edge Diff,Two Edge Six Edge
null,,html-keyboard-response,1161226,<p></p>,,,,null,,,,,,,,,,,,,,
2016.5999999046326,,shortestpath_phase,1163244,GW/snail.jpg,,,,50,GW/soldier.jpg,GW/basket.jpg,0,0.5833333333333334,,,,GW/soldier.jpg,,,,,Four Edge Diff,Two Edge Six Edge
null,,html-keyboard-response,1164249,<p></p>,,,,null,,,,,,,,,,,,,,
2388.7000000476837,,shortestpath_phase,1166640,GW/jukebox.jpg,,,,49,GW/wheelchair.jpg,GW/barrel.jpg,1,0.5901639344262295,,,,GW/wheelchair.jpg,,,,,Three Edge Diff,Two Edge Five Edge
null,,html-keyboard-response,1167644,<p></p>,,,,null,,,,,,,,,,,,,,
7404.5,,shortestpath_phase,1175050,GW/gong.jpg,,,,50,GW/soldier.jpg,GW/jukebox.jpg,0,0.5806451612903226,,,,GW/soldier.jpg,,,,,One Edge Diff,Three Edge Four Edge
null,,html-keyboard-response,1176057,<p></p>,,,,null,,,,,,,,,,,,,,
5789.700000047684,,shortestpath_phase,1181849,GW/jukebox.jpg,,,,49,GW/globe.jpg,GW/basket.jpg,1,0.5873015873015873,,,,GW/globe.jpg,,,,,One Edge Diff,Five Edge Six Edge
null,,html-keyboard-response,1182853,<p></p>,,,,null,,,,,,,,,,,,,,
1373.8999998569489,,shortestpath_phase,1184229,GW/teeth.jpg,,,,50,GW/dustpan.jpg,GW/paint.jpg,1,0.59375,,,,GW/paint.jpg,,,,,One Edge Diff,Two Edge Three Edge
null,,html-keyboard-response,1185244,<p></p>,,,,null,,,,,,,,,,,,,,
5328.599999904633,,shortestpath_phase,1190575,GW/barrel.jpg,,,,49,GW/snail.jpg,GW/globe.jpg,0,0.5846153846153846,,,,GW/globe.jpg,,,,,Three Edge Diff,Two Edge Five Edge
null,,html-keyboard-response,1191587,<p></p>,,,,null,,,,,,,,,,,,,,
5831,,shortestpath_phase,1197420,GW/gong.jpg,,,,49,GW/paint.jpg,GW/wheelchair.jpg,1,0.5909090909090909,,,,GW/paint.jpg,,,,,One Edge Diff,Two Edge Three Edge
null,,html-keyboard-response,1198429,<p></p>,,,,null,,,,,,,,,,,,,,
2571.4000000953674,,shortestpath_phase,1201003,GW/snail.jpg,,,,50,GW/barrel.jpg,GW/globe.jpg,0,0.582089552238806,,,,GW/barrel.jpg,,,,,One Edge Diff,Five Edge Six Edge
null,,html-keyboard-response,1202021,<p></p>,,,,null,,,,,,,,,,,,,,
3927.9000000953674,,shortestpath_phase,1205951,GW/dustpan.jpg,,,,50,GW/wheelchair.jpg,GW/teeth.jpg,0,0.5735294117647058,,,,GW/wheelchair.jpg,,,,,One Edge Diff,Two Edge Three Edge
null,,html-keyboard-response,1206967,<p></p>,,,,null,,,,,,,,,,,,,,
6218.100000143051,,shortestpath_phase,1213188,GW/jukebox.jpg,,,,50,GW/snail.jpg,GW/barrel.jpg,0,0.5652173913043478,,,,GW/snail.jpg,,,,,Two Edge Diff,Three Edge Five Edge
null,,html-keyboard-response,1214199,<p></p>,,,,null,,,,,,,,,,,,,,
6738.900000095367,,shortestpath_phase,1220939,GW/globe.jpg,,,,49,GW/camera.jpg,GW/hat.jpg,0,0.5571428571428572,,,,GW/hat.jpg,,,,,Two Edge Diff,Three Edge Five Edge
null,,html-keyboard-response,1221948,<p></p>,,,,null,,,,,,,,,,,,,,
3819.5,,shortestpath_phase,1225769,GW/gong.jpg,,,,50,GW/jukebox.jpg,GW/dustpan.jpg,1,0.5633802816901409,,,,GW/dustpan.jpg,,,,,Two Edge Diff,Two Edge Four Edge
null,,html-keyboard-response,1226777,<p></p>,,,,null,,,,,,,,,,,,,,
6825.700000047684,,shortestpath_phase,1233604,GW/globe.jpg,,,,49,GW/barrel.jpg,GW/teeth.jpg,1,0.5694444444444444,,,,GW/barrel.jpg,,,,,Two Edge Diff,Two Edge Four Edge
null,,html-keyboard-response,1234620,<p></p>,,,,null,,,,,,,,,,,,,,
5738.599999904633,,shortestpath_phase,1240361,GW/jukebox.jpg,,,,50,GW/gong.jpg,GW/barrel.jpg,0,0.5616438356164384,,,,GW/gong.jpg,,,,,One Edge Diff,Four Edge Five Edge
null,,html-keyboard-response,1241366,<p></p>,,,,null,,,,,,,,,,,,,,
4411,,shortestpath_phase,1245778,GW/basket.jpg,,,,50,GW/camera.jpg,GW/snail.jpg,0,0.5540540540540541,,,,GW/camera.jpg,,,,,One Edge Diff,Five Edge Six Edge
null,,html-keyboard-response,1246785,<p></p>,,,,null,,,,,,,,,,,,,,
3282.2000000476837,,shortestpath_phase,1250068,GW/globe.jpg,,,,50,GW/soldier.jpg,GW/gong.jpg,1,0.56,,,,GW/gong.jpg,,,,,One Edge Diff,Three Edge Four Edge
null,,html-keyboard-response,1251080,<p></p>,,,,null,,,,,,,,,,,,,,
4817.799999952316,,shortestpath_phase,1255900,GW/snail.jpg,,,,49,GW/dustpan.jpg,GW/jukebox.jpg,0,0.5526315789473685,,,,GW/jukebox.jpg,,,,,Two Edge Diff,Three Edge Five Edge
null,,html-keyboard-response,1256916,<p></p>,,,,null,,,,,,,,,,,,,,
6301.400000095367,,shortestpath_phase,1263219,GW/paint.jpg,,,,50,GW/camera.jpg,GW/globe.jpg,1,0.5584415584415584,,,,GW/globe.jpg,,,,,One Edge Diff,Two Edge Three Edge
null,,html-keyboard-response,1264230,<p></p>,,,,null,,,,,,,,,,,,,,
3534.9000000953674,,shortestpath_phase,1267767,GW/jukebox.jpg,,,,49,GW/dustpan.jpg,GW/hat.jpg,0,0.5512820512820513,,,,GW/hat.jpg,,,,,One Edge Diff,Three Edge Four Edge
null,,html-keyboard-response,1268770,<p></p>,,,,null,,,,,,,,,,,,,,
2589.7999999523163,,shortestpath_phase,1271362,GW/paint.jpg,,,,50,GW/teeth.jpg,GW/jukebox.jpg,0,0.5443037974683544,,,,GW/teeth.jpg,,,,,One Edge Diff,Two Edge Three Edge
null,,html-keyboard-response,1272365,<p></p>,,,,null,,,,,,,,,,,,,,
2421.800000190735,,shortestpath_phase,1274789,GW/basket.jpg,,,,49,GW/wheelchair.jpg,GW/snail.jpg,1,0.55,,,,GW/wheelchair.jpg,,,,,Two Edge Diff,Four Edge Six Edge
null,,html-keyboard-response,1275798,<p></p>,,,,null,,,,,,,,,,,,,,
2547.7999999523163,,shortestpath_phase,1278348,GW/paint.jpg,,,,49,GW/soldier.jpg,GW/snail.jpg,1,0.5555555555555556,,,,GW/soldier.jpg,,,,,Two Edge Diff,Two Edge Four Edge
null,,html-keyboard-response,1279361,<p></p>,,,,null,,,,,,,,,,,,,,
4208.600000143051,,shortestpath_phase,1283571,GW/jukebox.jpg,,,,49,GW/dustpan.jpg,GW/globe.jpg,1,0.5609756097560976,,,,GW/dustpan.jpg,,,,,One Edge Diff,Four Edge Five Edge
null,,html-keyboard-response,1284589,<p></p>,,,,null,,,,,,,,,,,,,,
4075.100000143051,,shortestpath_phase,1288665,GW/basket.jpg,,,,49,GW/gong.jpg,GW/jukebox.jpg,1,0.5662650602409639,,,,GW/gong.jpg,,,,,Four Edge Diff,Two Edge Six Edge
null,,html-keyboard-response,1289669,<p></p>,,,,null,,,,,,,,,,,,,,
5333.200000047684,,shortestpath_phase,1295004,GW/wheelchair.jpg,,,,49,GW/hat.jpg,GW/barrel.jpg,1,0.5714285714285714,,,,GW/hat.jpg,,,,,One Edge Diff,Two Edge Three Edge
null,,html-keyboard-response,1296020,<p></p>,,,,null,,,,,,,,,,,,,,
2326.5,,shortestpath_phase,1298348,GW/snail.jpg,,,,50,GW/gong.jpg,GW/globe.jpg,0,0.5647058823529412,,,,GW/gong.jpg,,,,,Two Edge Diff,Four Edge Six Edge
null,,html-keyboard-response,1299360,<p></p>,,,,null,,,,,,,,,,,,,,
3041,,shortestpath_phase,1302403,GW/soldier.jpg,,,,50,GW/dustpan.jpg,GW/globe.jpg,0,0.5581395348837209,,,,GW/dustpan.jpg,,,,,One Edge Diff,Three Edge Four Edge
null,,html-keyboard-response,1303426,<p></p>,,,,null,,,,,,,,,,,,,,
2013.1999998092651,,shortestpath_phase,1305441,GW/camera.jpg,,,,49,GW/wheelchair.jpg,GW/basket.jpg,1,0.5632183908045977,,,,GW/wheelchair.jpg,,,,,Three Edge Diff,Three Edge Six Edge
null,,html-keyboard-response,1306461,<p></p>,,,,null,,,,,,,,,,,,,,
5476,,shortestpath_phase,1311939,GW/soldier.jpg,,,,50,GW/basket.jpg,GW/snail.jpg,1,0.5681818181818182,,,,GW/snail.jpg,,,,,Three Edge Diff,Three Edge Six Edge
null,,html-keyboard-response,1312952,<p></p>,,,,null,,,,,,,,,,,,,,
5311.400000095367,,shortestpath_phase,1318265,GW/basket.jpg,,,,49,GW/dustpan.jpg,GW/camera.jpg,1,0.5730337078651685,,,,GW/dustpan.jpg,,,,,Three Edge Diff,Three Edge Six Edge
null,,html-keyboard-response,1319276,<p></p>,,,,null,,,,,,,,,,,,,,
2070.2000000476837,,shortestpath_phase,1321349,GW/paint.jpg,,,,49,GW/soldier.jpg,GW/camera.jpg,1,0.5777777777777777,,,,GW/soldier.jpg,,,,,One Edge Diff,Two Edge Three Edge
null,,html-keyboard-response,1322357,<p></p>,,,,null,,,,,,,,,,,,,,
2093.2999999523163,,shortestpath_phase,1324452,GW/basket.jpg,,,,49,GW/gong.jpg,GW/globe.jpg,1,0.5824175824175825,,,,GW/gong.jpg,,,,,One Edge Diff,Two Edge Three Edge
null,,html-keyboard-response,1325454,<p></p>,,,,null,,,,,,,,,,,,,,
null,,shortestpath_phase,1332971,GW/teeth.jpg,,,,null,GW/basket.jpg,GW/dustpan.jpg,0,0.5760869565217391,,,,GW/dustpan.jpg,,,,,One Edge Diff,Three Edge Four Edge
null,,html-keyboard-response,1333978,<p></p>,,,,null,,,,,,,,,,,,,,
2845.5999999046326,,shortestpath_phase,1336825,GW/jukebox.jpg,,,,49,GW/gong.jpg,GW/globe.jpg,1,0.5806451612903226,,,,GW/gong.jpg,,,,,One Edge Diff,Four Edge Five Edge
null,,html-keyboard-response,1337839,<p></p>,,,,null,,,,,,,,,,,,,,
4264.399999856949,,shortestpath_phase,1342106,GW/basket.jpg,,,,50,GW/teeth.jpg,GW/camera.jpg,0,0.574468085106383,,,,GW/teeth.jpg,,,,,One Edge Diff,Four Edge Five Edge
null,,html-keyboard-response,1343112,<p></p>,,,,null,,,,,,,,,,,,,,
2469.2999999523163,,shortestpath_phase,1345583,GW/jukebox.jpg,,,,49,GW/gong.jpg,GW/basket.jpg,1,0.5789473684210527,,,,GW/gong.jpg,,,,,Two Edge Diff,Four Edge Six Edge
null,,html-keyboard-response,1346595,<p></p>,,,,null,,,,,,,,,,,,,,
4854.700000047684,,shortestpath_phase,1351452,GW/teeth.jpg,,,,50,GW/globe.jpg,GW/snail.jpg,1,0.5833333333333334,,,,GW/snail.jpg,,,,,Two Edge Diff,Two Edge Four Edge
null,,html-keyboard-response,1352467,<p></p>,,,,null,,,,,,,,,,,,,,
1873,,shortestpath_phase,1354342,GW/barrel.jpg,,,,49,GW/jukebox.jpg,GW/globe.jpg,0,0.5773195876288659,,,,GW/globe.jpg,,,,,Three Edge Diff,Two Edge Five Edge
null,,html-keyboard-response,1355352,<p></p>,,,,null,,,,,,,,,,,,,,
2185.300000190735,,shortestpath_phase,1357539,GW/snail.jpg,,,,49,GW/basket.jpg,GW/dustpan.jpg,0,0.5714285714285714,,,,GW/dustpan.jpg,,,,,One Edge Diff,Five Edge Six Edge
null,,html-keyboard-response,1358551,<p></p>,,,,null,,,,,,,,,,,,,,
3564.9000000953674,,shortestpath_phase,1362118,GW/soldier.jpg,,,,50,GW/globe.jpg,GW/basket.jpg,0,0.5656565656565656,,,,GW/globe.jpg,,,,,One Edge Diff,Four Edge Five Edge
null,,html-keyboard-response,1363135,<p></p>,,,,null,,,,,,,,,,,,,,
3220.100000143051,,shortestpath_phase,1366356,GW/snail.jpg,,,,49,GW/teeth.jpg,GW/barrel.jpg,1,0.57,,,,GW/teeth.jpg,,,,,Three Edge Diff,Three Edge Six Edge
null,,html-keyboard-response,1367371,<p></p>,,,,null,,,,,,,,,,,,,,
5074.799999952316,,shortestpath_phase,1372447,GW/gong.jpg,,,,49,GW/basket.jpg,GW/snail.jpg,1,0.5742574257425742,,,,GW/basket.jpg,,,,,Two Edge Diff,Two Edge Four Edge
null,,html-keyboard-response,1373455,<p></p>,,,,null,,,,,,,,,,,,,,
4104,,shortestpath_phase,1377560,GW/barrel.jpg,,,,50,GW/snail.jpg,GW/teeth.jpg,1,0.5784313725490197,,,,GW/teeth.jpg,,,,,Two Edge Diff,Three Edge Five Edge
null,,html-keyboard-response,1378570,<p></p>,,,,null,,,,,,,,,,,,,,
4208.700000047684,,shortestpath_phase,1382780,GW/snail.jpg,,,,49,GW/soldier.jpg,GW/paint.jpg,1,0.5825242718446602,,,,GW/soldier.jpg,,,,,Two Edge Diff,Two Edge Four Edge
null,,html-keyboard-response,1383792,<p></p>,,,,null,,,,,,,,,,,,,,
4057.199999809265,,shortestpath_phase,1387851,GW/dustpan.jpg,,,,49,GW/jukebox.jpg,GW/snail.jpg,1,0.5865384615384616,,,,GW/jukebox.jpg,,,,,One Edge Diff,Four Edge Five Edge
null,,html-keyboard-response,1388859,<p></p>,,,,null,,,,,,,,,,,,,,
3669.9000000953674,,shortestpath_phase,1392530,GW/snail.jpg,,,,49,GW/basket.jpg,GW/teeth.jpg,0,0.580952380952381,,,,GW/teeth.jpg,,,,,Four Edge Diff,Two Edge Six Edge
null,,html-keyboard-response,1393537,<p></p>,,,,null,,,,,,,,,,,,,,
2639.5,,shortestpath_phase,1396178,GW/dustpan.jpg,,,,49,GW/gong.jpg,GW/snail.jpg,1,0.5849056603773585,,,,GW/gong.jpg,,,,,Three Edge Diff,Three Edge Six Edge
null,,html-keyboard-response,1397182,<p></p>,,,,null,,,,,,,,,,,,,,
2756.2999999523163,,shortestpath_phase,1399940,GW/basket.jpg,,,,50,GW/snail.jpg,GW/soldier.jpg,1,0.5887850467289719,,,,GW/soldier.jpg,,,,,One Edge Diff,Five Edge Six Edge
null,,html-keyboard-response,1400944,<p></p>,,,,null,,,,,,,,,,,,,,
2396.899999856949,,shortestpath_phase,1403343,GW/dustpan.jpg,,,,49,GW/hat.jpg,GW/soldier.jpg,1,0.5925925925925926,,,,GW/hat.jpg,,,,,One Edge Diff,Two Edge Three Edge
null,,html-keyboard-response,1404357,<p></p>,,,,null,,,,,,,,,,,,,,
3381.5999999046326,,shortestpath_phase,1407740,GW/jukebox.jpg,,,,50,GW/globe.jpg,GW/camera.jpg,1,0.5963302752293578,,,,GW/camera.jpg,,,,,Three Edge Diff,Three Edge Six Edge
null,,html-keyboard-response,1408749,<p></p>,,,,null,,,,,,,,,,,,,,
3565.7999999523163,,shortestpath_phase,1412317,GW/basket.jpg,,,,50,GW/jukebox.jpg,GW/wheelchair.jpg,1,0.6,,,,GW/wheelchair.jpg,,,,,Two Edge Diff,Four Edge Six Edge
null,,html-keyboard-response,1413326,<p></p>,,,,null,,,,,,,,,,,,,,
3094.899999856949,,shortestpath_phase,1416423,GW/snail.jpg,,,,49,GW/dustpan.jpg,GW/soldier.jpg,0,0.5945945945945946,,,,GW/soldier.jpg,,,,,Three Edge Diff,Two Edge Five Edge
null,,html-keyboard-response,1417434,<p></p>,,,,null,,,,,,,,,,,,,,
2556.7999999523163,,shortestpath_phase,1419993,GW/basket.jpg,,,,49,GW/gong.jpg,GW/camera.jpg,1,0.5982142857142857,,,,GW/gong.jpg,,,,,Three Edge Diff,Three Edge Six Edge
null,,html-keyboard-response,1421007,<p></p>,,,,null,,,,,,,,,,,,,,
3515.7000000476837,,shortestpath_phase,1424525,GW/soldier.jpg,,,,49,GW/dustpan.jpg,GW/basket.jpg,1,0.6017699115044248,,,,GW/dustpan.jpg,,,,,Two Edge Diff,Three Edge Five Edge
null,,html-keyboard-response,1425535,<p></p>,,,,null,,,,,,,,,,,,,,
1886.0999999046326,,shortestpath_phase,1427423,GW/snail.jpg,,,,50,GW/gong.jpg,GW/basket.jpg,0,0.5964912280701754,,,,GW/gong.jpg,,,,,Two Edge Diff,Four Edge Six Edge
null,,html-keyboard-response,1428436,<p></p>,,,,null,,,,,,,,,,,,,,
2302.899999856949,,shortestpath_phase,1430741,GW/basket.jpg,,,,49,GW/wheelchair.jpg,GW/camera.jpg,1,0.6,,,,GW/wheelchair.jpg,,,,,One Edge Diff,Four Edge Five Edge
null,,html-keyboard-response,1431752,<p></p>,,,,null,,,,,,,,,,,,,,
3334.600000143051,,shortestpath_phase,1435088,GW/teeth.jpg,,,,49,GW/paint.jpg,GW/globe.jpg,1,0.603448275862069,,,,GW/paint.jpg,,,,,Two Edge Diff,Two Edge Four Edge
null,,html-keyboard-response,1436102,<p></p>,,,,null,,,,,,,,,,,,,,
3316.0999999046326,,shortestpath_phase,1439420,GW/basket.jpg,,,,50,GW/globe.jpg,GW/soldier.jpg,0,0.5982905982905983,,,,GW/globe.jpg,,,,,Two Edge Diff,Three Edge Five Edge
null,,html-keyboard-response,1440429,<p></p>,,,,null,,,,,,,,,,,,,,
5851.300000190735,,shortestpath_phase,1446283,GW/jukebox.jpg,,,,49,GW/globe.jpg,GW/camera.jpg,0,0.5932203389830508,,,,GW/camera.jpg,,,,,Three Edge Diff,Two Edge Five Edge
null,,html-keyboard-response,1447295,<p></p>,,,,null,,,,,,,,,,,,,,
4733.799999952316,,shortestpath_phase,1452032,GW/soldier.jpg,,,,49,GW/hat.jpg,GW/globe.jpg,1,0.5966386554621849,,,,GW/hat.jpg,,,,,Two Edge Diff,Two Edge Four Edge
null,,html-keyboard-response,1453046,<p></p>,,,,null,,,,,,,,,,,,,,
6005.700000047684,,shortestpath_phase,1459054,GW/camera.jpg,,,,50,GW/globe.jpg,GW/jukebox.jpg,1,0.6,,,,GW/jukebox.jpg,,,,,Three Edge Diff,Three Edge Six Edge
null,,html-keyboard-response,1460071,<p></p>,,,,null,,,,,,,,,,,,,,
1911.3999998569489,,shortestpath_phase,1461984,GW/barrel.jpg,,,,50,GW/jukebox.jpg,GW/teeth.jpg,1,0.6033057851239669,,,,GW/teeth.jpg,,,,,Two Edge Diff,Three Edge Five Edge
null,,html-keyboard-response,1463002,<p></p>,,,,null,,,,,,,,,,,,,,
4010.5999999046326,,intro_1,1467016,instruct,,0,,,,,,,,,,,,,,,,
2201.800000190735,,intro_2,1469221,instruct,,1,Next,,,,,,,,,,,,,,,
2088.5,,intro_3,1471313,instruct,,1,Next,,,,,,,,,,,,,,,
