rt,responses,trial_type,time_elapsed,stimulus,graphorder,button_pressed,response,key_press,stimulus_left,stimulus_right,accuracy,cumulative_accuracy,stimulus_down_left,stimulus_down_mid,stimulus_down_right,stimulus_correct,stimulus_short,stimulus_far,weighted_accuracy,missedtrial,condition,specific_pairs
7015.399999976158,{worker_id:5d8a29c082fec30001d9c24a},id_enter,7017,id_enter,GW/teeth.jpg; GW/paint.jpg; GW/camera.jpg; GW/gong.jpg; GW/jukebox.jpg; GW/hat.jpg; GW/barrel.jpg; GW/soldier.jpg; GW/globe.jpg; GW/wheelchair.jpg; GW/snail.jpg; GW/dustpan.jpg; GW/basket.jpg,,,,,,,,,,,,,,,,,
13516.899999976158,,fullscreen,20536,fullscreen,,0,,,,,,,,,,,,,,,,
11593.799999952316,,intro_1,32131,instruct,,0,,,,,,,,,,,,,,,,
16369.700000047684,,intro_2,48502,instruct,,1,Next,,,,,,,,,,,,,,,
6747.5,,intro_3,55250,instruct,,1,Next,,,,,,,,,,,,,,,
null,,learn_prac_1,57252,lean_prac_1,,,,null,,,,,,,,,,,,,,
null,,html-keyboard-response,58254,<p></p>,,,,null,,,,,,,,,,,,,,
3003.399999976158,,intro_1,61258,instruct,,0,,,,,,,,,,,,,,,,
4783.199999928474,,intro_2,66042,instruct,,1,Next,,,,,,,,,,,,,,,
null,,learn_prac_2,68043,lean_prac_2,,,,null,,,,,,,,,,,,,,
null,,html-keyboard-response,69045,<p></p>,,,,null,,,,,,,,,,,,,,
1441.5,,intro_1,70487,instruct,,0,,,,,,,,,,,,,,,,
3782.5,,intro_2,74270,instruct,,1,Next,,,,,,,,,,,,,,,
20619.200000047684,,intro_3,94890,instruct,,1,Next,,,,,,,,,,,,,,,
null,,prac_atten_color_black,95751,black_plus_sign,,,,null,,,,,,,,,,,,,,
481.5,,prac_atten_color,96293,prac_stop_color,,,,49,,,,,,,,,,,,,,
null,,prac_atten_color_black,98295,black_plus_sign,,,,null,,,,,,,,,,,,,,
null,,prac_atten_color_black,99155,black_plus_sign,,,,null,,,,,,,,,,,,,,
518.9000000953674,,prac_atten_color,99900,prac_stop_color,,,,50,,,,,,,,,,,,,,
null,,prac_atten_color_black,101901,black_plus_sign,,,,null,,,,,,,,,,,,,,
null,,prac_atten_color_black,102559,black_plus_sign,,,,null,,,,,,,,,,,,,,
501.10000002384186,,prac_atten_color,103207,prac_stop_color,,,,50,,,,,,,,,,,,,,
null,,prac_atten_color_black,105208,black_plus_sign,,,,null,,,,,,,,,,,,,,
null,,prac_atten_color_black,105963,black_plus_sign,,,,null,,,,,,,,,,,,,,
473.59999990463257,,prac_atten_color,107023,prac_stop_color,,,,49,,,,,,,,,,,,,,
null,,prac_atten_color_black,109024,black_plus_sign,,,,null,,,,,,,,,,,,,,
null,,prac_atten_color_black,109367,black_plus_sign,,,,null,,,,,,,,,,,,,,
505.10000002384186,,prac_atten_color,110042,prac_stop_color,,,,50,,,,,,,,,,,,,,
null,,prac_atten_color_black,112044,black_plus_sign,,,,null,,,,,,,,,,,,,,
null,,prac_atten_color_black,112772,black_plus_sign,,,,null,,,,,,,,,,,,,,
474.6999999284744,,prac_atten_color,113485,prac_stop_color,,,,50,,,,,,,,,,,,,,
null,,prac_atten_color_black,115487,black_plus_sign,,,,null,,,,,,,,,,,,,,
null,,prac_atten_color_black,116176,black_plus_sign,,,,null,,,,,,,,,,,,,,
490.2000000476837,,prac_atten_color,117265,prac_stop_color,,,,49,,,,,,,,,,,,,,
null,,prac_atten_color_black,119265,black_plus_sign,,,,null,,,,,,,,,,,,,,
null,,prac_atten_color_black,119580,black_plus_sign,,,,null,,,,,,,,,,,,,,
480.5,,prac_atten_color,120220,prac_stop_color,,,,50,,,,,,,,,,,,,,
null,,prac_atten_color_black,122221,black_plus_sign,,,,null,,,,,,,,,,,,,,
null,,prac_atten_color_black,122985,black_plus_sign,,,,null,,,,,,,,,,,,,,
null,,prac_atten_color,123706,prac_stop_color,,,,null,,,,,,,,,,,,,,
18.399999976158142,,prac_atten_color_black,125712,black_plus_sign,,,,49,,,,,,,,,,,,,,
null,,prac_atten_color_black,126394,black_plus_sign,,,,null,,,,,,,,,,,,,,
666,,prac_atten_color,127448,prac_stop_color,,,,50,,,,,,,,,,,,,,
6.399999976158142,,prac_atten_color_black,129450,black_plus_sign,,,,49,,,,,,,,,,,,,,
10051.100000023842,,attentioncheck_feedback,139502,cross_check_feedback,,0,,,,,,,,,,,,,,,,
18247,,last_instruct,157749,instruct,,,,32,,,,,,,,,,,,,,
null,,learn_phase(without_color),159749,black_plus_sign,,,,null,GW/hat.jpg,GW/barrel.jpg,,,,,,,,,,,,
null,,black_cross(without_color),160460,green,,,,null,GW/hat.jpg,GW/barrel.jpg,,,,,,,,,,,,
null,,rt_plussign_withcolor,160961,green,,,,null,GW/hat.jpg,GW/barrel.jpg,,,,,,,,,,,,
953.3000000715256,,rt_thecrossant_black,162262,black_plus_sign,,,,50,,,1,1,,,,,,,,,,
null,,color_black,162363,black_plus_sign,,,,null,,,,,,,,,,,,,,
null,,learn_phase(without_color),164365,black_plus_sign,,,,null,GW/paint.jpg,GW/gong.jpg,,,,,,,,,,,,
null,,black_cross(without_color),164914,blue,,,,null,GW/paint.jpg,GW/gong.jpg,,,,,,,,,,,,
392.1999999284744,,rt_plussign_withcolor,165415,blue,,,,49,GW/paint.jpg,GW/gong.jpg,,,,,,,,,,,,
null,,rt_thecrossant_black,166869,black_plus_sign,,,,null,,,1,1,,,,,,,,,,
null,,color_black,166971,black_plus_sign,,,,null,,,,,,,,,,,,,,
null,,learn_phase(without_color),168977,black_plus_sign,,,,null,GW/paint.jpg,GW/camera.jpg,,,,,,,,,,,,
null,,black_cross(without_color),169808,green,,,,null,GW/paint.jpg,GW/camera.jpg,,,,,,,,,,,,
427,,rt_plussign_withcolor,170323,green,,,,50,GW/paint.jpg,GW/camera.jpg,,,,,,,,,,,,
null,,rt_thecrossant_black,171505,black_plus_sign,,,,null,,,1,1,,,,,,,,,,
null,,color_black,171605,black_plus_sign,,,,null,,,,,,,,,,,,,,
null,,learn_phase(without_color),173607,black_plus_sign,,,,null,GW/paint.jpg,GW/gong.jpg,,,,,,,,,,,,
null,,black_cross(without_color),174330,green,,,,null,GW/paint.jpg,GW/gong.jpg,,,,,,,,,,,,
445.7000000476837,,rt_plussign_withcolor,174832,green,,,,50,GW/paint.jpg,GW/gong.jpg,,,,,,,,,,,,
null,,rt_thecrossant_black,176112,black_plus_sign,,,,null,,,1,1,,,,,,,,,,
null,,color_black,176214,black_plus_sign,,,,null,,,,,,,,,,,,,,
null,,learn_phase(without_color),178216,black_plus_sign,,,,null,GW/camera.jpg,GW/snail.jpg,,,,,,,,,,,,
null,,black_cross(without_color),178647,blue,,,,null,GW/camera.jpg,GW/snail.jpg,,,,,,,,,,,,
null,,rt_plussign_withcolor,179149,blue,,,,null,GW/camera.jpg,GW/snail.jpg,,,,,,,,,,,,
948.7999999523163,,rt_thecrossant_black,180721,black_plus_sign,,,,49,,,1,1,,,,,,,,,,
null,,color_black,180823,black_plus_sign,,,,null,,,,,,,,,,,,,,
null,,learn_phase(without_color),182824,black_plus_sign,,,,null,GW/barrel.jpg,GW/soldier.jpg,,,,,,,,,,,,
null,,black_cross(without_color),183435,green,,,,null,GW/barrel.jpg,GW/soldier.jpg,,,,,,,,,,,,
387.5,,rt_plussign_withcolor,183936,green,,,,50,GW/barrel.jpg,GW/soldier.jpg,,,,,,,,,,,,
null,,rt_thecrossant_black,185327,black_plus_sign,,,,null,,,1,1,,,,,,,,,,
null,,color_black,185429,black_plus_sign,,,,null,,,,,,,,,,,,,,
null,,learn_phase(without_color),187431,black_plus_sign,,,,null,GW/paint.jpg,GW/gong.jpg,,,,,,,,,,,,
null,,black_cross(without_color),188036,blue,,,,null,GW/paint.jpg,GW/gong.jpg,,,,,,,,,,,,
490.39999997615814,,rt_plussign_withcolor,188537,blue,,,,49,GW/paint.jpg,GW/gong.jpg,,,,,,,,,,,,
null,,rt_thecrossant_black,189936,black_plus_sign,,,,null,,,1,1,,,,,,,,,,
null,,color_black,190037,black_plus_sign,,,,null,,,,,,,,,,,,,,
null,,learn_phase(without_color),192039,black_plus_sign,,,,null,GW/snail.jpg,GW/dustpan.jpg,,,,,,,,,,,,
null,,black_cross(without_color),192834,green,,,,null,GW/snail.jpg,GW/dustpan.jpg,,,,,,,,,,,,
372.1999999284744,,rt_plussign_withcolor,193336,green,,,,50,GW/snail.jpg,GW/dustpan.jpg,,,,,,,,,,,,
null,,rt_thecrossant_black,194544,black_plus_sign,,,,null,,,1,1,,,,,,,,,,
null,,color_black,194645,black_plus_sign,,,,null,,,,,,,,,,,,,,
null,,learn_phase(without_color),196647,black_plus_sign,,,,null,GW/hat.jpg,GW/globe.jpg,,,,,,,,,,,,
null,,black_cross(without_color),197186,green,,,,null,GW/hat.jpg,GW/globe.jpg,,,,,,,,,,,,
null,,rt_plussign_withcolor,197687,green,,,,null,GW/hat.jpg,GW/globe.jpg,,,,,,,,,,,,
896.8999999761581,,rt_thecrossant_black,199151,black_plus_sign,,,,50,,,1,1,,,,,,,,,,
null,,color_black,199253,black_plus_sign,,,,null,,,,,,,,,,,,,,
null,,learn_phase(without_color),201255,black_plus_sign,,,,null,GW/globe.jpg,GW/snail.jpg,,,,,,,,,,,,
null,,black_cross(without_color),202072,green,,,,null,GW/globe.jpg,GW/snail.jpg,,,,,,,,,,,,
472.60000002384186,,rt_plussign_withcolor,202574,green,,,,50,GW/globe.jpg,GW/snail.jpg,,,,,,,,,,,,
null,,rt_thecrossant_black,203761,black_plus_sign,,,,null,,,1,1,,,,,,,,,,
null,,color_black,203863,black_plus_sign,,,,null,,,,,,,,,,,,,,
null,,learn_phase(without_color),205864,black_plus_sign,,,,null,GW/soldier.jpg,GW/wheelchair.jpg,,,,,,,,,,,,
null,,black_cross(without_color),206490,green,,,,null,GW/soldier.jpg,GW/wheelchair.jpg,,,,,,,,,,,,
482.40000009536743,,rt_plussign_withcolor,206991,green,,,,50,GW/soldier.jpg,GW/wheelchair.jpg,,,,,,,,,,,,
null,,rt_thecrossant_black,208369,black_plus_sign,,,,null,,,1,1,,,,,,,,,,
null,,color_black,208470,black_plus_sign,,,,null,,,,,,,,,,,,,,
null,,learn_phase(without_color),210472,black_plus_sign,,,,null,GW/camera.jpg,GW/snail.jpg,,,,,,,,,,,,
null,,black_cross(without_color),211037,green,,,,null,GW/camera.jpg,GW/snail.jpg,,,,,,,,,,,,
null,,rt_plussign_withcolor,211538,green,,,,null,GW/camera.jpg,GW/snail.jpg,,,,,,,,,,,,
780.2999999523163,,rt_thecrossant_black,212975,black_plus_sign,,,,50,,,1,1,,,,,,,,,,
null,,color_black,213077,black_plus_sign,,,,null,,,,,,,,,,,,,,
null,,learn_phase(without_color),215079,black_plus_sign,,,,null,GW/paint.jpg,GW/camera.jpg,,,,,,,,,,,,
null,,black_cross(without_color),216034,green,,,,null,GW/paint.jpg,GW/camera.jpg,,,,,,,,,,,,
442,,rt_plussign_withcolor,216535,green,,,,50,GW/paint.jpg,GW/camera.jpg,,,,,,,,,,,,
null,,rt_thecrossant_black,217582,black_plus_sign,,,,null,,,1,1,,,,,,,,,,
null,,color_black,217683,black_plus_sign,,,,null,,,,,,,,,,,,,,
null,,learn_phase(without_color),219685,black_plus_sign,,,,null,GW/gong.jpg,GW/jukebox.jpg,,,,,,,,,,,,
null,,black_cross(without_color),220091,blue,,,,null,GW/gong.jpg,GW/jukebox.jpg,,,,,,,,,,,,
495.89999997615814,,rt_plussign_withcolor,220591,blue,,,,49,GW/gong.jpg,GW/jukebox.jpg,,,,,,,,,,,,
null,,rt_thecrossant_black,222189,black_plus_sign,,,,null,,,1,1,,,,,,,,,,
null,,color_black,222290,black_plus_sign,,,,null,,,,,,,,,,,,,,
null,,learn_phase(without_color),224292,black_plus_sign,,,,null,GW/barrel.jpg,GW/globe.jpg,,,,,,,,,,,,
null,,black_cross(without_color),225286,blue,,,,null,GW/barrel.jpg,GW/globe.jpg,,,,,,,,,,,,
null,,rt_plussign_withcolor,225787,blue,,,,null,GW/barrel.jpg,GW/globe.jpg,,,,,,,,,,,,
588.7999999523163,,rt_thecrossant_black,226798,black_plus_sign,,,,50,,,0,0.9333333333333333,,,,,,,,,,
null,,color_black,226899,black_plus_sign,,,,null,,,,,,,,,,,,,,
null,,learn_phase(without_color),228901,black_plus_sign,,,,null,GW/paint.jpg,GW/camera.jpg,,,,,,,,,,,,
null,,black_cross(without_color),229372,green,,,,null,GW/paint.jpg,GW/camera.jpg,,,,,,,,,,,,
null,,rt_plussign_withcolor,229874,green,,,,null,GW/paint.jpg,GW/camera.jpg,,,,,,,,,,,,
1108.5,,rt_thecrossant_black,231405,black_plus_sign,,,,50,,,1,0.9375,,,,,,,,,,
null,,color_black,231507,black_plus_sign,,,,null,,,,,,,,,,,,,,
null,,learn_phase(without_color),233509,black_plus_sign,,,,null,GW/barrel.jpg,GW/basket.jpg,,,,,,,,,,,,
null,,black_cross(without_color),234399,blue,,,,null,GW/barrel.jpg,GW/basket.jpg,,,,,,,,,,,,
459.1999999284744,,rt_plussign_withcolor,234900,blue,,,,50,GW/barrel.jpg,GW/basket.jpg,,,,,,,,,,,,
null,,rt_thecrossant_black,236012,black_plus_sign,,,,49,,,0,0.8823529411764706,,,,,,,,,,
null,,color_black,236114,black_plus_sign,,,,null,,,,,,,,,,,,,,
null,,learn_phase(without_color),238116,black_plus_sign,,,,null,GW/snail.jpg,GW/dustpan.jpg,,,,,,,,,,,,
null,,black_cross(without_color),238913,green,,,,null,GW/snail.jpg,GW/dustpan.jpg,,,,,,,,,,,,
357.60000002384186,,rt_plussign_withcolor,239415,green,,,,50,GW/snail.jpg,GW/dustpan.jpg,,,,,,,,,,,,
null,,rt_thecrossant_black,240621,black_plus_sign,,,,null,,,1,0.8888888888888888,,,,,,,,,,
null,,color_black,240722,black_plus_sign,,,,null,,,,,,,,,,,,,,
null,,learn_phase(without_color),242723,black_plus_sign,,,,null,GW/soldier.jpg,GW/wheelchair.jpg,,,,,,,,,,,,
null,,black_cross(without_color),243246,blue,,,,null,GW/soldier.jpg,GW/wheelchair.jpg,,,,,,,,,,,,
459,,rt_plussign_withcolor,243748,blue,,,,49,GW/soldier.jpg,GW/wheelchair.jpg,,,,,,,,,,,,
null,,rt_thecrossant_black,245228,black_plus_sign,,,,null,,,1,0.8947368421052632,,,,,,,,,,
null,,color_black,245329,black_plus_sign,,,,null,,,,,,,,,,,,,,
null,,learn_phase(without_color),247330,black_plus_sign,,,,null,GW/camera.jpg,GW/hat.jpg,,,,,,,,,,,,
null,,black_cross(without_color),247908,green,,,,null,GW/camera.jpg,GW/hat.jpg,,,,,,,,,,,,
419,,rt_plussign_withcolor,248408,green,,,,50,GW/camera.jpg,GW/hat.jpg,,,,,,,,,,,,
null,,rt_thecrossant_black,249833,black_plus_sign,,,,null,,,1,0.9,,,,,,,,,,
null,,color_black,249935,black_plus_sign,,,,null,,,,,,,,,,,,,,
null,,learn_phase(without_color),251936,black_plus_sign,,,,null,GW/barrel.jpg,GW/globe.jpg,,,,,,,,,,,,
null,,black_cross(without_color),252751,blue,,,,null,GW/barrel.jpg,GW/globe.jpg,,,,,,,,,,,,
443.5,,rt_plussign_withcolor,253264,blue,,,,49,GW/barrel.jpg,GW/globe.jpg,,,,,,,,,,,,
null,,rt_thecrossant_black,254453,black_plus_sign,,,,null,,,1,0.9047619047619048,,,,,,,,,,
null,,color_black,254554,black_plus_sign,,,,null,,,,,,,,,,,,,,
null,,learn_phase(without_color),256556,black_plus_sign,,,,null,GW/soldier.jpg,GW/wheelchair.jpg,,,,,,,,,,,,
null,,black_cross(without_color),257372,green,,,,null,GW/soldier.jpg,GW/wheelchair.jpg,,,,,,,,,,,,
484.89999997615814,,rt_plussign_withcolor,257872,green,,,,50,GW/soldier.jpg,GW/wheelchair.jpg,,,,,,,,,,,,
null,,rt_thecrossant_black,259059,black_plus_sign,,,,null,,,1,0.9090909090909091,,,,,,,,,,
null,,color_black,259162,black_plus_sign,,,,null,,,,,,,,,,,,,,
null,,learn_phase(without_color),261163,black_plus_sign,,,,null,GW/barrel.jpg,GW/globe.jpg,,,,,,,,,,,,
null,,black_cross(without_color),261753,blue,,,,null,GW/barrel.jpg,GW/globe.jpg,,,,,,,,,,,,
null,,rt_plussign_withcolor,262255,blue,,,,null,GW/barrel.jpg,GW/globe.jpg,,,,,,,,,,,,
929.3999999761581,,rt_thecrossant_black,263668,black_plus_sign,,,,49,,,1,0.9130434782608695,,,,,,,,,,
null,,color_black,263769,black_plus_sign,,,,null,,,,,,,,,,,,,,
null,,learn_phase(without_color),265771,black_plus_sign,,,,null,GW/barrel.jpg,GW/soldier.jpg,,,,,,,,,,,,
null,,black_cross(without_color),266724,blue,,,,null,GW/barrel.jpg,GW/soldier.jpg,,,,,,,,,,,,
492.40000009536743,,rt_plussign_withcolor,267226,blue,,,,49,GW/barrel.jpg,GW/soldier.jpg,,,,,,,,,,,,
null,,rt_thecrossant_black,268275,black_plus_sign,,,,null,,,1,0.9166666666666666,,,,,,,,,,
null,,color_black,268378,black_plus_sign,,,,null,,,,,,,,,,,,,,
null,,learn_phase(without_color),270379,black_plus_sign,,,,null,GW/teeth.jpg,GW/paint.jpg,,,,,,,,,,,,
null,,black_cross(without_color),270810,green,,,,null,GW/teeth.jpg,GW/paint.jpg,,,,,,,,,,,,
370.60000002384186,,rt_plussign_withcolor,271311,green,,,,50,GW/teeth.jpg,GW/paint.jpg,,,,,,,,,,,,
null,,rt_thecrossant_black,272882,black_plus_sign,,,,null,,,1,0.92,,,,,,,,,,
null,,color_black,272984,black_plus_sign,,,,null,,,,,,,,,,,,,,
null,,learn_phase(without_color),274986,black_plus_sign,,,,null,GW/barrel.jpg,GW/globe.jpg,,,,,,,,,,,,
null,,black_cross(without_color),275531,blue,,,,null,GW/barrel.jpg,GW/globe.jpg,,,,,,,,,,,,
415.2000000476837,,rt_plussign_withcolor,276033,blue,,,,49,GW/barrel.jpg,GW/globe.jpg,,,,,,,,,,,,
null,,rt_thecrossant_black,277490,black_plus_sign,,,,null,,,1,0.9230769230769231,,,,,,,,,,
null,,color_black,277591,black_plus_sign,,,,null,,,,,,,,,,,,,,
null,,learn_phase(without_color),279592,black_plus_sign,,,,null,GW/camera.jpg,GW/snail.jpg,,,,,,,,,,,,
null,,black_cross(without_color),280540,blue,,,,null,GW/camera.jpg,GW/snail.jpg,,,,,,,,,,,,
null,,rt_plussign_withcolor,281042,blue,,,,null,GW/camera.jpg,GW/snail.jpg,,,,,,,,,,,,
662.6999999284744,,rt_thecrossant_black,282098,black_plus_sign,,,,49,,,1,0.9259259259259259,,,,,,,,,,
null,,color_black,282200,black_plus_sign,,,,null,,,,,,,,,,,,,,
null,,learn_phase(without_color),284202,black_plus_sign,,,,null,GW/barrel.jpg,GW/basket.jpg,,,,,,,,,,,,
null,,black_cross(without_color),285068,green,,,,null,GW/barrel.jpg,GW/basket.jpg,,,,,,,,,,,,
488.2999999523163,,rt_plussign_withcolor,285569,green,,,,50,GW/barrel.jpg,GW/basket.jpg,,,,,,,,,,,,
null,,rt_thecrossant_black,286720,black_plus_sign,,,,null,,,1,0.9285714285714286,,,,,,,,,,
null,,color_black,286822,black_plus_sign,,,,null,,,,,,,,,,,,,,
null,,learn_phase(without_color),288823,black_plus_sign,,,,null,GW/soldier.jpg,GW/globe.jpg,,,,,,,,,,,,
null,,black_cross(without_color),289370,green,,,,null,GW/soldier.jpg,GW/globe.jpg,,,,,,,,,,,,
null,,rt_plussign_withcolor,289875,green,,,,null,GW/soldier.jpg,GW/globe.jpg,,,,,,,,,,,,
976.2000000476837,,rt_thecrossant_black,291331,black_plus_sign,,,,50,,,1,0.9310344827586207,,,,,,,,,,
null,,color_black,291432,black_plus_sign,,,,null,,,,,,,,,,,,,,
null,,learn_phase(without_color),293434,black_plus_sign,,,,null,GW/gong.jpg,GW/jukebox.jpg,,,,,,,,,,,,
null,,black_cross(without_color),293872,green,,,,null,GW/gong.jpg,GW/jukebox.jpg,,,,,,,,,,,,
458.7999999523163,,rt_plussign_withcolor,294372,green,,,,50,GW/gong.jpg,GW/jukebox.jpg,,,,,,,,,,,,
null,,rt_thecrossant_black,295937,black_plus_sign,,,,null,,,1,0.9333333333333333,,,,,,,,,,
null,,color_black,296039,black_plus_sign,,,,null,,,,,,,,,,,,,,
null,,learn_phase(without_color),298040,black_plus_sign,,,,null,GW/soldier.jpg,GW/globe.jpg,,,,,,,,,,,,
null,,black_cross(without_color),298956,green,,,,null,GW/soldier.jpg,GW/globe.jpg,,,,,,,,,,,,
null,,rt_plussign_withcolor,299457,green,,,,null,GW/soldier.jpg,GW/globe.jpg,,,,,,,,,,,,
628.3999999761581,,rt_thecrossant_black,300544,black_plus_sign,,,,50,,,1,0.9354838709677419,,,,,,,,,,
null,,color_black,300646,black_plus_sign,,,,null,,,,,,,,,,,,,,
null,,learn_phase(without_color),302647,black_plus_sign,,,,null,GW/paint.jpg,GW/gong.jpg,,,,,,,,,,,,
null,,black_cross(without_color),303553,blue,,,,null,GW/paint.jpg,GW/gong.jpg,,,,,,,,,,,,
419.39999997615814,,rt_plussign_withcolor,304055,blue,,,,49,GW/paint.jpg,GW/gong.jpg,,,,,,,,,,,,
null,,rt_thecrossant_black,305151,black_plus_sign,,,,null,,,1,0.9375,,,,,,,,,,
null,,color_black,305252,black_plus_sign,,,,null,,,,,,,,,,,,,,
null,,learn_phase(without_color),307254,black_plus_sign,,,,null,GW/globe.jpg,GW/snail.jpg,,,,,,,,,,,,
null,,black_cross(without_color),308334,blue,,,,null,GW/globe.jpg,GW/snail.jpg,,,,,,,,,,,,
null,,rt_plussign_withcolor,308835,blue,,,,null,GW/globe.jpg,GW/snail.jpg,,,,,,,,,,,,
1066.2000000476837,,rt_thecrossant_black,309758,black_plus_sign,,,,49,,,1,0.9393939393939394,,,,,,,,,,
null,,color_black,309859,black_plus_sign,,,,null,,,,,,,,,,,,,,
null,,learn_phase(without_color),311861,black_plus_sign,,,,null,GW/camera.jpg,GW/hat.jpg,,,,,,,,,,,,
null,,black_cross(without_color),312837,green,,,,null,GW/camera.jpg,GW/hat.jpg,,,,,,,,,,,,
435.6999999284744,,rt_plussign_withcolor,313338,green,,,,50,GW/camera.jpg,GW/hat.jpg,,,,,,,,,,,,
null,,rt_thecrossant_black,314367,black_plus_sign,,,,null,,,1,0.9411764705882353,,,,,,,,,,
null,,color_black,314469,black_plus_sign,,,,null,,,,,,,,,,,,,,
null,,learn_phase(without_color),316470,black_plus_sign,,,,null,GW/camera.jpg,GW/snail.jpg,,,,,,,,,,,,
null,,black_cross(without_color),317175,blue,,,,null,GW/camera.jpg,GW/snail.jpg,,,,,,,,,,,,
null,,rt_plussign_withcolor,317677,blue,,,,null,GW/camera.jpg,GW/snail.jpg,,,,,,,,,,,,
1104.8000000715256,,rt_thecrossant_black,318976,black_plus_sign,,,,49,,,1,0.9428571428571428,,,,,,,,,,
null,,color_black,319077,black_plus_sign,,,,null,,,,,,,,,,,,,,
null,,learn_phase(without_color),321079,black_plus_sign,,,,null,GW/hat.jpg,GW/barrel.jpg,,,,,,,,,,,,
null,,black_cross(without_color),321816,green,,,,null,GW/hat.jpg,GW/barrel.jpg,,,,,,,,,,,,
426.6999999284744,,rt_plussign_withcolor,322317,green,,,,50,GW/hat.jpg,GW/barrel.jpg,,,,,,,,,,,,
null,,rt_thecrossant_black,323583,black_plus_sign,,,,null,,,1,0.9444444444444444,,,,,,,,,,
null,,color_black,323685,black_plus_sign,,,,null,,,,,,,,,,,,,,
null,,learn_phase(without_color),325686,black_plus_sign,,,,null,GW/camera.jpg,GW/snail.jpg,,,,,,,,,,,,
null,,black_cross(without_color),326098,blue,,,,null,GW/camera.jpg,GW/snail.jpg,,,,,,,,,,,,
null,,rt_plussign_withcolor,326600,blue,,,,null,GW/camera.jpg,GW/snail.jpg,,,,,,,,,,,,
884.8999999761581,,rt_thecrossant_black,328190,black_plus_sign,,,,49,,,1,0.9459459459459459,,,,,,,,,,
null,,color_black,328292,black_plus_sign,,,,null,,,,,,,,,,,,,,
null,,learn_phase(without_color),330293,black_plus_sign,,,,null,GW/gong.jpg,GW/dustpan.jpg,,,,,,,,,,,,
null,,black_cross(without_color),331000,green,,,,null,GW/gong.jpg,GW/dustpan.jpg,,,,,,,,,,,,
412.5,,rt_plussign_withcolor,331501,green,,,,50,GW/gong.jpg,GW/dustpan.jpg,,,,,,,,,,,,
null,,rt_thecrossant_black,332797,black_plus_sign,,,,null,,,1,0.9473684210526315,,,,,,,,,,
null,,color_black,332898,black_plus_sign,,,,null,,,,,,,,,,,,,,
null,,learn_phase(without_color),334899,black_plus_sign,,,,null,GW/hat.jpg,GW/globe.jpg,,,,,,,,,,,,
null,,black_cross(without_color),335712,blue,,,,null,GW/hat.jpg,GW/globe.jpg,,,,,,,,,,,,
437.09999990463257,,rt_plussign_withcolor,336213,blue,,,,49,GW/hat.jpg,GW/globe.jpg,,,,,,,,,,,,
null,,rt_thecrossant_black,337403,black_plus_sign,,,,null,,,1,0.9487179487179487,,,,,,,,,,
null,,color_black,337504,black_plus_sign,,,,null,,,,,,,,,,,,,,
null,,learn_phase(without_color),339506,black_plus_sign,,,,null,GW/paint.jpg,GW/camera.jpg,,,,,,,,,,,,
null,,black_cross(without_color),340045,blue,,,,null,GW/paint.jpg,GW/camera.jpg,,,,,,,,,,,,
497.2999999523163,,rt_plussign_withcolor,340547,blue,,,,50,GW/paint.jpg,GW/camera.jpg,,,,,,,,,,,,
null,,rt_thecrossant_black,342011,black_plus_sign,,,,49,,,0,0.925,,,,,,,,,,
null,,color_black,342112,black_plus_sign,,,,null,,,,,,,,,,,,,,
null,,learn_phase(without_color),344114,black_plus_sign,,,,null,GW/camera.jpg,GW/hat.jpg,,,,,,,,,,,,
null,,black_cross(without_color),344878,green,,,,null,GW/camera.jpg,GW/hat.jpg,,,,,,,,,,,,
362.09999990463257,,rt_plussign_withcolor,345379,green,,,,50,GW/camera.jpg,GW/hat.jpg,,,,,,,,,,,,
null,,rt_thecrossant_black,346619,black_plus_sign,,,,null,,,1,0.926829268292683,,,,,,,,,,
null,,color_black,346721,black_plus_sign,,,,null,,,,,,,,,,,,,,
null,,learn_phase(without_color),348723,black_plus_sign,,,,null,GW/paint.jpg,GW/gong.jpg,,,,,,,,,,,,
null,,black_cross(without_color),349423,green,,,,null,GW/paint.jpg,GW/gong.jpg,,,,,,,,,,,,
null,,rt_plussign_withcolor,349925,green,,,,null,GW/paint.jpg,GW/gong.jpg,,,,,,,,,,,,
889.3999999761581,,rt_thecrossant_black,351228,black_plus_sign,,,,50,,,1,0.9285714285714286,,,,,,,,,,
null,,color_black,351330,black_plus_sign,,,,null,,,,,,,,,,,,,,
null,,learn_phase(without_color),353332,black_plus_sign,,,,null,GW/gong.jpg,GW/dustpan.jpg,,,,,,,,,,,,
null,,black_cross(without_color),354189,blue,,,,null,GW/gong.jpg,GW/dustpan.jpg,,,,,,,,,,,,
446.90000009536743,,rt_plussign_withcolor,354692,blue,,,,49,GW/gong.jpg,GW/dustpan.jpg,,,,,,,,,,,,
null,,rt_thecrossant_black,355837,black_plus_sign,,,,null,,,1,0.9302325581395349,,,,,,,,,,
null,,color_black,355939,black_plus_sign,,,,null,,,,,,,,,,,,,,
null,,learn_phase(without_color),357941,black_plus_sign,,,,null,GW/hat.jpg,GW/globe.jpg,,,,,,,,,,,,
null,,black_cross(without_color),358645,blue,,,,null,GW/hat.jpg,GW/globe.jpg,,,,,,,,,,,,
438.90000009536743,,rt_plussign_withcolor,359146,blue,,,,49,GW/hat.jpg,GW/globe.jpg,,,,,,,,,,,,
null,,rt_thecrossant_black,360446,black_plus_sign,,,,null,,,1,0.9318181818181818,,,,,,,,,,
null,,color_black,360548,black_plus_sign,,,,null,,,,,,,,,,,,,,
null,,learn_phase(without_color),362549,black_plus_sign,,,,null,GW/hat.jpg,GW/barrel.jpg,,,,,,,,,,,,
null,,black_cross(without_color),362995,blue,,,,null,GW/hat.jpg,GW/barrel.jpg,,,,,,,,,,,,
468.2999999523163,,rt_plussign_withcolor,363495,blue,,,,49,GW/hat.jpg,GW/barrel.jpg,,,,,,,,,,,,
null,,rt_thecrossant_black,365053,black_plus_sign,,,,null,,,1,0.9333333333333333,,,,,,,,,,
null,,color_black,365154,black_plus_sign,,,,null,,,,,,,,,,,,,,
null,,learn_phase(without_color),367156,black_plus_sign,,,,null,GW/camera.jpg,GW/hat.jpg,,,,,,,,,,,,
null,,black_cross(without_color),367768,blue,,,,null,GW/camera.jpg,GW/hat.jpg,,,,,,,,,,,,
468.89999997615814,,rt_plussign_withcolor,368270,blue,,,,49,GW/camera.jpg,GW/hat.jpg,,,,,,,,,,,,
null,,rt_thecrossant_black,369662,black_plus_sign,,,,null,,,1,0.9347826086956522,,,,,,,,,,
null,,color_black,369762,black_plus_sign,,,,null,,,,,,,,,,,,,,
null,,learn_phase(without_color),371764,black_plus_sign,,,,null,GW/barrel.jpg,GW/soldier.jpg,,,,,,,,,,,,
null,,black_cross(without_color),372335,green,,,,null,GW/barrel.jpg,GW/soldier.jpg,,,,,,,,,,,,
null,,rt_plussign_withcolor,372836,green,,,,null,GW/barrel.jpg,GW/soldier.jpg,,,,,,,,,,,,
756,,rt_thecrossant_black,374268,black_plus_sign,,,,50,,,1,0.9361702127659575,,,,,,,,,,
null,,color_black,374369,black_plus_sign,,,,null,,,,,,,,,,,,,,
null,,learn_phase(without_color),376371,black_plus_sign,,,,null,GW/hat.jpg,GW/globe.jpg,,,,,,,,,,,,
null,,black_cross(without_color),377395,blue,,,,null,GW/hat.jpg,GW/globe.jpg,,,,,,,,,,,,
null,,rt_plussign_withcolor,377896,blue,,,,null,GW/hat.jpg,GW/globe.jpg,,,,,,,,,,,,
706.8000000715256,,rt_thecrossant_black,378875,black_plus_sign,,,,49,,,1,0.9375,,,,,,,,,,
null,,color_black,378977,black_plus_sign,,,,null,,,,,,,,,,,,,,
null,,learn_phase(without_color),380979,black_plus_sign,,,,null,GW/camera.jpg,GW/snail.jpg,,,,,,,,,,,,
null,,black_cross(without_color),381746,blue,,,,null,GW/camera.jpg,GW/snail.jpg,,,,,,,,,,,,
444.1999999284744,,rt_plussign_withcolor,382247,blue,,,,49,GW/camera.jpg,GW/snail.jpg,,,,,,,,,,,,
null,,rt_thecrossant_black,383483,black_plus_sign,,,,null,,,1,0.9387755102040817,,,,,,,,,,
null,,color_black,383584,black_plus_sign,,,,null,,,,,,,,,,,,,,
null,,learn_phase(without_color),385586,black_plus_sign,,,,null,GW/gong.jpg,GW/jukebox.jpg,,,,,,,,,,,,
null,,black_cross(without_color),386559,green,,,,null,GW/gong.jpg,GW/jukebox.jpg,,,,,,,,,,,,
405.3000000715256,,rt_plussign_withcolor,387061,green,,,,50,GW/gong.jpg,GW/jukebox.jpg,,,,,,,,,,,,
null,,rt_thecrossant_black,388092,black_plus_sign,,,,null,,,1,0.94,,,,,,,,,,
null,,color_black,388193,black_plus_sign,,,,null,,,,,,,,,,,,,,
null,,learn_phase(without_color),390194,black_plus_sign,,,,null,GW/soldier.jpg,GW/globe.jpg,,,,,,,,,,,,
null,,black_cross(without_color),391209,green,,,,null,GW/soldier.jpg,GW/globe.jpg,,,,,,,,,,,,
null,,rt_plussign_withcolor,391710,green,,,,null,GW/soldier.jpg,GW/globe.jpg,,,,,,,,,,,,
1117.3999999761581,,rt_thecrossant_black,392697,black_plus_sign,,,,50,,,1,0.9411764705882353,,,,,,,,,,
null,,color_black,392799,black_plus_sign,,,,null,,,,,,,,,,,,,,
null,,learn_phase(without_color),394807,black_plus_sign,,,,null,GW/snail.jpg,GW/dustpan.jpg,,,,,,,,,,,,
null,,black_cross(without_color),395847,blue,,,,null,GW/snail.jpg,GW/dustpan.jpg,,,,,,,,,,,,
361,,rt_plussign_withcolor,396348,blue,,,,49,GW/snail.jpg,GW/dustpan.jpg,,,,,,,,,,,,
null,,rt_thecrossant_black,397312,black_plus_sign,,,,null,,,1,0.9423076923076923,,,,,,,,,,
null,,color_black,397415,black_plus_sign,,,,null,,,,,,,,,,,,,,
null,,learn_phase(without_color),399416,black_plus_sign,,,,null,GW/hat.jpg,GW/barrel.jpg,,,,,,,,,,,,
null,,black_cross(without_color),400135,green,,,,null,GW/hat.jpg,GW/barrel.jpg,,,,,,,,,,,,
null,,rt_plussign_withcolor,400637,green,,,,null,GW/hat.jpg,GW/barrel.jpg,,,,,,,,,,,,
1147.5999999046326,,rt_thecrossant_black,401921,black_plus_sign,,,,50,,,1,0.9433962264150944,,,,,,,,,,
null,,color_black,402022,black_plus_sign,,,,null,,,,,,,,,,,,,,
null,,learn_phase(without_color),404025,black_plus_sign,,,,null,GW/barrel.jpg,GW/basket.jpg,,,,,,,,,,,,
null,,black_cross(without_color),405084,blue,,,,null,GW/barrel.jpg,GW/basket.jpg,,,,,,,,,,,,
420.8000000715256,,rt_plussign_withcolor,405595,blue,,,,49,GW/barrel.jpg,GW/basket.jpg,,,,,,,,,,,,
null,,rt_thecrossant_black,406538,black_plus_sign,,,,null,,,1,0.9444444444444444,,,,,,,,,,
null,,color_black,406640,black_plus_sign,,,,null,,,,,,,,,,,,,,
null,,learn_phase(without_color),408642,black_plus_sign,,,,null,GW/gong.jpg,GW/jukebox.jpg,,,,,,,,,,,,
null,,black_cross(without_color),409480,green,,,,null,GW/gong.jpg,GW/jukebox.jpg,,,,,,,,,,,,
396.60000002384186,,rt_plussign_withcolor,409990,green,,,,50,GW/gong.jpg,GW/jukebox.jpg,,,,,,,,,,,,
null,,rt_thecrossant_black,411156,black_plus_sign,,,,null,,,1,0.9454545454545454,,,,,,,,,,
null,,color_black,411257,black_plus_sign,,,,null,,,,,,,,,,,,,,
null,,learn_phase(without_color),413258,black_plus_sign,,,,null,GW/snail.jpg,GW/dustpan.jpg,,,,,,,,,,,,
null,,black_cross(without_color),414307,blue,,,,null,GW/snail.jpg,GW/dustpan.jpg,,,,,,,,,,,,
435.39999997615814,,rt_plussign_withcolor,414809,blue,,,,49,GW/snail.jpg,GW/dustpan.jpg,,,,,,,,,,,,
null,,rt_thecrossant_black,415763,black_plus_sign,,,,null,,,1,0.9464285714285714,,,,,,,,,,
null,,color_black,415864,black_plus_sign,,,,null,,,,,,,,,,,,,,
null,,learn_phase(without_color),417865,black_plus_sign,,,,null,GW/hat.jpg,GW/globe.jpg,,,,,,,,,,,,
null,,black_cross(without_color),418536,green,,,,null,GW/hat.jpg,GW/globe.jpg,,,,,,,,,,,,
382,,rt_plussign_withcolor,419037,green,,,,50,GW/hat.jpg,GW/globe.jpg,,,,,,,,,,,,
null,,rt_thecrossant_black,420368,black_plus_sign,,,,null,,,1,0.9473684210526315,,,,,,,,,,
null,,color_black,420470,black_plus_sign,,,,null,,,,,,,,,,,,,,
null,,learn_phase(without_color),422472,black_plus_sign,,,,null,GW/globe.jpg,GW/snail.jpg,,,,,,,,,,,,
null,,black_cross(without_color),423518,green,,,,null,GW/globe.jpg,GW/snail.jpg,,,,,,,,,,,,
442.89999997615814,,rt_plussign_withcolor,424018,green,,,,50,GW/globe.jpg,GW/snail.jpg,,,,,,,,,,,,
null,,rt_thecrossant_black,424976,black_plus_sign,,,,null,,,1,0.9482758620689655,,,,,,,,,,
null,,color_black,425078,black_plus_sign,,,,null,,,,,,,,,,,,,,
null,,learn_phase(without_color),427079,black_plus_sign,,,,null,GW/camera.jpg,GW/hat.jpg,,,,,,,,,,,,
null,,black_cross(without_color),427864,green,,,,null,GW/camera.jpg,GW/hat.jpg,,,,,,,,,,,,
410.10000002384186,,rt_plussign_withcolor,428365,green,,,,50,GW/camera.jpg,GW/hat.jpg,,,,,,,,,,,,
null,,rt_thecrossant_black,429583,black_plus_sign,,,,null,,,1,0.9491525423728814,,,,,,,,,,
null,,color_black,429685,black_plus_sign,,,,null,,,,,,,,,,,,,,
null,,learn_phase(without_color),431687,black_plus_sign,,,,null,GW/snail.jpg,GW/dustpan.jpg,,,,,,,,,,,,
null,,black_cross(without_color),432736,green,,,,null,GW/snail.jpg,GW/dustpan.jpg,,,,,,,,,,,,
406.89999997615814,,rt_plussign_withcolor,433237,green,,,,50,GW/snail.jpg,GW/dustpan.jpg,,,,,,,,,,,,
null,,rt_thecrossant_black,434192,black_plus_sign,,,,null,,,1,0.95,,,,,,,,,,
null,,color_black,434294,black_plus_sign,,,,null,,,,,,,,,,,,,,
null,,learn_phase(without_color),436297,black_plus_sign,,,,null,GW/gong.jpg,GW/jukebox.jpg,,,,,,,,,,,,
null,,black_cross(without_color),436944,blue,,,,null,GW/gong.jpg,GW/jukebox.jpg,,,,,,,,,,,,
484.1999999284744,,rt_plussign_withcolor,437445,blue,,,,49,GW/gong.jpg,GW/jukebox.jpg,,,,,,,,,,,,
null,,rt_thecrossant_black,438800,black_plus_sign,,,,null,,,1,0.9508196721311475,,,,,,,,,,
null,,color_black,438901,black_plus_sign,,,,null,,,,,,,,,,,,,,
null,,learn_phase(without_color),440903,black_plus_sign,,,,null,GW/globe.jpg,GW/snail.jpg,,,,,,,,,,,,
null,,black_cross(without_color),441463,blue,,,,null,GW/globe.jpg,GW/snail.jpg,,,,,,,,,,,,
null,,rt_plussign_withcolor,441964,blue,,,,null,GW/globe.jpg,GW/snail.jpg,,,,,,,,,,,,
747.3999999761581,,rt_thecrossant_black,443406,black_plus_sign,,,,50,,,0,0.9354838709677419,,,,,,,,,,
null,,color_black,443508,black_plus_sign,,,,null,,,,,,,,,,,,,,
null,,learn_phase(without_color),445508,black_plus_sign,,,,null,GW/hat.jpg,GW/globe.jpg,,,,,,,,,,,,
null,,black_cross(without_color),446439,green,,,,null,GW/hat.jpg,GW/globe.jpg,,,,,,,,,,,,
362,,rt_plussign_withcolor,446947,green,,,,50,GW/hat.jpg,GW/globe.jpg,,,,,,,,,,,,
null,,rt_thecrossant_black,448021,black_plus_sign,,,,null,,,1,0.9365079365079365,,,,,,,,,,
null,,color_black,448123,black_plus_sign,,,,null,,,,,,,,,,,,,,
null,,learn_phase(without_color),450124,black_plus_sign,,,,null,GW/teeth.jpg,GW/paint.jpg,,,,,,,,,,,,
null,,black_cross(without_color),450882,green,,,,null,GW/teeth.jpg,GW/paint.jpg,,,,,,,,,,,,
470,,rt_plussign_withcolor,451383,green,,,,50,GW/teeth.jpg,GW/paint.jpg,,,,,,,,,,,,
null,,rt_thecrossant_black,452630,black_plus_sign,,,,49,,,1,0.9375,,,,,,,,,,
null,,color_black,452731,black_plus_sign,,,,null,,,,,,,,,,,,,,
null,,learn_phase(without_color),454732,black_plus_sign,,,,null,GW/soldier.jpg,GW/wheelchair.jpg,,,,,,,,,,,,
null,,black_cross(without_color),455832,green,,,,null,GW/soldier.jpg,GW/wheelchair.jpg,,,,,,,,,,,,
422.7000000476837,,rt_plussign_withcolor,456343,green,,,,50,GW/soldier.jpg,GW/wheelchair.jpg,,,,,,,,,,,,
null,,rt_thecrossant_black,457246,black_plus_sign,,,,null,,,1,0.9384615384615385,,,,,,,,,,
null,,color_black,457347,black_plus_sign,,,,null,,,,,,,,,,,,,,
null,,learn_phase(without_color),459349,black_plus_sign,,,,null,GW/soldier.jpg,GW/globe.jpg,,,,,,,,,,,,
null,,black_cross(without_color),459895,blue,,,,null,GW/soldier.jpg,GW/globe.jpg,,,,,,,,,,,,
null,,rt_plussign_withcolor,460397,blue,,,,null,GW/soldier.jpg,GW/globe.jpg,,,,,,,,,,,,
1226.6000000238419,,rt_thecrossant_black,461868,black_plus_sign,,,,49,,,1,0.9393939393939394,,,,,,,,,,
null,,color_black,461970,black_plus_sign,,,,null,,,,,,,,,,,,,,
null,,learn_phase(without_color),463972,black_plus_sign,,,,null,GW/teeth.jpg,GW/paint.jpg,,,,,,,,,,,,
null,,black_cross(without_color),465033,blue,,,,null,GW/teeth.jpg,GW/paint.jpg,,,,,,,,,,,,
481.5,,rt_plussign_withcolor,465534,blue,,,,49,GW/teeth.jpg,GW/paint.jpg,,,,,,,,,,,,
null,,rt_thecrossant_black,466476,black_plus_sign,,,,null,,,1,0.9402985074626866,,,,,,,,,,
null,,color_black,466577,black_plus_sign,,,,null,,,,,,,,,,,,,,
null,,learn_phase(without_color),468579,black_plus_sign,,,,null,GW/camera.jpg,GW/hat.jpg,,,,,,,,,,,,
null,,black_cross(without_color),469533,green,,,,null,GW/camera.jpg,GW/hat.jpg,,,,,,,,,,,,
null,,rt_plussign_withcolor,470034,green,,,,null,GW/camera.jpg,GW/hat.jpg,,,,,,,,,,,,
1172.3000000715256,,rt_thecrossant_black,471083,black_plus_sign,,,,50,,,1,0.9411764705882353,,,,,,,,,,
null,,color_black,471184,black_plus_sign,,,,null,,,,,,,,,,,,,,
null,,learn_phase(without_color),473186,black_plus_sign,,,,null,GW/globe.jpg,GW/snail.jpg,,,,,,,,,,,,
null,,black_cross(without_color),473753,green,,,,null,GW/globe.jpg,GW/snail.jpg,,,,,,,,,,,,
null,,rt_plussign_withcolor,474255,green,,,,null,GW/globe.jpg,GW/snail.jpg,,,,,,,,,,,,
1106.5,,rt_thecrossant_black,475689,black_plus_sign,,,,50,,,1,0.9420289855072463,,,,,,,,,,
null,,color_black,475791,black_plus_sign,,,,null,,,,,,,,,,,,,,
null,,learn_phase(without_color),477802,black_plus_sign,,,,null,GW/camera.jpg,GW/snail.jpg,,,,,,,,,,,,
null,,black_cross(without_color),478820,green,,,,null,GW/camera.jpg,GW/snail.jpg,,,,,,,,,,,,
404.1999999284744,,rt_plussign_withcolor,479322,green,,,,50,GW/camera.jpg,GW/snail.jpg,,,,,,,,,,,,
null,,rt_thecrossant_black,480306,black_plus_sign,,,,null,,,1,0.9428571428571428,,,,,,,,,,
null,,color_black,480407,black_plus_sign,,,,null,,,,,,,,,,,,,,
null,,learn_phase(without_color),482411,black_plus_sign,,,,null,GW/barrel.jpg,GW/soldier.jpg,,,,,,,,,,,,
null,,black_cross(without_color),482892,blue,,,,null,GW/barrel.jpg,GW/soldier.jpg,,,,,,,,,,,,
444.6999999284744,,rt_plussign_withcolor,483393,blue,,,,49,GW/barrel.jpg,GW/soldier.jpg,,,,,,,,,,,,
null,,rt_thecrossant_black,484915,black_plus_sign,,,,null,,,1,0.9436619718309859,,,,,,,,,,
null,,color_black,485016,black_plus_sign,,,,null,,,,,,,,,,,,,,
null,,learn_phase(without_color),487018,black_plus_sign,,,,null,GW/barrel.jpg,GW/basket.jpg,,,,,,,,,,,,
null,,black_cross(without_color),488062,green,,,,null,GW/barrel.jpg,GW/basket.jpg,,,,,,,,,,,,
null,,rt_plussign_withcolor,488564,green,,,,null,GW/barrel.jpg,GW/basket.jpg,,,,,,,,,,,,
728.7000000476837,,rt_thecrossant_black,489522,black_plus_sign,,,,50,,,1,0.9444444444444444,,,,,,,,,,
null,,color_black,489623,black_plus_sign,,,,null,,,,,,,,,,,,,,
null,,learn_phase(without_color),491625,black_plus_sign,,,,null,GW/gong.jpg,GW/dustpan.jpg,,,,,,,,,,,,
null,,black_cross(without_color),492703,blue,,,,null,GW/gong.jpg,GW/dustpan.jpg,,,,,,,,,,,,
369.2000000476837,,rt_plussign_withcolor,493205,blue,,,,49,GW/gong.jpg,GW/dustpan.jpg,,,,,,,,,,,,
null,,rt_thecrossant_black,494130,black_plus_sign,,,,null,,,1,0.9452054794520548,,,,,,,,,,
null,,color_black,494232,black_plus_sign,,,,null,,,,,,,,,,,,,,
null,,learn_phase(without_color),496238,black_plus_sign,,,,null,GW/soldier.jpg,GW/wheelchair.jpg,,,,,,,,,,,,
null,,black_cross(without_color),496933,green,,,,null,GW/soldier.jpg,GW/wheelchair.jpg,,,,,,,,,,,,
391,,rt_plussign_withcolor,497435,green,,,,50,GW/soldier.jpg,GW/wheelchair.jpg,,,,,,,,,,,,
null,,rt_thecrossant_black,498743,black_plus_sign,,,,null,,,1,0.9459459459459459,,,,,,,,,,
null,,color_black,498844,black_plus_sign,,,,null,,,,,,,,,,,,,,
null,,learn_phase(without_color),500846,black_plus_sign,,,,null,GW/camera.jpg,GW/hat.jpg,,,,,,,,,,,,
null,,black_cross(without_color),501592,blue,,,,null,GW/camera.jpg,GW/hat.jpg,,,,,,,,,,,,
402.5,,rt_plussign_withcolor,502096,blue,,,,49,GW/camera.jpg,GW/hat.jpg,,,,,,,,,,,,
null,,rt_thecrossant_black,503354,black_plus_sign,,,,null,,,1,0.9466666666666667,,,,,,,,,,
null,,color_black,503463,black_plus_sign,,,,null,,,,,,,,,,,,,,
null,,learn_phase(without_color),505472,black_plus_sign,,,,null,GW/gong.jpg,GW/jukebox.jpg,,,,,,,,,,,,
null,,black_cross(without_color),506509,blue,,,,null,GW/gong.jpg,GW/jukebox.jpg,,,,,,,,,,,,
null,,rt_plussign_withcolor,507011,blue,,,,null,GW/gong.jpg,GW/jukebox.jpg,,,,,,,,,,,,
859.2999999523163,,rt_thecrossant_black,507977,black_plus_sign,,,,49,,,1,0.9473684210526315,,,,,,,,,,
null,,color_black,508078,black_plus_sign,,,,null,,,,,,,,,,,,,,
null,,learn_phase(without_color),510079,black_plus_sign,,,,null,GW/teeth.jpg,GW/paint.jpg,,,,,,,,,,,,
null,,black_cross(without_color),511004,blue,,,,null,GW/teeth.jpg,GW/paint.jpg,,,,,,,,,,,,
460.89999997615814,,rt_plussign_withcolor,511506,blue,,,,49,GW/teeth.jpg,GW/paint.jpg,,,,,,,,,,,,
null,,rt_thecrossant_black,512595,black_plus_sign,,,,null,,,1,0.948051948051948,,,,,,,,,,
null,,color_black,512697,black_plus_sign,,,,null,,,,,,,,,,,,,,
null,,learn_phase(without_color),514698,black_plus_sign,,,,null,GW/snail.jpg,GW/dustpan.jpg,,,,,,,,,,,,
null,,black_cross(without_color),515778,blue,,,,null,GW/snail.jpg,GW/dustpan.jpg,,,,,,,,,,,,
null,,rt_plussign_withcolor,516279,blue,,,,null,GW/snail.jpg,GW/dustpan.jpg,,,,,,,,,,,,
1020.2999999523163,,rt_thecrossant_black,517202,black_plus_sign,,,,49,,,1,0.9487179487179487,,,,,,,,,,
null,,color_black,517303,black_plus_sign,,,,null,,,,,,,,,,,,,,
null,,learn_phase(without_color),519305,black_plus_sign,,,,null,GW/hat.jpg,GW/barrel.jpg,,,,,,,,,,,,
null,,black_cross(without_color),520341,green,,,,null,GW/hat.jpg,GW/barrel.jpg,,,,,,,,,,,,
399.7999999523163,,rt_plussign_withcolor,520842,green,,,,50,GW/hat.jpg,GW/barrel.jpg,,,,,,,,,,,,
null,,rt_thecrossant_black,521809,black_plus_sign,,,,null,,,1,0.9493670886075949,,,,,,,,,,
null,,color_black,521911,black_plus_sign,,,,null,,,,,,,,,,,,,,
null,,learn_phase(without_color),523912,black_plus_sign,,,,null,GW/soldier.jpg,GW/globe.jpg,,,,,,,,,,,,
null,,black_cross(without_color),524406,green,,,,null,GW/soldier.jpg,GW/globe.jpg,,,,,,,,,,,,
402.3000000715256,,rt_plussign_withcolor,524908,green,,,,50,GW/soldier.jpg,GW/globe.jpg,,,,,,,,,,,,
null,,rt_thecrossant_black,526416,black_plus_sign,,,,null,,,1,0.95,,,,,,,,,,
null,,color_black,526517,black_plus_sign,,,,null,,,,,,,,,,,,,,
null,,learn_phase(without_color),528519,black_plus_sign,,,,null,GW/gong.jpg,GW/dustpan.jpg,,,,,,,,,,,,
null,,black_cross(without_color),529554,green,,,,null,GW/gong.jpg,GW/dustpan.jpg,,,,,,,,,,,,
485.89999997615814,,rt_plussign_withcolor,530056,green,,,,50,GW/gong.jpg,GW/dustpan.jpg,,,,,,,,,,,,
null,,rt_thecrossant_black,531023,black_plus_sign,,,,null,,,1,0.9506172839506173,,,,,,,,,,
null,,color_black,531124,black_plus_sign,,,,null,,,,,,,,,,,,,,
null,,learn_phase(without_color),533125,black_plus_sign,,,,null,GW/hat.jpg,GW/barrel.jpg,,,,,,,,,,,,
null,,black_cross(without_color),534065,blue,,,,null,GW/hat.jpg,GW/barrel.jpg,,,,,,,,,,,,
483.6999999284744,,rt_plussign_withcolor,534565,blue,,,,50,GW/hat.jpg,GW/barrel.jpg,,,,,,,,,,,,
null,,rt_thecrossant_black,535640,black_plus_sign,,,,49,,,0,0.9390243902439024,,,,,,,,,,
null,,color_black,535742,black_plus_sign,,,,null,,,,,,,,,,,,,,
null,,learn_phase(without_color),537744,black_plus_sign,,,,null,GW/barrel.jpg,GW/globe.jpg,,,,,,,,,,,,
null,,black_cross(without_color),538550,green,,,,null,GW/barrel.jpg,GW/globe.jpg,,,,,,,,,,,,
366.7999999523163,,rt_plussign_withcolor,539065,green,,,,50,GW/barrel.jpg,GW/globe.jpg,,,,,,,,,,,,
null,,rt_thecrossant_black,540261,black_plus_sign,,,,null,,,1,0.9397590361445783,,,,,,,,,,
null,,color_black,540363,black_plus_sign,,,,null,,,,,,,,,,,,,,
null,,learn_phase(without_color),542365,black_plus_sign,,,,null,GW/gong.jpg,GW/dustpan.jpg,,,,,,,,,,,,
null,,black_cross(without_color),542802,green,,,,null,GW/gong.jpg,GW/dustpan.jpg,,,,,,,,,,,,
null,,rt_plussign_withcolor,543304,green,,,,null,GW/gong.jpg,GW/dustpan.jpg,,,,,,,,,,,,
977.1000000238419,,rt_thecrossant_black,544870,black_plus_sign,,,,50,,,1,0.9404761904761905,,,,,,,,,,
null,,color_black,544973,black_plus_sign,,,,null,,,,,,,,,,,,,,
null,,learn_phase(without_color),546974,black_plus_sign,,,,null,GW/paint.jpg,GW/gong.jpg,,,,,,,,,,,,
null,,black_cross(without_color),547618,green,,,,null,GW/paint.jpg,GW/gong.jpg,,,,,,,,,,,,
467.10000002384186,,rt_plussign_withcolor,548118,green,,,,50,GW/paint.jpg,GW/gong.jpg,,,,,,,,,,,,
null,,rt_thecrossant_black,549478,black_plus_sign,,,,null,,,1,0.9411764705882353,,,,,,,,,,
null,,color_black,549580,black_plus_sign,,,,null,,,,,,,,,,,,,,
null,,learn_phase(without_color),551582,black_plus_sign,,,,null,GW/soldier.jpg,GW/wheelchair.jpg,,,,,,,,,,,,
null,,black_cross(without_color),552346,blue,,,,null,GW/soldier.jpg,GW/wheelchair.jpg,,,,,,,,,,,,
450.3000000715256,,rt_plussign_withcolor,552847,blue,,,,49,GW/soldier.jpg,GW/wheelchair.jpg,,,,,,,,,,,,
null,,rt_thecrossant_black,554086,black_plus_sign,,,,null,,,1,0.9418604651162791,,,,,,,,,,
null,,color_black,554188,black_plus_sign,,,,null,,,,,,,,,,,,,,
null,,learn_phase(without_color),556190,black_plus_sign,,,,null,GW/snail.jpg,GW/dustpan.jpg,,,,,,,,,,,,
null,,black_cross(without_color),556904,green,,,,null,GW/snail.jpg,GW/dustpan.jpg,,,,,,,,,,,,
null,,rt_plussign_withcolor,557406,green,,,,null,GW/snail.jpg,GW/dustpan.jpg,,,,,,,,,,,,
909.6000000238419,,rt_thecrossant_black,558695,black_plus_sign,,,,50,,,1,0.9425287356321839,,,,,,,,,,
null,,color_black,558796,black_plus_sign,,,,null,,,,,,,,,,,,,,
null,,learn_phase(without_color),560798,black_plus_sign,,,,null,GW/teeth.jpg,GW/paint.jpg,,,,,,,,,,,,
null,,black_cross(without_color),561550,blue,,,,null,GW/teeth.jpg,GW/paint.jpg,,,,,,,,,,,,
462.2999999523163,,rt_plussign_withcolor,562051,blue,,,,49,GW/teeth.jpg,GW/paint.jpg,,,,,,,,,,,,
null,,rt_thecrossant_black,563303,black_plus_sign,,,,null,,,1,0.9431818181818182,,,,,,,,,,
null,,color_black,563404,black_plus_sign,,,,null,,,,,,,,,,,,,,
null,,learn_phase(without_color),565406,black_plus_sign,,,,null,GW/paint.jpg,GW/camera.jpg,,,,,,,,,,,,
null,,black_cross(without_color),566326,blue,,,,null,GW/paint.jpg,GW/camera.jpg,,,,,,,,,,,,
442.8000000715256,,rt_plussign_withcolor,566827,blue,,,,49,GW/paint.jpg,GW/camera.jpg,,,,,,,,,,,,
null,,rt_thecrossant_black,567910,black_plus_sign,,,,null,,,1,0.9438202247191011,,,,,,,,,,
null,,color_black,568011,black_plus_sign,,,,null,,,,,,,,,,,,,,
null,,learn_phase(without_color),570013,black_plus_sign,,,,null,GW/gong.jpg,GW/dustpan.jpg,,,,,,,,,,,,
null,,black_cross(without_color),570454,green,,,,null,GW/gong.jpg,GW/dustpan.jpg,,,,,,,,,,,,
462.8000000715256,,rt_plussign_withcolor,570956,green,,,,50,GW/gong.jpg,GW/dustpan.jpg,,,,,,,,,,,,
null,,rt_thecrossant_black,572516,black_plus_sign,,,,null,,,1,0.9444444444444444,,,,,,,,,,
null,,color_black,572618,black_plus_sign,,,,null,,,,,,,,,,,,,,
null,,learn_phase(without_color),574631,black_plus_sign,,,,null,GW/soldier.jpg,GW/globe.jpg,,,,,,,,,,,,
null,,black_cross(without_color),575687,green,,,,null,GW/soldier.jpg,GW/globe.jpg,,,,,,,,,,,,
454.10000002384186,,rt_plussign_withcolor,576189,green,,,,50,GW/soldier.jpg,GW/globe.jpg,,,,,,,,,,,,
null,,rt_thecrossant_black,577137,black_plus_sign,,,,null,,,1,0.945054945054945,,,,,,,,,,
null,,color_black,577238,black_plus_sign,,,,null,,,,,,,,,,,,,,
null,,learn_phase(without_color),579249,black_plus_sign,,,,null,GW/barrel.jpg,GW/globe.jpg,,,,,,,,,,,,
null,,black_cross(without_color),580231,green,,,,null,GW/barrel.jpg,GW/globe.jpg,,,,,,,,,,,,
445.2999999523163,,rt_plussign_withcolor,580733,green,,,,50,GW/barrel.jpg,GW/globe.jpg,,,,,,,,,,,,
null,,rt_thecrossant_black,581753,black_plus_sign,,,,null,,,1,0.9456521739130435,,,,,,,,,,
null,,color_black,581855,black_plus_sign,,,,null,,,,,,,,,,,,,,
null,,learn_phase(without_color),583857,black_plus_sign,,,,null,GW/teeth.jpg,GW/paint.jpg,,,,,,,,,,,,
null,,black_cross(without_color),584286,green,,,,null,GW/teeth.jpg,GW/paint.jpg,,,,,,,,,,,,
426.59999990463257,,rt_plussign_withcolor,584788,green,,,,50,GW/teeth.jpg,GW/paint.jpg,,,,,,,,,,,,
null,,rt_thecrossant_black,586365,black_plus_sign,,,,null,,,1,0.946236559139785,,,,,,,,,,
null,,color_black,586467,black_plus_sign,,,,null,,,,,,,,,,,,,,
null,,learn_phase(without_color),588468,black_plus_sign,,,,null,GW/hat.jpg,GW/globe.jpg,,,,,,,,,,,,
null,,black_cross(without_color),589407,blue,,,,null,GW/hat.jpg,GW/globe.jpg,,,,,,,,,,,,
467.59999990463257,,rt_plussign_withcolor,589908,blue,,,,49,GW/hat.jpg,GW/globe.jpg,,,,,,,,,,,,
null,,rt_thecrossant_black,590973,black_plus_sign,,,,null,,,1,0.9468085106382979,,,,,,,,,,
null,,color_black,591075,black_plus_sign,,,,null,,,,,,,,,,,,,,
null,,learn_phase(without_color),593076,black_plus_sign,,,,null,GW/teeth.jpg,GW/paint.jpg,,,,,,,,,,,,
null,,black_cross(without_color),593792,green,,,,null,GW/teeth.jpg,GW/paint.jpg,,,,,,,,,,,,
476.09999990463257,,rt_plussign_withcolor,594293,green,,,,50,GW/teeth.jpg,GW/paint.jpg,,,,,,,,,,,,
null,,rt_thecrossant_black,595581,black_plus_sign,,,,null,,,1,0.9473684210526315,,,,,,,,,,
null,,color_black,595682,black_plus_sign,,,,null,,,,,,,,,,,,,,
null,,learn_phase(without_color),597685,black_plus_sign,,,,null,GW/paint.jpg,GW/gong.jpg,,,,,,,,,,,,
null,,black_cross(without_color),598702,green,,,,null,GW/paint.jpg,GW/gong.jpg,,,,,,,,,,,,
378.2999999523163,,rt_plussign_withcolor,599204,green,,,,50,GW/paint.jpg,GW/gong.jpg,,,,,,,,,,,,
null,,rt_thecrossant_black,600189,black_plus_sign,,,,null,,,1,0.9479166666666666,,,,,,,,,,
null,,color_black,600290,black_plus_sign,,,,null,,,,,,,,,,,,,,
null,,learn_phase(without_color),602292,black_plus_sign,,,,null,GW/barrel.jpg,GW/soldier.jpg,,,,,,,,,,,,
null,,black_cross(without_color),603060,green,,,,null,GW/barrel.jpg,GW/soldier.jpg,,,,,,,,,,,,
462.89999997615814,,rt_plussign_withcolor,603561,green,,,,50,GW/barrel.jpg,GW/soldier.jpg,,,,,,,,,,,,
null,,rt_thecrossant_black,604795,black_plus_sign,,,,null,,,1,0.9484536082474226,,,,,,,,,,
null,,color_black,604896,black_plus_sign,,,,null,,,,,,,,,,,,,,
null,,learn_phase(without_color),606898,black_plus_sign,,,,null,GW/gong.jpg,GW/dustpan.jpg,,,,,,,,,,,,
null,,black_cross(without_color),607541,blue,,,,null,GW/gong.jpg,GW/dustpan.jpg,,,,,,,,,,,,
460.60000002384186,,rt_plussign_withcolor,608042,blue,,,,49,GW/gong.jpg,GW/dustpan.jpg,,,,,,,,,,,,
null,,rt_thecrossant_black,609403,black_plus_sign,,,,null,,,1,0.9489795918367347,,,,,,,,,,
null,,color_black,609504,black_plus_sign,,,,null,,,,,,,,,,,,,,
null,,learn_phase(without_color),611505,black_plus_sign,,,,null,GW/soldier.jpg,GW/globe.jpg,,,,,,,,,,,,
null,,black_cross(without_color),612321,green,,,,null,GW/soldier.jpg,GW/globe.jpg,,,,,,,,,,,,
405.7000000476837,,rt_plussign_withcolor,612822,green,,,,50,GW/soldier.jpg,GW/globe.jpg,,,,,,,,,,,,
null,,rt_thecrossant_black,614009,black_plus_sign,,,,null,,,1,0.9494949494949495,,,,,,,,,,
null,,color_black,614110,black_plus_sign,,,,null,,,,,,,,,,,,,,
null,,learn_phase(without_color),616127,black_plus_sign,,,,null,GW/gong.jpg,GW/jukebox.jpg,,,,,,,,,,,,
null,,black_cross(without_color),617109,blue,,,,null,GW/gong.jpg,GW/jukebox.jpg,,,,,,,,,,,,
485.2999999523163,,rt_plussign_withcolor,617611,blue,,,,49,GW/gong.jpg,GW/jukebox.jpg,,,,,,,,,,,,
null,,rt_thecrossant_black,618632,black_plus_sign,,,,null,,,1,0.95,,,,,,,,,,
null,,color_black,618734,black_plus_sign,,,,null,,,,,,,,,,,,,,
null,,learn_phase(without_color),620735,black_plus_sign,,,,null,GW/soldier.jpg,GW/globe.jpg,,,,,,,,,,,,
null,,black_cross(without_color),621247,blue,,,,null,GW/soldier.jpg,GW/globe.jpg,,,,,,,,,,,,
null,,rt_plussign_withcolor,621748,blue,,,,null,GW/soldier.jpg,GW/globe.jpg,,,,,,,,,,,,
1112.0999999046326,,rt_thecrossant_black,623241,black_plus_sign,,,,50,,,0,0.9405940594059405,,,,,,,,,,
null,,color_black,623343,black_plus_sign,,,,null,,,,,,,,,,,,,,
null,,learn_phase(without_color),625345,black_plus_sign,,,,null,GW/barrel.jpg,GW/soldier.jpg,,,,,,,,,,,,
null,,black_cross(without_color),626157,green,,,,null,GW/barrel.jpg,GW/soldier.jpg,,,,,,,,,,,,
365.7999999523163,,rt_plussign_withcolor,626658,green,,,,50,GW/barrel.jpg,GW/soldier.jpg,,,,,,,,,,,,
null,,rt_thecrossant_black,627849,black_plus_sign,,,,null,,,1,0.9411764705882353,,,,,,,,,,
null,,color_black,627951,black_plus_sign,,,,null,,,,,,,,,,,,,,
null,,learn_phase(without_color),629952,black_plus_sign,,,,null,GW/globe.jpg,GW/snail.jpg,,,,,,,,,,,,
null,,black_cross(without_color),630530,green,,,,null,GW/globe.jpg,GW/snail.jpg,,,,,,,,,,,,
394.10000002384186,,rt_plussign_withcolor,631031,green,,,,50,GW/globe.jpg,GW/snail.jpg,,,,,,,,,,,,
null,,rt_thecrossant_black,632455,black_plus_sign,,,,null,,,1,0.941747572815534,,,,,,,,,,
null,,color_black,632557,black_plus_sign,,,,null,,,,,,,,,,,,,,
null,,learn_phase(without_color),634559,black_plus_sign,,,,null,GW/camera.jpg,GW/hat.jpg,,,,,,,,,,,,
null,,black_cross(without_color),635603,green,,,,null,GW/camera.jpg,GW/hat.jpg,,,,,,,,,,,,
409.89999997615814,,rt_plussign_withcolor,636104,green,,,,50,GW/camera.jpg,GW/hat.jpg,,,,,,,,,,,,
null,,rt_thecrossant_black,637068,black_plus_sign,,,,null,,,1,0.9423076923076923,,,,,,,,,,
null,,color_black,637169,black_plus_sign,,,,null,,,,,,,,,,,,,,
null,,learn_phase(without_color),639170,black_plus_sign,,,,null,GW/paint.jpg,GW/camera.jpg,,,,,,,,,,,,
null,,black_cross(without_color),639853,blue,,,,null,GW/paint.jpg,GW/camera.jpg,,,,,,,,,,,,
474.1999999284744,,rt_plussign_withcolor,640353,blue,,,,49,GW/paint.jpg,GW/camera.jpg,,,,,,,,,,,,
null,,rt_thecrossant_black,641685,black_plus_sign,,,,null,,,1,0.9428571428571428,,,,,,,,,,
null,,color_black,641795,black_plus_sign,,,,null,,,,,,,,,,,,,,
null,,learn_phase(without_color),643797,black_plus_sign,,,,null,GW/gong.jpg,GW/dustpan.jpg,,,,,,,,,,,,
null,,black_cross(without_color),644749,blue,,,,null,GW/gong.jpg,GW/dustpan.jpg,,,,,,,,,,,,
null,,rt_plussign_withcolor,645251,blue,,,,null,GW/gong.jpg,GW/dustpan.jpg,,,,,,,,,,,,
887.1000000238419,,rt_thecrossant_black,646303,black_plus_sign,,,,50,,,0,0.9339622641509434,,,,,,,,,,
null,,color_black,646404,black_plus_sign,,,,null,,,,,,,,,,,,,,
null,,learn_phase(without_color),648406,black_plus_sign,,,,null,GW/hat.jpg,GW/globe.jpg,,,,,,,,,,,,
null,,black_cross(without_color),649429,green,,,,null,GW/hat.jpg,GW/globe.jpg,,,,,,,,,,,,
362.89999997615814,,rt_plussign_withcolor,649930,green,,,,50,GW/hat.jpg,GW/globe.jpg,,,,,,,,,,,,
null,,rt_thecrossant_black,650909,black_plus_sign,,,,null,,,1,0.9345794392523364,,,,,,,,,,
null,,color_black,651011,black_plus_sign,,,,null,,,,,,,,,,,,,,
null,,learn_phase(without_color),653013,black_plus_sign,,,,null,GW/barrel.jpg,GW/globe.jpg,,,,,,,,,,,,
null,,black_cross(without_color),654019,green,,,,null,GW/barrel.jpg,GW/globe.jpg,,,,,,,,,,,,
500.10000002384186,,rt_plussign_withcolor,654519,green,,,,50,GW/barrel.jpg,GW/globe.jpg,,,,,,,,,,,,
null,,rt_thecrossant_black,655517,black_plus_sign,,,,null,,,1,0.9351851851851852,,,,,,,,,,
null,,color_black,655618,black_plus_sign,,,,null,,,,,,,,,,,,,,
null,,learn_phase(without_color),657620,black_plus_sign,,,,null,GW/soldier.jpg,GW/wheelchair.jpg,,,,,,,,,,,,
null,,black_cross(without_color),658609,blue,,,,null,GW/soldier.jpg,GW/wheelchair.jpg,,,,,,,,,,,,
null,,rt_plussign_withcolor,659109,blue,,,,null,GW/soldier.jpg,GW/wheelchair.jpg,,,,,,,,,,,,
1211.2999999523163,,rt_thecrossant_black,660136,black_plus_sign,,,,49,,,1,0.9357798165137615,,,,,,,,,,
null,,color_black,660238,black_plus_sign,,,,null,,,,,,,,,,,,,,
null,,learn_phase(without_color),662240,black_plus_sign,,,,null,GW/barrel.jpg,GW/basket.jpg,,,,,,,,,,,,
null,,black_cross(without_color),663052,blue,,,,null,GW/barrel.jpg,GW/basket.jpg,,,,,,,,,,,,
495.10000002384186,,rt_plussign_withcolor,663553,blue,,,,49,GW/barrel.jpg,GW/basket.jpg,,,,,,,,,,,,
null,,rt_thecrossant_black,664745,black_plus_sign,,,,null,,,1,0.9363636363636364,,,,,,,,,,
null,,color_black,664847,black_plus_sign,,,,null,,,,,,,,,,,,,,
null,,learn_phase(without_color),666848,black_plus_sign,,,,null,GW/barrel.jpg,GW/globe.jpg,,,,,,,,,,,,
null,,black_cross(without_color),667436,blue,,,,null,GW/barrel.jpg,GW/globe.jpg,,,,,,,,,,,,
383.1999999284744,,rt_plussign_withcolor,667937,blue,,,,49,GW/barrel.jpg,GW/globe.jpg,,,,,,,,,,,,
null,,rt_thecrossant_black,669352,black_plus_sign,,,,null,,,1,0.9369369369369369,,,,,,,,,,
null,,color_black,669454,black_plus_sign,,,,null,,,,,,,,,,,,,,
null,,learn_phase(without_color),671456,black_plus_sign,,,,null,GW/hat.jpg,GW/barrel.jpg,,,,,,,,,,,,
null,,black_cross(without_color),672400,blue,,,,null,GW/hat.jpg,GW/barrel.jpg,,,,,,,,,,,,
446.3000000715256,,rt_plussign_withcolor,672901,blue,,,,49,GW/hat.jpg,GW/barrel.jpg,,,,,,,,,,,,
null,,rt_thecrossant_black,673960,black_plus_sign,,,,null,,,1,0.9375,,,,,,,,,,
null,,color_black,674062,black_plus_sign,,,,null,,,,,,,,,,,,,,
null,,learn_phase(without_color),676064,black_plus_sign,,,,null,GW/barrel.jpg,GW/soldier.jpg,,,,,,,,,,,,
null,,black_cross(without_color),676815,blue,,,,null,GW/barrel.jpg,GW/soldier.jpg,,,,,,,,,,,,
null,,rt_plussign_withcolor,677317,blue,,,,null,GW/barrel.jpg,GW/soldier.jpg,,,,,,,,,,,,
1050.6000000238419,,rt_thecrossant_black,678569,black_plus_sign,,,,49,,,1,0.9380530973451328,,,,,,,,,,
null,,color_black,678671,black_plus_sign,,,,null,,,,,,,,,,,,,,
null,,learn_phase(without_color),680673,black_plus_sign,,,,null,GW/globe.jpg,GW/snail.jpg,,,,,,,,,,,,
null,,black_cross(without_color),681123,green,,,,null,GW/globe.jpg,GW/snail.jpg,,,,,,,,,,,,
null,,rt_plussign_withcolor,681625,green,,,,null,GW/globe.jpg,GW/snail.jpg,,,,,,,,,,,,
926.3999999761581,,rt_thecrossant_black,683178,black_plus_sign,,,,50,,,1,0.9385964912280702,,,,,,,,,,
null,,color_black,683279,black_plus_sign,,,,null,,,,,,,,,,,,,,
null,,learn_phase(without_color),685281,black_plus_sign,,,,null,GW/paint.jpg,GW/camera.jpg,,,,,,,,,,,,
null,,black_cross(without_color),686310,blue,,,,null,GW/paint.jpg,GW/camera.jpg,,,,,,,,,,,,
470.2000000476837,,rt_plussign_withcolor,686811,blue,,,,49,GW/paint.jpg,GW/camera.jpg,,,,,,,,,,,,
null,,rt_thecrossant_black,687784,black_plus_sign,,,,null,,,1,0.9391304347826087,,,,,,,,,,
null,,color_black,687887,black_plus_sign,,,,null,,,,,,,,,,,,,,
null,,learn_phase(without_color),689889,black_plus_sign,,,,null,GW/camera.jpg,GW/snail.jpg,,,,,,,,,,,,
null,,black_cross(without_color),690968,green,,,,null,GW/camera.jpg,GW/snail.jpg,,,,,,,,,,,,
452.8000000715256,,rt_plussign_withcolor,691469,green,,,,50,GW/camera.jpg,GW/snail.jpg,,,,,,,,,,,,
null,,rt_thecrossant_black,692394,black_plus_sign,,,,null,,,1,0.9396551724137931,,,,,,,,,,
null,,color_black,692495,black_plus_sign,,,,null,,,,,,,,,,,,,,
null,,learn_phase(without_color),694497,black_plus_sign,,,,null,GW/globe.jpg,GW/snail.jpg,,,,,,,,,,,,
null,,black_cross(without_color),695375,green,,,,null,GW/globe.jpg,GW/snail.jpg,,,,,,,,,,,,
399.7000000476837,,rt_plussign_withcolor,695877,green,,,,50,GW/globe.jpg,GW/snail.jpg,,,,,,,,,,,,
null,,rt_thecrossant_black,697003,black_plus_sign,,,,null,,,1,0.9401709401709402,,,,,,,,,,
null,,color_black,697104,black_plus_sign,,,,null,,,,,,,,,,,,,,
null,,learn_phase(without_color),699106,black_plus_sign,,,,null,GW/hat.jpg,GW/barrel.jpg,,,,,,,,,,,,
null,,black_cross(without_color),699883,green,,,,null,GW/hat.jpg,GW/barrel.jpg,,,,,,,,,,,,
495.10000002384186,,rt_plussign_withcolor,700384,green,,,,50,GW/hat.jpg,GW/barrel.jpg,,,,,,,,,,,,
null,,rt_thecrossant_black,701609,black_plus_sign,,,,null,,,1,0.940677966101695,,,,,,,,,,
null,,color_black,701711,black_plus_sign,,,,null,,,,,,,,,,,,,,
null,,learn_phase(without_color),703713,black_plus_sign,,,,null,GW/barrel.jpg,GW/basket.jpg,,,,,,,,,,,,
null,,black_cross(without_color),704189,blue,,,,null,GW/barrel.jpg,GW/basket.jpg,,,,,,,,,,,,
439.89999997615814,,rt_plussign_withcolor,704691,blue,,,,49,GW/barrel.jpg,GW/basket.jpg,,,,,,,,,,,,
null,,rt_thecrossant_black,706218,black_plus_sign,,,,null,,,1,0.9411764705882353,,,,,,,,,,
null,,color_black,706320,black_plus_sign,,,,null,,,,,,,,,,,,,,
null,,learn_phase(without_color),708321,black_plus_sign,,,,null,GW/barrel.jpg,GW/soldier.jpg,,,,,,,,,,,,
null,,black_cross(without_color),708907,blue,,,,null,GW/barrel.jpg,GW/soldier.jpg,,,,,,,,,,,,
407.7999999523163,,rt_plussign_withcolor,709408,blue,,,,50,GW/barrel.jpg,GW/soldier.jpg,,,,,,,,,,,,
null,,rt_thecrossant_black,710825,black_plus_sign,,,,49,,,0,0.9333333333333333,,,,,,,,,,
null,,color_black,710939,black_plus_sign,,,,null,,,,,,,,,,,,,,
null,,learn_phase(without_color),712941,black_plus_sign,,,,null,GW/teeth.jpg,GW/paint.jpg,,,,,,,,,,,,
null,,black_cross(without_color),713707,green,,,,null,GW/teeth.jpg,GW/paint.jpg,,,,,,,,,,,,
389.39999997615814,,rt_plussign_withcolor,714209,green,,,,50,GW/teeth.jpg,GW/paint.jpg,,,,,,,,,,,,
null,,rt_thecrossant_black,715445,black_plus_sign,,,,null,,,1,0.9338842975206612,,,,,,,,,,
null,,color_black,715553,black_plus_sign,,,,null,,,,,,,,,,,,,,
null,,learn_phase(without_color),717554,black_plus_sign,,,,null,GW/barrel.jpg,GW/basket.jpg,,,,,,,,,,,,
null,,black_cross(without_color),718277,blue,,,,null,GW/barrel.jpg,GW/basket.jpg,,,,,,,,,,,,
null,,rt_plussign_withcolor,718779,blue,,,,null,GW/barrel.jpg,GW/basket.jpg,,,,,,,,,,,,
940.7000000476837,,rt_thecrossant_black,720058,black_plus_sign,,,,49,,,1,0.9344262295081968,,,,,,,,,,
null,,color_black,720160,black_plus_sign,,,,null,,,,,,,,,,,,,,
null,,learn_phase(without_color),722169,black_plus_sign,,,,null,GW/gong.jpg,GW/jukebox.jpg,,,,,,,,,,,,
null,,black_cross(without_color),722677,green,,,,null,GW/gong.jpg,GW/jukebox.jpg,,,,,,,,,,,,
496.1999999284744,,rt_plussign_withcolor,723179,green,,,,50,GW/gong.jpg,GW/jukebox.jpg,,,,,,,,,,,,
null,,rt_thecrossant_black,724675,black_plus_sign,,,,null,,,1,0.9349593495934959,,,,,,,,,,
null,,color_black,724776,black_plus_sign,,,,null,,,,,,,,,,,,,,
null,,learn_phase(without_color),726778,black_plus_sign,,,,null,GW/barrel.jpg,GW/basket.jpg,,,,,,,,,,,,
null,,black_cross(without_color),727821,blue,,,,null,GW/barrel.jpg,GW/basket.jpg,,,,,,,,,,,,
443.2000000476837,,rt_plussign_withcolor,728322,blue,,,,49,GW/barrel.jpg,GW/basket.jpg,,,,,,,,,,,,
null,,rt_thecrossant_black,729281,black_plus_sign,,,,null,,,1,0.9354838709677419,,,,,,,,,,
null,,color_black,729383,black_plus_sign,,,,null,,,,,,,,,,,,,,
null,,learn_phase(without_color),731394,black_plus_sign,,,,null,GW/paint.jpg,GW/camera.jpg,,,,,,,,,,,,
null,,black_cross(without_color),731841,green,,,,null,GW/paint.jpg,GW/camera.jpg,,,,,,,,,,,,
473.8000000715256,,rt_plussign_withcolor,732342,green,,,,50,GW/paint.jpg,GW/camera.jpg,,,,,,,,,,,,
null,,rt_thecrossant_black,733899,black_plus_sign,,,,null,,,1,0.936,,,,,,,,,,
null,,color_black,734000,black_plus_sign,,,,null,,,,,,,,,,,,,,
null,,learn_phase(without_color),736002,black_plus_sign,,,,null,GW/soldier.jpg,GW/wheelchair.jpg,,,,,,,,,,,,
null,,black_cross(without_color),737001,green,,,,null,GW/soldier.jpg,GW/wheelchair.jpg,,,,,,,,,,,,
417.39999997615814,,rt_plussign_withcolor,737503,green,,,,50,GW/soldier.jpg,GW/wheelchair.jpg,,,,,,,,,,,,
null,,rt_thecrossant_black,738506,black_plus_sign,,,,null,,,1,0.9365079365079365,,,,,,,,,,
null,,color_black,738608,black_plus_sign,,,,null,,,,,,,,,,,,,,
null,,learn_phase(without_color),740610,black_plus_sign,,,,null,GW/snail.jpg,GW/dustpan.jpg,,,,,,,,,,,,
null,,black_cross(without_color),741278,green,,,,null,GW/snail.jpg,GW/dustpan.jpg,,,,,,,,,,,,
390.7000000476837,,rt_plussign_withcolor,741779,green,,,,50,GW/snail.jpg,GW/dustpan.jpg,,,,,,,,,,,,
null,,rt_thecrossant_black,743115,black_plus_sign,,,,null,,,1,0.937007874015748,,,,,,,,,,
null,,color_black,743218,black_plus_sign,,,,null,,,,,,,,,,,,,,
null,,learn_phase(without_color),745219,black_plus_sign,,,,null,GW/paint.jpg,GW/gong.jpg,,,,,,,,,,,,
null,,black_cross(without_color),746276,green,,,,null,GW/paint.jpg,GW/gong.jpg,,,,,,,,,,,,
433.89999997615814,,rt_plussign_withcolor,746778,green,,,,50,GW/paint.jpg,GW/gong.jpg,,,,,,,,,,,,
null,,rt_thecrossant_black,747727,black_plus_sign,,,,null,,,1,0.9375,,,,,,,,,,
null,,color_black,747829,black_plus_sign,,,,null,,,,,,,,,,,,,,
9007.399999976158,,intro_1,756837,instruct,,0,Start,,,,,,,,,,,,,,,
4340.600000023842,,directmemory_phase,761179,GW/gong.jpg,,,,49,,,1,1,GW/dustpan.jpg,GW/hat.jpg,GW/teeth.jpg,GW/dustpan.jpg,GW/teeth.jpg,GW/hat.jpg,1,,,
null,,html-keyboard-response,762182,<p></p>,,,,null,,,,,,,,,,,,,,
3284.899999976158,,directmemory_phase,765467,GW/barrel.jpg,,,,51,,,1,1,GW/gong.jpg,GW/wheelchair.jpg,GW/basket.jpg,GW/basket.jpg,GW/wheelchair.jpg,GW/gong.jpg,1,,,
null,,html-keyboard-response,766468,<p></p>,,,,null,,,,,,,,,,,,,,
1502,,directmemory_phase,767971,GW/soldier.jpg,,,,49,,,1,1,GW/wheelchair.jpg,GW/camera.jpg,GW/basket.jpg,GW/wheelchair.jpg,GW/basket.jpg,GW/camera.jpg,1,,,
null,,html-keyboard-response,768973,<p></p>,,,,null,,,,,,,,,,,,,,
2023.8999999761581,,directmemory_phase,770997,GW/hat.jpg,,,,51,,,1,1,GW/jukebox.jpg,GW/basket.jpg,GW/barrel.jpg,GW/barrel.jpg,GW/basket.jpg,GW/jukebox.jpg,1,,,
null,,html-keyboard-response,771999,<p></p>,,,,null,,,,,,,,,,,,,,
null,,directmemory_phase,778501,GW/snail.jpg,,,,null,,,0,0.8,GW/wheelchair.jpg,GW/soldier.jpg,GW/dustpan.jpg,GW/dustpan.jpg,GW/soldier.jpg,GW/wheelchair.jpg,0,,,
null,,html-keyboard-response,779503,<p></p>,,,,null,,,,,,,,,,,,,,
2255.6999999284744,,directmemory_phase,781759,GW/camera.jpg,,,,51,,,1,0.8333333333333334,GW/soldier.jpg,GW/gong.jpg,GW/hat.jpg,GW/hat.jpg,GW/gong.jpg,GW/soldier.jpg,1,,,
null,,html-keyboard-response,782761,<p></p>,,,,null,,,,,,,,,,,,,,
1571.8000000715256,,directmemory_phase,784333,GW/soldier.jpg,,,,49,,,1,0.8571428571428571,GW/barrel.jpg,GW/gong.jpg,GW/hat.jpg,GW/barrel.jpg,GW/hat.jpg,GW/gong.jpg,1,,,
null,,html-keyboard-response,785334,<p></p>,,,,null,,,,,,,,,,,,,,
2152.5,,directmemory_phase,787487,GW/paint.jpg,,,,51,,,1,0.875,GW/soldier.jpg,GW/dustpan.jpg,GW/camera.jpg,GW/camera.jpg,GW/dustpan.jpg,GW/soldier.jpg,1,,,
null,,html-keyboard-response,788489,<p></p>,,,,null,,,,,,,,,,,,,,
1335.8000000715256,,directmemory_phase,789825,GW/globe.jpg,,,,50,,,1,0.8888888888888888,GW/dustpan.jpg,GW/barrel.jpg,GW/paint.jpg,GW/barrel.jpg,GW/dustpan.jpg,GW/paint.jpg,1,,,
null,,html-keyboard-response,790827,<p></p>,,,,null,,,,,,,,,,,,,,
1796.2999999523163,,directmemory_phase,792623,GW/paint.jpg,,,,51,,,1,0.9,GW/soldier.jpg,GW/dustpan.jpg,GW/gong.jpg,GW/gong.jpg,GW/dustpan.jpg,GW/soldier.jpg,1,,,
null,,html-keyboard-response,793626,<p></p>,,,,null,,,,,,,,,,,,,,
2502.399999976158,,directmemory_phase,796129,GW/soldier.jpg,,,,51,,,1,0.9090909090909091,GW/camera.jpg,GW/basket.jpg,GW/globe.jpg,GW/globe.jpg,GW/basket.jpg,GW/camera.jpg,1,,,
null,,html-keyboard-response,797130,<p></p>,,,,null,,,,,,,,,,,,,,
1195.8999999761581,,directmemory_phase,798327,GW/jukebox.jpg,,,,51,,,1,0.9166666666666666,GW/snail.jpg,GW/dustpan.jpg,GW/gong.jpg,GW/gong.jpg,GW/dustpan.jpg,GW/snail.jpg,1,,,
null,,html-keyboard-response,799328,<p></p>,,,,null,,,,,,,,,,,,,,
1928.5,,directmemory_phase,801257,GW/hat.jpg,,,,49,,,0,0.8461538461538461,GW/jukebox.jpg,GW/soldier.jpg,GW/globe.jpg,GW/globe.jpg,GW/soldier.jpg,GW/jukebox.jpg,0.5,closer,,
null,,html-keyboard-response,802259,<p></p>,,,,null,,,,,,,,,,,,,,
1955,,directmemory_phase,804215,GW/gong.jpg,,,,49,,,1,0.8571428571428571,GW/paint.jpg,GW/barrel.jpg,GW/camera.jpg,GW/paint.jpg,GW/camera.jpg,GW/barrel.jpg,1,,,
null,,html-keyboard-response,805228,<p></p>,,,,null,,,,,,,,,,,,,,
2980.399999976158,,directmemory_phase,808209,GW/globe.jpg,,,,49,,,0,0.8,GW/paint.jpg,GW/dustpan.jpg,GW/soldier.jpg,GW/soldier.jpg,GW/dustpan.jpg,GW/paint.jpg,0.5,closer,,
null,,html-keyboard-response,809210,<p></p>,,,,null,,,,,,,,,,,,,,
2088.600000023842,,directmemory_phase,811299,GW/dustpan.jpg,,,,51,,,1,0.8125,GW/hat.jpg,GW/globe.jpg,GW/gong.jpg,GW/gong.jpg,GW/globe.jpg,GW/hat.jpg,1,,,
null,,html-keyboard-response,812302,<p></p>,,,,null,,,,,,,,,,,,,,
2864.9000000953674,,directmemory_phase,815167,GW/camera.jpg,,,,50,,,0,0.7647058823529411,GW/wheelchair.jpg,GW/globe.jpg,GW/snail.jpg,GW/snail.jpg,GW/globe.jpg,GW/wheelchair.jpg,0.5,closer,,
null,,html-keyboard-response,816169,<p></p>,,,,null,,,,,,,,,,,,,,
1603.4000000953674,,directmemory_phase,817773,GW/wheelchair.jpg,,,,50,,,1,0.7777777777777778,GW/globe.jpg,GW/soldier.jpg,GW/snail.jpg,GW/soldier.jpg,GW/globe.jpg,GW/snail.jpg,1,,,
null,,html-keyboard-response,818775,<p></p>,,,,null,,,,,,,,,,,,,,
3011.9000000953674,,directmemory_phase,821788,GW/snail.jpg,,,,51,,,0,0.7368421052631579,GW/globe.jpg,GW/basket.jpg,GW/gong.jpg,GW/globe.jpg,GW/gong.jpg,GW/basket.jpg,0.5,closer,,
null,,html-keyboard-response,822789,<p></p>,,,,null,,,,,,,,,,,,,,
1365.6000000238419,,directmemory_phase,824155,GW/hat.jpg,,,,51,,,1,0.75,GW/dustpan.jpg,GW/snail.jpg,GW/camera.jpg,GW/camera.jpg,GW/snail.jpg,GW/dustpan.jpg,1,,,
null,,html-keyboard-response,825157,<p></p>,,,,null,,,,,,,,,,,,,,
4261.800000071526,,directmemory_phase,829420,GW/globe.jpg,,,,50,,,0,0.7142857142857143,GW/snail.jpg,GW/jukebox.jpg,GW/wheelchair.jpg,GW/snail.jpg,GW/wheelchair.jpg,GW/jukebox.jpg,0.5,closer,,
null,,html-keyboard-response,830421,<p></p>,,,,null,,,,,,,,,,,,,,
3727.2999999523163,,directmemory_phase,834149,GW/barrel.jpg,,,,51,,,1,0.7272727272727273,GW/paint.jpg,GW/snail.jpg,GW/soldier.jpg,GW/soldier.jpg,GW/snail.jpg,GW/paint.jpg,1,,,
null,,html-keyboard-response,835151,<p></p>,,,,null,,,,,,,,,,,,,,
2955.2000000476837,,directmemory_phase,838107,GW/snail.jpg,,,,49,,,1,0.7391304347826086,GW/camera.jpg,GW/wheelchair.jpg,GW/paint.jpg,GW/camera.jpg,GW/paint.jpg,GW/wheelchair.jpg,1,,,
null,,html-keyboard-response,839108,<p></p>,,,,null,,,,,,,,,,,,,,
1716,,directmemory_phase,840825,GW/gong.jpg,,,,51,,,1,0.75,GW/globe.jpg,GW/teeth.jpg,GW/jukebox.jpg,GW/jukebox.jpg,GW/teeth.jpg,GW/globe.jpg,1,,,
null,,html-keyboard-response,841827,<p></p>,,,,null,,,,,,,,,,,,,,
2447.2999999523163,,directmemory_phase,844275,GW/camera.jpg,,,,49,,,1,0.76,GW/paint.jpg,GW/basket.jpg,GW/barrel.jpg,GW/paint.jpg,GW/barrel.jpg,GW/basket.jpg,1,,,
null,,html-keyboard-response,845290,<p></p>,,,,null,,,,,,,,,,,,,,
2971.5,,directmemory_phase,848262,GW/barrel.jpg,,,,50,,,1,0.7692307692307693,GW/wheelchair.jpg,GW/hat.jpg,GW/paint.jpg,GW/hat.jpg,GW/wheelchair.jpg,GW/paint.jpg,1,,,
null,,html-keyboard-response,849263,<p></p>,,,,null,,,,,,,,,,,,,,
2199.399999976158,,directmemory_phase,851463,GW/paint.jpg,,,,51,,,1,0.7777777777777778,GW/basket.jpg,GW/snail.jpg,GW/teeth.jpg,GW/teeth.jpg,GW/snail.jpg,GW/basket.jpg,1,,,
null,,html-keyboard-response,852476,<p></p>,,,,null,,,,,,,,,,,,,,
3196.399999976158,,directmemory_phase,855673,GW/dustpan.jpg,,,,49,,,1,0.7857142857142857,GW/snail.jpg,GW/teeth.jpg,GW/jukebox.jpg,GW/snail.jpg,GW/jukebox.jpg,GW/teeth.jpg,1,,,
null,,html-keyboard-response,856675,<p></p>,,,,null,,,,,,,,,,,,,,
1829.1999999284744,,directmemory_phase,858505,GW/basket.jpg,,,,51,,,1,0.7931034482758621,GW/snail.jpg,GW/globe.jpg,GW/barrel.jpg,GW/barrel.jpg,GW/globe.jpg,GW/snail.jpg,1,,,
null,,html-keyboard-response,859507,<p></p>,,,,null,,,,,,,,,,,,,,
1725.6000000238419,,directmemory_phase,861233,GW/teeth.jpg,,,,50,,,1,0.8,GW/camera.jpg,GW/paint.jpg,GW/globe.jpg,GW/paint.jpg,GW/camera.jpg,GW/globe.jpg,1,,,
null,,html-keyboard-response,862235,<p></p>,,,,null,,,,,,,,,,,,,,
2243,,directmemory_phase,864479,GW/barrel.jpg,,,,51,,,1,0.8064516129032258,GW/teeth.jpg,GW/camera.jpg,GW/globe.jpg,GW/globe.jpg,GW/camera.jpg,GW/teeth.jpg,1,,,
null,,html-keyboard-response,865481,<p></p>,,,,null,,,,,,,,,,,,,,
1522,,directmemory_phase,867003,,,,,49,,,1,0.8125,,,,,,,0.5,closer,,
null,,html-keyboard-response,868009,<p></p>,,,,null,,,,,,,,,,,,,,
17268.800000071526,,intro_1,885279,instruct,,0,,,,,,,,,,,,,,,,
10917.5,,intro_2,896197,instruct,,1,Next,,,,,,,,,,,,,,,
4201.200000047684,,intro_3,900399,instruct,,1,Next,,,,,,,,,,,,,,,
11604.799999952316,,intro_4,912005,instruct,,1,Next,,,,,,,,,,,,,,,
27845.300000071526,,intro_5,939851,instruct,,1,Next,,,,,,,,,,,,,,,
12993.200000047684,,intro_6,952845,instruct,,1,Next,,,,,,,,,,,,,,,
18025.299999952316,,intro_7,970872,instruct,,1,Next,,,,,,,,,,,,,,,
12199.5,,intro_8,983072,instruct,,1,Next,,,,,,,,,,,,,,,
1464,,shortestpath_phase,984537,GW/wheelchair.jpg,,,,50,GW/paint.jpg,GW/globe.jpg,1,1,,,,GW/globe.jpg,,,,,Three Edge Diff,Three Edge Six Edge
null,,html-keyboard-response,985553,<p></p>,,,,null,,,,,,,,,,,,,,
3229.5999999046326,,shortestpath_phase,988783,GW/hat.jpg,,,,49,GW/wheelchair.jpg,GW/paint.jpg,0,0.5,,,,GW/paint.jpg,,,,,One Edge Diff,Two Edge Three Edge
null,,html-keyboard-response,989785,<p></p>,,,,null,,,,,,,,,,,,,,
2661.8000000715256,,shortestpath_phase,992447,GW/wheelchair.jpg,,,,49,GW/snail.jpg,GW/paint.jpg,1,0.6666666666666666,,,,GW/snail.jpg,,,,,Two Edge Diff,Three Edge Five Edge
null,,html-keyboard-response,993449,<p></p>,,,,null,,,,,,,,,,,,,,
2176.100000023842,,shortestpath_phase,995625,GW/camera.jpg,,,,50,GW/barrel.jpg,GW/wheelchair.jpg,0,0.5,,,,GW/barrel.jpg,,,,,Two Edge Diff,Two Edge Four Edge
null,,html-keyboard-response,996627,<p></p>,,,,null,,,,,,,,,,,,,,
3543.3000000715256,,shortestpath_phase,1000171,GW/basket.jpg,,,,50,GW/jukebox.jpg,GW/hat.jpg,1,0.6,,,,GW/hat.jpg,,,,,Four Edge Diff,Two Edge Six Edge
null,,html-keyboard-response,1001173,<p></p>,,,,null,,,,,,,,,,,,,,
1935.3000000715256,,shortestpath_phase,1003109,GW/globe.jpg,,,,50,GW/camera.jpg,GW/jukebox.jpg,0,0.5,,,,GW/camera.jpg,,,,,Two Edge Diff,Two Edge Four Edge
null,,html-keyboard-response,1004110,<p></p>,,,,null,,,,,,,,,,,,,,
1732.1000000238419,,shortestpath_phase,1005843,GW/jukebox.jpg,,,,49,GW/dustpan.jpg,GW/soldier.jpg,1,0.5714285714285714,,,,GW/dustpan.jpg,,,,,Three Edge Diff,Three Edge Six Edge
null,,html-keyboard-response,1006845,<p></p>,,,,null,,,,,,,,,,,,,,
2104.899999976158,,shortestpath_phase,1008951,GW/teeth.jpg,,,,50,GW/basket.jpg,GW/camera.jpg,1,0.625,,,,GW/camera.jpg,,,,,Three Edge Diff,Three Edge Six Edge
null,,html-keyboard-response,1009953,<p></p>,,,,null,,,,,,,,,,,,,,
2931.600000023842,,shortestpath_phase,1012885,GW/snail.jpg,,,,49,GW/paint.jpg,GW/jukebox.jpg,1,0.6666666666666666,,,,GW/paint.jpg,,,,,One Edge Diff,Two Edge Three Edge
null,,html-keyboard-response,1013886,<p></p>,,,,null,,,,,,,,,,,,,,
1938.1000000238419,,shortestpath_phase,1015825,GW/basket.jpg,,,,50,GW/globe.jpg,GW/jukebox.jpg,0,0.6,,,,GW/globe.jpg,,,,,Four Edge Diff,Two Edge Six Edge
null,,html-keyboard-response,1016827,<p></p>,,,,null,,,,,,,,,,,,,,
2962.5999999046326,,shortestpath_phase,1019790,GW/jukebox.jpg,,,,50,GW/paint.jpg,GW/barrel.jpg,0,0.5454545454545454,,,,GW/paint.jpg,,,,,Three Edge Diff,Two Edge Five Edge
null,,html-keyboard-response,1020791,<p></p>,,,,null,,,,,,,,,,,,,,
2964.899999976158,,shortestpath_phase,1023757,GW/dustpan.jpg,,,,49,GW/hat.jpg,GW/basket.jpg,1,0.5833333333333334,,,,GW/hat.jpg,,,,,One Edge Diff,Three Edge Four Edge
null,,html-keyboard-response,1024758,<p></p>,,,,null,,,,,,,,,,,,,,
2002.1000000238419,,shortestpath_phase,1026761,GW/jukebox.jpg,,,,50,GW/soldier.jpg,GW/paint.jpg,1,0.6153846153846154,,,,GW/paint.jpg,,,,,Three Edge Diff,Two Edge Five Edge
null,,html-keyboard-response,1027763,<p></p>,,,,null,,,,,,,,,,,,,,
1243.9000000953674,,shortestpath_phase,1029007,GW/teeth.jpg,,,,50,GW/basket.jpg,GW/globe.jpg,1,0.6428571428571429,,,,GW/globe.jpg,,,,,One Edge Diff,Four Edge Five Edge
null,,html-keyboard-response,1030021,<p></p>,,,,null,,,,,,,,,,,,,,
1819.1999999284744,,shortestpath_phase,1031841,GW/jukebox.jpg,,,,50,GW/paint.jpg,GW/soldier.jpg,0,0.6,,,,GW/paint.jpg,,,,,Three Edge Diff,Three Edge Six Edge
null,,html-keyboard-response,1032843,<p></p>,,,,null,,,,,,,,,,,,,,
2128.3000000715256,,shortestpath_phase,1034972,GW/wheelchair.jpg,,,,49,GW/globe.jpg,GW/teeth.jpg,1,0.625,,,,GW/globe.jpg,,,,,Four Edge Diff,Two Edge Six Edge
null,,html-keyboard-response,1035973,<p></p>,,,,null,,,,,,,,,,,,,,
2681.5,,shortestpath_phase,1038655,GW/hat.jpg,,,,50,GW/dustpan.jpg,GW/paint.jpg,1,0.6470588235294118,,,,GW/paint.jpg,,,,,One Edge Diff,Two Edge Three Edge
null,,html-keyboard-response,1039657,<p></p>,,,,null,,,,,,,,,,,,,,
1519.8000000715256,,shortestpath_phase,1041177,GW/gong.jpg,,,,50,GW/camera.jpg,GW/basket.jpg,0,0.6111111111111112,,,,GW/camera.jpg,,,,,Three Edge Diff,Three Edge Six Edge
null,,html-keyboard-response,1042180,<p></p>,,,,null,,,,,,,,,,,,,,
2463,,shortestpath_phase,1044643,GW/basket.jpg,,,,50,GW/paint.jpg,GW/jukebox.jpg,0,0.5789473684210527,,,,GW/paint.jpg,,,,,Two Edge Diff,Four Edge Six Edge
null,,html-keyboard-response,1045646,<p></p>,,,,null,,,,,,,,,,,,,,
1136.2999999523163,,shortestpath_phase,1046783,GW/wheelchair.jpg,,,,50,GW/dustpan.jpg,GW/gong.jpg,0,0.55,,,,GW/dustpan.jpg,,,,,One Edge Diff,Four Edge Five Edge
null,,html-keyboard-response,1047785,<p></p>,,,,null,,,,,,,,,,,,,,
1495.7000000476837,,shortestpath_phase,1049281,GW/soldier.jpg,,,,50,GW/teeth.jpg,GW/basket.jpg,1,0.5714285714285714,,,,GW/basket.jpg,,,,,Three Edge Diff,Two Edge Five Edge
null,,html-keyboard-response,1050284,<p></p>,,,,null,,,,,,,,,,,,,,
1383,,shortestpath_phase,1051667,GW/wheelchair.jpg,,,,50,GW/gong.jpg,GW/jukebox.jpg,0,0.5454545454545454,,,,GW/gong.jpg,,,,,One Edge Diff,Five Edge Six Edge
null,,html-keyboard-response,1052669,<p></p>,,,,null,,,,,,,,,,,,,,
1204,,shortestpath_phase,1053873,GW/jukebox.jpg,,,,49,GW/teeth.jpg,GW/soldier.jpg,1,0.5652173913043478,,,,GW/teeth.jpg,,,,,Two Edge Diff,Three Edge Five Edge
null,,html-keyboard-response,1054875,<p></p>,,,,null,,,,,,,,,,,,,,
2151.399999976158,,shortestpath_phase,1057027,GW/gong.jpg,,,,49,GW/basket.jpg,GW/hat.jpg,0,0.5416666666666666,,,,GW/hat.jpg,,,,,Two Edge Diff,Three Edge Five Edge
null,,html-keyboard-response,1058029,<p></p>,,,,null,,,,,,,,,,,,,,
1675.8000000715256,,shortestpath_phase,1059705,GW/wheelchair.jpg,,,,50,GW/jukebox.jpg,GW/barrel.jpg,1,0.56,,,,GW/barrel.jpg,,,,,Four Edge Diff,Two Edge Six Edge
null,,html-keyboard-response,1060707,<p></p>,,,,null,,,,,,,,,,,,,,
2439.7000000476837,,shortestpath_phase,1063147,GW/gong.jpg,,,,49,GW/basket.jpg,GW/teeth.jpg,0,0.5384615384615384,,,,GW/teeth.jpg,,,,,Three Edge Diff,Three Edge Six Edge
null,,html-keyboard-response,1064149,<p></p>,,,,null,,,,,,,,,,,,,,
1019.8999999761581,,shortestpath_phase,1065169,GW/globe.jpg,,,,50,GW/gong.jpg,GW/dustpan.jpg,1,0.5555555555555556,,,,GW/dustpan.jpg,,,,,One Edge Diff,Two Edge Three Edge
null,,html-keyboard-response,1066171,<p></p>,,,,null,,,,,,,,,,,,,,
1563.7999999523163,,shortestpath_phase,1067735,GW/jukebox.jpg,,,,49,GW/wheelchair.jpg,GW/hat.jpg,0,0.5357142857142857,,,,GW/hat.jpg,,,,,Two Edge Diff,Four Edge Six Edge
null,,html-keyboard-response,1068737,<p></p>,,,,null,,,,,,,,,,,,,,
1103.1999999284744,,shortestpath_phase,1069841,GW/teeth.jpg,,,,50,GW/gong.jpg,GW/wheelchair.jpg,0,0.5172413793103449,,,,GW/gong.jpg,,,,,Four Edge Diff,Two Edge Six Edge
null,,html-keyboard-response,1070843,<p></p>,,,,null,,,,,,,,,,,,,,
819.6000000238419,,shortestpath_phase,1071663,GW/globe.jpg,,,,50,GW/paint.jpg,GW/jukebox.jpg,0,0.5,,,,GW/paint.jpg,,,,,One Edge Diff,Three Edge Four Edge
null,,html-keyboard-response,1072664,<p></p>,,,,null,,,,,,,,,,,,,,
1186.5,,shortestpath_phase,1073851,GW/jukebox.jpg,,,,50,GW/hat.jpg,GW/basket.jpg,0,0.4838709677419355,,,,GW/hat.jpg,,,,,Two Edge Diff,Four Edge Six Edge
null,,html-keyboard-response,1074853,<p></p>,,,,null,,,,,,,,,,,,,,
650,,shortestpath_phase,1075503,GW/globe.jpg,,,,49,GW/basket.jpg,GW/gong.jpg,1,0.5,,,,GW/basket.jpg,,,,,One Edge Diff,Two Edge Three Edge
null,,html-keyboard-response,1076506,<p></p>,,,,null,,,,,,,,,,,,,,
1828.8999999761581,,shortestpath_phase,1078335,GW/jukebox.jpg,,,,50,GW/basket.jpg,GW/dustpan.jpg,1,0.5151515151515151,,,,GW/dustpan.jpg,,,,,Four Edge Diff,Two Edge Six Edge
null,,html-keyboard-response,1079337,<p></p>,,,,null,,,,,,,,,,,,,,
581.1999999284744,,shortestpath_phase,1079919,GW/globe.jpg,,,,49,GW/jukebox.jpg,GW/basket.jpg,0,0.5,,,,GW/basket.jpg,,,,,Two Edge Diff,Two Edge Four Edge
null,,html-keyboard-response,1080922,<p></p>,,,,null,,,,,,,,,,,,,,
1636.1000000238419,,shortestpath_phase,1082559,GW/jukebox.jpg,,,,49,GW/wheelchair.jpg,GW/paint.jpg,0,0.4857142857142857,,,,GW/paint.jpg,,,,,Four Edge Diff,Two Edge Six Edge
null,,html-keyboard-response,1083561,<p></p>,,,,null,,,,,,,,,,,,,,
1263,,shortestpath_phase,1084825,GW/barrel.jpg,,,,50,GW/gong.jpg,GW/dustpan.jpg,1,0.5,,,,GW/dustpan.jpg,,,,,One Edge Diff,Three Edge Four Edge
null,,html-keyboard-response,1085827,<p></p>,,,,null,,,,,,,,,,,,,,
703.5999999046326,,shortestpath_phase,1086531,GW/jukebox.jpg,,,,49,GW/basket.jpg,GW/globe.jpg,0,0.4864864864864865,,,,GW/globe.jpg,,,,,Two Edge Diff,Four Edge Six Edge
null,,html-keyboard-response,1087533,<p></p>,,,,null,,,,,,,,,,,,,,
843.7999999523163,,shortestpath_phase,1088377,GW/teeth.jpg,,,,50,GW/gong.jpg,GW/basket.jpg,0,0.47368421052631576,,,,GW/gong.jpg,,,,,Three Edge Diff,Two Edge Five Edge
null,,html-keyboard-response,1089379,<p></p>,,,,null,,,,,,,,,,,,,,
979.5,,shortestpath_phase,1090359,GW/paint.jpg,,,,50,GW/jukebox.jpg,GW/basket.jpg,0,0.46153846153846156,,,,GW/jukebox.jpg,,,,,Two Edge Diff,Two Edge Four Edge
null,,html-keyboard-response,1091361,<p></p>,,,,null,,,,,,,,,,,,,,
945.5,,shortestpath_phase,1092307,GW/gong.jpg,,,,49,GW/camera.jpg,GW/wheelchair.jpg,1,0.475,,,,GW/camera.jpg,,,,,Three Edge Diff,Three Edge Six Edge
null,,html-keyboard-response,1093308,<p></p>,,,,null,,,,,,,,,,,,,,
626.3999999761581,,shortestpath_phase,1093935,GW/jukebox.jpg,,,,50,GW/globe.jpg,GW/snail.jpg,1,0.4878048780487805,,,,GW/snail.jpg,,,,,One Edge Diff,Three Edge Four Edge
null,,html-keyboard-response,1094937,<p></p>,,,,null,,,,,,,,,,,,,,
829.7000000476837,,shortestpath_phase,1095767,GW/wheelchair.jpg,,,,49,GW/paint.jpg,GW/teeth.jpg,1,0.5,,,,GW/paint.jpg,,,,,One Edge Diff,Five Edge Six Edge
null,,html-keyboard-response,1096769,<p></p>,,,,null,,,,,,,,,,,,,,
353.7000000476837,,shortestpath_phase,1097124,GW/barrel.jpg,,,,49,GW/snail.jpg,GW/jukebox.jpg,1,0.5116279069767442,,,,GW/snail.jpg,,,,,Three Edge Diff,Two Edge Five Edge
null,,html-keyboard-response,1098126,<p></p>,,,,null,,,,,,,,,,,,,,
936.8000000715256,,shortestpath_phase,1099063,GW/paint.jpg,,,,50,GW/wheelchair.jpg,GW/jukebox.jpg,1,0.5227272727272727,,,,GW/jukebox.jpg,,,,,Three Edge Diff,Three Edge Six Edge
null,,html-keyboard-response,1100065,<p></p>,,,,null,,,,,,,,,,,,,,
817.7999999523163,,shortestpath_phase,1100883,GW/basket.jpg,,,,50,GW/gong.jpg,GW/camera.jpg,1,0.5333333333333333,,,,GW/camera.jpg,,,,,Two Edge Diff,Three Edge Five Edge
null,,html-keyboard-response,1101885,<p></p>,,,,null,,,,,,,,,,,,,,
1122.8999999761581,,shortestpath_phase,1103009,GW/snail.jpg,,,,50,GW/gong.jpg,GW/wheelchair.jpg,0,0.5217391304347826,,,,GW/gong.jpg,,,,,One Edge Diff,Two Edge Three Edge
null,,html-keyboard-response,1104011,<p></p>,,,,null,,,,,,,,,,,,,,
319.3000000715256,,shortestpath_phase,1104331,GW/dustpan.jpg,,,,49,GW/wheelchair.jpg,GW/globe.jpg,0,0.5106382978723404,,,,GW/globe.jpg,,,,,Two Edge Diff,Two Edge Four Edge
null,,html-keyboard-response,1105332,<p></p>,,,,null,,,,,,,,,,,,,,
686.3000000715256,,shortestpath_phase,1106019,GW/soldier.jpg,,,,49,GW/paint.jpg,GW/snail.jpg,0,0.5,,,,GW/snail.jpg,,,,,Two Edge Diff,Two Edge Four Edge
null,,html-keyboard-response,1107021,<p></p>,,,,null,,,,,,,,,,,,,,
327.90000009536743,,shortestpath_phase,1107349,GW/globe.jpg,,,,49,GW/paint.jpg,GW/wheelchair.jpg,0,0.4897959183673469,,,,GW/wheelchair.jpg,,,,,One Edge Diff,Two Edge Three Edge
null,,html-keyboard-response,1108351,<p></p>,,,,null,,,,,,,,,,,,,,
577.0999999046326,,shortestpath_phase,1108929,GW/jukebox.jpg,,,,49,GW/wheelchair.jpg,GW/barrel.jpg,0,0.48,,,,GW/barrel.jpg,,,,,One Edge Diff,Five Edge Six Edge
null,,html-keyboard-response,1109931,<p></p>,,,,null,,,,,,,,,,,,,,
435,,shortestpath_phase,1110367,GW/teeth.jpg,,,,50,GW/wheelchair.jpg,GW/globe.jpg,1,0.49019607843137253,,,,GW/globe.jpg,,,,,Two Edge Diff,Four Edge Six Edge
null,,html-keyboard-response,1111369,<p></p>,,,,null,,,,,,,,,,,,,,
549.4000000953674,,shortestpath_phase,1111919,GW/soldier.jpg,,,,49,GW/basket.jpg,GW/jukebox.jpg,1,0.5,,,,GW/basket.jpg,,,,,Three Edge Diff,Two Edge Five Edge
null,,html-keyboard-response,1112923,<p></p>,,,,null,,,,,,,,,,,,,,
785.9000000953674,,shortestpath_phase,1113709,GW/barrel.jpg,,,,50,GW/wheelchair.jpg,GW/gong.jpg,0,0.49056603773584906,,,,GW/wheelchair.jpg,,,,,Two Edge Diff,Two Edge Four Edge
null,,html-keyboard-response,1114712,<p></p>,,,,null,,,,,,,,,,,,,,
782.6000000238419,,shortestpath_phase,1115495,GW/teeth.jpg,,,,50,GW/basket.jpg,GW/wheelchair.jpg,0,0.48148148148148145,,,,GW/basket.jpg,,,,,One Edge Diff,Five Edge Six Edge
null,,html-keyboard-response,1116497,<p></p>,,,,null,,,,,,,,,,,,,,
353.5,,shortestpath_phase,1116852,GW/gong.jpg,,,,49,GW/basket.jpg,GW/barrel.jpg,0,0.4727272727272727,,,,GW/barrel.jpg,,,,,One Edge Diff,Four Edge Five Edge
null,,html-keyboard-response,1117853,<p></p>,,,,null,,,,,,,,,,,,,,
503.2999999523163,,shortestpath_phase,1118357,GW/basket.jpg,,,,49,GW/teeth.jpg,GW/globe.jpg,0,0.4642857142857143,,,,GW/globe.jpg,,,,,Three Edge Diff,Three Edge Six Edge
null,,html-keyboard-response,1119359,<p></p>,,,,null,,,,,,,,,,,,,,
417.3000000715256,,shortestpath_phase,1119777,GW/gong.jpg,,,,50,GW/wheelchair.jpg,GW/soldier.jpg,1,0.47368421052631576,,,,GW/soldier.jpg,,,,,One Edge Diff,Four Edge Five Edge
null,,html-keyboard-response,1120792,<p></p>,,,,null,,,,,,,,,,,,,,
442.60000002384186,,shortestpath_phase,1121235,GW/basket.jpg,,,,50,GW/hat.jpg,GW/teeth.jpg,0,0.46551724137931033,,,,GW/hat.jpg,,,,,Three Edge Diff,Two Edge Five Edge
null,,html-keyboard-response,1122236,<p></p>,,,,null,,,,,,,,,,,,,,
726.1000000238419,,shortestpath_phase,1122963,GW/jukebox.jpg,,,,50,GW/basket.jpg,GW/soldier.jpg,1,0.4745762711864407,,,,GW/soldier.jpg,,,,,One Edge Diff,Five Edge Six Edge
null,,html-keyboard-response,1123964,<p></p>,,,,null,,,,,,,,,,,,,,
418.10000002384186,,shortestpath_phase,1124383,GW/hat.jpg,,,,49,GW/jukebox.jpg,GW/gong.jpg,0,0.4666666666666667,,,,GW/gong.jpg,,,,,One Edge Diff,Three Edge Four Edge
null,,html-keyboard-response,1125385,<p></p>,,,,null,,,,,,,,,,,,,,
393.7000000476837,,shortestpath_phase,1125780,GW/jukebox.jpg,,,,50,GW/dustpan.jpg,GW/wheelchair.jpg,0,0.45901639344262296,,,,GW/dustpan.jpg,,,,,Four Edge Diff,Two Edge Six Edge
null,,html-keyboard-response,1126781,<p></p>,,,,null,,,,,,,,,,,,,,
419.40000009536743,,shortestpath_phase,1127201,GW/basket.jpg,,,,49,GW/teeth.jpg,GW/jukebox.jpg,1,0.46774193548387094,,,,GW/teeth.jpg,,,,,One Edge Diff,Five Edge Six Edge
null,,html-keyboard-response,1128202,<p></p>,,,,null,,,,,,,,,,,,,,
179.89999997615814,,shortestpath_phase,1128383,GW/jukebox.jpg,,,,49,GW/dustpan.jpg,GW/barrel.jpg,1,0.47619047619047616,,,,GW/dustpan.jpg,,,,,Three Edge Diff,Two Edge Five Edge
null,,html-keyboard-response,1129384,<p></p>,,,,null,,,,,,,,,,,,,,
491.89999997615814,,shortestpath_phase,1129877,GW/paint.jpg,,,,49,GW/wheelchair.jpg,GW/barrel.jpg,0,0.46875,,,,GW/barrel.jpg,,,,,Two Edge Diff,Three Edge Five Edge
null,,html-keyboard-response,1130879,<p></p>,,,,null,,,,,,,,,,,,,,
778.1000000238419,,shortestpath_phase,1131657,GW/wheelchair.jpg,,,,50,GW/teeth.jpg,GW/gong.jpg,1,0.47692307692307695,,,,GW/gong.jpg,,,,,One Edge Diff,Five Edge Six Edge
null,,html-keyboard-response,1132659,<p></p>,,,,null,,,,,,,,,,,,,,
569.7000000476837,,shortestpath_phase,1133229,GW/basket.jpg,,,,50,GW/soldier.jpg,GW/jukebox.jpg,0,0.4696969696969697,,,,GW/soldier.jpg,,,,,Four Edge Diff,Two Edge Six Edge
null,,html-keyboard-response,1134231,<p></p>,,,,null,,,,,,,,,,,,,,
446.10000002384186,,shortestpath_phase,1134678,GW/dustpan.jpg,,,,49,GW/paint.jpg,GW/soldier.jpg,1,0.47761194029850745,,,,GW/paint.jpg,,,,,One Edge Diff,Two Edge Three Edge
null,,html-keyboard-response,1135680,<p></p>,,,,null,,,,,,,,,,,,,,
263.09999990463257,,shortestpath_phase,1135943,GW/basket.jpg,,,,49,GW/gong.jpg,GW/jukebox.jpg,1,0.4852941176470588,,,,GW/gong.jpg,,,,,One Edge Diff,Five Edge Six Edge
null,,html-keyboard-response,1136945,<p></p>,,,,null,,,,,,,,,,,,,,
421.3000000715256,,shortestpath_phase,1137367,GW/wheelchair.jpg,,,,49,GW/jukebox.jpg,GW/globe.jpg,0,0.4782608695652174,,,,GW/globe.jpg,,,,,Four Edge Diff,Two Edge Six Edge
null,,html-keyboard-response,1138369,<p></p>,,,,null,,,,,,,,,,,,,,
231.20000004768372,,shortestpath_phase,1138601,GW/paint.jpg,,,,50,GW/barrel.jpg,GW/basket.jpg,0,0.4714285714285714,,,,GW/barrel.jpg,,,,,One Edge Diff,Three Edge Four Edge
null,,html-keyboard-response,1139603,<p></p>,,,,null,,,,,,,,,,,,,,
563.3000000715256,,shortestpath_phase,1140167,GW/wheelchair.jpg,,,,49,GW/jukebox.jpg,GW/dustpan.jpg,0,0.4647887323943662,,,,GW/dustpan.jpg,,,,,Two Edge Diff,Four Edge Six Edge
null,,html-keyboard-response,1141169,<p></p>,,,,null,,,,,,,,,,,,,,
133.5,,shortestpath_phase,1141303,GW/gong.jpg,,,,50,GW/barrel.jpg,GW/wheelchair.jpg,0,0.4583333333333333,,,,GW/barrel.jpg,,,,,One Edge Diff,Four Edge Five Edge
null,,html-keyboard-response,1142306,<p></p>,,,,null,,,,,,,,,,,,,,
126.89999997615814,,shortestpath_phase,1142433,GW/teeth.jpg,,,,50,GW/wheelchair.jpg,GW/camera.jpg,1,0.4657534246575342,,,,GW/camera.jpg,,,,,Four Edge Diff,Two Edge Six Edge
null,,html-keyboard-response,1143435,<p></p>,,,,null,,,,,,,,,,,,,,
240.09999990463257,,shortestpath_phase,1143675,GW/barrel.jpg,,,,49,GW/wheelchair.jpg,GW/paint.jpg,1,0.47297297297297297,,,,GW/wheelchair.jpg,,,,,One Edge Diff,Two Edge Three Edge
null,,html-keyboard-response,1144677,<p></p>,,,,null,,,,,,,,,,,,,,
407.2000000476837,,shortestpath_phase,1145085,GW/gong.jpg,,,,50,GW/soldier.jpg,GW/camera.jpg,1,0.48,,,,GW/camera.jpg,,,,,Two Edge Diff,Two Edge Four Edge
null,,html-keyboard-response,1146087,<p></p>,,,,null,,,,,,,,,,,,,,
116.20000004768372,,shortestpath_phase,1146204,GW/teeth.jpg,,,,49,GW/soldier.jpg,GW/barrel.jpg,0,0.47368421052631576,,,,GW/barrel.jpg,,,,,One Edge Diff,Four Edge Five Edge
null,,html-keyboard-response,1147205,<p></p>,,,,null,,,,,,,,,,,,,,
349.3000000715256,,shortestpath_phase,1147555,GW/basket.jpg,,,,49,GW/soldier.jpg,GW/teeth.jpg,1,0.4805194805194805,,,,GW/soldier.jpg,,,,,Three Edge Diff,Three Edge Six Edge
null,,html-keyboard-response,1148557,<p></p>,,,,null,,,,,,,,,,,,,,
187.29999995231628,,shortestpath_phase,1148745,GW/wheelchair.jpg,,,,50,GW/barrel.jpg,GW/dustpan.jpg,0,0.47435897435897434,,,,GW/barrel.jpg,,,,,Two Edge Diff,Two Edge Four Edge
null,,html-keyboard-response,1149747,<p></p>,,,,null,,,,,,,,,,,,,,
105.69999992847443,,shortestpath_phase,1149853,GW/soldier.jpg,,,,49,GW/gong.jpg,GW/camera.jpg,0,0.46835443037974683,,,,GW/camera.jpg,,,,,One Edge Diff,Three Edge Four Edge
null,,html-keyboard-response,1150855,<p></p>,,,,null,,,,,,,,,,,,,,
303.2000000476837,,shortestpath_phase,1151159,GW/teeth.jpg,,,,50,GW/snail.jpg,GW/basket.jpg,0,0.4625,,,,GW/snail.jpg,,,,,Two Edge Diff,Three Edge Five Edge
null,,html-keyboard-response,1152161,<p></p>,,,,null,,,,,,,,,,,,,,
287.1999999284744,,shortestpath_phase,1152449,GW/basket.jpg,,,,49,GW/camera.jpg,GW/teeth.jpg,1,0.4691358024691358,,,,GW/camera.jpg,,,,,Two Edge Diff,Three Edge Five Edge
null,,html-keyboard-response,1153461,<p></p>,,,,null,,,,,,,,,,,,,,
391.5,,shortestpath_phase,1153853,GW/wheelchair.jpg,,,,50,GW/dustpan.jpg,GW/teeth.jpg,0,0.4634146341463415,,,,GW/dustpan.jpg,,,,,Two Edge Diff,Four Edge Six Edge
null,,html-keyboard-response,1154855,<p></p>,,,,null,,,,,,,,,,,,,,
264,,shortestpath_phase,1155119,GW/gong.jpg,,,,49,GW/wheelchair.jpg,GW/teeth.jpg,0,0.4578313253012048,,,,GW/teeth.jpg,,,,,Three Edge Diff,Three Edge Six Edge
null,,html-keyboard-response,1156122,<p></p>,,,,null,,,,,,,,,,,,,,
670.9000000953674,,shortestpath_phase,1156793,GW/paint.jpg,,,,50,GW/soldier.jpg,GW/hat.jpg,1,0.4642857142857143,,,,GW/hat.jpg,,,,,Two Edge Diff,Two Edge Four Edge
null,,html-keyboard-response,1157796,<p></p>,,,,null,,,,,,,,,,,,,,
281,,shortestpath_phase,1158077,GW/jukebox.jpg,,,,50,GW/soldier.jpg,GW/wheelchair.jpg,0,0.4588235294117647,,,,GW/soldier.jpg,,,,,One Edge Diff,Five Edge Six Edge
null,,html-keyboard-response,1159078,<p></p>,,,,null,,,,,,,,,,,,,,
302.10000002384186,,shortestpath_phase,1159381,GW/basket.jpg,,,,50,GW/jukebox.jpg,GW/dustpan.jpg,1,0.46511627906976744,,,,GW/dustpan.jpg,,,,,Two Edge Diff,Four Edge Six Edge
null,,html-keyboard-response,1160383,<p></p>,,,,null,,,,,,,,,,,,,,
175.5,,shortestpath_phase,1160559,GW/jukebox.jpg,,,,49,GW/basket.jpg,GW/paint.jpg,0,0.45977011494252873,,,,GW/paint.jpg,,,,,Four Edge Diff,Two Edge Six Edge
null,,html-keyboard-response,1161574,<p></p>,,,,null,,,,,,,,,,,,,,
320.2999999523163,,shortestpath_phase,1161895,GW/soldier.jpg,,,,50,GW/teeth.jpg,GW/basket.jpg,1,0.4659090909090909,,,,GW/basket.jpg,,,,,Three Edge Diff,Three Edge Six Edge
null,,html-keyboard-response,1162898,<p></p>,,,,null,,,,,,,,,,,,,,
49,,shortestpath_phase,1162947,GW/jukebox.jpg,,,,49,GW/camera.jpg,GW/globe.jpg,1,0.47191011235955055,,,,GW/camera.jpg,,,,,One Edge Diff,Three Edge Four Edge
null,,html-keyboard-response,1163948,<p></p>,,,,null,,,,,,,,,,,,,,
314.1999999284744,,shortestpath_phase,1164263,GW/dustpan.jpg,,,,49,GW/basket.jpg,GW/soldier.jpg,0,0.4666666666666667,,,,GW/soldier.jpg,,,,,One Edge Diff,Three Edge Four Edge
null,,html-keyboard-response,1165265,<p></p>,,,,null,,,,,,,,,,,,,,
905.3000000715256,,shortestpath_phase,1166171,GW/gong.jpg,,,,49,GW/wheelchair.jpg,GW/hat.jpg,0,0.46153846153846156,,,,GW/hat.jpg,,,,,Two Edge Diff,Three Edge Five Edge
null,,html-keyboard-response,1167173,<p></p>,,,,null,,,,,,,,,,,,,,
367.2999999523163,,shortestpath_phase,1167541,GW/basket.jpg,,,,49,GW/paint.jpg,GW/gong.jpg,1,0.4673913043478261,,,,GW/paint.jpg,,,,,One Edge Diff,Four Edge Five Edge
null,,html-keyboard-response,1168544,<p></p>,,,,null,,,,,,,,,,,,,,
102.69999992847443,,shortestpath_phase,1168647,GW/jukebox.jpg,,,,50,GW/basket.jpg,GW/barrel.jpg,1,0.4731182795698925,,,,GW/barrel.jpg,,,,,One Edge Diff,Five Edge Six Edge
null,,html-keyboard-response,1169649,<p></p>,,,,null,,,,,,,,,,,,,,
344.90000009536743,,shortestpath_phase,1169995,GW/wheelchair.jpg,,,,49,GW/dustpan.jpg,GW/hat.jpg,0,0.46808510638297873,,,,GW/hat.jpg,,,,,One Edge Diff,Three Edge Four Edge
null,,html-keyboard-response,1170996,<p></p>,,,,null,,,,,,,,,,,,,,
716.1999999284744,,shortestpath_phase,1171713,GW/jukebox.jpg,,,,49,GW/dustpan.jpg,GW/snail.jpg,1,0.47368421052631576,,,,GW/dustpan.jpg,,,,,One Edge Diff,Two Edge Three Edge
null,,html-keyboard-response,1172715,<p></p>,,,,null,,,,,,,,,,,,,,
256.09999990463257,,shortestpath_phase,1172971,GW/wheelchair.jpg,,,,50,GW/camera.jpg,GW/jukebox.jpg,0,0.46875,,,,GW/camera.jpg,,,,,Two Edge Diff,Four Edge Six Edge
null,,html-keyboard-response,1173973,<p></p>,,,,null,,,,,,,,,,,,,,
273.2000000476837,,shortestpath_phase,1174247,GW/jukebox.jpg,,,,50,GW/globe.jpg,GW/teeth.jpg,1,0.4742268041237113,,,,GW/teeth.jpg,,,,,One Edge Diff,Three Edge Four Edge
null,,html-keyboard-response,1175249,<p></p>,,,,null,,,,,,,,,,,,,,
220.09999990463257,,shortestpath_phase,1175469,GW/wheelchair.jpg,,,,49,GW/paint.jpg,GW/basket.jpg,0,0.46938775510204084,,,,GW/basket.jpg,,,,,Two Edge Diff,Three Edge Five Edge
null,,html-keyboard-response,1176471,<p></p>,,,,null,,,,,,,,,,,,,,
760.1000000238419,,shortestpath_phase,1177231,GW/soldier.jpg,,,,49,GW/paint.jpg,GW/jukebox.jpg,1,0.47474747474747475,,,,GW/paint.jpg,,,,,One Edge Diff,Four Edge Five Edge
null,,html-keyboard-response,1178236,<p></p>,,,,null,,,,,,,,,,,,,,
487,,shortestpath_phase,1178723,GW/teeth.jpg,,,,50,GW/wheelchair.jpg,GW/barrel.jpg,1,0.48,,,,GW/barrel.jpg,,,,,Two Edge Diff,Four Edge Six Edge
null,,html-keyboard-response,1179724,<p></p>,,,,null,,,,,,,,,,,,,,
76.19999992847443,,shortestpath_phase,1179801,GW/basket.jpg,,,,49,GW/globe.jpg,GW/gong.jpg,1,0.48514851485148514,,,,GW/globe.jpg,,,,,Three Edge Diff,Two Edge Five Edge
null,,html-keyboard-response,1180804,<p></p>,,,,null,,,,,,,,,,,,,,
301,,shortestpath_phase,1181105,GW/soldier.jpg,,,,50,GW/hat.jpg,GW/jukebox.jpg,0,0.4803921568627451,,,,GW/hat.jpg,,,,,Three Edge Diff,Two Edge Five Edge
null,,html-keyboard-response,1182107,<p></p>,,,,null,,,,,,,,,,,,,,
293.6999999284744,,shortestpath_phase,1182401,GW/basket.jpg,,,,50,GW/paint.jpg,GW/snail.jpg,1,0.4854368932038835,,,,GW/snail.jpg,,,,,One Edge Diff,Three Edge Four Edge
null,,html-keyboard-response,1183404,<p></p>,,,,null,,,,,,,,,,,,,,
243,,shortestpath_phase,1183647,GW/jukebox.jpg,,,,49,GW/soldier.jpg,GW/hat.jpg,0,0.4807692307692308,,,,GW/hat.jpg,,,,,One Edge Diff,Four Edge Five Edge
null,,html-keyboard-response,1184653,<p></p>,,,,null,,,,,,,,,,,,,,
125.10000002384186,,shortestpath_phase,1184779,GW/wheelchair.jpg,,,,49,GW/camera.jpg,GW/teeth.jpg,1,0.4857142857142857,,,,GW/camera.jpg,,,,,Two Edge Diff,Four Edge Six Edge
null,,html-keyboard-response,1185782,<p></p>,,,,null,,,,,,,,,,,,,,
184.80000007152557,,shortestpath_phase,1185967,GW/jukebox.jpg,,,,50,GW/hat.jpg,GW/barrel.jpg,0,0.4811320754716981,,,,GW/hat.jpg,,,,,One Edge Diff,Four Edge Five Edge
null,,html-keyboard-response,1186969,<p></p>,,,,null,,,,,,,,,,,,,,
143.60000002384186,,shortestpath_phase,1187113,GW/basket.jpg,,,,50,GW/gong.jpg,GW/wheelchair.jpg,1,0.48598130841121495,,,,GW/wheelchair.jpg,,,,,Two Edge Diff,Three Edge Five Edge
null,,html-keyboard-response,1188115,<p></p>,,,,null,,,,,,,,,,,,,,
197.40000009536743,,shortestpath_phase,1188313,GW/barrel.jpg,,,,49,GW/snail.jpg,GW/gong.jpg,1,0.49074074074074076,,,,GW/snail.jpg,,,,,Two Edge Diff,Two Edge Four Edge
null,,html-keyboard-response,1189315,<p></p>,,,,null,,,,,,,,,,,,,,
205.20000004768372,,shortestpath_phase,1189521,GW/basket.jpg,,,,50,GW/dustpan.jpg,GW/teeth.jpg,0,0.48623853211009177,,,,GW/dustpan.jpg,,,,,One Edge Diff,Four Edge Five Edge
null,,html-keyboard-response,1190523,<p></p>,,,,null,,,,,,,,,,,,,,
349.59999990463257,,shortestpath_phase,1190873,GW/wheelchair.jpg,,,,50,GW/teeth.jpg,GW/barrel.jpg,1,0.4909090909090909,,,,GW/barrel.jpg,,,,,Four Edge Diff,Two Edge Six Edge
null,,html-keyboard-response,1191874,<p></p>,,,,null,,,,,,,,,,,,,,
228.5,,shortestpath_phase,1192104,GW/basket.jpg,,,,49,GW/snail.jpg,GW/teeth.jpg,1,0.4954954954954955,,,,GW/snail.jpg,,,,,Two Edge Diff,Three Edge Five Edge
null,,html-keyboard-response,1193105,<p></p>,,,,null,,,,,,,,,,,,,,
199.69999992847443,,shortestpath_phase,1193306,GW/barrel.jpg,,,,50,GW/jukebox.jpg,GW/wheelchair.jpg,1,0.5,,,,GW/wheelchair.jpg,,,,,Three Edge Diff,Two Edge Five Edge
null,,html-keyboard-response,1194308,<p></p>,,,,null,,,,,,,,,,,,,,
138.79999995231628,,shortestpath_phase,1194447,GW/jukebox.jpg,,,,49,GW/wheelchair.jpg,GW/globe.jpg,0,0.49557522123893805,,,,GW/globe.jpg,,,,,Two Edge Diff,Four Edge Six Edge
null,,html-keyboard-response,1195450,<p></p>,,,,null,,,,,,,,,,,,,,
312.7999999523163,,shortestpath_phase,1195763,GW/teeth.jpg,,,,50,GW/soldier.jpg,GW/wheelchair.jpg,0,0.49122807017543857,,,,GW/soldier.jpg,,,,,One Edge Diff,Five Edge Six Edge
null,,html-keyboard-response,1196765,<p></p>,,,,null,,,,,,,,,,,,,,
145.60000002384186,,shortestpath_phase,1196911,GW/wheelchair.jpg,,,,50,GW/barrel.jpg,GW/paint.jpg,0,0.48695652173913045,,,,GW/barrel.jpg,,,,,Three Edge Diff,Two Edge Five Edge
null,,html-keyboard-response,1197913,<p></p>,,,,null,,,,,,,,,,,,,,
93.60000002384186,,shortestpath_phase,1198007,GW/snail.jpg,,,,49,GW/hat.jpg,GW/wheelchair.jpg,1,0.49137931034482757,,,,GW/hat.jpg,,,,,One Edge Diff,Two Edge Three Edge
null,,html-keyboard-response,1199009,<p></p>,,,,null,,,,,,,,,,,,,,
177.40000009536743,,shortestpath_phase,1199187,GW/wheelchair.jpg,,,,49,GW/paint.jpg,GW/jukebox.jpg,1,0.49572649572649574,,,,GW/paint.jpg,,,,,One Edge Diff,Five Edge Six Edge
null,,html-keyboard-response,1200189,<p></p>,,,,null,,,,,,,,,,,,,,
195.89999997615814,,shortestpath_phase,1200385,GW/jukebox.jpg,,,,50,GW/camera.jpg,GW/soldier.jpg,0,0.4915254237288136,,,,GW/camera.jpg,,,,,Two Edge Diff,Three Edge Five Edge
null,,html-keyboard-response,1201387,<p></p>,,,,null,,,,,,,,,,,,,,
398,,shortestpath_phase,1201786,GW/paint.jpg,,,,49,GW/dustpan.jpg,GW/basket.jpg,1,0.4957983193277311,,,,GW/dustpan.jpg,,,,,Two Edge Diff,Two Edge Four Edge
null,,html-keyboard-response,1202788,<p></p>,,,,null,,,,,,,,,,,,,,
466.60000002384186,,shortestpath_phase,1203255,GW/wheelchair.jpg,,,,50,GW/camera.jpg,GW/gong.jpg,0,0.49166666666666664,,,,GW/camera.jpg,,,,,One Edge Diff,Four Edge Five Edge
null,,html-keyboard-response,1204257,<p></p>,,,,null,,,,,,,,,,,,,,
301.90000009536743,,shortestpath_phase,1204560,GW/hat.jpg,,,,50,GW/paint.jpg,GW/teeth.jpg,0,0.48760330578512395,,,,GW/paint.jpg,,,,,One Edge Diff,Two Edge Three Edge
null,,html-keyboard-response,1205563,<p></p>,,,,null,,,,,,,,,,,,,,
23704.899999976158,,intro_1,1229268,instruct,,0,,,,,,,,,,,,,,,,
22566.600000023842,,intro_2,1251836,instruct,,1,Next,,,,,,,,,,,,,,,
4056.399999976158,,intro_3,1255894,instruct,,1,Next,,,,,,,,,,,,,,,
