rt,responses,trial_type,time_elapsed,stimulus,graphorder,button_pressed,response,key_press,stimulus_left,stimulus_right,accuracy,cumulative_accuracy,stimulus_down_left,stimulus_down_mid,stimulus_down_right,stimulus_correct,stimulus_short,stimulus_far,weighted_accuracy,missedtrial,condition,specific_pairs
10873.400000035763,{worker_id:5fc521555cd05b000cfe0998},id_enter,10874,id_enter,GW/teeth.jpg; GW/paint.jpg; GW/basket.jpg; GW/barrel.jpg; GW/jukebox.jpg; GW/camera.jpg; GW/hat.jpg; GW/soldier.jpg; GW/gong.jpg; GW/dustpan.jpg; GW/snail.jpg; GW/wheelchair.jpg; GW/globe.jpg,,,,,,,,,,,,,,,,,
3300.600000023842,,fullscreen,14177,fullscreen,,0,,,,,,,,,,,,,,,,
32419.30000001192,,intro_1,46597,instruct,,0,,,,,,,,,,,,,,,,
13178,,intro_2,59776,instruct,,1,Next,,,,,,,,,,,,,,,
2730.199999988079,,intro_3,62506,instruct,,1,Next,,,,,,,,,,,,,,,
null,,learn_prac_1,64507,lean_prac_1,,,,null,,,,,,,,,,,,,,
null,,html-keyboard-response,65517,<p></p>,,,,null,,,,,,,,,,,,,,
1936,,intro_1,67455,instruct,,0,,,,,,,,,,,,,,,,
2215.699999988079,,intro_2,69671,instruct,,1,Next,,,,,,,,,,,,,,,
null,,learn_prac_2,71674,lean_prac_2,,,,null,,,,,,,,,,,,,,
null,,html-keyboard-response,72691,<p></p>,,,,null,,,,,,,,,,,,,,
2055.7000000476837,,intro_1,74748,instruct,,0,,,,,,,,,,,,,,,,
1824.300000011921,,intro_2,76573,instruct,,1,Next,,,,,,,,,,,,,,,
15784.5,,intro_3,92358,instruct,,1,Next,,,,,,,,,,,,,,,
null,,prac_atten_color_black,92898,black_plus_sign,,,,null,,,,,,,,,,,,,,
null,,prac_atten_color,93771,prac_stop_color,,,,null,,,,,,,,,,,,,,
null,,prac_atten_color_black,95779,black_plus_sign,,,,null,,,,,,,,,,,,,,
6620,,attentioncheck_help,102402,instruct,,,,32,,,,,,,,,,,,,,
null,,prac_atten_color_black,102944,black_plus_sign,,,,null,,,,,,,,,,,,,,
847.8000000119209,,prac_atten_color,103916,prac_stop_color,,,,50,,,,,,,,,,,,,,
null,,prac_atten_color_black,105920,black_plus_sign,,,,null,,,,,,,,,,,,,,
null,,prac_atten_color_black,106365,black_plus_sign,,,,null,,,,,,,,,,,,,,
74.89999997615814,,prac_atten_color,106989,prac_stop_color,,,,50,,,,,,,,,,,,,,
995.6999999880791,,prac_atten_color_black,108997,black_plus_sign,,,,50,,,,,,,,,,,,,,
null,,prac_atten_color_black,109791,black_plus_sign,,,,null,,,,,,,,,,,,,,
null,,prac_atten_color,110693,prac_stop_color,,,,null,,,,,,,,,,,,,,
260,,prac_atten_color_black,112696,black_plus_sign,,,,49,,,,,,,,,,,,,,
null,,prac_atten_color_black,113217,black_plus_sign,,,,null,,,,,,,,,,,,,,
null,,prac_atten_color,113981,prac_stop_color,,,,null,,,,,,,,,,,,,,
450.60000002384186,,prac_atten_color_black,115984,black_plus_sign,,,,50,,,,,,,,,,,,,,
null,,prac_atten_color_black,116631,black_plus_sign,,,,null,,,,,,,,,,,,,,
null,,prac_atten_color,117475,prac_stop_color,,,,null,,,,,,,,,,,,,,
133.19999998807907,,prac_atten_color_black,119479,black_plus_sign,,,,50,,,,,,,,,,,,,,
null,,prac_atten_color_black,120052,black_plus_sign,,,,null,,,,,,,,,,,,,,
356.19999998807907,,prac_atten_color,120958,prac_stop_color,,,,49,,,,,,,,,,,,,,
null,,prac_atten_color_black,122974,black_plus_sign,,,,null,,,,,,,,,,,,,,
null,,prac_atten_color_black,123491,black_plus_sign,,,,null,,,,,,,,,,,,,,
null,,prac_atten_color,124368,prac_stop_color,,,,null,,,,,,,,,,,,,,
223.39999997615814,,prac_atten_color_black,126385,black_plus_sign,,,,50,,,,,,,,,,,,,,
null,,prac_atten_color_black,126935,black_plus_sign,,,,null,,,,,,,,,,,,,,
794.1999999880791,,prac_atten_color,127998,prac_stop_color,,,,49,,,,,,,,,,,,,,
null,,prac_atten_color_black,130003,black_plus_sign,,,,null,,,,,,,,,,,,,,
null,,prac_atten_color_black,130349,black_plus_sign,,,,null,,,,,,,,,,,,,,
827.8000000119209,,prac_atten_color,131210,prac_stop_color,,,,49,,,,,,,,,,,,,,
null,,prac_atten_color_black,133220,black_plus_sign,,,,null,,,,,,,,,,,,,,
4940.199999988079,,attentioncheck_feedback,138163,cross_check_feedback,,0,,,,,,,,,,,,,,,,
26104.099999964237,,last_instruct,164268,instruct,,,,32,,,,,,,,,,,,,,
null,,learn_phase(without_color),166273,black_plus_sign,,,,null,GW/basket.jpg,GW/snail.jpg,,,,,,,,,,,,
null,,black_cross(without_color),167213,green,,,,null,GW/basket.jpg,GW/snail.jpg,,,,,,,,,,,,
null,,rt_plussign_withcolor,167722,green,,,,null,GW/basket.jpg,GW/snail.jpg,,,,,,,,,,,,
1362.3999999761581,,rt_thecrossant_black,168800,black_plus_sign,,,,49,,,0,0,,,,,,,,,,
null,,color_black,168908,black_plus_sign,,,,null,,,,,,,,,,,,,,
null,,learn_phase(without_color),170925,black_plus_sign,,,,null,GW/gong.jpg,GW/snail.jpg,,,,,,,,,,,,
null,,black_cross(without_color),171577,blue,,,,null,GW/gong.jpg,GW/snail.jpg,,,,,,,,,,,,
null,,rt_plussign_withcolor,172089,blue,,,,null,GW/gong.jpg,GW/snail.jpg,,,,,,,,,,,,
1475.199999988079,,rt_thecrossant_black,173447,black_plus_sign,,,,49,,,1,0.5,,,,,,,,,,
null,,color_black,173554,black_plus_sign,,,,null,,,,,,,,,,,,,,
null,,learn_phase(without_color),175573,black_plus_sign,,,,null,GW/paint.jpg,GW/basket.jpg,,,,,,,,,,,,
null,,black_cross(without_color),176267,green,,,,null,GW/paint.jpg,GW/basket.jpg,,,,,,,,,,,,
null,,rt_plussign_withcolor,176771,green,,,,null,GW/paint.jpg,GW/basket.jpg,,,,,,,,,,,,
752.4000000357628,,rt_thecrossant_black,178089,black_plus_sign,,,,50,,,1,0.6666666666666666,,,,,,,,,,
null,,color_black,178196,black_plus_sign,,,,null,,,,,,,,,,,,,,
null,,learn_phase(without_color),180210,black_plus_sign,,,,null,GW/camera.jpg,GW/hat.jpg,,,,,,,,,,,,
null,,black_cross(without_color),180825,green,,,,null,GW/camera.jpg,GW/hat.jpg,,,,,,,,,,,,
null,,rt_plussign_withcolor,181340,green,,,,null,GW/camera.jpg,GW/hat.jpg,,,,,,,,,,,,
947.6999999880791,,rt_thecrossant_black,182741,black_plus_sign,,,,50,,,1,0.75,,,,,,,,,,
null,,color_black,182850,black_plus_sign,,,,null,,,,,,,,,,,,,,
null,,learn_phase(without_color),184862,black_plus_sign,,,,null,GW/camera.jpg,GW/gong.jpg,,,,,,,,,,,,
null,,black_cross(without_color),185508,blue,,,,null,GW/camera.jpg,GW/gong.jpg,,,,,,,,,,,,
null,,rt_plussign_withcolor,186014,blue,,,,null,GW/camera.jpg,GW/gong.jpg,,,,,,,,,,,,
790.8999999761581,,rt_thecrossant_black,187380,black_plus_sign,,,,49,,,1,0.8,,,,,,,,,,
null,,color_black,187488,black_plus_sign,,,,null,,,,,,,,,,,,,,
null,,learn_phase(without_color),189501,black_plus_sign,,,,null,GW/soldier.jpg,GW/dustpan.jpg,,,,,,,,,,,,
null,,black_cross(without_color),190334,blue,,,,null,GW/soldier.jpg,GW/dustpan.jpg,,,,,,,,,,,,
null,,rt_plussign_withcolor,190847,blue,,,,null,GW/soldier.jpg,GW/dustpan.jpg,,,,,,,,,,,,
989.3000000119209,,rt_thecrossant_black,192034,black_plus_sign,,,,49,,,1,0.8333333333333334,,,,,,,,,,
null,,color_black,192139,black_plus_sign,,,,null,,,,,,,,,,,,,,
null,,learn_phase(without_color),194155,black_plus_sign,,,,null,GW/hat.jpg,GW/globe.jpg,,,,,,,,,,,,
null,,black_cross(without_color),195263,blue,,,,null,GW/hat.jpg,GW/globe.jpg,,,,,,,,,,,,
null,,rt_plussign_withcolor,195776,blue,,,,null,GW/hat.jpg,GW/globe.jpg,,,,,,,,,,,,
955.8000000119209,,rt_thecrossant_black,196696,black_plus_sign,,,,49,,,1,0.8571428571428571,,,,,,,,,,
null,,color_black,196806,black_plus_sign,,,,null,,,,,,,,,,,,,,
null,,learn_phase(without_color),198813,black_plus_sign,,,,null,GW/paint.jpg,GW/basket.jpg,,,,,,,,,,,,
null,,black_cross(without_color),199628,green,,,,null,GW/paint.jpg,GW/basket.jpg,,,,,,,,,,,,
null,,rt_plussign_withcolor,200131,green,,,,null,GW/paint.jpg,GW/basket.jpg,,,,,,,,,,,,
1231.199999988079,,rt_thecrossant_black,201341,black_plus_sign,,,,50,,,1,0.875,,,,,,,,,,
null,,color_black,201453,black_plus_sign,,,,null,,,,,,,,,,,,,,
null,,learn_phase(without_color),203458,black_plus_sign,,,,null,GW/hat.jpg,GW/soldier.jpg,,,,,,,,,,,,
null,,black_cross(without_color),203975,green,,,,null,GW/hat.jpg,GW/soldier.jpg,,,,,,,,,,,,
null,,rt_plussign_withcolor,204490,green,,,,null,GW/hat.jpg,GW/soldier.jpg,,,,,,,,,,,,
1044.0999999642372,,rt_thecrossant_black,205993,black_plus_sign,,,,50,,,1,0.8888888888888888,,,,,,,,,,
null,,color_black,206096,black_plus_sign,,,,null,,,,,,,,,,,,,,
null,,learn_phase(without_color),208106,black_plus_sign,,,,null,GW/barrel.jpg,GW/wheelchair.jpg,,,,,,,,,,,,
null,,black_cross(without_color),208671,blue,,,,null,GW/barrel.jpg,GW/wheelchair.jpg,,,,,,,,,,,,
null,,rt_plussign_withcolor,209178,blue,,,,null,GW/barrel.jpg,GW/wheelchair.jpg,,,,,,,,,,,,
880.8000000119209,,rt_thecrossant_black,210629,black_plus_sign,,,,49,,,1,0.9,,,,,,,,,,
null,,color_black,210736,black_plus_sign,,,,null,,,,,,,,,,,,,,
null,,learn_phase(without_color),212742,black_plus_sign,,,,null,GW/snail.jpg,GW/wheelchair.jpg,,,,,,,,,,,,
null,,black_cross(without_color),213719,green,,,,null,GW/snail.jpg,GW/wheelchair.jpg,,,,,,,,,,,,
null,,rt_plussign_withcolor,214223,green,,,,null,GW/snail.jpg,GW/wheelchair.jpg,,,,,,,,,,,,
656.3999999761581,,rt_thecrossant_black,215279,black_plus_sign,,,,50,,,1,0.9090909090909091,,,,,,,,,,
null,,color_black,215387,black_plus_sign,,,,null,,,,,,,,,,,,,,
null,,learn_phase(without_color),217403,black_plus_sign,,,,null,GW/camera.jpg,GW/gong.jpg,,,,,,,,,,,,
null,,black_cross(without_color),218304,green,,,,null,GW/camera.jpg,GW/gong.jpg,,,,,,,,,,,,
null,,rt_plussign_withcolor,218813,green,,,,null,GW/camera.jpg,GW/gong.jpg,,,,,,,,,,,,
1145.300000011921,,rt_thecrossant_black,219941,black_plus_sign,,,,50,,,1,0.9166666666666666,,,,,,,,,,
null,,color_black,220048,black_plus_sign,,,,null,,,,,,,,,,,,,,
null,,learn_phase(without_color),222058,black_plus_sign,,,,null,GW/barrel.jpg,GW/jukebox.jpg,,,,,,,,,,,,
null,,black_cross(without_color),222820,blue,,,,null,GW/barrel.jpg,GW/jukebox.jpg,,,,,,,,,,,,
null,,rt_plussign_withcolor,223323,blue,,,,null,GW/barrel.jpg,GW/jukebox.jpg,,,,,,,,,,,,
1006.2000000476837,,rt_thecrossant_black,224575,black_plus_sign,,,,49,,,1,0.9230769230769231,,,,,,,,,,
null,,color_black,224690,black_plus_sign,,,,null,,,,,,,,,,,,,,
null,,learn_phase(without_color),226694,black_plus_sign,,,,null,GW/soldier.jpg,GW/gong.jpg,,,,,,,,,,,,
null,,black_cross(without_color),227379,blue,,,,null,GW/soldier.jpg,GW/gong.jpg,,,,,,,,,,,,
null,,rt_plussign_withcolor,227905,blue,,,,null,GW/soldier.jpg,GW/gong.jpg,,,,,,,,,,,,
1043.199999988079,,rt_thecrossant_black,229235,black_plus_sign,,,,49,,,1,0.9285714285714286,,,,,,,,,,
null,,color_black,229346,black_plus_sign,,,,null,,,,,,,,,,,,,,
null,,learn_phase(without_color),231363,black_plus_sign,,,,null,GW/hat.jpg,GW/gong.jpg,,,,,,,,,,,,
null,,black_cross(without_color),231843,green,,,,null,GW/hat.jpg,GW/gong.jpg,,,,,,,,,,,,
472.0999999642372,,rt_plussign_withcolor,232344,green,,,,50,GW/hat.jpg,GW/gong.jpg,,,,,,,,,,,,
null,,rt_thecrossant_black,233881,black_plus_sign,,,,null,,,1,0.9333333333333333,,,,,,,,,,
null,,color_black,233987,black_plus_sign,,,,null,,,,,,,,,,,,,,
null,,learn_phase(without_color),236000,black_plus_sign,,,,null,GW/paint.jpg,GW/barrel.jpg,,,,,,,,,,,,
null,,black_cross(without_color),237040,green,,,,null,GW/paint.jpg,GW/barrel.jpg,,,,,,,,,,,,
475.7000000476837,,rt_plussign_withcolor,237542,green,,,,50,GW/paint.jpg,GW/barrel.jpg,,,,,,,,,,,,
null,,rt_thecrossant_black,238528,black_plus_sign,,,,null,,,1,0.9375,,,,,,,,,,
null,,color_black,238634,black_plus_sign,,,,null,,,,,,,,,,,,,,
null,,learn_phase(without_color),240652,black_plus_sign,,,,null,GW/basket.jpg,GW/camera.jpg,,,,,,,,,,,,
null,,black_cross(without_color),241079,blue,,,,null,GW/basket.jpg,GW/camera.jpg,,,,,,,,,,,,
null,,rt_plussign_withcolor,241584,blue,,,,null,GW/basket.jpg,GW/camera.jpg,,,,,,,,,,,,
1221.7000000476837,,rt_thecrossant_black,243181,black_plus_sign,,,,49,,,1,0.9411764705882353,,,,,,,,,,
null,,color_black,243289,black_plus_sign,,,,null,,,,,,,,,,,,,,
null,,learn_phase(without_color),245296,black_plus_sign,,,,null,GW/paint.jpg,GW/basket.jpg,,,,,,,,,,,,
null,,black_cross(without_color),246355,blue,,,,null,GW/paint.jpg,GW/basket.jpg,,,,,,,,,,,,
null,,rt_plussign_withcolor,246872,blue,,,,null,GW/paint.jpg,GW/basket.jpg,,,,,,,,,,,,
803.6999999880791,,rt_thecrossant_black,247837,black_plus_sign,,,,49,,,1,0.9444444444444444,,,,,,,,,,
null,,color_black,247945,black_plus_sign,,,,null,,,,,,,,,,,,,,
null,,learn_phase(without_color),249961,black_plus_sign,,,,null,GW/barrel.jpg,GW/jukebox.jpg,,,,,,,,,,,,
null,,black_cross(without_color),250697,green,,,,null,GW/barrel.jpg,GW/jukebox.jpg,,,,,,,,,,,,
399,,rt_plussign_withcolor,251201,green,,,,50,GW/barrel.jpg,GW/jukebox.jpg,,,,,,,,,,,,
null,,rt_thecrossant_black,252487,black_plus_sign,,,,null,,,1,0.9473684210526315,,,,,,,,,,
null,,color_black,252601,black_plus_sign,,,,null,,,,,,,,,,,,,,
null,,learn_phase(without_color),254608,black_plus_sign,,,,null,GW/gong.jpg,GW/snail.jpg,,,,,,,,,,,,
null,,black_cross(without_color),255255,green,,,,null,GW/gong.jpg,GW/snail.jpg,,,,,,,,,,,,
null,,rt_plussign_withcolor,255770,green,,,,null,GW/gong.jpg,GW/snail.jpg,,,,,,,,,,,,
831.5,,rt_thecrossant_black,257147,black_plus_sign,,,,50,,,1,0.95,,,,,,,,,,
null,,color_black,257255,black_plus_sign,,,,null,,,,,,,,,,,,,,
null,,learn_phase(without_color),259257,black_plus_sign,,,,null,GW/paint.jpg,GW/basket.jpg,,,,,,,,,,,,
null,,black_cross(without_color),260304,blue,,,,null,GW/paint.jpg,GW/basket.jpg,,,,,,,,,,,,
null,,rt_plussign_withcolor,260806,blue,,,,null,GW/paint.jpg,GW/basket.jpg,,,,,,,,,,,,
754,,rt_thecrossant_black,261778,black_plus_sign,,,,49,,,1,0.9523809523809523,,,,,,,,,,
null,,color_black,261886,black_plus_sign,,,,null,,,,,,,,,,,,,,
null,,learn_phase(without_color),263900,black_plus_sign,,,,null,GW/barrel.jpg,GW/jukebox.jpg,,,,,,,,,,,,
null,,black_cross(without_color),264529,green,,,,null,GW/barrel.jpg,GW/jukebox.jpg,,,,,,,,,,,,
null,,rt_plussign_withcolor,265043,green,,,,null,GW/barrel.jpg,GW/jukebox.jpg,,,,,,,,,,,,
1316.5,,rt_thecrossant_black,266431,black_plus_sign,,,,50,,,1,0.9545454545454546,,,,,,,,,,
null,,color_black,266539,black_plus_sign,,,,null,,,,,,,,,,,,,,
null,,learn_phase(without_color),268546,black_plus_sign,,,,null,GW/basket.jpg,GW/camera.jpg,,,,,,,,,,,,
null,,black_cross(without_color),269580,green,,,,null,GW/basket.jpg,GW/camera.jpg,,,,,,,,,,,,
null,,rt_plussign_withcolor,270094,green,,,,null,GW/basket.jpg,GW/camera.jpg,,,,,,,,,,,,
826.2000000476837,,rt_thecrossant_black,271077,black_plus_sign,,,,50,,,1,0.9565217391304348,,,,,,,,,,
null,,color_black,271190,black_plus_sign,,,,null,,,,,,,,,,,,,,
null,,learn_phase(without_color),273203,black_plus_sign,,,,null,GW/barrel.jpg,GW/jukebox.jpg,,,,,,,,,,,,
null,,black_cross(without_color),274244,blue,,,,null,GW/barrel.jpg,GW/jukebox.jpg,,,,,,,,,,,,
453.69999998807907,,rt_plussign_withcolor,274754,blue,,,,49,GW/barrel.jpg,GW/jukebox.jpg,,,,,,,,,,,,
null,,rt_thecrossant_black,275720,black_plus_sign,,,,null,,,1,0.9583333333333334,,,,,,,,,,
null,,color_black,275825,black_plus_sign,,,,null,,,,,,,,,,,,,,
null,,learn_phase(without_color),277830,black_plus_sign,,,,null,GW/basket.jpg,GW/camera.jpg,,,,,,,,,,,,
null,,black_cross(without_color),278433,green,,,,null,GW/basket.jpg,GW/camera.jpg,,,,,,,,,,,,
null,,rt_plussign_withcolor,278935,green,,,,null,GW/basket.jpg,GW/camera.jpg,,,,,,,,,,,,
1211.300000011921,,rt_thecrossant_black,280340,black_plus_sign,,,,50,,,1,0.96,,,,,,,,,,
null,,color_black,280443,black_plus_sign,,,,null,,,,,,,,,,,,,,
null,,learn_phase(without_color),282459,black_plus_sign,,,,null,GW/soldier.jpg,GW/dustpan.jpg,,,,,,,,,,,,
null,,black_cross(without_color),283193,blue,,,,null,GW/soldier.jpg,GW/dustpan.jpg,,,,,,,,,,,,
407.89999997615814,,rt_plussign_withcolor,283700,blue,,,,49,GW/soldier.jpg,GW/dustpan.jpg,,,,,,,,,,,,
null,,rt_thecrossant_black,284994,black_plus_sign,,,,null,,,1,0.9615384615384616,,,,,,,,,,
null,,color_black,285102,black_plus_sign,,,,null,,,,,,,,,,,,,,
null,,learn_phase(without_color),287129,black_plus_sign,,,,null,GW/hat.jpg,GW/gong.jpg,,,,,,,,,,,,
null,,black_cross(without_color),287656,blue,,,,null,GW/hat.jpg,GW/gong.jpg,,,,,,,,,,,,
null,,rt_plussign_withcolor,288172,blue,,,,null,GW/hat.jpg,GW/gong.jpg,,,,,,,,,,,,
897.8999999761581,,rt_thecrossant_black,289660,black_plus_sign,,,,49,,,1,0.9629629629629629,,,,,,,,,,
null,,color_black,289775,black_plus_sign,,,,null,,,,,,,,,,,,,,
null,,learn_phase(without_color),291804,black_plus_sign,,,,null,GW/camera.jpg,GW/hat.jpg,,,,,,,,,,,,
null,,black_cross(without_color),292287,green,,,,null,GW/camera.jpg,GW/hat.jpg,,,,,,,,,,,,
null,,rt_plussign_withcolor,292795,green,,,,null,GW/camera.jpg,GW/hat.jpg,,,,,,,,,,,,
917.5,,rt_thecrossant_black,294335,black_plus_sign,,,,50,,,1,0.9642857142857143,,,,,,,,,,
null,,color_black,294442,black_plus_sign,,,,null,,,,,,,,,,,,,,
null,,learn_phase(without_color),296448,black_plus_sign,,,,null,GW/paint.jpg,GW/barrel.jpg,,,,,,,,,,,,
null,,black_cross(without_color),297549,green,,,,null,GW/paint.jpg,GW/barrel.jpg,,,,,,,,,,,,
null,,rt_plussign_withcolor,298055,green,,,,null,GW/paint.jpg,GW/barrel.jpg,,,,,,,,,,,,
1090.6000000238419,,rt_thecrossant_black,298966,black_plus_sign,,,,50,,,1,0.9655172413793104,,,,,,,,,,
null,,color_black,299072,black_plus_sign,,,,null,,,,,,,,,,,,,,
null,,learn_phase(without_color),301087,black_plus_sign,,,,null,GW/gong.jpg,GW/snail.jpg,,,,,,,,,,,,
null,,black_cross(without_color),301727,blue,,,,null,GW/gong.jpg,GW/snail.jpg,,,,,,,,,,,,
435.0999999642372,,rt_plussign_withcolor,302232,blue,,,,49,GW/gong.jpg,GW/snail.jpg,,,,,,,,,,,,
null,,rt_thecrossant_black,303607,black_plus_sign,,,,null,,,1,0.9666666666666667,,,,,,,,,,
null,,color_black,303725,black_plus_sign,,,,null,,,,,,,,,,,,,,
null,,learn_phase(without_color),305730,black_plus_sign,,,,null,GW/basket.jpg,GW/snail.jpg,,,,,,,,,,,,
null,,black_cross(without_color),306308,blue,,,,null,GW/basket.jpg,GW/snail.jpg,,,,,,,,,,,,
null,,rt_plussign_withcolor,306820,blue,,,,null,GW/basket.jpg,GW/snail.jpg,,,,,,,,,,,,
1031.199999988079,,rt_thecrossant_black,308267,black_plus_sign,,,,49,,,1,0.967741935483871,,,,,,,,,,
null,,color_black,308375,black_plus_sign,,,,null,,,,,,,,,,,,,,
null,,learn_phase(without_color),310376,black_plus_sign,,,,null,GW/hat.jpg,GW/gong.jpg,,,,,,,,,,,,
null,,black_cross(without_color),310881,blue,,,,null,GW/hat.jpg,GW/gong.jpg,,,,,,,,,,,,
null,,rt_plussign_withcolor,311389,blue,,,,null,GW/hat.jpg,GW/gong.jpg,,,,,,,,,,,,
842.8999999761581,,rt_thecrossant_black,312914,black_plus_sign,,,,49,,,1,0.96875,,,,,,,,,,
null,,color_black,313028,black_plus_sign,,,,null,,,,,,,,,,,,,,
null,,learn_phase(without_color),315033,black_plus_sign,,,,null,GW/hat.jpg,GW/globe.jpg,,,,,,,,,,,,
null,,black_cross(without_color),315616,green,,,,null,GW/hat.jpg,GW/globe.jpg,,,,,,,,,,,,
415.80000001192093,,rt_plussign_withcolor,316124,green,,,,50,GW/hat.jpg,GW/globe.jpg,,,,,,,,,,,,
null,,rt_thecrossant_black,317555,black_plus_sign,,,,null,,,1,0.9696969696969697,,,,,,,,,,
null,,color_black,317661,black_plus_sign,,,,null,,,,,,,,,,,,,,
null,,learn_phase(without_color),319678,black_plus_sign,,,,null,GW/paint.jpg,GW/barrel.jpg,,,,,,,,,,,,
null,,black_cross(without_color),320601,blue,,,,null,GW/paint.jpg,GW/barrel.jpg,,,,,,,,,,,,
496,,rt_plussign_withcolor,321103,blue,,,,49,GW/paint.jpg,GW/barrel.jpg,,,,,,,,,,,,
null,,rt_thecrossant_black,322194,black_plus_sign,,,,null,,,1,0.9705882352941176,,,,,,,,,,
null,,color_black,322302,black_plus_sign,,,,null,,,,,,,,,,,,,,
null,,learn_phase(without_color),324320,black_plus_sign,,,,null,GW/gong.jpg,GW/snail.jpg,,,,,,,,,,,,
null,,black_cross(without_color),325173,green,,,,null,GW/gong.jpg,GW/snail.jpg,,,,,,,,,,,,
365.2999999523163,,rt_plussign_withcolor,325675,green,,,,50,GW/gong.jpg,GW/snail.jpg,,,,,,,,,,,,
null,,rt_thecrossant_black,326857,black_plus_sign,,,,null,,,1,0.9714285714285714,,,,,,,,,,
null,,color_black,326979,black_plus_sign,,,,null,,,,,,,,,,,,,,
null,,learn_phase(without_color),328989,black_plus_sign,,,,null,GW/basket.jpg,GW/camera.jpg,,,,,,,,,,,,
null,,black_cross(without_color),330035,green,,,,null,GW/basket.jpg,GW/camera.jpg,,,,,,,,,,,,
null,,rt_plussign_withcolor,330545,green,,,,null,GW/basket.jpg,GW/camera.jpg,,,,,,,,,,,,
1125.199999988079,,rt_thecrossant_black,331512,black_plus_sign,,,,50,,,1,0.9722222222222222,,,,,,,,,,
null,,color_black,331629,black_plus_sign,,,,null,,,,,,,,,,,,,,
null,,learn_phase(without_color),333637,black_plus_sign,,,,null,GW/gong.jpg,GW/snail.jpg,,,,,,,,,,,,
null,,black_cross(without_color),334371,blue,,,,null,GW/gong.jpg,GW/snail.jpg,,,,,,,,,,,,
343,,rt_plussign_withcolor,334879,blue,,,,49,GW/gong.jpg,GW/snail.jpg,,,,,,,,,,,,
null,,rt_thecrossant_black,336179,black_plus_sign,,,,null,,,1,0.972972972972973,,,,,,,,,,
null,,color_black,336286,black_plus_sign,,,,null,,,,,,,,,,,,,,
null,,learn_phase(without_color),338299,black_plus_sign,,,,null,GW/paint.jpg,GW/barrel.jpg,,,,,,,,,,,,
null,,black_cross(without_color),339248,blue,,,,null,GW/paint.jpg,GW/barrel.jpg,,,,,,,,,,,,
null,,rt_plussign_withcolor,339754,blue,,,,null,GW/paint.jpg,GW/barrel.jpg,,,,,,,,,,,,
1152.199999988079,,rt_thecrossant_black,340821,black_plus_sign,,,,49,,,1,0.9736842105263158,,,,,,,,,,
null,,color_black,340929,black_plus_sign,,,,null,,,,,,,,,,,,,,
null,,learn_phase(without_color),342936,black_plus_sign,,,,null,GW/hat.jpg,GW/gong.jpg,,,,,,,,,,,,
null,,black_cross(without_color),343984,blue,,,,null,GW/hat.jpg,GW/gong.jpg,,,,,,,,,,,,
null,,rt_plussign_withcolor,344497,blue,,,,null,GW/hat.jpg,GW/gong.jpg,,,,,,,,,,,,
1076.3999999761581,,rt_thecrossant_black,345474,black_plus_sign,,,,49,,,1,0.9743589743589743,,,,,,,,,,
null,,color_black,345581,black_plus_sign,,,,null,,,,,,,,,,,,,,
null,,learn_phase(without_color),347596,black_plus_sign,,,,null,GW/basket.jpg,GW/snail.jpg,,,,,,,,,,,,
null,,black_cross(without_color),348601,blue,,,,null,GW/basket.jpg,GW/snail.jpg,,,,,,,,,,,,
null,,rt_plussign_withcolor,349108,blue,,,,null,GW/basket.jpg,GW/snail.jpg,,,,,,,,,,,,
1148.800000011921,,rt_thecrossant_black,350130,black_plus_sign,,,,49,,,1,0.975,,,,,,,,,,
null,,color_black,350243,black_plus_sign,,,,null,,,,,,,,,,,,,,
null,,learn_phase(without_color),352251,black_plus_sign,,,,null,GW/teeth.jpg,GW/paint.jpg,,,,,,,,,,,,
null,,black_cross(without_color),353121,green,,,,null,GW/teeth.jpg,GW/paint.jpg,,,,,,,,,,,,
null,,rt_plussign_withcolor,353630,green,,,,null,GW/teeth.jpg,GW/paint.jpg,,,,,,,,,,,,
1101.3999999761581,,rt_thecrossant_black,354779,black_plus_sign,,,,50,,,1,0.975609756097561,,,,,,,,,,
null,,color_black,354887,black_plus_sign,,,,null,,,,,,,,,,,,,,
null,,learn_phase(without_color),356900,black_plus_sign,,,,null,GW/soldier.jpg,GW/gong.jpg,,,,,,,,,,,,
null,,black_cross(without_color),357522,green,,,,null,GW/soldier.jpg,GW/gong.jpg,,,,,,,,,,,,
472.10000002384186,,rt_plussign_withcolor,358034,green,,,,50,GW/soldier.jpg,GW/gong.jpg,,,,,,,,,,,,
null,,rt_thecrossant_black,359440,black_plus_sign,,,,null,,,1,0.9761904761904762,,,,,,,,,,
null,,color_black,359547,black_plus_sign,,,,null,,,,,,,,,,,,,,
null,,learn_phase(without_color),361554,black_plus_sign,,,,null,GW/hat.jpg,GW/globe.jpg,,,,,,,,,,,,
null,,black_cross(without_color),362261,green,,,,null,GW/hat.jpg,GW/globe.jpg,,,,,,,,,,,,
492.89999997615814,,rt_plussign_withcolor,362771,green,,,,50,GW/hat.jpg,GW/globe.jpg,,,,,,,,,,,,
null,,rt_thecrossant_black,364088,black_plus_sign,,,,null,,,1,0.9767441860465116,,,,,,,,,,
null,,color_black,364199,black_plus_sign,,,,null,,,,,,,,,,,,,,
null,,learn_phase(without_color),366210,black_plus_sign,,,,null,GW/barrel.jpg,GW/jukebox.jpg,,,,,,,,,,,,
null,,black_cross(without_color),367261,green,,,,null,GW/barrel.jpg,GW/jukebox.jpg,,,,,,,,,,,,
null,,rt_plussign_withcolor,367775,green,,,,null,GW/barrel.jpg,GW/jukebox.jpg,,,,,,,,,,,,
803.3999999761581,,rt_thecrossant_black,368738,black_plus_sign,,,,50,,,1,0.9772727272727273,,,,,,,,,,
null,,color_black,368848,black_plus_sign,,,,null,,,,,,,,,,,,,,
null,,learn_phase(without_color),370858,black_plus_sign,,,,null,GW/camera.jpg,GW/hat.jpg,,,,,,,,,,,,
null,,black_cross(without_color),371568,blue,,,,null,GW/camera.jpg,GW/hat.jpg,,,,,,,,,,,,
null,,rt_plussign_withcolor,372075,blue,,,,null,GW/camera.jpg,GW/hat.jpg,,,,,,,,,,,,
1185.800000011921,,rt_thecrossant_black,373379,black_plus_sign,,,,49,,,1,0.9777777777777777,,,,,,,,,,
null,,color_black,373487,black_plus_sign,,,,null,,,,,,,,,,,,,,
null,,learn_phase(without_color),375500,black_plus_sign,,,,null,GW/teeth.jpg,GW/paint.jpg,,,,,,,,,,,,
null,,black_cross(without_color),375922,green,,,,null,GW/teeth.jpg,GW/paint.jpg,,,,,,,,,,,,
null,,rt_plussign_withcolor,376423,green,,,,null,GW/teeth.jpg,GW/paint.jpg,,,,,,,,,,,,
995.1000000238419,,rt_thecrossant_black,378021,black_plus_sign,,,,50,,,1,0.9782608695652174,,,,,,,,,,
null,,color_black,378137,black_plus_sign,,,,null,,,,,,,,,,,,,,
null,,learn_phase(without_color),380142,black_plus_sign,,,,null,GW/hat.jpg,GW/globe.jpg,,,,,,,,,,,,
null,,black_cross(without_color),380792,blue,,,,null,GW/hat.jpg,GW/globe.jpg,,,,,,,,,,,,
null,,rt_plussign_withcolor,381306,blue,,,,null,GW/hat.jpg,GW/globe.jpg,,,,,,,,,,,,
620.3000000119209,,rt_thecrossant_black,382681,black_plus_sign,,,,49,,,1,0.9787234042553191,,,,,,,,,,
null,,color_black,382791,black_plus_sign,,,,null,,,,,,,,,,,,,,
null,,learn_phase(without_color),384804,black_plus_sign,,,,null,GW/basket.jpg,GW/snail.jpg,,,,,,,,,,,,
null,,black_cross(without_color),385395,green,,,,null,GW/basket.jpg,GW/snail.jpg,,,,,,,,,,,,
446.19999998807907,,rt_plussign_withcolor,385906,green,,,,50,GW/basket.jpg,GW/snail.jpg,,,,,,,,,,,,
null,,rt_thecrossant_black,387337,black_plus_sign,,,,null,,,1,0.9791666666666666,,,,,,,,,,
null,,color_black,387451,black_plus_sign,,,,null,,,,,,,,,,,,,,
null,,learn_phase(without_color),389465,black_plus_sign,,,,null,GW/hat.jpg,GW/globe.jpg,,,,,,,,,,,,
null,,black_cross(without_color),390562,green,,,,null,GW/hat.jpg,GW/globe.jpg,,,,,,,,,,,,
null,,rt_plussign_withcolor,391074,green,,,,null,GW/hat.jpg,GW/globe.jpg,,,,,,,,,,,,
1121.1000000238419,,rt_thecrossant_black,391993,black_plus_sign,,,,50,,,1,0.9795918367346939,,,,,,,,,,
null,,color_black,392110,black_plus_sign,,,,null,,,,,,,,,,,,,,
null,,learn_phase(without_color),394116,black_plus_sign,,,,null,GW/teeth.jpg,GW/paint.jpg,,,,,,,,,,,,
null,,black_cross(without_color),394774,green,,,,null,GW/teeth.jpg,GW/paint.jpg,,,,,,,,,,,,
null,,rt_plussign_withcolor,395289,green,,,,null,GW/teeth.jpg,GW/paint.jpg,,,,,,,,,,,,
1328,,rt_thecrossant_black,396649,black_plus_sign,,,,50,,,1,0.98,,,,,,,,,,
null,,color_black,396751,black_plus_sign,,,,null,,,,,,,,,,,,,,
null,,learn_phase(without_color),398757,black_plus_sign,,,,null,GW/barrel.jpg,GW/wheelchair.jpg,,,,,,,,,,,,
null,,black_cross(without_color),399435,blue,,,,null,GW/barrel.jpg,GW/wheelchair.jpg,,,,,,,,,,,,
null,,rt_plussign_withcolor,399943,blue,,,,null,GW/barrel.jpg,GW/wheelchair.jpg,,,,,,,,,,,,
862.8999999761581,,rt_thecrossant_black,401287,black_plus_sign,,,,49,,,1,0.9803921568627451,,,,,,,,,,
null,,color_black,401388,black_plus_sign,,,,null,,,,,,,,,,,,,,
null,,learn_phase(without_color),403405,black_plus_sign,,,,null,GW/camera.jpg,GW/gong.jpg,,,,,,,,,,,,
null,,black_cross(without_color),404194,blue,,,,null,GW/camera.jpg,GW/gong.jpg,,,,,,,,,,,,
null,,rt_plussign_withcolor,404707,blue,,,,null,GW/camera.jpg,GW/gong.jpg,,,,,,,,,,,,
829.2999999523163,,rt_thecrossant_black,405942,black_plus_sign,,,,49,,,1,0.9807692307692307,,,,,,,,,,
null,,color_black,406049,black_plus_sign,,,,null,,,,,,,,,,,,,,
null,,learn_phase(without_color),408058,black_plus_sign,,,,null,GW/hat.jpg,GW/soldier.jpg,,,,,,,,,,,,
null,,black_cross(without_color),408904,green,,,,null,GW/hat.jpg,GW/soldier.jpg,,,,,,,,,,,,
null,,rt_plussign_withcolor,409416,green,,,,null,GW/hat.jpg,GW/soldier.jpg,,,,,,,,,,,,
1156,,rt_thecrossant_black,410589,black_plus_sign,,,,50,,,1,0.9811320754716981,,,,,,,,,,
null,,color_black,410703,black_plus_sign,,,,null,,,,,,,,,,,,,,
null,,learn_phase(without_color),412711,black_plus_sign,,,,null,GW/basket.jpg,GW/camera.jpg,,,,,,,,,,,,
null,,black_cross(without_color),413705,blue,,,,null,GW/basket.jpg,GW/camera.jpg,,,,,,,,,,,,
null,,rt_plussign_withcolor,414211,blue,,,,null,GW/basket.jpg,GW/camera.jpg,,,,,,,,,,,,
1385.9000000357628,,rt_thecrossant_black,415242,black_plus_sign,,,,49,,,1,0.9814814814814815,,,,,,,,,,
null,,color_black,415350,black_plus_sign,,,,null,,,,,,,,,,,,,,
null,,learn_phase(without_color),417362,black_plus_sign,,,,null,GW/hat.jpg,GW/globe.jpg,,,,,,,,,,,,
null,,black_cross(without_color),418134,green,,,,null,GW/hat.jpg,GW/globe.jpg,,,,,,,,,,,,
null,,rt_plussign_withcolor,418642,green,,,,null,GW/hat.jpg,GW/globe.jpg,,,,,,,,,,,,
1212,,rt_thecrossant_black,419886,black_plus_sign,,,,50,,,1,0.9818181818181818,,,,,,,,,,
null,,color_black,419993,black_plus_sign,,,,null,,,,,,,,,,,,,,
null,,learn_phase(without_color),422002,black_plus_sign,,,,null,GW/basket.jpg,GW/camera.jpg,,,,,,,,,,,,
null,,black_cross(without_color),422820,blue,,,,null,GW/basket.jpg,GW/camera.jpg,,,,,,,,,,,,
374,,rt_plussign_withcolor,423328,blue,,,,49,GW/basket.jpg,GW/camera.jpg,,,,,,,,,,,,
null,,rt_thecrossant_black,424532,black_plus_sign,,,,null,,,1,0.9821428571428571,,,,,,,,,,
null,,color_black,424642,black_plus_sign,,,,null,,,,,,,,,,,,,,
null,,learn_phase(without_color),426652,black_plus_sign,,,,null,GW/teeth.jpg,GW/paint.jpg,,,,,,,,,,,,
null,,black_cross(without_color),427208,blue,,,,null,GW/teeth.jpg,GW/paint.jpg,,,,,,,,,,,,
null,,rt_plussign_withcolor,427716,blue,,,,null,GW/teeth.jpg,GW/paint.jpg,,,,,,,,,,,,
993.8999999761581,,rt_thecrossant_black,429191,black_plus_sign,,,,49,,,1,0.9824561403508771,,,,,,,,,,
null,,color_black,429299,black_plus_sign,,,,null,,,,,,,,,,,,,,
null,,learn_phase(without_color),431305,black_plus_sign,,,,null,GW/soldier.jpg,GW/gong.jpg,,,,,,,,,,,,
null,,black_cross(without_color),431814,blue,,,,null,GW/soldier.jpg,GW/gong.jpg,,,,,,,,,,,,
null,,rt_plussign_withcolor,432322,blue,,,,null,GW/soldier.jpg,GW/gong.jpg,,,,,,,,,,,,
774.3000000119209,,rt_thecrossant_black,433834,black_plus_sign,,,,49,,,1,0.9827586206896551,,,,,,,,,,
null,,color_black,433942,black_plus_sign,,,,null,,,,,,,,,,,,,,
null,,learn_phase(without_color),435959,black_plus_sign,,,,null,GW/paint.jpg,GW/basket.jpg,,,,,,,,,,,,
null,,black_cross(without_color),436378,green,,,,null,GW/paint.jpg,GW/basket.jpg,,,,,,,,,,,,
null,,rt_plussign_withcolor,436889,green,,,,null,GW/paint.jpg,GW/basket.jpg,,,,,,,,,,,,
611.6999999880791,,rt_thecrossant_black,438485,black_plus_sign,,,,50,,,1,0.9830508474576272,,,,,,,,,,
null,,color_black,438594,black_plus_sign,,,,null,,,,,,,,,,,,,,
null,,learn_phase(without_color),440611,black_plus_sign,,,,null,GW/barrel.jpg,GW/wheelchair.jpg,,,,,,,,,,,,
null,,black_cross(without_color),441496,blue,,,,null,GW/barrel.jpg,GW/wheelchair.jpg,,,,,,,,,,,,
null,,rt_plussign_withcolor,442006,blue,,,,null,GW/barrel.jpg,GW/wheelchair.jpg,,,,,,,,,,,,
739.1000000238419,,rt_thecrossant_black,443131,black_plus_sign,,,,49,,,1,0.9833333333333333,,,,,,,,,,
null,,color_black,443239,black_plus_sign,,,,null,,,,,,,,,,,,,,
null,,learn_phase(without_color),445242,black_plus_sign,,,,null,GW/hat.jpg,GW/soldier.jpg,,,,,,,,,,,,
null,,black_cross(without_color),446073,blue,,,,null,GW/hat.jpg,GW/soldier.jpg,,,,,,,,,,,,
null,,rt_plussign_withcolor,446584,blue,,,,null,GW/hat.jpg,GW/soldier.jpg,,,,,,,,,,,,
1086.2999999523163,,rt_thecrossant_black,447773,black_plus_sign,,,,49,,,1,0.9836065573770492,,,,,,,,,,
null,,color_black,447879,black_plus_sign,,,,null,,,,,,,,,,,,,,
null,,learn_phase(without_color),449887,black_plus_sign,,,,null,GW/paint.jpg,GW/basket.jpg,,,,,,,,,,,,
null,,black_cross(without_color),450337,blue,,,,null,GW/paint.jpg,GW/basket.jpg,,,,,,,,,,,,
null,,rt_plussign_withcolor,450845,blue,,,,null,GW/paint.jpg,GW/basket.jpg,,,,,,,,,,,,
1132.800000011921,,rt_thecrossant_black,452401,black_plus_sign,,,,49,,,1,0.9838709677419355,,,,,,,,,,
null,,color_black,452508,black_plus_sign,,,,null,,,,,,,,,,,,,,
null,,learn_phase(without_color),454514,black_plus_sign,,,,null,GW/basket.jpg,GW/snail.jpg,,,,,,,,,,,,
null,,black_cross(without_color),455163,blue,,,,null,GW/basket.jpg,GW/snail.jpg,,,,,,,,,,,,
null,,rt_plussign_withcolor,455673,blue,,,,null,GW/basket.jpg,GW/snail.jpg,,,,,,,,,,,,
643.0999999642372,,rt_thecrossant_black,457034,black_plus_sign,,,,49,,,1,0.9841269841269841,,,,,,,,,,
null,,color_black,457141,black_plus_sign,,,,null,,,,,,,,,,,,,,
null,,learn_phase(without_color),459159,black_plus_sign,,,,null,GW/soldier.jpg,GW/gong.jpg,,,,,,,,,,,,
null,,black_cross(without_color),459930,green,,,,null,GW/soldier.jpg,GW/gong.jpg,,,,,,,,,,,,
null,,rt_plussign_withcolor,460440,green,,,,null,GW/soldier.jpg,GW/gong.jpg,,,,,,,,,,,,
777,,rt_thecrossant_black,461679,black_plus_sign,,,,50,,,1,0.984375,,,,,,,,,,
null,,color_black,461786,black_plus_sign,,,,null,,,,,,,,,,,,,,
null,,learn_phase(without_color),463794,black_plus_sign,,,,null,GW/camera.jpg,GW/gong.jpg,,,,,,,,,,,,
null,,black_cross(without_color),464581,green,,,,null,GW/camera.jpg,GW/gong.jpg,,,,,,,,,,,,
491.30000001192093,,rt_plussign_withcolor,465087,green,,,,49,GW/camera.jpg,GW/gong.jpg,,,,,,,,,,,,
null,,rt_thecrossant_black,466321,black_plus_sign,,,,null,,,0,0.9692307692307692,,,,,,,,,,
null,,color_black,466430,black_plus_sign,,,,null,,,,,,,,,,,,,,
null,,learn_phase(without_color),468437,black_plus_sign,,,,null,GW/barrel.jpg,GW/wheelchair.jpg,,,,,,,,,,,,
null,,black_cross(without_color),469116,green,,,,null,GW/barrel.jpg,GW/wheelchair.jpg,,,,,,,,,,,,
null,,rt_plussign_withcolor,469628,green,,,,null,GW/barrel.jpg,GW/wheelchair.jpg,,,,,,,,,,,,
1268.8999999761581,,rt_thecrossant_black,470963,black_plus_sign,,,,50,,,1,0.9696969696969697,,,,,,,,,,
null,,color_black,471071,black_plus_sign,,,,null,,,,,,,,,,,,,,
null,,learn_phase(without_color),473080,black_plus_sign,,,,null,GW/hat.jpg,GW/soldier.jpg,,,,,,,,,,,,
null,,black_cross(without_color),473978,green,,,,null,GW/hat.jpg,GW/soldier.jpg,,,,,,,,,,,,
null,,rt_plussign_withcolor,474488,green,,,,null,GW/hat.jpg,GW/soldier.jpg,,,,,,,,,,,,
768.0999999642372,,rt_thecrossant_black,475612,black_plus_sign,,,,50,,,1,0.9701492537313433,,,,,,,,,,
null,,color_black,475722,black_plus_sign,,,,null,,,,,,,,,,,,,,
null,,learn_phase(without_color),477727,black_plus_sign,,,,null,GW/teeth.jpg,GW/paint.jpg,,,,,,,,,,,,
null,,black_cross(without_color),478207,green,,,,null,GW/teeth.jpg,GW/paint.jpg,,,,,,,,,,,,
null,,rt_plussign_withcolor,478717,green,,,,null,GW/teeth.jpg,GW/paint.jpg,,,,,,,,,,,,
1087.4000000357628,,rt_thecrossant_black,480259,black_plus_sign,,,,50,,,1,0.9705882352941176,,,,,,,,,,
null,,color_black,480368,black_plus_sign,,,,null,,,,,,,,,,,,,,
null,,learn_phase(without_color),482370,black_plus_sign,,,,null,GW/soldier.jpg,GW/gong.jpg,,,,,,,,,,,,
null,,black_cross(without_color),483186,green,,,,null,GW/soldier.jpg,GW/gong.jpg,,,,,,,,,,,,
480.5999999642372,,rt_plussign_withcolor,483695,green,,,,50,GW/soldier.jpg,GW/gong.jpg,,,,,,,,,,,,
null,,rt_thecrossant_black,484900,black_plus_sign,,,,null,,,1,0.9710144927536232,,,,,,,,,,
null,,color_black,485006,black_plus_sign,,,,null,,,,,,,,,,,,,,
null,,learn_phase(without_color),487023,black_plus_sign,,,,null,GW/soldier.jpg,GW/dustpan.jpg,,,,,,,,,,,,
null,,black_cross(without_color),488033,blue,,,,null,GW/soldier.jpg,GW/dustpan.jpg,,,,,,,,,,,,
488.80000001192093,,rt_plussign_withcolor,488534,blue,,,,49,GW/soldier.jpg,GW/dustpan.jpg,,,,,,,,,,,,
null,,rt_thecrossant_black,489543,black_plus_sign,,,,null,,,1,0.9714285714285714,,,,,,,,,,
null,,color_black,489647,black_plus_sign,,,,null,,,,,,,,,,,,,,
null,,learn_phase(without_color),491656,black_plus_sign,,,,null,GW/hat.jpg,GW/gong.jpg,,,,,,,,,,,,
null,,black_cross(without_color),492639,blue,,,,null,GW/hat.jpg,GW/gong.jpg,,,,,,,,,,,,
355.30000001192093,,rt_plussign_withcolor,493143,blue,,,,49,GW/hat.jpg,GW/gong.jpg,,,,,,,,,,,,
null,,rt_thecrossant_black,494193,black_plus_sign,,,,null,,,1,0.971830985915493,,,,,,,,,,
null,,color_black,494308,black_plus_sign,,,,null,,,,,,,,,,,,,,
null,,learn_phase(without_color),496320,black_plus_sign,,,,null,GW/paint.jpg,GW/barrel.jpg,,,,,,,,,,,,
null,,black_cross(without_color),497061,green,,,,null,GW/paint.jpg,GW/barrel.jpg,,,,,,,,,,,,
null,,rt_plussign_withcolor,497567,green,,,,null,GW/paint.jpg,GW/barrel.jpg,,,,,,,,,,,,
1074.3999999761581,,rt_thecrossant_black,498841,black_plus_sign,,,,50,,,1,0.9722222222222222,,,,,,,,,,
null,,color_black,498955,black_plus_sign,,,,null,,,,,,,,,,,,,,
null,,learn_phase(without_color),500958,black_plus_sign,,,,null,GW/barrel.jpg,GW/jukebox.jpg,,,,,,,,,,,,
null,,black_cross(without_color),501451,blue,,,,null,GW/barrel.jpg,GW/jukebox.jpg,,,,,,,,,,,,
null,,rt_plussign_withcolor,501979,blue,,,,null,GW/barrel.jpg,GW/jukebox.jpg,,,,,,,,,,,,
1020.1999999880791,,rt_thecrossant_black,503501,black_plus_sign,,,,49,,,1,0.9726027397260274,,,,,,,,,,
null,,color_black,503607,black_plus_sign,,,,null,,,,,,,,,,,,,,
null,,learn_phase(without_color),505611,black_plus_sign,,,,null,GW/snail.jpg,GW/wheelchair.jpg,,,,,,,,,,,,
null,,black_cross(without_color),506044,green,,,,null,GW/snail.jpg,GW/wheelchair.jpg,,,,,,,,,,,,
444.9000000357628,,rt_plussign_withcolor,506548,green,,,,50,GW/snail.jpg,GW/wheelchair.jpg,,,,,,,,,,,,
null,,rt_thecrossant_black,508137,black_plus_sign,,,,null,,,1,0.972972972972973,,,,,,,,,,
null,,color_black,508246,black_plus_sign,,,,null,,,,,,,,,,,,,,
null,,learn_phase(without_color),510256,black_plus_sign,,,,null,GW/hat.jpg,GW/soldier.jpg,,,,,,,,,,,,
null,,black_cross(without_color),511070,green,,,,null,GW/hat.jpg,GW/soldier.jpg,,,,,,,,,,,,
null,,rt_plussign_withcolor,511577,green,,,,null,GW/hat.jpg,GW/soldier.jpg,,,,,,,,,,,,
932.9000000357628,,rt_thecrossant_black,512781,black_plus_sign,,,,49,,,0,0.96,,,,,,,,,,
null,,color_black,512891,black_plus_sign,,,,null,,,,,,,,,,,,,,
null,,learn_phase(without_color),514909,black_plus_sign,,,,null,GW/camera.jpg,GW/gong.jpg,,,,,,,,,,,,
null,,black_cross(without_color),515450,green,,,,null,GW/camera.jpg,GW/gong.jpg,,,,,,,,,,,,
null,,rt_plussign_withcolor,515953,green,,,,null,GW/camera.jpg,GW/gong.jpg,,,,,,,,,,,,
1091.1000000238419,,rt_thecrossant_black,517434,black_plus_sign,,,,50,,,1,0.9605263157894737,,,,,,,,,,
null,,color_black,517544,black_plus_sign,,,,null,,,,,,,,,,,,,,
null,,learn_phase(without_color),519560,black_plus_sign,,,,null,GW/barrel.jpg,GW/jukebox.jpg,,,,,,,,,,,,
null,,black_cross(without_color),520504,blue,,,,null,GW/barrel.jpg,GW/jukebox.jpg,,,,,,,,,,,,
null,,rt_plussign_withcolor,521008,blue,,,,null,GW/barrel.jpg,GW/jukebox.jpg,,,,,,,,,,,,
806.5,,rt_thecrossant_black,522076,black_plus_sign,,,,49,,,1,0.961038961038961,,,,,,,,,,
null,,color_black,522183,black_plus_sign,,,,null,,,,,,,,,,,,,,
null,,learn_phase(without_color),524186,black_plus_sign,,,,null,GW/barrel.jpg,GW/wheelchair.jpg,,,,,,,,,,,,
null,,black_cross(without_color),524795,blue,,,,null,GW/barrel.jpg,GW/wheelchair.jpg,,,,,,,,,,,,
null,,rt_plussign_withcolor,525307,blue,,,,null,GW/barrel.jpg,GW/wheelchair.jpg,,,,,,,,,,,,
1138.5,,rt_thecrossant_black,526718,black_plus_sign,,,,49,,,1,0.9615384615384616,,,,,,,,,,
null,,color_black,526827,black_plus_sign,,,,null,,,,,,,,,,,,,,
null,,learn_phase(without_color),528839,black_plus_sign,,,,null,GW/camera.jpg,GW/hat.jpg,,,,,,,,,,,,
null,,black_cross(without_color),529829,green,,,,null,GW/camera.jpg,GW/hat.jpg,,,,,,,,,,,,
null,,rt_plussign_withcolor,530338,green,,,,null,GW/camera.jpg,GW/hat.jpg,,,,,,,,,,,,
726.5999999642372,,rt_thecrossant_black,531376,black_plus_sign,,,,50,,,1,0.9620253164556962,,,,,,,,,,
null,,color_black,531487,black_plus_sign,,,,null,,,,,,,,,,,,,,
null,,learn_phase(without_color),533498,black_plus_sign,,,,null,GW/hat.jpg,GW/globe.jpg,,,,,,,,,,,,
null,,black_cross(without_color),534326,green,,,,null,GW/hat.jpg,GW/globe.jpg,,,,,,,,,,,,
null,,rt_plussign_withcolor,534831,green,,,,null,GW/hat.jpg,GW/globe.jpg,,,,,,,,,,,,
1191.8999999761581,,rt_thecrossant_black,536023,black_plus_sign,,,,50,,,1,0.9625,,,,,,,,,,
null,,color_black,536130,black_plus_sign,,,,null,,,,,,,,,,,,,,
null,,learn_phase(without_color),538148,black_plus_sign,,,,null,GW/hat.jpg,GW/soldier.jpg,,,,,,,,,,,,
null,,black_cross(without_color),538874,blue,,,,null,GW/hat.jpg,GW/soldier.jpg,,,,,,,,,,,,
409.19999998807907,,rt_plussign_withcolor,539380,blue,,,,49,GW/hat.jpg,GW/soldier.jpg,,,,,,,,,,,,
null,,rt_thecrossant_black,540682,black_plus_sign,,,,null,,,1,0.9629629629629629,,,,,,,,,,
null,,color_black,540786,black_plus_sign,,,,null,,,,,,,,,,,,,,
null,,learn_phase(without_color),542798,black_plus_sign,,,,null,GW/camera.jpg,GW/gong.jpg,,,,,,,,,,,,
null,,black_cross(without_color),543284,blue,,,,null,GW/camera.jpg,GW/gong.jpg,,,,,,,,,,,,
null,,rt_plussign_withcolor,543800,blue,,,,null,GW/camera.jpg,GW/gong.jpg,,,,,,,,,,,,
1093.4000000357628,,rt_thecrossant_black,545342,black_plus_sign,,,,49,,,1,0.9634146341463414,,,,,,,,,,
null,,color_black,545445,black_plus_sign,,,,null,,,,,,,,,,,,,,
null,,learn_phase(without_color),547454,black_plus_sign,,,,null,GW/soldier.jpg,GW/dustpan.jpg,,,,,,,,,,,,
null,,black_cross(without_color),548077,green,,,,null,GW/soldier.jpg,GW/dustpan.jpg,,,,,,,,,,,,
null,,rt_plussign_withcolor,548584,green,,,,null,GW/soldier.jpg,GW/dustpan.jpg,,,,,,,,,,,,
653.5999999642372,,rt_thecrossant_black,549970,black_plus_sign,,,,50,,,1,0.963855421686747,,,,,,,,,,
null,,color_black,550077,black_plus_sign,,,,null,,,,,,,,,,,,,,
null,,learn_phase(without_color),552079,black_plus_sign,,,,null,GW/snail.jpg,GW/wheelchair.jpg,,,,,,,,,,,,
null,,black_cross(without_color),552705,blue,,,,null,GW/snail.jpg,GW/wheelchair.jpg,,,,,,,,,,,,
null,,rt_plussign_withcolor,553208,blue,,,,null,GW/snail.jpg,GW/wheelchair.jpg,,,,,,,,,,,,
848.9000000357628,,rt_thecrossant_black,554595,black_plus_sign,,,,49,,,1,0.9642857142857143,,,,,,,,,,
null,,color_black,554701,black_plus_sign,,,,null,,,,,,,,,,,,,,
null,,learn_phase(without_color),556701,black_plus_sign,,,,null,GW/hat.jpg,GW/gong.jpg,,,,,,,,,,,,
null,,black_cross(without_color),557743,green,,,,null,GW/hat.jpg,GW/gong.jpg,,,,,,,,,,,,
347.10000002384186,,rt_plussign_withcolor,558248,green,,,,50,GW/hat.jpg,GW/gong.jpg,,,,,,,,,,,,
null,,rt_thecrossant_black,559229,black_plus_sign,,,,null,,,1,0.9647058823529412,,,,,,,,,,
null,,color_black,559337,black_plus_sign,,,,null,,,,,,,,,,,,,,
null,,learn_phase(without_color),561350,black_plus_sign,,,,null,GW/snail.jpg,GW/wheelchair.jpg,,,,,,,,,,,,
null,,black_cross(without_color),561952,green,,,,null,GW/snail.jpg,GW/wheelchair.jpg,,,,,,,,,,,,
352.5,,rt_plussign_withcolor,562464,green,,,,50,GW/snail.jpg,GW/wheelchair.jpg,,,,,,,,,,,,
null,,rt_thecrossant_black,563880,black_plus_sign,,,,null,,,1,0.9651162790697675,,,,,,,,,,
null,,color_black,563996,black_plus_sign,,,,null,,,,,,,,,,,,,,
null,,learn_phase(without_color),566004,black_plus_sign,,,,null,GW/camera.jpg,GW/gong.jpg,,,,,,,,,,,,
null,,black_cross(without_color),566950,blue,,,,null,GW/camera.jpg,GW/gong.jpg,,,,,,,,,,,,
386.80000001192093,,rt_plussign_withcolor,567452,blue,,,,49,GW/camera.jpg,GW/gong.jpg,,,,,,,,,,,,
null,,rt_thecrossant_black,568527,black_plus_sign,,,,null,,,1,0.9655172413793104,,,,,,,,,,
null,,color_black,568634,black_plus_sign,,,,null,,,,,,,,,,,,,,
null,,learn_phase(without_color),570643,black_plus_sign,,,,null,GW/soldier.jpg,GW/gong.jpg,,,,,,,,,,,,
null,,black_cross(without_color),571394,blue,,,,null,GW/soldier.jpg,GW/gong.jpg,,,,,,,,,,,,
null,,rt_plussign_withcolor,571911,blue,,,,null,GW/soldier.jpg,GW/gong.jpg,,,,,,,,,,,,
1035.6000000238419,,rt_thecrossant_black,573191,black_plus_sign,,,,49,,,1,0.9659090909090909,,,,,,,,,,
null,,color_black,573297,black_plus_sign,,,,null,,,,,,,,,,,,,,
null,,learn_phase(without_color),575310,black_plus_sign,,,,null,GW/snail.jpg,GW/wheelchair.jpg,,,,,,,,,,,,
null,,black_cross(without_color),575999,green,,,,null,GW/snail.jpg,GW/wheelchair.jpg,,,,,,,,,,,,
369.69999998807907,,rt_plussign_withcolor,576506,green,,,,50,GW/snail.jpg,GW/wheelchair.jpg,,,,,,,,,,,,
null,,rt_thecrossant_black,577827,black_plus_sign,,,,null,,,1,0.9662921348314607,,,,,,,,,,
null,,color_black,577931,black_plus_sign,,,,null,,,,,,,,,,,,,,
null,,learn_phase(without_color),579936,black_plus_sign,,,,null,GW/teeth.jpg,GW/paint.jpg,,,,,,,,,,,,
null,,black_cross(without_color),580433,green,,,,null,GW/teeth.jpg,GW/paint.jpg,,,,,,,,,,,,
null,,rt_plussign_withcolor,580948,green,,,,null,GW/teeth.jpg,GW/paint.jpg,,,,,,,,,,,,
1604.8999999761581,,rt_thecrossant_black,582465,black_plus_sign,,,,50,,,1,0.9666666666666667,,,,,,,,,,
null,,color_black,582568,black_plus_sign,,,,null,,,,,,,,,,,,,,
null,,learn_phase(without_color),584576,black_plus_sign,,,,null,GW/basket.jpg,GW/camera.jpg,,,,,,,,,,,,
null,,black_cross(without_color),585115,green,,,,null,GW/basket.jpg,GW/camera.jpg,,,,,,,,,,,,
398.60000002384186,,rt_plussign_withcolor,585631,green,,,,50,GW/basket.jpg,GW/camera.jpg,,,,,,,,,,,,
null,,rt_thecrossant_black,587098,black_plus_sign,,,,null,,,1,0.967032967032967,,,,,,,,,,
null,,color_black,587208,black_plus_sign,,,,null,,,,,,,,,,,,,,
null,,learn_phase(without_color),589225,black_plus_sign,,,,null,GW/barrel.jpg,GW/wheelchair.jpg,,,,,,,,,,,,
null,,black_cross(without_color),589921,blue,,,,null,GW/barrel.jpg,GW/wheelchair.jpg,,,,,,,,,,,,
473.4000000357628,,rt_plussign_withcolor,590424,blue,,,,49,GW/barrel.jpg,GW/wheelchair.jpg,,,,,,,,,,,,
null,,rt_thecrossant_black,591751,black_plus_sign,,,,null,,,1,0.967391304347826,,,,,,,,,,
null,,color_black,591861,black_plus_sign,,,,null,,,,,,,,,,,,,,
null,,learn_phase(without_color),593868,black_plus_sign,,,,null,GW/basket.jpg,GW/camera.jpg,,,,,,,,,,,,
null,,black_cross(without_color),594582,green,,,,null,GW/basket.jpg,GW/camera.jpg,,,,,,,,,,,,
397.19999998807907,,rt_plussign_withcolor,595099,green,,,,50,GW/basket.jpg,GW/camera.jpg,,,,,,,,,,,,
null,,rt_thecrossant_black,596398,black_plus_sign,,,,null,,,1,0.967741935483871,,,,,,,,,,
null,,color_black,596506,black_plus_sign,,,,null,,,,,,,,,,,,,,
null,,learn_phase(without_color),598522,black_plus_sign,,,,null,GW/camera.jpg,GW/hat.jpg,,,,,,,,,,,,
null,,black_cross(without_color),599518,blue,,,,null,GW/camera.jpg,GW/hat.jpg,,,,,,,,,,,,
null,,rt_plussign_withcolor,600031,blue,,,,null,GW/camera.jpg,GW/hat.jpg,,,,,,,,,,,,
818.0999999642372,,rt_thecrossant_black,601047,black_plus_sign,,,,49,,,1,0.9680851063829787,,,,,,,,,,
null,,color_black,601155,black_plus_sign,,,,null,,,,,,,,,,,,,,
null,,learn_phase(without_color),603164,black_plus_sign,,,,null,GW/paint.jpg,GW/barrel.jpg,,,,,,,,,,,,
null,,black_cross(without_color),603598,green,,,,null,GW/paint.jpg,GW/barrel.jpg,,,,,,,,,,,,
null,,rt_plussign_withcolor,604106,green,,,,null,GW/paint.jpg,GW/barrel.jpg,,,,,,,,,,,,
1230,,rt_thecrossant_black,605705,black_plus_sign,,,,50,,,1,0.968421052631579,,,,,,,,,,
null,,color_black,605813,black_plus_sign,,,,null,,,,,,,,,,,,,,
null,,learn_phase(without_color),607831,black_plus_sign,,,,null,GW/gong.jpg,GW/snail.jpg,,,,,,,,,,,,
null,,black_cross(without_color),608271,green,,,,null,GW/gong.jpg,GW/snail.jpg,,,,,,,,,,,,
null,,rt_plussign_withcolor,608776,green,,,,null,GW/gong.jpg,GW/snail.jpg,,,,,,,,,,,,
544.5,,rt_thecrossant_black,610356,black_plus_sign,,,,50,,,1,0.96875,,,,,,,,,,
null,,color_black,610464,black_plus_sign,,,,null,,,,,,,,,,,,,,
null,,learn_phase(without_color),612475,black_plus_sign,,,,null,GW/camera.jpg,GW/gong.jpg,,,,,,,,,,,,
null,,black_cross(without_color),612891,green,,,,null,GW/camera.jpg,GW/gong.jpg,,,,,,,,,,,,
333.69999998807907,,rt_plussign_withcolor,613392,green,,,,50,GW/camera.jpg,GW/gong.jpg,,,,,,,,,,,,
null,,rt_thecrossant_black,614996,black_plus_sign,,,,null,,,1,0.9690721649484536,,,,,,,,,,
null,,color_black,615104,black_plus_sign,,,,null,,,,,,,,,,,,,,
null,,learn_phase(without_color),617116,black_plus_sign,,,,null,GW/paint.jpg,GW/barrel.jpg,,,,,,,,,,,,
null,,black_cross(without_color),617942,blue,,,,null,GW/paint.jpg,GW/barrel.jpg,,,,,,,,,,,,
379.0999999642372,,rt_plussign_withcolor,618456,blue,,,,49,GW/paint.jpg,GW/barrel.jpg,,,,,,,,,,,,
null,,rt_thecrossant_black,619641,black_plus_sign,,,,null,,,1,0.9693877551020408,,,,,,,,,,
null,,color_black,619749,black_plus_sign,,,,null,,,,,,,,,,,,,,
null,,learn_phase(without_color),621760,black_plus_sign,,,,null,GW/paint.jpg,GW/basket.jpg,,,,,,,,,,,,
null,,black_cross(without_color),622620,blue,,,,null,GW/paint.jpg,GW/basket.jpg,,,,,,,,,,,,
null,,rt_plussign_withcolor,623129,blue,,,,null,GW/paint.jpg,GW/basket.jpg,,,,,,,,,,,,
983.6000000238419,,rt_thecrossant_black,624289,black_plus_sign,,,,49,,,1,0.9696969696969697,,,,,,,,,,
null,,color_black,624392,black_plus_sign,,,,null,,,,,,,,,,,,,,
null,,learn_phase(without_color),626400,black_plus_sign,,,,null,GW/soldier.jpg,GW/dustpan.jpg,,,,,,,,,,,,
null,,black_cross(without_color),627004,blue,,,,null,GW/soldier.jpg,GW/dustpan.jpg,,,,,,,,,,,,
326.4000000357628,,rt_plussign_withcolor,627509,blue,,,,49,GW/soldier.jpg,GW/dustpan.jpg,,,,,,,,,,,,
null,,rt_thecrossant_black,628912,black_plus_sign,,,,null,,,1,0.97,,,,,,,,,,
null,,color_black,629021,black_plus_sign,,,,null,,,,,,,,,,,,,,
null,,learn_phase(without_color),631037,black_plus_sign,,,,null,GW/basket.jpg,GW/snail.jpg,,,,,,,,,,,,
null,,black_cross(without_color),631928,green,,,,null,GW/basket.jpg,GW/snail.jpg,,,,,,,,,,,,
null,,rt_plussign_withcolor,632438,green,,,,null,GW/basket.jpg,GW/snail.jpg,,,,,,,,,,,,
718.8000000119209,,rt_thecrossant_black,633566,black_plus_sign,,,,50,,,1,0.9702970297029703,,,,,,,,,,
null,,color_black,633673,black_plus_sign,,,,null,,,,,,,,,,,,,,
null,,learn_phase(without_color),635687,black_plus_sign,,,,null,GW/camera.jpg,GW/hat.jpg,,,,,,,,,,,,
null,,black_cross(without_color),636760,green,,,,null,GW/camera.jpg,GW/hat.jpg,,,,,,,,,,,,
420.0999999642372,,rt_plussign_withcolor,637270,green,,,,50,GW/camera.jpg,GW/hat.jpg,,,,,,,,,,,,
null,,rt_thecrossant_black,638205,black_plus_sign,,,,null,,,1,0.9705882352941176,,,,,,,,,,
null,,color_black,638315,black_plus_sign,,,,null,,,,,,,,,,,,,,
null,,learn_phase(without_color),640325,black_plus_sign,,,,null,GW/barrel.jpg,GW/wheelchair.jpg,,,,,,,,,,,,
null,,black_cross(without_color),640882,green,,,,null,GW/barrel.jpg,GW/wheelchair.jpg,,,,,,,,,,,,
471.5999999642372,,rt_plussign_withcolor,641384,green,,,,50,GW/barrel.jpg,GW/wheelchair.jpg,,,,,,,,,,,,
null,,rt_thecrossant_black,642846,black_plus_sign,,,,null,,,1,0.970873786407767,,,,,,,,,,
null,,color_black,642955,black_plus_sign,,,,null,,,,,,,,,,,,,,
null,,learn_phase(without_color),644961,black_plus_sign,,,,null,GW/basket.jpg,GW/snail.jpg,,,,,,,,,,,,
null,,black_cross(without_color),645636,blue,,,,null,GW/basket.jpg,GW/snail.jpg,,,,,,,,,,,,
478.19999998807907,,rt_plussign_withcolor,646139,blue,,,,49,GW/basket.jpg,GW/snail.jpg,,,,,,,,,,,,
null,,rt_thecrossant_black,647477,black_plus_sign,,,,null,,,1,0.9711538461538461,,,,,,,,,,
null,,color_black,647589,black_plus_sign,,,,null,,,,,,,,,,,,,,
null,,learn_phase(without_color),649607,black_plus_sign,,,,null,GW/teeth.jpg,GW/paint.jpg,,,,,,,,,,,,
null,,black_cross(without_color),650380,green,,,,null,GW/teeth.jpg,GW/paint.jpg,,,,,,,,,,,,
null,,rt_plussign_withcolor,650885,green,,,,null,GW/teeth.jpg,GW/paint.jpg,,,,,,,,,,,,
775.6999999880791,,rt_thecrossant_black,652144,black_plus_sign,,,,50,,,1,0.9714285714285714,,,,,,,,,,
null,,color_black,652253,black_plus_sign,,,,null,,,,,,,,,,,,,,
null,,learn_phase(without_color),654271,black_plus_sign,,,,null,GW/hat.jpg,GW/gong.jpg,,,,,,,,,,,,
null,,black_cross(without_color),654999,blue,,,,null,GW/hat.jpg,GW/gong.jpg,,,,,,,,,,,,
419.5999999642372,,rt_plussign_withcolor,655507,blue,,,,49,GW/hat.jpg,GW/gong.jpg,,,,,,,,,,,,
null,,rt_thecrossant_black,656785,black_plus_sign,,,,null,,,1,0.9716981132075472,,,,,,,,,,
null,,color_black,656890,black_plus_sign,,,,null,,,,,,,,,,,,,,
null,,learn_phase(without_color),658898,black_plus_sign,,,,null,GW/snail.jpg,GW/wheelchair.jpg,,,,,,,,,,,,
null,,black_cross(without_color),659975,green,,,,null,GW/snail.jpg,GW/wheelchair.jpg,,,,,,,,,,,,
419.69999998807907,,rt_plussign_withcolor,660485,green,,,,50,GW/snail.jpg,GW/wheelchair.jpg,,,,,,,,,,,,
null,,rt_thecrossant_black,661429,black_plus_sign,,,,null,,,1,0.9719626168224299,,,,,,,,,,
null,,color_black,661537,black_plus_sign,,,,null,,,,,,,,,,,,,,
null,,learn_phase(without_color),663551,black_plus_sign,,,,null,GW/hat.jpg,GW/soldier.jpg,,,,,,,,,,,,
null,,black_cross(without_color),664267,green,,,,null,GW/hat.jpg,GW/soldier.jpg,,,,,,,,,,,,
336.0999999642372,,rt_plussign_withcolor,664770,green,,,,50,GW/hat.jpg,GW/soldier.jpg,,,,,,,,,,,,
null,,rt_thecrossant_black,666075,black_plus_sign,,,,null,,,1,0.9722222222222222,,,,,,,,,,
null,,color_black,666181,black_plus_sign,,,,null,,,,,,,,,,,,,,
null,,learn_phase(without_color),668197,black_plus_sign,,,,null,GW/gong.jpg,GW/snail.jpg,,,,,,,,,,,,
null,,black_cross(without_color),668706,green,,,,null,GW/gong.jpg,GW/snail.jpg,,,,,,,,,,,,
334.5,,rt_plussign_withcolor,669217,green,,,,50,GW/gong.jpg,GW/snail.jpg,,,,,,,,,,,,
null,,rt_thecrossant_black,670741,black_plus_sign,,,,null,,,1,0.9724770642201835,,,,,,,,,,
null,,color_black,670844,black_plus_sign,,,,null,,,,,,,,,,,,,,
null,,learn_phase(without_color),672850,black_plus_sign,,,,null,GW/snail.jpg,GW/wheelchair.jpg,,,,,,,,,,,,
null,,black_cross(without_color),673273,green,,,,null,GW/snail.jpg,GW/wheelchair.jpg,,,,,,,,,,,,
319.0999999642372,,rt_plussign_withcolor,673776,green,,,,50,GW/snail.jpg,GW/wheelchair.jpg,,,,,,,,,,,,
null,,rt_thecrossant_black,675372,black_plus_sign,,,,null,,,1,0.9727272727272728,,,,,,,,,,
null,,color_black,675480,black_plus_sign,,,,null,,,,,,,,,,,,,,
null,,learn_phase(without_color),677492,black_plus_sign,,,,null,GW/camera.jpg,GW/hat.jpg,,,,,,,,,,,,
null,,black_cross(without_color),678301,blue,,,,null,GW/camera.jpg,GW/hat.jpg,,,,,,,,,,,,
307.30000001192093,,rt_plussign_withcolor,678811,blue,,,,50,GW/camera.jpg,GW/hat.jpg,,,,,,,,,,,,
null,,rt_thecrossant_black,680023,black_plus_sign,,,,null,,,0,0.963963963963964,,,,,,,,,,
null,,color_black,680131,black_plus_sign,,,,null,,,,,,,,,,,,,,
null,,learn_phase(without_color),682139,black_plus_sign,,,,null,GW/hat.jpg,GW/globe.jpg,,,,,,,,,,,,
null,,black_cross(without_color),683180,blue,,,,null,GW/hat.jpg,GW/globe.jpg,,,,,,,,,,,,
397.60000002384186,,rt_plussign_withcolor,683688,blue,,,,49,GW/hat.jpg,GW/globe.jpg,,,,,,,,,,,,
null,,rt_thecrossant_black,684666,black_plus_sign,,,,null,,,1,0.9642857142857143,,,,,,,,,,
null,,color_black,684773,black_plus_sign,,,,null,,,,,,,,,,,,,,
null,,learn_phase(without_color),686779,black_plus_sign,,,,null,GW/soldier.jpg,GW/dustpan.jpg,,,,,,,,,,,,
null,,black_cross(without_color),687355,green,,,,null,GW/soldier.jpg,GW/dustpan.jpg,,,,,,,,,,,,
439.7999999523163,,rt_plussign_withcolor,687870,green,,,,50,GW/soldier.jpg,GW/dustpan.jpg,,,,,,,,,,,,
null,,rt_thecrossant_black,689307,black_plus_sign,,,,null,,,1,0.9646017699115044,,,,,,,,,,
null,,color_black,689415,black_plus_sign,,,,null,,,,,,,,,,,,,,
null,,learn_phase(without_color),691426,black_plus_sign,,,,null,GW/gong.jpg,GW/snail.jpg,,,,,,,,,,,,
null,,black_cross(without_color),691949,blue,,,,null,GW/gong.jpg,GW/snail.jpg,,,,,,,,,,,,
null,,rt_plussign_withcolor,692459,blue,,,,null,GW/gong.jpg,GW/snail.jpg,,,,,,,,,,,,
740.6999999880791,,rt_thecrossant_black,693954,black_plus_sign,,,,49,,,1,0.9649122807017544,,,,,,,,,,
null,,color_black,694062,black_plus_sign,,,,null,,,,,,,,,,,,,,
null,,learn_phase(without_color),696078,black_plus_sign,,,,null,GW/camera.jpg,GW/hat.jpg,,,,,,,,,,,,
null,,black_cross(without_color),696754,blue,,,,null,GW/camera.jpg,GW/hat.jpg,,,,,,,,,,,,
512.3999999761581,,rt_plussign_withcolor,697269,blue,,,,49,GW/camera.jpg,GW/hat.jpg,,,,,,,,,,,,
null,,rt_thecrossant_black,698620,black_plus_sign,,,,null,,,1,0.9652173913043478,,,,,,,,,,
null,,color_black,698728,black_plus_sign,,,,null,,,,,,,,,,,,,,
null,,learn_phase(without_color),700734,black_plus_sign,,,,null,GW/soldier.jpg,GW/dustpan.jpg,,,,,,,,,,,,
null,,black_cross(without_color),701814,blue,,,,null,GW/soldier.jpg,GW/dustpan.jpg,,,,,,,,,,,,
null,,rt_plussign_withcolor,702324,blue,,,,null,GW/soldier.jpg,GW/dustpan.jpg,,,,,,,,,,,,
844,,rt_thecrossant_black,703256,black_plus_sign,,,,49,,,1,0.9655172413793104,,,,,,,,,,
null,,color_black,703369,black_plus_sign,,,,null,,,,,,,,,,,,,,
null,,learn_phase(without_color),705371,black_plus_sign,,,,null,GW/barrel.jpg,GW/wheelchair.jpg,,,,,,,,,,,,
null,,black_cross(without_color),705806,blue,,,,null,GW/barrel.jpg,GW/wheelchair.jpg,,,,,,,,,,,,
null,,rt_plussign_withcolor,706317,blue,,,,null,GW/barrel.jpg,GW/wheelchair.jpg,,,,,,,,,,,,
1207,,rt_thecrossant_black,707900,black_plus_sign,,,,49,,,1,0.9658119658119658,,,,,,,,,,
null,,color_black,708007,black_plus_sign,,,,null,,,,,,,,,,,,,,
null,,learn_phase(without_color),710008,black_plus_sign,,,,null,GW/hat.jpg,GW/soldier.jpg,,,,,,,,,,,,
null,,black_cross(without_color),711004,blue,,,,null,GW/hat.jpg,GW/soldier.jpg,,,,,,,,,,,,
null,,rt_plussign_withcolor,711509,blue,,,,null,GW/hat.jpg,GW/soldier.jpg,,,,,,,,,,,,
526.3000000119209,,rt_thecrossant_black,712527,black_plus_sign,,,,49,,,1,0.9661016949152542,,,,,,,,,,
null,,color_black,712628,black_plus_sign,,,,null,,,,,,,,,,,,,,
null,,learn_phase(without_color),714630,black_plus_sign,,,,null,GW/hat.jpg,GW/gong.jpg,,,,,,,,,,,,
null,,black_cross(without_color),715258,blue,,,,null,GW/hat.jpg,GW/gong.jpg,,,,,,,,,,,,
390.30000001192093,,rt_plussign_withcolor,715761,blue,,,,49,GW/hat.jpg,GW/gong.jpg,,,,,,,,,,,,
null,,rt_thecrossant_black,717162,black_plus_sign,,,,null,,,1,0.9663865546218487,,,,,,,,,,
null,,color_black,717271,black_plus_sign,,,,null,,,,,,,,,,,,,,
null,,learn_phase(without_color),719286,black_plus_sign,,,,null,GW/soldier.jpg,GW/gong.jpg,,,,,,,,,,,,
null,,black_cross(without_color),719974,blue,,,,null,GW/soldier.jpg,GW/gong.jpg,,,,,,,,,,,,
484.5,,rt_plussign_withcolor,720477,blue,,,,49,GW/soldier.jpg,GW/gong.jpg,,,,,,,,,,,,
null,,rt_thecrossant_black,721792,black_plus_sign,,,,null,,,1,0.9666666666666667,,,,,,,,,,
null,,color_black,721898,black_plus_sign,,,,null,,,,,,,,,,,,,,
null,,learn_phase(without_color),723905,black_plus_sign,,,,null,GW/barrel.jpg,GW/jukebox.jpg,,,,,,,,,,,,
null,,black_cross(without_color),724422,green,,,,null,GW/barrel.jpg,GW/jukebox.jpg,,,,,,,,,,,,
null,,rt_plussign_withcolor,724923,green,,,,null,GW/barrel.jpg,GW/jukebox.jpg,,,,,,,,,,,,
880.6999999880791,,rt_thecrossant_black,726417,black_plus_sign,,,,50,,,1,0.9669421487603306,,,,,,,,,,
null,,color_black,726527,black_plus_sign,,,,null,,,,,,,,,,,,,,
null,,learn_phase(without_color),728529,black_plus_sign,,,,null,GW/teeth.jpg,GW/paint.jpg,,,,,,,,,,,,
null,,black_cross(without_color),729494,blue,,,,null,GW/teeth.jpg,GW/paint.jpg,,,,,,,,,,,,
419.30000001192093,,rt_plussign_withcolor,729994,blue,,,,49,GW/teeth.jpg,GW/paint.jpg,,,,,,,,,,,,
null,,rt_thecrossant_black,731058,black_plus_sign,,,,null,,,1,0.9672131147540983,,,,,,,,,,
null,,color_black,731160,black_plus_sign,,,,null,,,,,,,,,,,,,,
null,,learn_phase(without_color),733161,black_plus_sign,,,,null,GW/paint.jpg,GW/basket.jpg,,,,,,,,,,,,
null,,black_cross(without_color),734053,blue,,,,null,GW/paint.jpg,GW/basket.jpg,,,,,,,,,,,,
null,,rt_plussign_withcolor,734561,blue,,,,null,GW/paint.jpg,GW/basket.jpg,,,,,,,,,,,,
1148.0999999642372,,rt_thecrossant_black,735697,black_plus_sign,,,,49,,,1,0.967479674796748,,,,,,,,,,
null,,color_black,735799,black_plus_sign,,,,null,,,,,,,,,,,,,,
null,,learn_phase(without_color),737801,black_plus_sign,,,,null,GW/snail.jpg,GW/wheelchair.jpg,,,,,,,,,,,,
null,,black_cross(without_color),738797,green,,,,null,GW/snail.jpg,GW/wheelchair.jpg,,,,,,,,,,,,
null,,rt_plussign_withcolor,739307,green,,,,null,GW/snail.jpg,GW/wheelchair.jpg,,,,,,,,,,,,
1090.5,,rt_thecrossant_black,740328,black_plus_sign,,,,50,,,1,0.967741935483871,,,,,,,,,,
null,,color_black,740429,black_plus_sign,,,,null,,,,,,,,,,,,,,
null,,learn_phase(without_color),742439,black_plus_sign,,,,null,GW/soldier.jpg,GW/gong.jpg,,,,,,,,,,,,
null,,black_cross(without_color),743025,blue,,,,null,GW/soldier.jpg,GW/gong.jpg,,,,,,,,,,,,
null,,rt_plussign_withcolor,743530,blue,,,,null,GW/soldier.jpg,GW/gong.jpg,,,,,,,,,,,,
1302.199999988079,,rt_thecrossant_black,744957,black_plus_sign,,,,49,,,1,0.968,,,,,,,,,,
null,,color_black,745065,black_plus_sign,,,,null,,,,,,,,,,,,,,
null,,learn_phase(without_color),747071,black_plus_sign,,,,null,GW/soldier.jpg,GW/dustpan.jpg,,,,,,,,,,,,
null,,black_cross(without_color),748181,green,,,,null,GW/soldier.jpg,GW/dustpan.jpg,,,,,,,,,,,,
null,,rt_plussign_withcolor,748690,green,,,,null,GW/soldier.jpg,GW/dustpan.jpg,,,,,,,,,,,,
703.6999999880791,,rt_thecrossant_black,749601,black_plus_sign,,,,50,,,1,0.9682539682539683,,,,,,,,,,
null,,color_black,749709,black_plus_sign,,,,null,,,,,,,,,,,,,,
null,,learn_phase(without_color),751714,black_plus_sign,,,,null,GW/paint.jpg,GW/barrel.jpg,,,,,,,,,,,,
null,,black_cross(without_color),752547,green,,,,null,GW/paint.jpg,GW/barrel.jpg,,,,,,,,,,,,
422.80000001192093,,rt_plussign_withcolor,753057,green,,,,50,GW/paint.jpg,GW/barrel.jpg,,,,,,,,,,,,
null,,rt_thecrossant_black,754244,black_plus_sign,,,,null,,,1,0.968503937007874,,,,,,,,,,
null,,color_black,754350,black_plus_sign,,,,null,,,,,,,,,,,,,,
null,,learn_phase(without_color),756361,black_plus_sign,,,,null,GW/basket.jpg,GW/snail.jpg,,,,,,,,,,,,
null,,black_cross(without_color),757100,blue,,,,null,GW/basket.jpg,GW/snail.jpg,,,,,,,,,,,,
367.7000000476837,,rt_plussign_withcolor,757609,blue,,,,49,GW/basket.jpg,GW/snail.jpg,,,,,,,,,,,,
null,,rt_thecrossant_black,758897,black_plus_sign,,,,null,,,1,0.96875,,,,,,,,,,
null,,color_black,759005,black_plus_sign,,,,null,,,,,,,,,,,,,,
7310.900000035763,,intro_1,766320,instruct,,0,Start,,,,,,,,,,,,,,,
2899.099999964237,,directmemory_phase,769221,GW/barrel.jpg,,,,51,,,1,1,GW/soldier.jpg,GW/snail.jpg,GW/jukebox.jpg,GW/jukebox.jpg,GW/snail.jpg,GW/soldier.jpg,1,,,
null,,html-keyboard-response,770235,<p></p>,,,,null,,,,,,,,,,,,,,
1487.300000011921,,directmemory_phase,771724,GW/basket.jpg,,,,51,,,1,1,GW/soldier.jpg,GW/wheelchair.jpg,GW/paint.jpg,GW/paint.jpg,GW/wheelchair.jpg,GW/soldier.jpg,1,,,
null,,html-keyboard-response,772735,<p></p>,,,,null,,,,,,,,,,,,,,
2265.100000023842,,directmemory_phase,775002,GW/snail.jpg,,,,49,,,1,1,GW/wheelchair.jpg,GW/dustpan.jpg,GW/soldier.jpg,GW/wheelchair.jpg,GW/soldier.jpg,GW/dustpan.jpg,1,,,
null,,html-keyboard-response,776011,<p></p>,,,,null,,,,,,,,,,,,,,
1072.0999999642372,,directmemory_phase,777085,GW/paint.jpg,,,,50,,,1,1,GW/snail.jpg,GW/teeth.jpg,GW/gong.jpg,GW/teeth.jpg,GW/snail.jpg,GW/gong.jpg,1,,,
null,,html-keyboard-response,778095,<p></p>,,,,null,,,,,,,,,,,,,,
848.6999999880791,,directmemory_phase,778946,GW/dustpan.jpg,,,,51,,,1,1,GW/basket.jpg,GW/gong.jpg,GW/soldier.jpg,GW/soldier.jpg,GW/gong.jpg,GW/basket.jpg,1,,,
null,,html-keyboard-response,779957,<p></p>,,,,null,,,,,,,,,,,,,,
1708.300000011921,,directmemory_phase,781667,GW/barrel.jpg,,,,51,,,1,1,GW/soldier.jpg,GW/teeth.jpg,GW/paint.jpg,GW/paint.jpg,GW/teeth.jpg,GW/soldier.jpg,1,,,
null,,html-keyboard-response,782669,<p></p>,,,,null,,,,,,,,,,,,,,
2133.300000011921,,directmemory_phase,784805,GW/soldier.jpg,,,,51,,,1,1,GW/barrel.jpg,GW/globe.jpg,GW/gong.jpg,GW/gong.jpg,GW/globe.jpg,GW/barrel.jpg,1,,,
null,,html-keyboard-response,785820,<p></p>,,,,null,,,,,,,,,,,,,,
1551.7000000476837,,directmemory_phase,787373,GW/teeth.jpg,,,,49,,,1,1,GW/paint.jpg,GW/snail.jpg,GW/basket.jpg,GW/paint.jpg,GW/basket.jpg,GW/snail.jpg,1,,,
null,,html-keyboard-response,788384,<p></p>,,,,null,,,,,,,,,,,,,,
1169.5999999642372,,directmemory_phase,789556,GW/gong.jpg,,,,50,,,1,1,GW/globe.jpg,GW/camera.jpg,GW/teeth.jpg,GW/camera.jpg,GW/globe.jpg,GW/teeth.jpg,1,,,
null,,html-keyboard-response,790565,<p></p>,,,,null,,,,,,,,,,,,,,
2269.800000011921,,directmemory_phase,792836,GW/barrel.jpg,,,,49,,,0,0.9,GW/gong.jpg,GW/snail.jpg,GW/wheelchair.jpg,GW/wheelchair.jpg,GW/snail.jpg,GW/gong.jpg,0.5,closer,,
null,,html-keyboard-response,793850,<p></p>,,,,null,,,,,,,,,,,,,,
1493.5,,directmemory_phase,795345,GW/gong.jpg,,,,49,,,0,0.8181818181818182,GW/jukebox.jpg,GW/globe.jpg,GW/snail.jpg,GW/snail.jpg,GW/globe.jpg,GW/jukebox.jpg,0.5,closer,,
null,,html-keyboard-response,796354,<p></p>,,,,null,,,,,,,,,,,,,,
841.1000000238419,,directmemory_phase,797196,GW/soldier.jpg,,,,50,,,1,0.8333333333333334,GW/snail.jpg,GW/dustpan.jpg,GW/barrel.jpg,GW/dustpan.jpg,GW/snail.jpg,GW/barrel.jpg,1,,,
null,,html-keyboard-response,798212,<p></p>,,,,null,,,,,,,,,,,,,,
885.2000000476837,,directmemory_phase,799100,GW/jukebox.jpg,,,,50,,,1,0.8461538461538461,GW/wheelchair.jpg,GW/barrel.jpg,GW/gong.jpg,GW/barrel.jpg,GW/wheelchair.jpg,GW/gong.jpg,1,,,
null,,html-keyboard-response,800112,<p></p>,,,,null,,,,,,,,,,,,,,
2337.800000011921,,directmemory_phase,802452,GW/camera.jpg,,,,51,,,0,0.7857142857142857,GW/basket.jpg,GW/barrel.jpg,GW/soldier.jpg,GW/basket.jpg,GW/soldier.jpg,GW/barrel.jpg,0.5,closer,,
null,,html-keyboard-response,803456,<p></p>,,,,null,,,,,,,,,,,,,,
2008,,directmemory_phase,805467,GW/hat.jpg,,,,51,,,1,0.8,GW/paint.jpg,GW/dustpan.jpg,GW/globe.jpg,GW/globe.jpg,GW/dustpan.jpg,GW/paint.jpg,1,,,
null,,html-keyboard-response,806480,<p></p>,,,,null,,,,,,,,,,,,,,
2826.5,,directmemory_phase,809308,GW/basket.jpg,,,,50,,,0,0.75,GW/camera.jpg,GW/soldier.jpg,GW/barrel.jpg,GW/camera.jpg,GW/barrel.jpg,GW/soldier.jpg,0.5,closer,,
null,,html-keyboard-response,810315,<p></p>,,,,null,,,,,,,,,,,,,,
1717.699999988079,,directmemory_phase,812036,GW/wheelchair.jpg,,,,49,,,1,0.7647058823529411,GW/snail.jpg,GW/teeth.jpg,GW/jukebox.jpg,GW/snail.jpg,GW/jukebox.jpg,GW/teeth.jpg,1,,,
null,,html-keyboard-response,813055,<p></p>,,,,null,,,,,,,,,,,,,,
1562.5,,directmemory_phase,814621,GW/paint.jpg,,,,51,,,1,0.7777777777777778,GW/globe.jpg,GW/camera.jpg,GW/barrel.jpg,GW/barrel.jpg,GW/camera.jpg,GW/globe.jpg,1,,,
null,,html-keyboard-response,815637,<p></p>,,,,null,,,,,,,,,,,,,,
1628,,directmemory_phase,817267,GW/snail.jpg,,,,51,,,1,0.7894736842105263,GW/jukebox.jpg,GW/hat.jpg,GW/gong.jpg,GW/gong.jpg,GW/hat.jpg,GW/jukebox.jpg,1,,,
null,,html-keyboard-response,818282,<p></p>,,,,null,,,,,,,,,,,,,,
1791.3999999761581,,directmemory_phase,820076,GW/globe.jpg,,,,50,,,1,0.8,GW/camera.jpg,GW/hat.jpg,GW/paint.jpg,GW/hat.jpg,GW/camera.jpg,GW/paint.jpg,1,,,
null,,html-keyboard-response,821091,<p></p>,,,,null,,,,,,,,,,,,,,
1064.1000000238419,,directmemory_phase,822156,GW/snail.jpg,,,,51,,,1,0.8095238095238095,GW/jukebox.jpg,GW/soldier.jpg,GW/basket.jpg,GW/basket.jpg,GW/soldier.jpg,GW/jukebox.jpg,1,,,
null,,html-keyboard-response,823164,<p></p>,,,,null,,,,,,,,,,,,,,
1567.199999988079,,directmemory_phase,824734,GW/camera.jpg,,,,49,,,1,0.8181818181818182,GW/gong.jpg,GW/teeth.jpg,GW/paint.jpg,GW/gong.jpg,GW/paint.jpg,GW/teeth.jpg,1,,,
null,,html-keyboard-response,825742,<p></p>,,,,null,,,,,,,,,,,,,,
1179,,directmemory_phase,826924,GW/basket.jpg,,,,51,,,1,0.8260869565217391,GW/soldier.jpg,GW/gong.jpg,GW/snail.jpg,GW/snail.jpg,GW/gong.jpg,GW/soldier.jpg,1,,,
null,,html-keyboard-response,827933,<p></p>,,,,null,,,,,,,,,,,,,,
2036.1000000238419,,directmemory_phase,829972,GW/gong.jpg,,,,49,,,1,0.8333333333333334,GW/hat.jpg,GW/barrel.jpg,GW/dustpan.jpg,GW/hat.jpg,GW/dustpan.jpg,GW/barrel.jpg,1,,,
null,,html-keyboard-response,830980,<p></p>,,,,null,,,,,,,,,,,,,,
2165.899999976158,,directmemory_phase,833148,GW/wheelchair.jpg,,,,50,,,0,0.8,GW/barrel.jpg,GW/soldier.jpg,GW/gong.jpg,GW/barrel.jpg,GW/gong.jpg,GW/soldier.jpg,0.5,closer,,
null,,html-keyboard-response,834153,<p></p>,,,,null,,,,,,,,,,,,,,
2263.600000023842,,directmemory_phase,836418,GW/hat.jpg,,,,49,,,1,0.8076923076923077,GW/camera.jpg,GW/wheelchair.jpg,GW/dustpan.jpg,GW/camera.jpg,GW/dustpan.jpg,GW/wheelchair.jpg,1,,,
null,,html-keyboard-response,837423,<p></p>,,,,null,,,,,,,,,,,,,,
2580.5,,directmemory_phase,840006,GW/gong.jpg,,,,51,,,0,0.7777777777777778,GW/wheelchair.jpg,GW/soldier.jpg,GW/jukebox.jpg,GW/soldier.jpg,GW/wheelchair.jpg,GW/jukebox.jpg,0.5,closer,,
null,,html-keyboard-response,841015,<p></p>,,,,null,,,,,,,,,,,,,,
2923.5,,directmemory_phase,843940,GW/paint.jpg,,,,51,,,1,0.7857142857142857,GW/hat.jpg,GW/jukebox.jpg,GW/basket.jpg,GW/basket.jpg,GW/jukebox.jpg,GW/hat.jpg,1,,,
null,,html-keyboard-response,844955,<p></p>,,,,null,,,,,,,,,,,,,,
2702.300000011921,,directmemory_phase,847660,GW/hat.jpg,,,,49,,,1,0.7931034482758621,GW/gong.jpg,GW/paint.jpg,GW/dustpan.jpg,GW/gong.jpg,GW/dustpan.jpg,GW/paint.jpg,1,,,
null,,html-keyboard-response,848669,<p></p>,,,,null,,,,,,,,,,,,,,
2108.599999964237,,directmemory_phase,850780,,,,,50,,,1,0.8,,,,,,,0.5,closer,,
null,,html-keyboard-response,851786,<p></p>,,,,null,,,,,,,,,,,,,,
1207.800000011921,,directmemory_phase,852995,,,,,50,,,1,0.8064516129032258,,,,,,,0.5,closer,,
null,,html-keyboard-response,854008,<p></p>,,,,null,,,,,,,,,,,,,,
1904.9000000357628,,directmemory_phase,855915,,,,,49,,,1,0.8125,,,,,,,0.5,closer,,
null,,html-keyboard-response,856921,<p></p>,,,,null,,,,,,,,,,,,,,
6699.099999964237,,intro_1,863620,instruct,,0,,,,,,,,,,,,,,,,
15348.300000011921,,intro_2,878969,instruct,,1,Next,,,,,,,,,,,,,,,
1661.0999999642372,,intro_3,880631,instruct,,1,Next,,,,,,,,,,,,,,,
1111.199999988079,,intro_4,881743,instruct,,1,Next,,,,,,,,,,,,,,,
1342.199999988079,,intro_5,883086,instruct,,1,Next,,,,,,,,,,,,,,,
1379,,intro_6,884466,instruct,,1,Next,,,,,,,,,,,,,,,
943.2999999523163,,intro_7,885410,instruct,,1,Next,,,,,,,,,,,,,,,
6805.900000035763,,intro_8,892217,instruct,,1,Next,,,,,,,,,,,,,,,
2970.100000023842,,shortestpath_phase,895189,GW/globe.jpg,,,,50,GW/paint.jpg,GW/jukebox.jpg,0,0,,,,GW/paint.jpg,,,,,Two Edge Diff,Four Edge Six Edge
null,,html-keyboard-response,896194,<p></p>,,,,null,,,,,,,,,,,,,,
2920.399999976158,,shortestpath_phase,899117,GW/hat.jpg,,,,50,GW/jukebox.jpg,GW/snail.jpg,1,0.5,,,,GW/snail.jpg,,,,,Three Edge Diff,Two Edge Five Edge
null,,html-keyboard-response,900134,<p></p>,,,,null,,,,,,,,,,,,,,
2904.5,,shortestpath_phase,903042,GW/globe.jpg,,,,50,GW/barrel.jpg,GW/jukebox.jpg,0,0.3333333333333333,,,,GW/barrel.jpg,,,,,One Edge Diff,Five Edge Six Edge
null,,html-keyboard-response,904046,<p></p>,,,,null,,,,,,,,,,,,,,
1515.6000000238419,,shortestpath_phase,905565,GW/paint.jpg,,,,49,GW/globe.jpg,GW/wheelchair.jpg,0,0.25,,,,GW/wheelchair.jpg,,,,,Two Edge Diff,Two Edge Four Edge
null,,html-keyboard-response,906580,<p></p>,,,,null,,,,,,,,,,,,,,
1820.800000011921,,shortestpath_phase,908404,GW/teeth.jpg,,,,50,GW/soldier.jpg,GW/barrel.jpg,1,0.4,,,,GW/barrel.jpg,,,,,Three Edge Diff,Two Edge Five Edge
null,,html-keyboard-response,909418,<p></p>,,,,null,,,,,,,,,,,,,,
1198.300000011921,,shortestpath_phase,910619,GW/hat.jpg,,,,49,GW/basket.jpg,GW/wheelchair.jpg,1,0.5,,,,GW/basket.jpg,,,,,One Edge Diff,Two Edge Three Edge
null,,html-keyboard-response,911628,<p></p>,,,,null,,,,,,,,,,,,,,
1140.300000011921,,shortestpath_phase,912770,GW/teeth.jpg,,,,50,GW/dustpan.jpg,GW/globe.jpg,1,0.5714285714285714,,,,GW/globe.jpg,,,,,One Edge Diff,Five Edge Six Edge
null,,html-keyboard-response,913776,<p></p>,,,,null,,,,,,,,,,,,,,
1330.699999988079,,shortestpath_phase,915108,GW/soldier.jpg,,,,50,GW/snail.jpg,GW/paint.jpg,0,0.5,,,,GW/snail.jpg,,,,,Two Edge Diff,Two Edge Four Edge
null,,html-keyboard-response,916123,<p></p>,,,,null,,,,,,,,,,,,,,
1164.199999988079,,shortestpath_phase,917289,GW/hat.jpg,,,,50,GW/wheelchair.jpg,GW/teeth.jpg,0,0.4444444444444444,,,,GW/wheelchair.jpg,,,,,One Edge Diff,Three Edge Four Edge
null,,html-keyboard-response,918294,<p></p>,,,,null,,,,,,,,,,,,,,
2236.100000023842,,shortestpath_phase,920532,GW/jukebox.jpg,,,,49,GW/dustpan.jpg,GW/camera.jpg,0,0.4,,,,GW/camera.jpg,,,,,Two Edge Diff,Four Edge Six Edge
null,,html-keyboard-response,921540,<p></p>,,,,null,,,,,,,,,,,,,,
1195.3999999761581,,shortestpath_phase,922737,GW/dustpan.jpg,,,,50,GW/jukebox.jpg,GW/gong.jpg,1,0.45454545454545453,,,,GW/gong.jpg,,,,,Four Edge Diff,Two Edge Six Edge
null,,html-keyboard-response,923740,<p></p>,,,,null,,,,,,,,,,,,,,
2244.800000011921,,shortestpath_phase,925988,GW/jukebox.jpg,,,,49,GW/hat.jpg,GW/teeth.jpg,0,0.4166666666666667,,,,GW/teeth.jpg,,,,,Two Edge Diff,Three Edge Five Edge
null,,html-keyboard-response,927004,<p></p>,,,,null,,,,,,,,,,,,,,
1582,,shortestpath_phase,928588,GW/camera.jpg,,,,50,GW/wheelchair.jpg,GW/jukebox.jpg,0,0.38461538461538464,,,,GW/wheelchair.jpg,,,,,One Edge Diff,Three Edge Four Edge
null,,html-keyboard-response,929599,<p></p>,,,,null,,,,,,,,,,,,,,
962.5,,shortestpath_phase,930564,GW/jukebox.jpg,,,,50,GW/paint.jpg,GW/hat.jpg,0,0.35714285714285715,,,,GW/paint.jpg,,,,,Three Edge Diff,Two Edge Five Edge
null,,html-keyboard-response,931576,<p></p>,,,,null,,,,,,,,,,,,,,
1855.5,,shortestpath_phase,933433,GW/teeth.jpg,,,,50,GW/globe.jpg,GW/basket.jpg,1,0.4,,,,GW/basket.jpg,,,,,Three Edge Diff,Three Edge Six Edge
null,,html-keyboard-response,934439,<p></p>,,,,null,,,,,,,,,,,,,,
1162.6000000238419,,shortestpath_phase,935604,GW/dustpan.jpg,,,,49,GW/paint.jpg,GW/wheelchair.jpg,0,0.375,,,,GW/wheelchair.jpg,,,,,One Edge Diff,Four Edge Five Edge
null,,html-keyboard-response,936611,<p></p>,,,,null,,,,,,,,,,,,,,
1924.2000000476837,,shortestpath_phase,938538,GW/soldier.jpg,,,,50,GW/jukebox.jpg,GW/barrel.jpg,1,0.4117647058823529,,,,GW/barrel.jpg,,,,,One Edge Diff,Four Edge Five Edge
null,,html-keyboard-response,939552,<p></p>,,,,null,,,,,,,,,,,,,,
1793.199999988079,,shortestpath_phase,941348,GW/dustpan.jpg,,,,49,GW/wheelchair.jpg,GW/jukebox.jpg,1,0.4444444444444444,,,,GW/wheelchair.jpg,,,,,Two Edge Diff,Four Edge Six Edge
null,,html-keyboard-response,942363,<p></p>,,,,null,,,,,,,,,,,,,,
1679,,shortestpath_phase,944044,GW/teeth.jpg,,,,50,GW/barrel.jpg,GW/soldier.jpg,0,0.42105263157894735,,,,GW/barrel.jpg,,,,,Three Edge Diff,Three Edge Six Edge
null,,html-keyboard-response,945052,<p></p>,,,,null,,,,,,,,,,,,,,
2109.2999999523163,,shortestpath_phase,947164,GW/dustpan.jpg,,,,50,GW/teeth.jpg,GW/basket.jpg,1,0.45,,,,GW/basket.jpg,,,,,Two Edge Diff,Four Edge Six Edge
null,,html-keyboard-response,948182,<p></p>,,,,null,,,,,,,,,,,,,,
2165.5,,shortestpath_phase,950349,GW/jukebox.jpg,,,,49,GW/wheelchair.jpg,GW/dustpan.jpg,1,0.47619047619047616,,,,GW/wheelchair.jpg,,,,,Four Edge Diff,Two Edge Six Edge
null,,html-keyboard-response,951367,<p></p>,,,,null,,,,,,,,,,,,,,
1488.3999999761581,,shortestpath_phase,952857,GW/globe.jpg,,,,49,GW/barrel.jpg,GW/camera.jpg,0,0.45454545454545453,,,,GW/camera.jpg,,,,,Three Edge Diff,Three Edge Six Edge
null,,html-keyboard-response,953874,<p></p>,,,,null,,,,,,,,,,,,,,
1919.0999999642372,,shortestpath_phase,955796,GW/gong.jpg,,,,50,GW/wheelchair.jpg,GW/paint.jpg,0,0.43478260869565216,,,,GW/wheelchair.jpg,,,,,One Edge Diff,Two Edge Three Edge
null,,html-keyboard-response,956800,<p></p>,,,,null,,,,,,,,,,,,,,
2786.800000011921,,shortestpath_phase,959588,GW/globe.jpg,,,,49,GW/jukebox.jpg,GW/teeth.jpg,0,0.4166666666666667,,,,GW/teeth.jpg,,,,,One Edge Diff,Five Edge Six Edge
null,,html-keyboard-response,960603,<p></p>,,,,null,,,,,,,,,,,,,,
1310.3999999761581,,shortestpath_phase,961917,GW/jukebox.jpg,,,,50,GW/dustpan.jpg,GW/gong.jpg,1,0.44,,,,GW/gong.jpg,,,,,Two Edge Diff,Four Edge Six Edge
null,,html-keyboard-response,962927,<p></p>,,,,null,,,,,,,,,,,,,,
1306.5999999642372,,shortestpath_phase,964236,GW/globe.jpg,,,,50,GW/wheelchair.jpg,GW/snail.jpg,1,0.46153846153846156,,,,GW/snail.jpg,,,,,One Edge Diff,Three Edge Four Edge
null,,html-keyboard-response,965254,<p></p>,,,,null,,,,,,,,,,,,,,
1483,,shortestpath_phase,966740,GW/teeth.jpg,,,,50,GW/gong.jpg,GW/globe.jpg,0,0.4444444444444444,,,,GW/gong.jpg,,,,,One Edge Diff,Four Edge Five Edge
null,,html-keyboard-response,967757,<p></p>,,,,null,,,,,,,,,,,,,,
1468.7999999523163,,shortestpath_phase,969228,GW/jukebox.jpg,,,,49,GW/paint.jpg,GW/globe.jpg,1,0.4642857142857143,,,,GW/paint.jpg,,,,,Four Edge Diff,Two Edge Six Edge
null,,html-keyboard-response,970247,<p></p>,,,,null,,,,,,,,,,,,,,
1682.5,,shortestpath_phase,971932,GW/globe.jpg,,,,50,GW/dustpan.jpg,GW/soldier.jpg,1,0.4827586206896552,,,,GW/soldier.jpg,,,,,One Edge Diff,Two Edge Three Edge
null,,html-keyboard-response,972936,<p></p>,,,,null,,,,,,,,,,,,,,
2170.5,,shortestpath_phase,975108,GW/hat.jpg,,,,50,GW/jukebox.jpg,GW/basket.jpg,1,0.5,,,,GW/basket.jpg,,,,,Three Edge Diff,Three Edge Six Edge
null,,html-keyboard-response,976129,<p></p>,,,,null,,,,,,,,,,,,,,
1959.199999988079,,shortestpath_phase,978091,GW/jukebox.jpg,,,,49,GW/hat.jpg,GW/snail.jpg,0,0.4838709677419355,,,,GW/snail.jpg,,,,,Two Edge Diff,Three Edge Five Edge
null,,html-keyboard-response,979095,<p></p>,,,,null,,,,,,,,,,,,,,
2532.899999976158,,shortestpath_phase,981629,GW/teeth.jpg,,,,49,GW/soldier.jpg,GW/wheelchair.jpg,0,0.46875,,,,GW/wheelchair.jpg,,,,,Two Edge Diff,Three Edge Five Edge
null,,html-keyboard-response,982642,<p></p>,,,,null,,,,,,,,,,,,,,
1029.6000000238419,,shortestpath_phase,983673,GW/camera.jpg,,,,49,GW/snail.jpg,GW/dustpan.jpg,1,0.48484848484848486,,,,GW/snail.jpg,,,,,One Edge Diff,Two Edge Three Edge
null,,html-keyboard-response,984675,<p></p>,,,,null,,,,,,,,,,,,,,
1327.3999999761581,,shortestpath_phase,986003,GW/teeth.jpg,,,,50,GW/dustpan.jpg,GW/gong.jpg,1,0.5,,,,GW/gong.jpg,,,,,Two Edge Diff,Four Edge Six Edge
null,,html-keyboard-response,987010,<p></p>,,,,null,,,,,,,,,,,,,,
968.5999999642372,,shortestpath_phase,987981,GW/globe.jpg,,,,49,GW/barrel.jpg,GW/dustpan.jpg,0,0.4857142857142857,,,,GW/dustpan.jpg,,,,,Two Edge Diff,Three Edge Five Edge
null,,html-keyboard-response,988990,<p></p>,,,,null,,,,,,,,,,,,,,
899.5,,shortestpath_phase,989892,GW/barrel.jpg,,,,49,GW/gong.jpg,GW/dustpan.jpg,1,0.5,,,,GW/gong.jpg,,,,,Two Edge Diff,Three Edge Five Edge
null,,html-keyboard-response,990895,<p></p>,,,,null,,,,,,,,,,,,,,
898.8000000119209,,shortestpath_phase,991796,GW/paint.jpg,,,,50,GW/wheelchair.jpg,GW/dustpan.jpg,0,0.4864864864864865,,,,GW/wheelchair.jpg,,,,,Three Edge Diff,Two Edge Five Edge
null,,html-keyboard-response,992804,<p></p>,,,,null,,,,,,,,,,,,,,
683.4000000357628,,shortestpath_phase,993489,GW/barrel.jpg,,,,49,GW/soldier.jpg,GW/dustpan.jpg,1,0.5,,,,GW/soldier.jpg,,,,,One Edge Diff,Four Edge Five Edge
null,,html-keyboard-response,994501,<p></p>,,,,null,,,,,,,,,,,,,,
1158.800000011921,,shortestpath_phase,995661,GW/wheelchair.jpg,,,,50,GW/soldier.jpg,GW/gong.jpg,1,0.5128205128205128,,,,GW/gong.jpg,,,,,One Edge Diff,Two Edge Three Edge
null,,html-keyboard-response,996666,<p></p>,,,,null,,,,,,,,,,,,,,
968.5999999642372,,shortestpath_phase,997637,GW/camera.jpg,,,,50,GW/jukebox.jpg,GW/soldier.jpg,1,0.525,,,,GW/soldier.jpg,,,,,Two Edge Diff,Two Edge Four Edge
null,,html-keyboard-response,998643,<p></p>,,,,null,,,,,,,,,,,,,,
806,,shortestpath_phase,999450,GW/globe.jpg,,,,50,GW/teeth.jpg,GW/wheelchair.jpg,1,0.5365853658536586,,,,GW/wheelchair.jpg,,,,,One Edge Diff,Four Edge Five Edge
null,,html-keyboard-response,1000456,<p></p>,,,,null,,,,,,,,,,,,,,
946,,shortestpath_phase,1001403,GW/dustpan.jpg,,,,50,GW/barrel.jpg,GW/hat.jpg,1,0.5476190476190477,,,,GW/hat.jpg,,,,,Three Edge Diff,Two Edge Five Edge
null,,html-keyboard-response,1002406,<p></p>,,,,null,,,,,,,,,,,,,,
1459,,shortestpath_phase,1003866,GW/teeth.jpg,,,,50,GW/globe.jpg,GW/barrel.jpg,1,0.5581395348837209,,,,GW/barrel.jpg,,,,,Three Edge Diff,Three Edge Six Edge
null,,html-keyboard-response,1004871,<p></p>,,,,null,,,,,,,,,,,,,,
1827.6000000238419,,shortestpath_phase,1006699,GW/paint.jpg,,,,49,GW/dustpan.jpg,GW/hat.jpg,0,0.5454545454545454,,,,GW/hat.jpg,,,,,Two Edge Diff,Three Edge Five Edge
null,,html-keyboard-response,1007702,<p></p>,,,,null,,,,,,,,,,,,,,
1386.6000000238419,,shortestpath_phase,1009090,GW/wheelchair.jpg,,,,50,GW/basket.jpg,GW/dustpan.jpg,0,0.5333333333333333,,,,GW/basket.jpg,,,,,Two Edge Diff,Two Edge Four Edge
null,,html-keyboard-response,1010092,<p></p>,,,,null,,,,,,,,,,,,,,
1421.199999988079,,shortestpath_phase,1011513,GW/globe.jpg,,,,49,GW/barrel.jpg,GW/snail.jpg,0,0.5217391304347826,,,,GW/snail.jpg,,,,,Two Edge Diff,Three Edge Five Edge
null,,html-keyboard-response,1012522,<p></p>,,,,null,,,,,,,,,,,,,,
1334.800000011921,,shortestpath_phase,1013857,GW/wheelchair.jpg,,,,50,GW/globe.jpg,GW/jukebox.jpg,1,0.5319148936170213,,,,GW/jukebox.jpg,,,,,Two Edge Diff,Two Edge Four Edge
null,,html-keyboard-response,1014860,<p></p>,,,,null,,,,,,,,,,,,,,
1525,,shortestpath_phase,1016385,GW/paint.jpg,,,,49,GW/dustpan.jpg,GW/snail.jpg,0,0.5208333333333334,,,,GW/snail.jpg,,,,,Three Edge Diff,Three Edge Six Edge
null,,html-keyboard-response,1017393,<p></p>,,,,null,,,,,,,,,,,,,,
912.3999999761581,,shortestpath_phase,1018306,GW/teeth.jpg,,,,49,GW/basket.jpg,GW/soldier.jpg,1,0.5306122448979592,,,,GW/basket.jpg,,,,,Three Edge Diff,Three Edge Six Edge
null,,html-keyboard-response,1019319,<p></p>,,,,null,,,,,,,,,,,,,,
1484.4000000357628,,shortestpath_phase,1020805,GW/jukebox.jpg,,,,49,GW/globe.jpg,GW/hat.jpg,0,0.52,,,,GW/hat.jpg,,,,,One Edge Diff,Five Edge Six Edge
null,,html-keyboard-response,1021811,<p></p>,,,,null,,,,,,,,,,,,,,
1790.4000000357628,,shortestpath_phase,1023604,GW/basket.jpg,,,,50,GW/soldier.jpg,GW/teeth.jpg,1,0.5294117647058824,,,,GW/teeth.jpg,,,,,One Edge Diff,Two Edge Three Edge
null,,html-keyboard-response,1024614,<p></p>,,,,null,,,,,,,,,,,,,,
1890.5,,shortestpath_phase,1026506,GW/barrel.jpg,,,,49,GW/gong.jpg,GW/globe.jpg,1,0.5384615384615384,,,,GW/gong.jpg,,,,,Two Edge Diff,Three Edge Five Edge
null,,html-keyboard-response,1027513,<p></p>,,,,null,,,,,,,,,,,,,,
1598.699999988079,,shortestpath_phase,1029113,GW/dustpan.jpg,,,,49,GW/hat.jpg,GW/barrel.jpg,1,0.5471698113207547,,,,GW/hat.jpg,,,,,Three Edge Diff,Three Edge Six Edge
null,,html-keyboard-response,1030123,<p></p>,,,,null,,,,,,,,,,,,,,
1711,,shortestpath_phase,1031836,GW/teeth.jpg,,,,50,GW/barrel.jpg,GW/gong.jpg,0,0.5370370370370371,,,,GW/barrel.jpg,,,,,Two Edge Diff,Two Edge Four Edge
null,,html-keyboard-response,1032848,<p></p>,,,,null,,,,,,,,,,,,,,
1928.199999988079,,shortestpath_phase,1034777,GW/paint.jpg,,,,49,GW/jukebox.jpg,GW/globe.jpg,1,0.5454545454545454,,,,GW/jukebox.jpg,,,,,Two Edge Diff,Two Edge Four Edge
null,,html-keyboard-response,1035787,<p></p>,,,,null,,,,,,,,,,,,,,
1983.6000000238419,,shortestpath_phase,1037773,GW/basket.jpg,,,,50,GW/barrel.jpg,GW/dustpan.jpg,0,0.5357142857142857,,,,GW/barrel.jpg,,,,,Two Edge Diff,Two Edge Four Edge
null,,html-keyboard-response,1038778,<p></p>,,,,null,,,,,,,,,,,,,,
1469.6000000238419,,shortestpath_phase,1040251,GW/paint.jpg,,,,50,GW/dustpan.jpg,GW/snail.jpg,1,0.543859649122807,,,,GW/snail.jpg,,,,,Three Edge Diff,Two Edge Five Edge
null,,html-keyboard-response,1041258,<p></p>,,,,null,,,,,,,,,,,,,,
1095,,shortestpath_phase,1042356,GW/teeth.jpg,,,,50,GW/wheelchair.jpg,GW/hat.jpg,0,0.5344827586206896,,,,GW/wheelchair.jpg,,,,,One Edge Diff,Three Edge Four Edge
null,,html-keyboard-response,1043365,<p></p>,,,,null,,,,,,,,,,,,,,
1394,,shortestpath_phase,1044761,GW/jukebox.jpg,,,,49,GW/paint.jpg,GW/dustpan.jpg,1,0.5423728813559322,,,,GW/paint.jpg,,,,,Four Edge Diff,Two Edge Six Edge
null,,html-keyboard-response,1045764,<p></p>,,,,null,,,,,,,,,,,,,,
2568,,shortestpath_phase,1048334,GW/hat.jpg,,,,50,GW/jukebox.jpg,GW/teeth.jpg,1,0.55,,,,GW/teeth.jpg,,,,,One Edge Diff,Four Edge Five Edge
null,,html-keyboard-response,1049343,<p></p>,,,,null,,,,,,,,,,,,,,
3826.800000011921,,shortestpath_phase,1053172,GW/globe.jpg,,,,50,GW/teeth.jpg,GW/soldier.jpg,1,0.5573770491803278,,,,GW/soldier.jpg,,,,,Three Edge Diff,Three Edge Six Edge
null,,html-keyboard-response,1054180,<p></p>,,,,null,,,,,,,,,,,,,,
1901.0999999642372,,shortestpath_phase,1056083,GW/dustpan.jpg,,,,49,GW/teeth.jpg,GW/paint.jpg,0,0.5483870967741935,,,,GW/paint.jpg,,,,,One Edge Diff,Five Edge Six Edge
null,,html-keyboard-response,1057095,<p></p>,,,,null,,,,,,,,,,,,,,
1292.1000000238419,,shortestpath_phase,1058390,GW/jukebox.jpg,,,,49,GW/globe.jpg,GW/wheelchair.jpg,0,0.5396825396825397,,,,GW/wheelchair.jpg,,,,,Four Edge Diff,Two Edge Six Edge
null,,html-keyboard-response,1059394,<p></p>,,,,null,,,,,,,,,,,,,,
3536.300000011921,,shortestpath_phase,1062932,GW/barrel.jpg,,,,49,GW/soldier.jpg,GW/globe.jpg,1,0.546875,,,,GW/soldier.jpg,,,,,One Edge Diff,Four Edge Five Edge
null,,html-keyboard-response,1063955,<p></p>,,,,null,,,,,,,,,,,,,,
3766.600000023842,,shortestpath_phase,1067724,GW/dustpan.jpg,,,,49,GW/basket.jpg,GW/jukebox.jpg,1,0.5538461538461539,,,,GW/basket.jpg,,,,,Two Edge Diff,Four Edge Six Edge
null,,html-keyboard-response,1068739,<p></p>,,,,null,,,,,,,,,,,,,,
1469.199999988079,,shortestpath_phase,1070210,GW/jukebox.jpg,,,,49,GW/wheelchair.jpg,GW/hat.jpg,1,0.5606060606060606,,,,GW/wheelchair.jpg,,,,,Three Edge Diff,Two Edge Five Edge
null,,html-keyboard-response,1071226,<p></p>,,,,null,,,,,,,,,,,,,,
3573.400000035763,,shortestpath_phase,1074802,GW/soldier.jpg,,,,50,GW/camera.jpg,GW/jukebox.jpg,0,0.5522388059701493,,,,GW/camera.jpg,,,,,Three Edge Diff,Two Edge Five Edge
null,,html-keyboard-response,1075821,<p></p>,,,,null,,,,,,,,,,,,,,
1884.9000000357628,,shortestpath_phase,1077709,GW/teeth.jpg,,,,49,GW/snail.jpg,GW/barrel.jpg,0,0.5441176470588235,,,,GW/barrel.jpg,,,,,One Edge Diff,Two Edge Three Edge
null,,html-keyboard-response,1078726,<p></p>,,,,null,,,,,,,,,,,,,,
1530,,shortestpath_phase,1080258,GW/dustpan.jpg,,,,50,GW/barrel.jpg,GW/basket.jpg,1,0.5507246376811594,,,,GW/basket.jpg,,,,,One Edge Diff,Four Edge Five Edge
null,,html-keyboard-response,1081270,<p></p>,,,,null,,,,,,,,,,,,,,
3945.2999999523163,,shortestpath_phase,1085217,GW/hat.jpg,,,,49,GW/jukebox.jpg,GW/paint.jpg,0,0.5428571428571428,,,,GW/paint.jpg,,,,,Two Edge Diff,Three Edge Five Edge
null,,html-keyboard-response,1086219,<p></p>,,,,null,,,,,,,,,,,,,,
2415.2000000476837,,shortestpath_phase,1088636,GW/globe.jpg,,,,49,GW/jukebox.jpg,GW/soldier.jpg,0,0.5352112676056338,,,,GW/soldier.jpg,,,,,Four Edge Diff,Two Edge Six Edge
null,,html-keyboard-response,1089640,<p></p>,,,,null,,,,,,,,,,,,,,
1264.2999999523163,,shortestpath_phase,1090907,GW/snail.jpg,,,,49,GW/hat.jpg,GW/jukebox.jpg,1,0.5416666666666666,,,,GW/hat.jpg,,,,,One Edge Diff,Two Edge Three Edge
null,,html-keyboard-response,1091911,<p></p>,,,,null,,,,,,,,,,,,,,
3880.900000035763,,shortestpath_phase,1095794,GW/globe.jpg,,,,50,GW/jukebox.jpg,GW/camera.jpg,1,0.547945205479452,,,,GW/camera.jpg,,,,,Four Edge Diff,Two Edge Six Edge
null,,html-keyboard-response,1096805,<p></p>,,,,null,,,,,,,,,,,,,,
3330.5,,shortestpath_phase,1100138,GW/paint.jpg,,,,49,GW/soldier.jpg,GW/dustpan.jpg,1,0.5540540540540541,,,,GW/soldier.jpg,,,,,One Edge Diff,Four Edge Five Edge
null,,html-keyboard-response,1101139,<p></p>,,,,null,,,,,,,,,,,,,,
1762.199999988079,,shortestpath_phase,1102902,GW/globe.jpg,,,,50,GW/jukebox.jpg,GW/wheelchair.jpg,1,0.56,,,,GW/wheelchair.jpg,,,,,Two Edge Diff,Four Edge Six Edge
null,,html-keyboard-response,1103906,<p></p>,,,,null,,,,,,,,,,,,,,
2279.199999988079,,shortestpath_phase,1106187,GW/jukebox.jpg,,,,50,GW/globe.jpg,GW/gong.jpg,1,0.5657894736842105,,,,GW/gong.jpg,,,,,Two Edge Diff,Four Edge Six Edge
null,,html-keyboard-response,1107192,<p></p>,,,,null,,,,,,,,,,,,,,
2472.7999999523163,,shortestpath_phase,1109668,GW/dustpan.jpg,,,,49,GW/jukebox.jpg,GW/paint.jpg,0,0.5584415584415584,,,,GW/paint.jpg,,,,,One Edge Diff,Five Edge Six Edge
null,,html-keyboard-response,1110671,<p></p>,,,,null,,,,,,,,,,,,,,
2572.5,,shortestpath_phase,1113244,GW/globe.jpg,,,,50,GW/gong.jpg,GW/jukebox.jpg,0,0.5512820512820513,,,,GW/gong.jpg,,,,,Four Edge Diff,Two Edge Six Edge
null,,html-keyboard-response,1114247,<p></p>,,,,null,,,,,,,,,,,,,,
2160.7999999523163,,shortestpath_phase,1116409,GW/teeth.jpg,,,,50,GW/wheelchair.jpg,GW/gong.jpg,0,0.5443037974683544,,,,GW/wheelchair.jpg,,,,,One Edge Diff,Three Edge Four Edge
null,,html-keyboard-response,1117417,<p></p>,,,,null,,,,,,,,,,,,,,
4103.699999988079,,shortestpath_phase,1121522,GW/dustpan.jpg,,,,50,GW/jukebox.jpg,GW/barrel.jpg,1,0.55,,,,GW/barrel.jpg,,,,,One Edge Diff,Five Edge Six Edge
null,,html-keyboard-response,1122526,<p></p>,,,,null,,,,,,,,,,,,,,
3890.800000011921,,shortestpath_phase,1126418,GW/gong.jpg,,,,49,GW/jukebox.jpg,GW/wheelchair.jpg,0,0.5432098765432098,,,,GW/wheelchair.jpg,,,,,Two Edge Diff,Two Edge Four Edge
null,,html-keyboard-response,1127435,<p></p>,,,,null,,,,,,,,,,,,,,
3629.099999964237,,shortestpath_phase,1131066,GW/dustpan.jpg,,,,49,GW/paint.jpg,GW/basket.jpg,0,0.5365853658536586,,,,GW/basket.jpg,,,,,One Edge Diff,Four Edge Five Edge
null,,html-keyboard-response,1132078,<p></p>,,,,null,,,,,,,,,,,,,,
3673.899999976158,,shortestpath_phase,1135754,GW/teeth.jpg,,,,50,GW/dustpan.jpg,GW/barrel.jpg,1,0.5421686746987951,,,,GW/barrel.jpg,,,,,Four Edge Diff,Two Edge Six Edge
null,,html-keyboard-response,1136759,<p></p>,,,,null,,,,,,,,,,,,,,
3420.399999976158,,shortestpath_phase,1140181,GW/dustpan.jpg,,,,49,GW/snail.jpg,GW/basket.jpg,1,0.5476190476190477,,,,GW/snail.jpg,,,,,One Edge Diff,Three Edge Four Edge
null,,html-keyboard-response,1141185,<p></p>,,,,null,,,,,,,,,,,,,,
1875,,shortestpath_phase,1143061,GW/jukebox.jpg,,,,50,GW/soldier.jpg,GW/dustpan.jpg,0,0.5411764705882353,,,,GW/soldier.jpg,,,,,One Edge Diff,Five Edge Six Edge
null,,html-keyboard-response,1144068,<p></p>,,,,null,,,,,,,,,,,,,,
1509.699999988079,,shortestpath_phase,1145579,GW/gong.jpg,,,,49,GW/barrel.jpg,GW/jukebox.jpg,1,0.5465116279069767,,,,GW/barrel.jpg,,,,,One Edge Diff,Three Edge Four Edge
null,,html-keyboard-response,1146584,<p></p>,,,,null,,,,,,,,,,,,,,
1152.800000011921,,shortestpath_phase,1147738,GW/dustpan.jpg,,,,49,GW/teeth.jpg,GW/wheelchair.jpg,0,0.5402298850574713,,,,GW/wheelchair.jpg,,,,,Two Edge Diff,Four Edge Six Edge
null,,html-keyboard-response,1148743,<p></p>,,,,null,,,,,,,,,,,,,,
1787.3999999761581,,shortestpath_phase,1150534,GW/camera.jpg,,,,50,GW/teeth.jpg,GW/soldier.jpg,1,0.5454545454545454,,,,GW/soldier.jpg,,,,,One Edge Diff,Two Edge Three Edge
null,,html-keyboard-response,1151551,<p></p>,,,,null,,,,,,,,,,,,,,
1665.800000011921,,shortestpath_phase,1153218,GW/dustpan.jpg,,,,50,GW/barrel.jpg,GW/teeth.jpg,0,0.5393258426966292,,,,GW/barrel.jpg,,,,,One Edge Diff,Five Edge Six Edge
null,,html-keyboard-response,1154232,<p></p>,,,,null,,,,,,,,,,,,,,
2081.399999976158,,shortestpath_phase,1156314,GW/teeth.jpg,,,,49,GW/basket.jpg,GW/dustpan.jpg,1,0.5444444444444444,,,,GW/basket.jpg,,,,,Four Edge Diff,Two Edge Six Edge
null,,html-keyboard-response,1157325,<p></p>,,,,null,,,,,,,,,,,,,,
1733.5,,shortestpath_phase,1159059,GW/soldier.jpg,,,,50,GW/teeth.jpg,GW/globe.jpg,1,0.5494505494505495,,,,GW/globe.jpg,,,,,Three Edge Diff,Two Edge Five Edge
null,,html-keyboard-response,1160077,<p></p>,,,,null,,,,,,,,,,,,,,
2492,,shortestpath_phase,1162571,GW/jukebox.jpg,,,,49,GW/soldier.jpg,GW/basket.jpg,0,0.5434782608695652,,,,GW/basket.jpg,,,,,Two Edge Diff,Three Edge Five Edge
null,,html-keyboard-response,1163577,<p></p>,,,,null,,,,,,,,,,,,,,
1585.300000011921,,shortestpath_phase,1165164,GW/soldier.jpg,,,,50,GW/teeth.jpg,GW/globe.jpg,1,0.5483870967741935,,,,GW/globe.jpg,,,,,Three Edge Diff,Three Edge Six Edge
null,,html-keyboard-response,1166173,<p></p>,,,,null,,,,,,,,,,,,,,
1787.300000011921,,shortestpath_phase,1167962,GW/barrel.jpg,,,,50,GW/globe.jpg,GW/snail.jpg,1,0.5531914893617021,,,,GW/snail.jpg,,,,,Three Edge Diff,Two Edge Five Edge
null,,html-keyboard-response,1168966,<p></p>,,,,null,,,,,,,,,,,,,,
2035,,shortestpath_phase,1171003,GW/globe.jpg,,,,49,GW/barrel.jpg,GW/paint.jpg,0,0.5473684210526316,,,,GW/paint.jpg,,,,,One Edge Diff,Four Edge Five Edge
null,,html-keyboard-response,1172005,<p></p>,,,,null,,,,,,,,,,,,,,
2686.400000035763,,shortestpath_phase,1174693,GW/teeth.jpg,,,,49,GW/dustpan.jpg,GW/soldier.jpg,0,0.5416666666666666,,,,GW/soldier.jpg,,,,,One Edge Diff,Five Edge Six Edge
null,,html-keyboard-response,1175696,<p></p>,,,,null,,,,,,,,,,,,,,
1617.3999999761581,,shortestpath_phase,1177314,GW/barrel.jpg,,,,49,GW/globe.jpg,GW/basket.jpg,0,0.5360824742268041,,,,GW/basket.jpg,,,,,Three Edge Diff,Three Edge Six Edge
null,,html-keyboard-response,1178322,<p></p>,,,,null,,,,,,,,,,,,,,
1305.9000000357628,,shortestpath_phase,1179629,GW/wheelchair.jpg,,,,49,GW/gong.jpg,GW/dustpan.jpg,1,0.5408163265306123,,,,GW/gong.jpg,,,,,Two Edge Diff,Two Edge Four Edge
null,,html-keyboard-response,1180645,<p></p>,,,,null,,,,,,,,,,,,,,
2882.600000023842,,shortestpath_phase,1183530,GW/dustpan.jpg,,,,49,GW/hat.jpg,GW/jukebox.jpg,1,0.5454545454545454,,,,GW/hat.jpg,,,,,Four Edge Diff,Two Edge Six Edge
null,,html-keyboard-response,1184547,<p></p>,,,,null,,,,,,,,,,,,,,
1702.5,,shortestpath_phase,1186254,GW/jukebox.jpg,,,,50,GW/globe.jpg,GW/camera.jpg,1,0.55,,,,GW/camera.jpg,,,,,Two Edge Diff,Four Edge Six Edge
null,,html-keyboard-response,1187265,<p></p>,,,,null,,,,,,,,,,,,,,
1426.3999999761581,,shortestpath_phase,1188693,GW/teeth.jpg,,,,49,GW/globe.jpg,GW/barrel.jpg,0,0.5445544554455446,,,,GW/barrel.jpg,,,,,Three Edge Diff,Two Edge Five Edge
null,,html-keyboard-response,1189698,<p></p>,,,,null,,,,,,,,,,,,,,
895.1999999880791,,shortestpath_phase,1190596,GW/jukebox.jpg,,,,49,GW/globe.jpg,GW/soldier.jpg,0,0.5392156862745098,,,,GW/soldier.jpg,,,,,One Edge Diff,Five Edge Six Edge
null,,html-keyboard-response,1191613,<p></p>,,,,null,,,,,,,,,,,,,,
1181.199999988079,,shortestpath_phase,1192796,GW/barrel.jpg,,,,49,GW/dustpan.jpg,GW/camera.jpg,0,0.5339805825242718,,,,GW/camera.jpg,,,,,Two Edge Diff,Three Edge Five Edge
null,,html-keyboard-response,1193813,<p></p>,,,,null,,,,,,,,,,,,,,
891.5,,shortestpath_phase,1194708,GW/jukebox.jpg,,,,50,GW/soldier.jpg,GW/gong.jpg,1,0.5384615384615384,,,,GW/gong.jpg,,,,,One Edge Diff,Four Edge Five Edge
null,,html-keyboard-response,1195715,<p></p>,,,,null,,,,,,,,,,,,,,
2888.399999976158,,shortestpath_phase,1198605,GW/teeth.jpg,,,,50,GW/soldier.jpg,GW/camera.jpg,1,0.5428571428571428,,,,GW/camera.jpg,,,,,Two Edge Diff,Three Edge Five Edge
null,,html-keyboard-response,1199610,<p></p>,,,,null,,,,,,,,,,,,,,
2069.800000011921,,shortestpath_phase,1201682,GW/jukebox.jpg,,,,50,GW/hat.jpg,GW/dustpan.jpg,0,0.5377358490566038,,,,GW/hat.jpg,,,,,One Edge Diff,Five Edge Six Edge
null,,html-keyboard-response,1202693,<p></p>,,,,null,,,,,,,,,,,,,,
1892.199999988079,,shortestpath_phase,1204588,GW/globe.jpg,,,,49,GW/gong.jpg,GW/teeth.jpg,1,0.5420560747663551,,,,GW/gong.jpg,,,,,Three Edge Diff,Three Edge Six Edge
null,,html-keyboard-response,1205595,<p></p>,,,,null,,,,,,,,,,,,,,
1988.3999999761581,,shortestpath_phase,1207586,GW/teeth.jpg,,,,50,GW/jukebox.jpg,GW/gong.jpg,0,0.5370370370370371,,,,GW/jukebox.jpg,,,,,One Edge Diff,Three Edge Four Edge
null,,html-keyboard-response,1208594,<p></p>,,,,null,,,,,,,,,,,,,,
1279.800000011921,,shortestpath_phase,1209877,GW/hat.jpg,,,,50,GW/wheelchair.jpg,GW/snail.jpg,1,0.5412844036697247,,,,GW/snail.jpg,,,,,One Edge Diff,Two Edge Three Edge
null,,html-keyboard-response,1210890,<p></p>,,,,null,,,,,,,,,,,,,,
1341,,shortestpath_phase,1212234,GW/barrel.jpg,,,,50,GW/hat.jpg,GW/camera.jpg,1,0.5454545454545454,,,,GW/camera.jpg,,,,,One Edge Diff,Three Edge Four Edge
null,,html-keyboard-response,1213240,<p></p>,,,,null,,,,,,,,,,,,,,
2081.900000035763,,shortestpath_phase,1215325,GW/dustpan.jpg,,,,49,GW/teeth.jpg,GW/gong.jpg,0,0.5405405405405406,,,,GW/gong.jpg,,,,,Four Edge Diff,Two Edge Six Edge
null,,html-keyboard-response,1216329,<p></p>,,,,null,,,,,,,,,,,,,,
1527.800000011921,,shortestpath_phase,1217859,GW/globe.jpg,,,,50,GW/camera.jpg,GW/dustpan.jpg,0,0.5357142857142857,,,,GW/camera.jpg,,,,,One Edge Diff,Two Edge Three Edge
null,,html-keyboard-response,1218879,<p></p>,,,,null,,,,,,,,,,,,,,
2323.600000023842,,shortestpath_phase,1221206,GW/gong.jpg,,,,50,GW/paint.jpg,GW/teeth.jpg,0,0.5309734513274337,,,,GW/paint.jpg,,,,,One Edge Diff,Three Edge Four Edge
null,,html-keyboard-response,1222208,<p></p>,,,,null,,,,,,,,,,,,,,
1340.2000000476837,,shortestpath_phase,1223550,GW/dustpan.jpg,,,,50,GW/hat.jpg,GW/teeth.jpg,0,0.5263157894736842,,,,GW/hat.jpg,,,,,Four Edge Diff,Two Edge Six Edge
null,,html-keyboard-response,1224556,<p></p>,,,,null,,,,,,,,,,,,,,
1717.300000011921,,shortestpath_phase,1226276,GW/paint.jpg,,,,50,GW/gong.jpg,GW/soldier.jpg,0,0.5217391304347826,,,,GW/gong.jpg,,,,,One Edge Diff,Three Edge Four Edge
null,,html-keyboard-response,1227294,<p></p>,,,,null,,,,,,,,,,,,,,
1372.4000000357628,,shortestpath_phase,1228668,GW/globe.jpg,,,,50,GW/dustpan.jpg,GW/wheelchair.jpg,0,0.5172413793103449,,,,GW/dustpan.jpg,,,,,One Edge Diff,Three Edge Four Edge
null,,html-keyboard-response,1229684,<p></p>,,,,null,,,,,,,,,,,,,,
2174,,shortestpath_phase,1231861,GW/teeth.jpg,,,,49,GW/hat.jpg,GW/dustpan.jpg,1,0.5213675213675214,,,,GW/hat.jpg,,,,,Two Edge Diff,Four Edge Six Edge
null,,html-keyboard-response,1232870,<p></p>,,,,null,,,,,,,,,,,,,,
1347.1000000238419,,shortestpath_phase,1234218,GW/globe.jpg,,,,50,GW/camera.jpg,GW/paint.jpg,0,0.5169491525423728,,,,GW/camera.jpg,,,,,Two Edge Diff,Two Edge Four Edge
null,,html-keyboard-response,1235235,<p></p>,,,,null,,,,,,,,,,,,,,
2517,,shortestpath_phase,1237754,GW/snail.jpg,,,,49,GW/hat.jpg,GW/globe.jpg,1,0.5210084033613446,,,,GW/hat.jpg,,,,,One Edge Diff,Two Edge Three Edge
null,,html-keyboard-response,1238755,<p></p>,,,,null,,,,,,,,,,,,,,
1004.5,,shortestpath_phase,1239762,GW/paint.jpg,,,,50,GW/camera.jpg,GW/globe.jpg,0,0.5166666666666667,,,,GW/camera.jpg,,,,,Two Edge Diff,Two Edge Four Edge
null,,html-keyboard-response,1240766,<p></p>,,,,null,,,,,,,,,,,,,,
2498.900000035763,,shortestpath_phase,1243266,GW/barrel.jpg,,,,49,GW/basket.jpg,GW/dustpan.jpg,1,0.5206611570247934,,,,GW/basket.jpg,,,,,Three Edge Diff,Two Edge Five Edge
null,,html-keyboard-response,1244282,<p></p>,,,,null,,,,,,,,,,,,,,
16827.19999998808,,intro_1,1261112,instruct,,0,,,,,,,,,,,,,,,,
4657.300000011921,,intro_2,1265770,instruct,,1,Next,,,,,,,,,,,,,,,
1430.7999999523163,,intro_3,1267202,instruct,,1,Next,,,,,,,,,,,,,,,
