rt,responses,trial_type,time_elapsed,stimulus,graphorder,button_pressed,response,key_press,stimulus_left,stimulus_right,accuracy,cumulative_accuracy,stimulus_down_left,stimulus_down_mid,stimulus_down_right,stimulus_correct,stimulus_short,stimulus_far,weighted_accuracy,missedtrial,condition,specific_pairs
4662.700000762939,{worker_id:611b09935cd6e67f2b5e9ea2},id_enter,4669,id_enter,GW/jukebox.jpg; GW/wheelchair.jpg; GW/snail.jpg; GW/teeth.jpg; GW/hat.jpg; GW/soldier.jpg; GW/globe.jpg; GW/basket.jpg; GW/gong.jpg; GW/paint.jpg; GW/camera.jpg; GW/barrel.jpg; GW/dustpan.jpg,,,,,,,,,,,,,,,,,
16930.79999923706,,fullscreen,21602,fullscreen,,0,,,,,,,,,,,,,,,,
12811.39999961853,,intro_1,34416,instruct,,0,,,,,,,,,,,,,,,,
13795.5,,intro_2,48212,instruct,,1,Next,,,,,,,,,,,,,,,
9149.39999961853,,intro_3,57362,instruct,,1,Next,,,,,,,,,,,,,,,
null,,learn_prac_1,59365,lean_prac_1,,,,null,,,,,,,,,,,,,,
null,,html-keyboard-response,60367,<p></p>,,,,null,,,,,,,,,,,,,,
3187.2999992370605,,intro_1,63555,instruct,,0,,,,,,,,,,,,,,,,
14723.199999809265,,intro_2,78279,instruct,,1,Next,,,,,,,,,,,,,,,
null,,learn_prac_2,80281,lean_prac_2,,,,null,,,,,,,,,,,,,,
null,,html-keyboard-response,81282,<p></p>,,,,null,,,,,,,,,,,,,,
3391,,intro_1,84679,instruct,,0,,,,,,,,,,,,,,,,
8851.300000190735,,intro_2,93531,instruct,,1,Next,,,,,,,,,,,,,,,
23371,,intro_3,116903,instruct,,1,Next,,,,,,,,,,,,,,,
null,,prac_atten_color_black,117643,black_plus_sign,,,,null,,,,,,,,,,,,,,
null,,prac_atten_color,118307,prac_stop_color,,,,null,,,,,,,,,,,,,,
292.6000003814697,,prac_atten_color_black,120308,black_plus_sign,,,,49,,,,,,,,,,,,,,
null,,prac_atten_color_black,121050,black_plus_sign,,,,null,,,,,,,,,,,,,,
1031.1999998092651,,prac_atten_color,122117,prac_stop_color,,,,50,,,,,,,,,,,,,,
null,,prac_atten_color_black,124124,black_plus_sign,,,,null,,,,,,,,,,,,,,
null,,prac_atten_color_black,124462,black_plus_sign,,,,null,,,,,,,,,,,,,,
null,,prac_atten_color,124998,prac_stop_color,,,,null,,,,,,,,,,,,,,
230.19999980926514,,prac_atten_color_black,126999,black_plus_sign,,,,50,,,,,,,,,,,,,,
null,,prac_atten_color_black,127866,black_plus_sign,,,,null,,,,,,,,,,,,,,
1024.6000003814697,,prac_atten_color,128935,prac_stop_color,,,,49,,,,,,,,,,,,,,
null,,prac_atten_color_black,130937,black_plus_sign,,,,null,,,,,,,,,,,,,,
null,,prac_atten_color_black,131271,black_plus_sign,,,,null,,,,,,,,,,,,,,
null,,prac_atten_color,132001,prac_stop_color,,,,null,,,,,,,,,,,,,,
311.3999996185303,,prac_atten_color_black,134003,black_plus_sign,,,,50,,,,,,,,,,,,,,
null,,prac_atten_color_black,134678,black_plus_sign,,,,null,,,,,,,,,,,,,,
null,,prac_atten_color,135475,prac_stop_color,,,,null,,,,,,,,,,,,,,
28.5,,prac_atten_color_black,137476,black_plus_sign,,,,50,,,,,,,,,,,,,,
null,,prac_atten_color_black,138083,black_plus_sign,,,,null,,,,,,,,,,,,,,
788.0999994277954,,prac_atten_color,139091,prac_stop_color,,,,49,,,,,,,,,,,,,,
null,,prac_atten_color_black,141106,black_plus_sign,,,,null,,,,,,,,,,,,,,
null,,prac_atten_color_black,141501,black_plus_sign,,,,null,,,,,,,,,,,,,,
null,,prac_atten_color,142206,prac_stop_color,,,,null,,,,,,,,,,,,,,
222.10000038146973,,prac_atten_color_black,144207,black_plus_sign,,,,50,,,,,,,,,,,,,,
null,,prac_atten_color_black,144906,black_plus_sign,,,,null,,,,,,,,,,,,,,
689.0999994277954,,prac_atten_color,145805,prac_stop_color,,,,49,,,,,,,,,,,,,,
null,,prac_atten_color_black,147806,black_plus_sign,,,,null,,,,,,,,,,,,,,
null,,prac_atten_color_black,148311,black_plus_sign,,,,null,,,,,,,,,,,,,,
582.3000001907349,,prac_atten_color,149278,prac_stop_color,,,,49,,,,,,,,,,,,,,
null,,prac_atten_color_black,151280,black_plus_sign,,,,null,,,,,,,,,,,,,,
6954.10000038147,,attentioncheck_feedback,158235,cross_check_feedback,,0,,,,,,,,,,,,,,,,
13343.300000190735,,last_instruct,171579,instruct,,,,32,,,,,,,,,,,,,,
null,,learn_phase(without_color),173580,black_plus_sign,,,,null,GW/jukebox.jpg,GW/wheelchair.jpg,,,,,,,,,,,,
null,,black_cross(without_color),174457,green,,,,null,GW/jukebox.jpg,GW/wheelchair.jpg,,,,,,,,,,,,
null,,rt_plussign_withcolor,174958,green,,,,null,GW/jukebox.jpg,GW/wheelchair.jpg,,,,,,,,,,,,
1960.5,,rt_thecrossant_black,176099,black_plus_sign,,,,50,,,1,1,,,,,,,,,,
null,,color_black,176200,black_plus_sign,,,,null,,,,,,,,,,,,,,
null,,learn_phase(without_color),178202,black_plus_sign,,,,null,GW/teeth.jpg,GW/hat.jpg,,,,,,,,,,,,
null,,black_cross(without_color),179237,blue,,,,null,GW/teeth.jpg,GW/hat.jpg,,,,,,,,,,,,
null,,rt_plussign_withcolor,179739,blue,,,,null,GW/teeth.jpg,GW/hat.jpg,,,,,,,,,,,,
1017.6999998092651,,rt_thecrossant_black,180709,black_plus_sign,,,,49,,,1,1,,,,,,,,,,
null,,color_black,180811,black_plus_sign,,,,null,,,,,,,,,,,,,,
null,,learn_phase(without_color),182813,black_plus_sign,,,,null,GW/snail.jpg,GW/camera.jpg,,,,,,,,,,,,
null,,black_cross(without_color),183515,green,,,,null,GW/snail.jpg,GW/camera.jpg,,,,,,,,,,,,
391,,rt_plussign_withcolor,184016,green,,,,50,GW/snail.jpg,GW/camera.jpg,,,,,,,,,,,,
null,,rt_thecrossant_black,185318,black_plus_sign,,,,null,,,1,1,,,,,,,,,,
null,,color_black,185420,black_plus_sign,,,,null,,,,,,,,,,,,,,
null,,learn_phase(without_color),187428,black_plus_sign,,,,null,GW/soldier.jpg,GW/gong.jpg,,,,,,,,,,,,
null,,black_cross(without_color),188069,green,,,,null,GW/soldier.jpg,GW/gong.jpg,,,,,,,,,,,,
null,,rt_plussign_withcolor,188571,green,,,,null,GW/soldier.jpg,GW/gong.jpg,,,,,,,,,,,,
1684.1999998092651,,rt_thecrossant_black,189934,black_plus_sign,,,,50,,,1,1,,,,,,,,,,
null,,color_black,190035,black_plus_sign,,,,null,,,,,,,,,,,,,,
null,,learn_phase(without_color),192038,black_plus_sign,,,,null,GW/basket.jpg,GW/gong.jpg,,,,,,,,,,,,
null,,black_cross(without_color),193024,green,,,,null,GW/basket.jpg,GW/gong.jpg,,,,,,,,,,,,
null,,rt_plussign_withcolor,193538,green,,,,null,GW/basket.jpg,GW/gong.jpg,,,,,,,,,,,,
1282.4000005722046,,rt_thecrossant_black,194556,black_plus_sign,,,,50,,,1,1,,,,,,,,,,
null,,color_black,194658,black_plus_sign,,,,null,,,,,,,,,,,,,,
null,,learn_phase(without_color),196661,black_plus_sign,,,,null,GW/soldier.jpg,GW/gong.jpg,,,,,,,,,,,,
null,,black_cross(without_color),197740,blue,,,,null,GW/soldier.jpg,GW/gong.jpg,,,,,,,,,,,,
472.80000019073486,,rt_plussign_withcolor,198241,blue,,,,49,GW/soldier.jpg,GW/gong.jpg,,,,,,,,,,,,
null,,rt_thecrossant_black,199166,black_plus_sign,,,,null,,,1,1,,,,,,,,,,
null,,color_black,199268,black_plus_sign,,,,null,,,,,,,,,,,,,,
null,,learn_phase(without_color),201269,black_plus_sign,,,,null,GW/teeth.jpg,GW/hat.jpg,,,,,,,,,,,,
null,,black_cross(without_color),202093,green,,,,null,GW/teeth.jpg,GW/hat.jpg,,,,,,,,,,,,
null,,rt_plussign_withcolor,202594,green,,,,null,GW/teeth.jpg,GW/hat.jpg,,,,,,,,,,,,
1576.3999996185303,,rt_thecrossant_black,203774,black_plus_sign,,,,50,,,1,1,,,,,,,,,,
null,,color_black,203882,black_plus_sign,,,,null,,,,,,,,,,,,,,
null,,learn_phase(without_color),205883,black_plus_sign,,,,null,GW/globe.jpg,GW/gong.jpg,,,,,,,,,,,,
null,,black_cross(without_color),206640,blue,,,,null,GW/globe.jpg,GW/gong.jpg,,,,,,,,,,,,
null,,rt_plussign_withcolor,207141,blue,,,,null,GW/globe.jpg,GW/gong.jpg,,,,,,,,,,,,
1180.6000003814697,,rt_thecrossant_black,208387,black_plus_sign,,,,49,,,1,1,,,,,,,,,,
null,,color_black,208489,black_plus_sign,,,,null,,,,,,,,,,,,,,
null,,learn_phase(without_color),210491,black_plus_sign,,,,null,GW/basket.jpg,GW/gong.jpg,,,,,,,,,,,,
null,,black_cross(without_color),211442,blue,,,,null,GW/basket.jpg,GW/gong.jpg,,,,,,,,,,,,
null,,rt_plussign_withcolor,211944,blue,,,,null,GW/basket.jpg,GW/gong.jpg,,,,,,,,,,,,
1170.6999998092651,,rt_thecrossant_black,212996,black_plus_sign,,,,49,,,1,1,,,,,,,,,,
null,,color_black,213098,black_plus_sign,,,,null,,,,,,,,,,,,,,
null,,learn_phase(without_color),215100,black_plus_sign,,,,null,GW/globe.jpg,GW/dustpan.jpg,,,,,,,,,,,,
null,,black_cross(without_color),215964,green,,,,null,GW/globe.jpg,GW/dustpan.jpg,,,,,,,,,,,,
null,,rt_plussign_withcolor,216467,green,,,,null,GW/globe.jpg,GW/dustpan.jpg,,,,,,,,,,,,
1492.3000001907349,,rt_thecrossant_black,217605,black_plus_sign,,,,50,,,1,1,,,,,,,,,,
null,,color_black,217707,black_plus_sign,,,,null,,,,,,,,,,,,,,
null,,learn_phase(without_color),219710,black_plus_sign,,,,null,GW/globe.jpg,GW/basket.jpg,,,,,,,,,,,,
null,,black_cross(without_color),220214,blue,,,,null,GW/globe.jpg,GW/basket.jpg,,,,,,,,,,,,
null,,rt_plussign_withcolor,220723,blue,,,,null,GW/globe.jpg,GW/basket.jpg,,,,,,,,,,,,
1680.3000001907349,,rt_thecrossant_black,222223,black_plus_sign,,,,49,,,1,1,,,,,,,,,,
null,,color_black,222325,black_plus_sign,,,,null,,,,,,,,,,,,,,
null,,learn_phase(without_color),224327,black_plus_sign,,,,null,GW/basket.jpg,GW/paint.jpg,,,,,,,,,,,,
null,,black_cross(without_color),225107,blue,,,,null,GW/basket.jpg,GW/paint.jpg,,,,,,,,,,,,
null,,rt_plussign_withcolor,225609,blue,,,,null,GW/basket.jpg,GW/paint.jpg,,,,,,,,,,,,
925.4000005722046,,rt_thecrossant_black,226832,black_plus_sign,,,,49,,,1,1,,,,,,,,,,
null,,color_black,226934,black_plus_sign,,,,null,,,,,,,,,,,,,,
null,,learn_phase(without_color),228937,black_plus_sign,,,,null,GW/globe.jpg,GW/basket.jpg,,,,,,,,,,,,
null,,black_cross(without_color),229375,blue,,,,null,GW/globe.jpg,GW/basket.jpg,,,,,,,,,,,,
null,,rt_plussign_withcolor,229876,blue,,,,null,GW/globe.jpg,GW/basket.jpg,,,,,,,,,,,,
1171.3000001907349,,rt_thecrossant_black,231442,black_plus_sign,,,,49,,,1,1,,,,,,,,,,
null,,color_black,231544,black_plus_sign,,,,null,,,,,,,,,,,,,,
null,,learn_phase(without_color),233545,black_plus_sign,,,,null,GW/globe.jpg,GW/gong.jpg,,,,,,,,,,,,
null,,black_cross(without_color),233972,green,,,,null,GW/globe.jpg,GW/gong.jpg,,,,,,,,,,,,
null,,rt_plussign_withcolor,234473,green,,,,null,GW/globe.jpg,GW/gong.jpg,,,,,,,,,,,,
787.3000001907349,,rt_thecrossant_black,236050,black_plus_sign,,,,50,,,1,1,,,,,,,,,,
null,,color_black,236163,black_plus_sign,,,,null,,,,,,,,,,,,,,
null,,learn_phase(without_color),238164,black_plus_sign,,,,null,GW/basket.jpg,GW/paint.jpg,,,,,,,,,,,,
null,,black_cross(without_color),239262,blue,,,,null,GW/basket.jpg,GW/paint.jpg,,,,,,,,,,,,
null,,rt_plussign_withcolor,239764,blue,,,,null,GW/basket.jpg,GW/paint.jpg,,,,,,,,,,,,
526,,rt_thecrossant_black,240669,black_plus_sign,,,,49,,,1,1,,,,,,,,,,
null,,color_black,240770,black_plus_sign,,,,null,,,,,,,,,,,,,,
null,,learn_phase(without_color),242771,black_plus_sign,,,,null,GW/globe.jpg,GW/basket.jpg,,,,,,,,,,,,
null,,black_cross(without_color),243215,blue,,,,null,GW/globe.jpg,GW/basket.jpg,,,,,,,,,,,,
null,,rt_plussign_withcolor,243717,blue,,,,null,GW/globe.jpg,GW/basket.jpg,,,,,,,,,,,,
1345.5,,rt_thecrossant_black,245276,black_plus_sign,,,,49,,,1,1,,,,,,,,,,
null,,color_black,245378,black_plus_sign,,,,null,,,,,,,,,,,,,,
null,,learn_phase(without_color),247379,black_plus_sign,,,,null,GW/globe.jpg,GW/dustpan.jpg,,,,,,,,,,,,
null,,black_cross(without_color),248244,green,,,,null,GW/globe.jpg,GW/dustpan.jpg,,,,,,,,,,,,
null,,rt_plussign_withcolor,248745,green,,,,null,GW/globe.jpg,GW/dustpan.jpg,,,,,,,,,,,,
992.3000001907349,,rt_thecrossant_black,249885,black_plus_sign,,,,50,,,1,1,,,,,,,,,,
null,,color_black,249987,black_plus_sign,,,,null,,,,,,,,,,,,,,
null,,learn_phase(without_color),251989,black_plus_sign,,,,null,GW/jukebox.jpg,GW/wheelchair.jpg,,,,,,,,,,,,
null,,black_cross(without_color),252767,blue,,,,null,GW/jukebox.jpg,GW/wheelchair.jpg,,,,,,,,,,,,
null,,rt_plussign_withcolor,253268,blue,,,,null,GW/jukebox.jpg,GW/wheelchair.jpg,,,,,,,,,,,,
1070.6000003814697,,rt_thecrossant_black,254495,black_plus_sign,,,,49,,,1,1,,,,,,,,,,
null,,color_black,254596,black_plus_sign,,,,null,,,,,,,,,,,,,,
null,,learn_phase(without_color),256599,black_plus_sign,,,,null,GW/basket.jpg,GW/paint.jpg,,,,,,,,,,,,
null,,black_cross(without_color),257375,green,,,,null,GW/basket.jpg,GW/paint.jpg,,,,,,,,,,,,
null,,rt_plussign_withcolor,257876,green,,,,null,GW/basket.jpg,GW/paint.jpg,,,,,,,,,,,,
1063.5,,rt_thecrossant_black,259103,black_plus_sign,,,,50,,,1,1,,,,,,,,,,
null,,color_black,259205,black_plus_sign,,,,null,,,,,,,,,,,,,,
null,,learn_phase(without_color),261207,black_plus_sign,,,,null,GW/soldier.jpg,GW/globe.jpg,,,,,,,,,,,,
null,,black_cross(without_color),261718,green,,,,null,GW/soldier.jpg,GW/globe.jpg,,,,,,,,,,,,
null,,rt_plussign_withcolor,262221,green,,,,null,GW/soldier.jpg,GW/globe.jpg,,,,,,,,,,,,
1245.5999994277954,,rt_thecrossant_black,263714,black_plus_sign,,,,50,,,1,1,,,,,,,,,,
null,,color_black,263815,black_plus_sign,,,,null,,,,,,,,,,,,,,
null,,learn_phase(without_color),265817,black_plus_sign,,,,null,GW/wheelchair.jpg,GW/snail.jpg,,,,,,,,,,,,
null,,black_cross(without_color),266558,green,,,,null,GW/wheelchair.jpg,GW/snail.jpg,,,,,,,,,,,,
null,,rt_plussign_withcolor,267060,green,,,,null,GW/wheelchair.jpg,GW/snail.jpg,,,,,,,,,,,,
1088.1000003814697,,rt_thecrossant_black,268321,black_plus_sign,,,,50,,,1,1,,,,,,,,,,
null,,color_black,268423,black_plus_sign,,,,null,,,,,,,,,,,,,,
null,,learn_phase(without_color),270425,black_plus_sign,,,,null,GW/soldier.jpg,GW/gong.jpg,,,,,,,,,,,,
null,,black_cross(without_color),271106,blue,,,,null,GW/soldier.jpg,GW/gong.jpg,,,,,,,,,,,,
null,,rt_plussign_withcolor,271608,blue,,,,null,GW/soldier.jpg,GW/gong.jpg,,,,,,,,,,,,
1481.6999998092651,,rt_thecrossant_black,272930,black_plus_sign,,,,49,,,1,1,,,,,,,,,,
null,,color_black,273031,black_plus_sign,,,,null,,,,,,,,,,,,,,
null,,learn_phase(without_color),275034,black_plus_sign,,,,null,GW/gong.jpg,GW/camera.jpg,,,,,,,,,,,,
null,,black_cross(without_color),275902,green,,,,null,GW/gong.jpg,GW/camera.jpg,,,,,,,,,,,,
null,,rt_plussign_withcolor,276404,green,,,,null,GW/gong.jpg,GW/camera.jpg,,,,,,,,,,,,
1065,,rt_thecrossant_black,277540,black_plus_sign,,,,50,,,1,1,,,,,,,,,,
null,,color_black,277643,black_plus_sign,,,,null,,,,,,,,,,,,,,
null,,learn_phase(without_color),279645,black_plus_sign,,,,null,GW/basket.jpg,GW/gong.jpg,,,,,,,,,,,,
null,,black_cross(without_color),280593,blue,,,,null,GW/basket.jpg,GW/gong.jpg,,,,,,,,,,,,
null,,rt_plussign_withcolor,281094,blue,,,,null,GW/basket.jpg,GW/gong.jpg,,,,,,,,,,,,
1372.6000003814697,,rt_thecrossant_black,282151,black_plus_sign,,,,49,,,1,1,,,,,,,,,,
null,,color_black,282253,black_plus_sign,,,,null,,,,,,,,,,,,,,
null,,learn_phase(without_color),284254,black_plus_sign,,,,null,GW/wheelchair.jpg,GW/snail.jpg,,,,,,,,,,,,
null,,black_cross(without_color),285246,blue,,,,null,GW/wheelchair.jpg,GW/snail.jpg,,,,,,,,,,,,
447.4000005722046,,rt_plussign_withcolor,285748,blue,,,,49,GW/wheelchair.jpg,GW/snail.jpg,,,,,,,,,,,,
null,,rt_thecrossant_black,286760,black_plus_sign,,,,null,,,1,1,,,,,,,,,,
null,,color_black,286861,black_plus_sign,,,,null,,,,,,,,,,,,,,
null,,learn_phase(without_color),288863,black_plus_sign,,,,null,GW/basket.jpg,GW/paint.jpg,,,,,,,,,,,,
null,,black_cross(without_color),289377,blue,,,,null,GW/basket.jpg,GW/paint.jpg,,,,,,,,,,,,
null,,rt_plussign_withcolor,289879,blue,,,,null,GW/basket.jpg,GW/paint.jpg,,,,,,,,,,,,
1439.2000007629395,,rt_thecrossant_black,291367,black_plus_sign,,,,49,,,1,1,,,,,,,,,,
null,,color_black,291469,black_plus_sign,,,,null,,,,,,,,,,,,,,
null,,learn_phase(without_color),293471,black_plus_sign,,,,null,GW/globe.jpg,GW/dustpan.jpg,,,,,,,,,,,,
null,,black_cross(without_color),294306,blue,,,,null,GW/globe.jpg,GW/dustpan.jpg,,,,,,,,,,,,
null,,rt_plussign_withcolor,294807,blue,,,,null,GW/globe.jpg,GW/dustpan.jpg,,,,,,,,,,,,
699.5,,rt_thecrossant_black,295977,black_plus_sign,,,,49,,,1,1,,,,,,,,,,
null,,color_black,296078,black_plus_sign,,,,null,,,,,,,,,,,,,,
null,,learn_phase(without_color),298080,black_plus_sign,,,,null,GW/wheelchair.jpg,GW/teeth.jpg,,,,,,,,,,,,
null,,black_cross(without_color),298693,green,,,,null,GW/wheelchair.jpg,GW/teeth.jpg,,,,,,,,,,,,
null,,rt_plussign_withcolor,299195,green,,,,null,GW/wheelchair.jpg,GW/teeth.jpg,,,,,,,,,,,,
1402.4000005722046,,rt_thecrossant_black,300592,black_plus_sign,,,,50,,,1,1,,,,,,,,,,
null,,color_black,300693,black_plus_sign,,,,null,,,,,,,,,,,,,,
null,,learn_phase(without_color),302695,black_plus_sign,,,,null,GW/jukebox.jpg,GW/wheelchair.jpg,,,,,,,,,,,,
null,,black_cross(without_color),303727,blue,,,,null,GW/jukebox.jpg,GW/wheelchair.jpg,,,,,,,,,,,,
null,,rt_plussign_withcolor,304228,blue,,,,null,GW/jukebox.jpg,GW/wheelchair.jpg,,,,,,,,,,,,
836.8999996185303,,rt_thecrossant_black,305200,black_plus_sign,,,,49,,,1,1,,,,,,,,,,
null,,color_black,305301,black_plus_sign,,,,null,,,,,,,,,,,,,,
null,,learn_phase(without_color),307304,black_plus_sign,,,,null,GW/snail.jpg,GW/soldier.jpg,,,,,,,,,,,,
null,,black_cross(without_color),307912,blue,,,,null,GW/snail.jpg,GW/soldier.jpg,,,,,,,,,,,,
null,,rt_plussign_withcolor,308414,blue,,,,null,GW/snail.jpg,GW/soldier.jpg,,,,,,,,,,,,
1996.8000001907349,,rt_thecrossant_black,309808,black_plus_sign,,,,49,,,1,1,,,,,,,,,,
null,,color_black,309910,black_plus_sign,,,,null,,,,,,,,,,,,,,
null,,learn_phase(without_color),311913,black_plus_sign,,,,null,GW/teeth.jpg,GW/barrel.jpg,,,,,,,,,,,,
null,,black_cross(without_color),312707,green,,,,null,GW/teeth.jpg,GW/barrel.jpg,,,,,,,,,,,,
null,,rt_plussign_withcolor,313209,green,,,,null,GW/teeth.jpg,GW/barrel.jpg,,,,,,,,,,,,
1129.8000001907349,,rt_thecrossant_black,314417,black_plus_sign,,,,50,,,1,1,,,,,,,,,,
null,,color_black,314520,black_plus_sign,,,,null,,,,,,,,,,,,,,
null,,learn_phase(without_color),316522,black_plus_sign,,,,null,GW/snail.jpg,GW/camera.jpg,,,,,,,,,,,,
null,,black_cross(without_color),317156,blue,,,,null,GW/snail.jpg,GW/camera.jpg,,,,,,,,,,,,
null,,rt_plussign_withcolor,317658,blue,,,,null,GW/snail.jpg,GW/camera.jpg,,,,,,,,,,,,
1318.5999994277954,,rt_thecrossant_black,319027,black_plus_sign,,,,49,,,1,1,,,,,,,,,,
null,,color_black,319129,black_plus_sign,,,,null,,,,,,,,,,,,,,
null,,learn_phase(without_color),321130,black_plus_sign,,,,null,GW/teeth.jpg,GW/hat.jpg,,,,,,,,,,,,
null,,black_cross(without_color),321864,green,,,,null,GW/teeth.jpg,GW/hat.jpg,,,,,,,,,,,,
null,,rt_plussign_withcolor,322366,green,,,,null,GW/teeth.jpg,GW/hat.jpg,,,,,,,,,,,,
1129.3999996185303,,rt_thecrossant_black,323636,black_plus_sign,,,,50,,,1,1,,,,,,,,,,
null,,color_black,323738,black_plus_sign,,,,null,,,,,,,,,,,,,,
null,,learn_phase(without_color),325740,black_plus_sign,,,,null,GW/wheelchair.jpg,GW/teeth.jpg,,,,,,,,,,,,
null,,black_cross(without_color),326401,green,,,,null,GW/wheelchair.jpg,GW/teeth.jpg,,,,,,,,,,,,
null,,rt_plussign_withcolor,326902,green,,,,null,GW/wheelchair.jpg,GW/teeth.jpg,,,,,,,,,,,,
1274.3999996185303,,rt_thecrossant_black,328261,black_plus_sign,,,,50,,,1,1,,,,,,,,,,
null,,color_black,328362,black_plus_sign,,,,null,,,,,,,,,,,,,,
null,,learn_phase(without_color),330364,black_plus_sign,,,,null,GW/wheelchair.jpg,GW/snail.jpg,,,,,,,,,,,,
null,,black_cross(without_color),331107,green,,,,null,GW/wheelchair.jpg,GW/snail.jpg,,,,,,,,,,,,
null,,rt_plussign_withcolor,331608,green,,,,null,GW/wheelchair.jpg,GW/snail.jpg,,,,,,,,,,,,
1249.3000001907349,,rt_thecrossant_black,332870,black_plus_sign,,,,50,,,1,1,,,,,,,,,,
null,,color_black,332972,black_plus_sign,,,,null,,,,,,,,,,,,,,
null,,learn_phase(without_color),334974,black_plus_sign,,,,null,GW/gong.jpg,GW/camera.jpg,,,,,,,,,,,,
null,,black_cross(without_color),336024,blue,,,,null,GW/gong.jpg,GW/camera.jpg,,,,,,,,,,,,
null,,rt_plussign_withcolor,336525,blue,,,,null,GW/gong.jpg,GW/camera.jpg,,,,,,,,,,,,
1161.4000005722046,,rt_thecrossant_black,337479,black_plus_sign,,,,49,,,1,1,,,,,,,,,,
null,,color_black,337581,black_plus_sign,,,,null,,,,,,,,,,,,,,
null,,learn_phase(without_color),339584,black_plus_sign,,,,null,GW/camera.jpg,GW/barrel.jpg,,,,,,,,,,,,
null,,black_cross(without_color),340542,green,,,,null,GW/camera.jpg,GW/barrel.jpg,,,,,,,,,,,,
null,,rt_plussign_withcolor,341044,green,,,,null,GW/camera.jpg,GW/barrel.jpg,,,,,,,,,,,,
1751.3999996185303,,rt_thecrossant_black,342090,black_plus_sign,,,,50,,,1,1,,,,,,,,,,
null,,color_black,342192,black_plus_sign,,,,null,,,,,,,,,,,,,,
null,,learn_phase(without_color),344194,black_plus_sign,,,,null,GW/wheelchair.jpg,GW/snail.jpg,,,,,,,,,,,,
null,,black_cross(without_color),345268,green,,,,null,GW/wheelchair.jpg,GW/snail.jpg,,,,,,,,,,,,
null,,rt_plussign_withcolor,345769,green,,,,null,GW/wheelchair.jpg,GW/snail.jpg,,,,,,,,,,,,
1539.5,,rt_thecrossant_black,346699,black_plus_sign,,,,50,,,1,1,,,,,,,,,,
null,,color_black,346800,black_plus_sign,,,,null,,,,,,,,,,,,,,
null,,learn_phase(without_color),348802,black_plus_sign,,,,null,GW/globe.jpg,GW/dustpan.jpg,,,,,,,,,,,,
null,,black_cross(without_color),349669,blue,,,,null,GW/globe.jpg,GW/dustpan.jpg,,,,,,,,,,,,
null,,rt_plussign_withcolor,350171,blue,,,,null,GW/globe.jpg,GW/dustpan.jpg,,,,,,,,,,,,
1674.8000001907349,,rt_thecrossant_black,351307,black_plus_sign,,,,49,,,1,1,,,,,,,,,,
null,,color_black,351409,black_plus_sign,,,,null,,,,,,,,,,,,,,
null,,learn_phase(without_color),353411,black_plus_sign,,,,null,GW/snail.jpg,GW/soldier.jpg,,,,,,,,,,,,
null,,black_cross(without_color),354029,green,,,,null,GW/snail.jpg,GW/soldier.jpg,,,,,,,,,,,,
null,,rt_plussign_withcolor,354531,green,,,,null,GW/snail.jpg,GW/soldier.jpg,,,,,,,,,,,,
1408.3000001907349,,rt_thecrossant_black,355916,black_plus_sign,,,,50,,,1,1,,,,,,,,,,
null,,color_black,356017,black_plus_sign,,,,null,,,,,,,,,,,,,,
null,,learn_phase(without_color),358018,black_plus_sign,,,,null,GW/soldier.jpg,GW/globe.jpg,,,,,,,,,,,,
null,,black_cross(without_color),358528,blue,,,,null,GW/soldier.jpg,GW/globe.jpg,,,,,,,,,,,,
null,,rt_plussign_withcolor,359029,blue,,,,null,GW/soldier.jpg,GW/globe.jpg,,,,,,,,,,,,
1108.1999998092651,,rt_thecrossant_black,360532,black_plus_sign,,,,49,,,1,1,,,,,,,,,,
null,,color_black,360634,black_plus_sign,,,,null,,,,,,,,,,,,,,
null,,learn_phase(without_color),362636,black_plus_sign,,,,null,GW/globe.jpg,GW/basket.jpg,,,,,,,,,,,,
null,,black_cross(without_color),363496,green,,,,null,GW/globe.jpg,GW/basket.jpg,,,,,,,,,,,,
null,,rt_plussign_withcolor,364003,green,,,,null,GW/globe.jpg,GW/basket.jpg,,,,,,,,,,,,
845,,rt_thecrossant_black,365148,black_plus_sign,,,,50,,,1,1,,,,,,,,,,
null,,color_black,365250,black_plus_sign,,,,null,,,,,,,,,,,,,,
null,,learn_phase(without_color),367251,black_plus_sign,,,,null,GW/jukebox.jpg,GW/wheelchair.jpg,,,,,,,,,,,,
null,,black_cross(without_color),368146,blue,,,,null,GW/jukebox.jpg,GW/wheelchair.jpg,,,,,,,,,,,,
468,,rt_plussign_withcolor,368647,blue,,,,49,GW/jukebox.jpg,GW/wheelchair.jpg,,,,,,,,,,,,
null,,rt_thecrossant_black,369756,black_plus_sign,,,,null,,,1,1,,,,,,,,,,
null,,color_black,369858,black_plus_sign,,,,null,,,,,,,,,,,,,,
null,,learn_phase(without_color),371860,black_plus_sign,,,,null,GW/wheelchair.jpg,GW/snail.jpg,,,,,,,,,,,,
null,,black_cross(without_color),372281,blue,,,,null,GW/wheelchair.jpg,GW/snail.jpg,,,,,,,,,,,,
null,,rt_plussign_withcolor,372783,blue,,,,null,GW/wheelchair.jpg,GW/snail.jpg,,,,,,,,,,,,
1747.5,,rt_thecrossant_black,374366,black_plus_sign,,,,49,,,1,1,,,,,,,,,,
null,,color_black,374467,black_plus_sign,,,,null,,,,,,,,,,,,,,
null,,learn_phase(without_color),376481,black_plus_sign,,,,null,GW/globe.jpg,GW/basket.jpg,,,,,,,,,,,,
null,,black_cross(without_color),376996,blue,,,,null,GW/globe.jpg,GW/basket.jpg,,,,,,,,,,,,
null,,rt_plussign_withcolor,377498,blue,,,,null,GW/globe.jpg,GW/basket.jpg,,,,,,,,,,,,
640.6000003814697,,rt_thecrossant_black,378989,black_plus_sign,,,,49,,,1,1,,,,,,,,,,
null,,color_black,379090,black_plus_sign,,,,null,,,,,,,,,,,,,,
null,,learn_phase(without_color),381092,black_plus_sign,,,,null,GW/wheelchair.jpg,GW/teeth.jpg,,,,,,,,,,,,
null,,black_cross(without_color),382141,green,,,,null,GW/wheelchair.jpg,GW/teeth.jpg,,,,,,,,,,,,
null,,rt_plussign_withcolor,382644,green,,,,null,GW/wheelchair.jpg,GW/teeth.jpg,,,,,,,,,,,,
1150.5,,rt_thecrossant_black,383602,black_plus_sign,,,,50,,,1,1,,,,,,,,,,
null,,color_black,383704,black_plus_sign,,,,null,,,,,,,,,,,,,,
null,,learn_phase(without_color),385707,black_plus_sign,,,,null,GW/globe.jpg,GW/dustpan.jpg,,,,,,,,,,,,
null,,black_cross(without_color),386511,green,,,,null,GW/globe.jpg,GW/dustpan.jpg,,,,,,,,,,,,
null,,rt_plussign_withcolor,387013,green,,,,null,GW/globe.jpg,GW/dustpan.jpg,,,,,,,,,,,,
2284.5,,rt_thecrossant_black,388226,black_plus_sign,,,,50,,,1,1,,,,,,,,,,
null,,color_black,388328,black_plus_sign,,,,null,,,,,,,,,,,,,,
null,,learn_phase(without_color),390329,black_plus_sign,,,,null,GW/soldier.jpg,GW/globe.jpg,,,,,,,,,,,,
null,,black_cross(without_color),391376,blue,,,,null,GW/soldier.jpg,GW/globe.jpg,,,,,,,,,,,,
null,,rt_plussign_withcolor,391877,blue,,,,null,GW/soldier.jpg,GW/globe.jpg,,,,,,,,,,,,
1177.3999996185303,,rt_thecrossant_black,392834,black_plus_sign,,,,49,,,1,1,,,,,,,,,,
null,,color_black,392936,black_plus_sign,,,,null,,,,,,,,,,,,,,
null,,learn_phase(without_color),394939,black_plus_sign,,,,null,GW/globe.jpg,GW/dustpan.jpg,,,,,,,,,,,,
null,,black_cross(without_color),395733,blue,,,,null,GW/globe.jpg,GW/dustpan.jpg,,,,,,,,,,,,
null,,rt_plussign_withcolor,396234,blue,,,,null,GW/globe.jpg,GW/dustpan.jpg,,,,,,,,,,,,
1492.5999994277954,,rt_thecrossant_black,397443,black_plus_sign,,,,49,,,1,1,,,,,,,,,,
null,,color_black,397544,black_plus_sign,,,,null,,,,,,,,,,,,,,
null,,learn_phase(without_color),399546,black_plus_sign,,,,null,GW/snail.jpg,GW/camera.jpg,,,,,,,,,,,,
null,,black_cross(without_color),400098,blue,,,,null,GW/snail.jpg,GW/camera.jpg,,,,,,,,,,,,
null,,rt_plussign_withcolor,400600,blue,,,,null,GW/snail.jpg,GW/camera.jpg,,,,,,,,,,,,
1470.6000003814697,,rt_thecrossant_black,402051,black_plus_sign,,,,49,,,1,1,,,,,,,,,,
null,,color_black,402153,black_plus_sign,,,,null,,,,,,,,,,,,,,
null,,learn_phase(without_color),404156,black_plus_sign,,,,null,GW/soldier.jpg,GW/globe.jpg,,,,,,,,,,,,
null,,black_cross(without_color),405107,blue,,,,null,GW/soldier.jpg,GW/globe.jpg,,,,,,,,,,,,
null,,rt_plussign_withcolor,405609,blue,,,,null,GW/soldier.jpg,GW/globe.jpg,,,,,,,,,,,,
904,,rt_thecrossant_black,406660,black_plus_sign,,,,49,,,1,1,,,,,,,,,,
null,,color_black,406762,black_plus_sign,,,,null,,,,,,,,,,,,,,
null,,learn_phase(without_color),408764,black_plus_sign,,,,null,GW/soldier.jpg,GW/gong.jpg,,,,,,,,,,,,
null,,black_cross(without_color),409851,green,,,,null,GW/soldier.jpg,GW/gong.jpg,,,,,,,,,,,,
null,,rt_plussign_withcolor,410353,green,,,,null,GW/soldier.jpg,GW/gong.jpg,,,,,,,,,,,,
null,,rt_thecrossant_black,411269,black_plus_sign,,,,null,,,,1,,,,,,,,,,
null,,color_black,411370,black_plus_sign,,,,null,,,,,,,,,,,,,,
null,,learn_phase(without_color),413371,black_plus_sign,,,,null,GW/teeth.jpg,GW/hat.jpg,,,,,,,,,,,,
null,,black_cross(without_color),414248,blue,,,,null,GW/teeth.jpg,GW/hat.jpg,,,,,,,,,,,,
null,,rt_plussign_withcolor,414750,blue,,,,null,GW/teeth.jpg,GW/hat.jpg,,,,,,,,,,,,
1490.5999994277954,,rt_thecrossant_black,415876,black_plus_sign,,,,49,,,1,1,,,,,,,,,,
null,,color_black,415977,black_plus_sign,,,,null,,,,,,,,,,,,,,
null,,learn_phase(without_color),417979,black_plus_sign,,,,null,GW/globe.jpg,GW/dustpan.jpg,,,,,,,,,,,,
null,,black_cross(without_color),418622,green,,,,null,GW/globe.jpg,GW/dustpan.jpg,,,,,,,,,,,,
null,,rt_plussign_withcolor,419123,green,,,,null,GW/globe.jpg,GW/dustpan.jpg,,,,,,,,,,,,
1147.4000005722046,,rt_thecrossant_black,420484,black_plus_sign,,,,50,,,1,1,,,,,,,,,,
null,,color_black,420585,black_plus_sign,,,,null,,,,,,,,,,,,,,
null,,learn_phase(without_color),422588,black_plus_sign,,,,null,GW/soldier.jpg,GW/globe.jpg,,,,,,,,,,,,
null,,black_cross(without_color),423665,green,,,,null,GW/soldier.jpg,GW/globe.jpg,,,,,,,,,,,,
null,,rt_plussign_withcolor,424166,green,,,,null,GW/soldier.jpg,GW/globe.jpg,,,,,,,,,,,,
1355.7000007629395,,rt_thecrossant_black,425093,black_plus_sign,,,,50,,,1,1,,,,,,,,,,
null,,color_black,425195,black_plus_sign,,,,null,,,,,,,,,,,,,,
null,,learn_phase(without_color),427198,black_plus_sign,,,,null,GW/gong.jpg,GW/camera.jpg,,,,,,,,,,,,
null,,black_cross(without_color),427620,green,,,,null,GW/gong.jpg,GW/camera.jpg,,,,,,,,,,,,
null,,rt_plussign_withcolor,428122,green,,,,null,GW/gong.jpg,GW/camera.jpg,,,,,,,,,,,,
2399.699999809265,,rt_thecrossant_black,429703,black_plus_sign,,,,49,,,0,0.9818181818181818,,,,,,,,,,
null,,color_black,429805,black_plus_sign,,,,null,,,,,,,,,,,,,,
null,,learn_phase(without_color),431807,black_plus_sign,,,,null,GW/soldier.jpg,GW/globe.jpg,,,,,,,,,,,,
null,,black_cross(without_color),432230,blue,,,,null,GW/soldier.jpg,GW/globe.jpg,,,,,,,,,,,,
null,,rt_plussign_withcolor,432731,blue,,,,null,GW/soldier.jpg,GW/globe.jpg,,,,,,,,,,,,
822.1999998092651,,rt_thecrossant_black,434313,black_plus_sign,,,,49,,,1,0.9821428571428571,,,,,,,,,,
null,,color_black,434414,black_plus_sign,,,,null,,,,,,,,,,,,,,
null,,learn_phase(without_color),436416,black_plus_sign,,,,null,GW/basket.jpg,GW/paint.jpg,,,,,,,,,,,,
null,,black_cross(without_color),437081,blue,,,,null,GW/basket.jpg,GW/paint.jpg,,,,,,,,,,,,
null,,rt_plussign_withcolor,437582,blue,,,,null,GW/basket.jpg,GW/paint.jpg,,,,,,,,,,,,
1612.3000001907349,,rt_thecrossant_black,438921,black_plus_sign,,,,49,,,1,0.9824561403508771,,,,,,,,,,
null,,color_black,439023,black_plus_sign,,,,null,,,,,,,,,,,,,,
null,,learn_phase(without_color),441024,black_plus_sign,,,,null,GW/globe.jpg,GW/gong.jpg,,,,,,,,,,,,
null,,black_cross(without_color),442078,blue,,,,null,GW/globe.jpg,GW/gong.jpg,,,,,,,,,,,,
null,,rt_plussign_withcolor,442580,blue,,,,null,GW/globe.jpg,GW/gong.jpg,,,,,,,,,,,,
1148.0999994277954,,rt_thecrossant_black,443530,black_plus_sign,,,,49,,,1,0.9827586206896551,,,,,,,,,,
null,,color_black,443631,black_plus_sign,,,,null,,,,,,,,,,,,,,
null,,learn_phase(without_color),445634,black_plus_sign,,,,null,GW/wheelchair.jpg,GW/snail.jpg,,,,,,,,,,,,
null,,black_cross(without_color),446569,blue,,,,null,GW/wheelchair.jpg,GW/snail.jpg,,,,,,,,,,,,
null,,rt_plussign_withcolor,447071,blue,,,,null,GW/wheelchair.jpg,GW/snail.jpg,,,,,,,,,,,,
1580.3999996185303,,rt_thecrossant_black,448141,black_plus_sign,,,,49,,,1,0.9830508474576272,,,,,,,,,,
null,,color_black,448244,black_plus_sign,,,,null,,,,,,,,,,,,,,
null,,learn_phase(without_color),450245,black_plus_sign,,,,null,GW/snail.jpg,GW/soldier.jpg,,,,,,,,,,,,
null,,black_cross(without_color),451124,blue,,,,null,GW/snail.jpg,GW/soldier.jpg,,,,,,,,,,,,
null,,rt_plussign_withcolor,451626,blue,,,,null,GW/snail.jpg,GW/soldier.jpg,,,,,,,,,,,,
1617.8000001907349,,rt_thecrossant_black,452752,black_plus_sign,,,,49,,,1,0.9833333333333333,,,,,,,,,,
null,,color_black,452854,black_plus_sign,,,,null,,,,,,,,,,,,,,
null,,learn_phase(without_color),454857,black_plus_sign,,,,null,GW/teeth.jpg,GW/barrel.jpg,,,,,,,,,,,,
null,,black_cross(without_color),455531,green,,,,null,GW/teeth.jpg,GW/barrel.jpg,,,,,,,,,,,,
null,,rt_plussign_withcolor,456033,green,,,,null,GW/teeth.jpg,GW/barrel.jpg,,,,,,,,,,,,
1571.2000007629395,,rt_thecrossant_black,457361,black_plus_sign,,,,50,,,1,0.9836065573770492,,,,,,,,,,
null,,color_black,457463,black_plus_sign,,,,null,,,,,,,,,,,,,,
null,,learn_phase(without_color),459465,black_plus_sign,,,,null,GW/globe.jpg,GW/gong.jpg,,,,,,,,,,,,
null,,black_cross(without_color),460205,green,,,,null,GW/globe.jpg,GW/gong.jpg,,,,,,,,,,,,
null,,rt_plussign_withcolor,460707,green,,,,null,GW/globe.jpg,GW/gong.jpg,,,,,,,,,,,,
1553.8999996185303,,rt_thecrossant_black,461971,black_plus_sign,,,,50,,,1,0.9838709677419355,,,,,,,,,,
null,,color_black,462085,black_plus_sign,,,,null,,,,,,,,,,,,,,
null,,learn_phase(without_color),464086,black_plus_sign,,,,null,GW/snail.jpg,GW/soldier.jpg,,,,,,,,,,,,
null,,black_cross(without_color),464874,blue,,,,null,GW/snail.jpg,GW/soldier.jpg,,,,,,,,,,,,
null,,rt_plussign_withcolor,465376,blue,,,,null,GW/snail.jpg,GW/soldier.jpg,,,,,,,,,,,,
1176.5999994277954,,rt_thecrossant_black,466592,black_plus_sign,,,,49,,,1,0.9841269841269841,,,,,,,,,,
null,,color_black,466693,black_plus_sign,,,,null,,,,,,,,,,,,,,
null,,learn_phase(without_color),468694,black_plus_sign,,,,null,GW/globe.jpg,GW/gong.jpg,,,,,,,,,,,,
null,,black_cross(without_color),469342,green,,,,null,GW/globe.jpg,GW/gong.jpg,,,,,,,,,,,,
null,,rt_plussign_withcolor,469844,green,,,,null,GW/globe.jpg,GW/gong.jpg,,,,,,,,,,,,
1491.6999998092651,,rt_thecrossant_black,471199,black_plus_sign,,,,50,,,1,0.984375,,,,,,,,,,
null,,color_black,471302,black_plus_sign,,,,null,,,,,,,,,,,,,,
null,,learn_phase(without_color),473303,black_plus_sign,,,,null,GW/soldier.jpg,GW/gong.jpg,,,,,,,,,,,,
null,,black_cross(without_color),474157,blue,,,,null,GW/soldier.jpg,GW/gong.jpg,,,,,,,,,,,,
null,,rt_plussign_withcolor,474658,blue,,,,null,GW/soldier.jpg,GW/gong.jpg,,,,,,,,,,,,
1312.8000001907349,,rt_thecrossant_black,475821,black_plus_sign,,,,49,,,1,0.9846153846153847,,,,,,,,,,
null,,color_black,475922,black_plus_sign,,,,null,,,,,,,,,,,,,,
null,,learn_phase(without_color),477925,black_plus_sign,,,,null,GW/snail.jpg,GW/soldier.jpg,,,,,,,,,,,,
null,,black_cross(without_color),478794,green,,,,null,GW/snail.jpg,GW/soldier.jpg,,,,,,,,,,,,
null,,rt_plussign_withcolor,479296,green,,,,null,GW/snail.jpg,GW/soldier.jpg,,,,,,,,,,,,
1457.3000001907349,,rt_thecrossant_black,480430,black_plus_sign,,,,50,,,1,0.9848484848484849,,,,,,,,,,
null,,color_black,480532,black_plus_sign,,,,null,,,,,,,,,,,,,,
null,,learn_phase(without_color),482534,black_plus_sign,,,,null,GW/snail.jpg,GW/camera.jpg,,,,,,,,,,,,
null,,black_cross(without_color),483328,green,,,,null,GW/snail.jpg,GW/camera.jpg,,,,,,,,,,,,
null,,rt_plussign_withcolor,483830,green,,,,null,GW/snail.jpg,GW/camera.jpg,,,,,,,,,,,,
1651.3999996185303,,rt_thecrossant_black,485038,black_plus_sign,,,,50,,,1,0.9850746268656716,,,,,,,,,,
null,,color_black,485139,black_plus_sign,,,,null,,,,,,,,,,,,,,
null,,learn_phase(without_color),487141,black_plus_sign,,,,null,GW/gong.jpg,GW/camera.jpg,,,,,,,,,,,,
null,,black_cross(without_color),488100,blue,,,,null,GW/gong.jpg,GW/camera.jpg,,,,,,,,,,,,
null,,rt_plussign_withcolor,488601,blue,,,,null,GW/gong.jpg,GW/camera.jpg,,,,,,,,,,,,
1244.0999994277954,,rt_thecrossant_black,489662,black_plus_sign,,,,49,,,1,0.9852941176470589,,,,,,,,,,
null,,color_black,489774,black_plus_sign,,,,null,,,,,,,,,,,,,,
null,,learn_phase(without_color),491775,black_plus_sign,,,,null,GW/basket.jpg,GW/gong.jpg,,,,,,,,,,,,
null,,black_cross(without_color),492215,green,,,,null,GW/basket.jpg,GW/gong.jpg,,,,,,,,,,,,
null,,rt_plussign_withcolor,492716,green,,,,null,GW/basket.jpg,GW/gong.jpg,,,,,,,,,,,,
null,,rt_thecrossant_black,494279,black_plus_sign,,,,null,,,,0.9852941176470589,,,,,,,,,,
null,,color_black,494380,black_plus_sign,,,,null,,,,,,,,,,,,,,
null,,learn_phase(without_color),496382,black_plus_sign,,,,null,GW/jukebox.jpg,GW/wheelchair.jpg,,,,,,,,,,,,
null,,black_cross(without_color),496811,blue,,,,null,GW/jukebox.jpg,GW/wheelchair.jpg,,,,,,,,,,,,
null,,rt_plussign_withcolor,497313,blue,,,,null,GW/jukebox.jpg,GW/wheelchair.jpg,,,,,,,,,,,,
1031,,rt_thecrossant_black,498897,black_plus_sign,,,,49,,,1,0.9855072463768116,,,,,,,,,,
null,,color_black,498999,black_plus_sign,,,,null,,,,,,,,,,,,,,
null,,learn_phase(without_color),501001,black_plus_sign,,,,null,GW/teeth.jpg,GW/hat.jpg,,,,,,,,,,,,
null,,black_cross(without_color),501408,green,,,,null,GW/teeth.jpg,GW/hat.jpg,,,,,,,,,,,,
null,,rt_plussign_withcolor,501909,green,,,,null,GW/teeth.jpg,GW/hat.jpg,,,,,,,,,,,,
1018.4000005722046,,rt_thecrossant_black,503506,black_plus_sign,,,,50,,,1,0.9857142857142858,,,,,,,,,,
null,,color_black,503608,black_plus_sign,,,,null,,,,,,,,,,,,,,
null,,learn_phase(without_color),505611,black_plus_sign,,,,null,GW/wheelchair.jpg,GW/teeth.jpg,,,,,,,,,,,,
null,,black_cross(without_color),506622,green,,,,null,GW/wheelchair.jpg,GW/teeth.jpg,,,,,,,,,,,,
null,,rt_plussign_withcolor,507124,green,,,,null,GW/wheelchair.jpg,GW/teeth.jpg,,,,,,,,,,,,
842.5,,rt_thecrossant_black,508116,black_plus_sign,,,,50,,,1,0.9859154929577465,,,,,,,,,,
null,,color_black,508219,black_plus_sign,,,,null,,,,,,,,,,,,,,
null,,learn_phase(without_color),510220,black_plus_sign,,,,null,GW/teeth.jpg,GW/barrel.jpg,,,,,,,,,,,,
null,,black_cross(without_color),511124,green,,,,null,GW/teeth.jpg,GW/barrel.jpg,,,,,,,,,,,,
null,,rt_plussign_withcolor,511625,green,,,,null,GW/teeth.jpg,GW/barrel.jpg,,,,,,,,,,,,
1697.5,,rt_thecrossant_black,512725,black_plus_sign,,,,50,,,1,0.9861111111111112,,,,,,,,,,
null,,color_black,512827,black_plus_sign,,,,null,,,,,,,,,,,,,,
null,,learn_phase(without_color),514829,black_plus_sign,,,,null,GW/camera.jpg,GW/barrel.jpg,,,,,,,,,,,,
null,,black_cross(without_color),515552,blue,,,,null,GW/camera.jpg,GW/barrel.jpg,,,,,,,,,,,,
null,,rt_plussign_withcolor,516053,blue,,,,null,GW/camera.jpg,GW/barrel.jpg,,,,,,,,,,,,
2036.8999996185303,,rt_thecrossant_black,517334,black_plus_sign,,,,49,,,1,0.9863013698630136,,,,,,,,,,
null,,color_black,517436,black_plus_sign,,,,null,,,,,,,,,,,,,,
null,,learn_phase(without_color),519438,black_plus_sign,,,,null,GW/wheelchair.jpg,GW/snail.jpg,,,,,,,,,,,,
null,,black_cross(without_color),520472,green,,,,null,GW/wheelchair.jpg,GW/snail.jpg,,,,,,,,,,,,
null,,rt_plussign_withcolor,520974,green,,,,null,GW/wheelchair.jpg,GW/snail.jpg,,,,,,,,,,,,
1451.2000007629395,,rt_thecrossant_black,521942,black_plus_sign,,,,50,,,1,0.9864864864864865,,,,,,,,,,
null,,color_black,522043,black_plus_sign,,,,null,,,,,,,,,,,,,,
null,,learn_phase(without_color),524045,black_plus_sign,,,,null,GW/soldier.jpg,GW/globe.jpg,,,,,,,,,,,,
null,,black_cross(without_color),524940,blue,,,,null,GW/soldier.jpg,GW/globe.jpg,,,,,,,,,,,,
null,,rt_plussign_withcolor,525442,blue,,,,null,GW/soldier.jpg,GW/globe.jpg,,,,,,,,,,,,
1607.3000001907349,,rt_thecrossant_black,526550,black_plus_sign,,,,49,,,1,0.9866666666666667,,,,,,,,,,
null,,color_black,526652,black_plus_sign,,,,null,,,,,,,,,,,,,,
null,,learn_phase(without_color),528662,black_plus_sign,,,,null,GW/snail.jpg,GW/camera.jpg,,,,,,,,,,,,
null,,black_cross(without_color),529411,blue,,,,null,GW/snail.jpg,GW/camera.jpg,,,,,,,,,,,,
null,,rt_plussign_withcolor,529913,blue,,,,null,GW/snail.jpg,GW/camera.jpg,,,,,,,,,,,,
1253.3000001907349,,rt_thecrossant_black,531166,black_plus_sign,,,,49,,,1,0.9868421052631579,,,,,,,,,,
null,,color_black,531269,black_plus_sign,,,,null,,,,,,,,,,,,,,
null,,learn_phase(without_color),533271,black_plus_sign,,,,null,GW/soldier.jpg,GW/globe.jpg,,,,,,,,,,,,
null,,black_cross(without_color),533981,blue,,,,null,GW/soldier.jpg,GW/globe.jpg,,,,,,,,,,,,
null,,rt_plussign_withcolor,534490,blue,,,,null,GW/soldier.jpg,GW/globe.jpg,,,,,,,,,,,,
1170.6999998092651,,rt_thecrossant_black,535785,black_plus_sign,,,,49,,,1,0.987012987012987,,,,,,,,,,
null,,color_black,535896,black_plus_sign,,,,null,,,,,,,,,,,,,,
null,,learn_phase(without_color),537898,black_plus_sign,,,,null,GW/snail.jpg,GW/soldier.jpg,,,,,,,,,,,,
null,,black_cross(without_color),538998,blue,,,,null,GW/snail.jpg,GW/soldier.jpg,,,,,,,,,,,,
482.5999994277954,,rt_plussign_withcolor,539499,blue,,,,49,GW/snail.jpg,GW/soldier.jpg,,,,,,,,,,,,
null,,rt_thecrossant_black,540401,black_plus_sign,,,,null,,,1,0.9871794871794872,,,,,,,,,,
null,,color_black,540504,black_plus_sign,,,,null,,,,,,,,,,,,,,
null,,learn_phase(without_color),542506,black_plus_sign,,,,null,GW/teeth.jpg,GW/hat.jpg,,,,,,,,,,,,
null,,black_cross(without_color),543157,blue,,,,null,GW/teeth.jpg,GW/hat.jpg,,,,,,,,,,,,
403.5,,rt_plussign_withcolor,543659,blue,,,,49,GW/teeth.jpg,GW/hat.jpg,,,,,,,,,,,,
null,,rt_thecrossant_black,545011,black_plus_sign,,,,null,,,1,0.9873417721518988,,,,,,,,,,
null,,color_black,545114,black_plus_sign,,,,null,,,,,,,,,,,,,,
null,,learn_phase(without_color),547116,black_plus_sign,,,,null,GW/wheelchair.jpg,GW/teeth.jpg,,,,,,,,,,,,
null,,black_cross(without_color),547760,blue,,,,null,GW/wheelchair.jpg,GW/teeth.jpg,,,,,,,,,,,,
451,,rt_plussign_withcolor,548262,blue,,,,49,GW/wheelchair.jpg,GW/teeth.jpg,,,,,,,,,,,,
null,,rt_thecrossant_black,549621,black_plus_sign,,,,null,,,1,0.9875,,,,,,,,,,
null,,color_black,549724,black_plus_sign,,,,null,,,,,,,,,,,,,,
null,,learn_phase(without_color),551726,black_plus_sign,,,,null,GW/snail.jpg,GW/soldier.jpg,,,,,,,,,,,,
null,,black_cross(without_color),552793,green,,,,null,GW/snail.jpg,GW/soldier.jpg,,,,,,,,,,,,
null,,rt_plussign_withcolor,553295,green,,,,null,GW/snail.jpg,GW/soldier.jpg,,,,,,,,,,,,
1339.9000005722046,,rt_thecrossant_black,554232,black_plus_sign,,,,50,,,1,0.9876543209876543,,,,,,,,,,
null,,color_black,554334,black_plus_sign,,,,null,,,,,,,,,,,,,,
null,,learn_phase(without_color),556336,black_plus_sign,,,,null,GW/teeth.jpg,GW/barrel.jpg,,,,,,,,,,,,
null,,black_cross(without_color),556818,blue,,,,null,GW/teeth.jpg,GW/barrel.jpg,,,,,,,,,,,,
null,,rt_plussign_withcolor,557320,blue,,,,null,GW/teeth.jpg,GW/barrel.jpg,,,,,,,,,,,,
1334.5999994277954,,rt_thecrossant_black,558843,black_plus_sign,,,,49,,,1,0.9878048780487805,,,,,,,,,,
null,,color_black,558945,black_plus_sign,,,,null,,,,,,,,,,,,,,
null,,learn_phase(without_color),560947,black_plus_sign,,,,null,GW/camera.jpg,GW/barrel.jpg,,,,,,,,,,,,
null,,black_cross(without_color),561793,green,,,,null,GW/camera.jpg,GW/barrel.jpg,,,,,,,,,,,,
null,,rt_plussign_withcolor,562295,green,,,,null,GW/camera.jpg,GW/barrel.jpg,,,,,,,,,,,,
1024,,rt_thecrossant_black,563452,black_plus_sign,,,,50,,,1,0.9879518072289156,,,,,,,,,,
null,,color_black,563554,black_plus_sign,,,,null,,,,,,,,,,,,,,
null,,learn_phase(without_color),565556,black_plus_sign,,,,null,GW/basket.jpg,GW/gong.jpg,,,,,,,,,,,,
null,,black_cross(without_color),566483,green,,,,null,GW/basket.jpg,GW/gong.jpg,,,,,,,,,,,,
null,,rt_plussign_withcolor,566984,green,,,,null,GW/basket.jpg,GW/gong.jpg,,,,,,,,,,,,
1526.1000003814697,,rt_thecrossant_black,568061,black_plus_sign,,,,50,,,1,0.9880952380952381,,,,,,,,,,
null,,color_black,568163,black_plus_sign,,,,null,,,,,,,,,,,,,,
null,,learn_phase(without_color),570164,black_plus_sign,,,,null,GW/soldier.jpg,GW/gong.jpg,,,,,,,,,,,,
null,,black_cross(without_color),570933,blue,,,,null,GW/soldier.jpg,GW/gong.jpg,,,,,,,,,,,,
null,,rt_plussign_withcolor,571434,blue,,,,null,GW/soldier.jpg,GW/gong.jpg,,,,,,,,,,,,
1212,,rt_thecrossant_black,572675,black_plus_sign,,,,49,,,1,0.9882352941176471,,,,,,,,,,
null,,color_black,572777,black_plus_sign,,,,null,,,,,,,,,,,,,,
null,,learn_phase(without_color),574780,black_plus_sign,,,,null,GW/jukebox.jpg,GW/wheelchair.jpg,,,,,,,,,,,,
null,,black_cross(without_color),575352,green,,,,null,GW/jukebox.jpg,GW/wheelchair.jpg,,,,,,,,,,,,
null,,rt_plussign_withcolor,575854,green,,,,null,GW/jukebox.jpg,GW/wheelchair.jpg,,,,,,,,,,,,
1410.8000001907349,,rt_thecrossant_black,577285,black_plus_sign,,,,50,,,1,0.9883720930232558,,,,,,,,,,
null,,color_black,577387,black_plus_sign,,,,null,,,,,,,,,,,,,,
null,,learn_phase(without_color),579399,black_plus_sign,,,,null,GW/snail.jpg,GW/soldier.jpg,,,,,,,,,,,,
null,,black_cross(without_color),579975,green,,,,null,GW/snail.jpg,GW/soldier.jpg,,,,,,,,,,,,
250.10000038146973,,rt_plussign_withcolor,580476,green,,,,49,GW/snail.jpg,GW/soldier.jpg,,,,,,,,,,,,
null,,rt_thecrossant_black,581903,black_plus_sign,,,,50,,,0,0.9770114942528736,,,,,,,,,,
null,,color_black,582005,black_plus_sign,,,,null,,,,,,,,,,,,,,
null,,learn_phase(without_color),584009,black_plus_sign,,,,null,GW/wheelchair.jpg,GW/teeth.jpg,,,,,,,,,,,,
null,,black_cross(without_color),585102,blue,,,,null,GW/wheelchair.jpg,GW/teeth.jpg,,,,,,,,,,,,
null,,rt_plussign_withcolor,585604,blue,,,,null,GW/wheelchair.jpg,GW/teeth.jpg,,,,,,,,,,,,
1495.1000003814697,,rt_thecrossant_black,586514,black_plus_sign,,,,49,,,1,0.9772727272727273,,,,,,,,,,
null,,color_black,586615,black_plus_sign,,,,null,,,,,,,,,,,,,,
null,,learn_phase(without_color),588616,black_plus_sign,,,,null,GW/camera.jpg,GW/barrel.jpg,,,,,,,,,,,,
null,,black_cross(without_color),589033,green,,,,null,GW/camera.jpg,GW/barrel.jpg,,,,,,,,,,,,
null,,rt_plussign_withcolor,589534,green,,,,null,GW/camera.jpg,GW/barrel.jpg,,,,,,,,,,,,
1677.8000001907349,,rt_thecrossant_black,591123,black_plus_sign,,,,50,,,1,0.9775280898876404,,,,,,,,,,
null,,color_black,591224,black_plus_sign,,,,null,,,,,,,,,,,,,,
null,,learn_phase(without_color),593226,black_plus_sign,,,,null,GW/soldier.jpg,GW/gong.jpg,,,,,,,,,,,,
null,,black_cross(without_color),594248,blue,,,,null,GW/soldier.jpg,GW/gong.jpg,,,,,,,,,,,,
null,,rt_plussign_withcolor,594750,blue,,,,null,GW/soldier.jpg,GW/gong.jpg,,,,,,,,,,,,
1279.5,,rt_thecrossant_black,595732,black_plus_sign,,,,49,,,1,0.9777777777777777,,,,,,,,,,
null,,color_black,595833,black_plus_sign,,,,null,,,,,,,,,,,,,,
null,,learn_phase(without_color),597835,black_plus_sign,,,,null,GW/globe.jpg,GW/gong.jpg,,,,,,,,,,,,
null,,black_cross(without_color),598715,blue,,,,null,GW/globe.jpg,GW/gong.jpg,,,,,,,,,,,,
null,,rt_plussign_withcolor,599217,blue,,,,null,GW/globe.jpg,GW/gong.jpg,,,,,,,,,,,,
1357.4000005722046,,rt_thecrossant_black,600342,black_plus_sign,,,,49,,,1,0.978021978021978,,,,,,,,,,
null,,color_black,600444,black_plus_sign,,,,null,,,,,,,,,,,,,,
null,,learn_phase(without_color),602446,black_plus_sign,,,,null,GW/globe.jpg,GW/basket.jpg,,,,,,,,,,,,
null,,black_cross(without_color),603217,blue,,,,null,GW/globe.jpg,GW/basket.jpg,,,,,,,,,,,,
null,,rt_plussign_withcolor,603718,blue,,,,null,GW/globe.jpg,GW/basket.jpg,,,,,,,,,,,,
1413.1999998092651,,rt_thecrossant_black,604950,black_plus_sign,,,,49,,,1,0.9782608695652174,,,,,,,,,,
null,,color_black,605052,black_plus_sign,,,,null,,,,,,,,,,,,,,
null,,learn_phase(without_color),607054,black_plus_sign,,,,null,GW/teeth.jpg,GW/barrel.jpg,,,,,,,,,,,,
null,,black_cross(without_color),607887,green,,,,null,GW/teeth.jpg,GW/barrel.jpg,,,,,,,,,,,,
null,,rt_plussign_withcolor,608389,green,,,,null,GW/teeth.jpg,GW/barrel.jpg,,,,,,,,,,,,
1231.1999998092651,,rt_thecrossant_black,609559,black_plus_sign,,,,50,,,1,0.978494623655914,,,,,,,,,,
null,,color_black,609662,black_plus_sign,,,,null,,,,,,,,,,,,,,
null,,learn_phase(without_color),611664,black_plus_sign,,,,null,GW/globe.jpg,GW/basket.jpg,,,,,,,,,,,,
null,,black_cross(without_color),612720,green,,,,null,GW/globe.jpg,GW/basket.jpg,,,,,,,,,,,,
null,,rt_plussign_withcolor,613222,green,,,,null,GW/globe.jpg,GW/basket.jpg,,,,,,,,,,,,
1429.6000003814697,,rt_thecrossant_black,614169,black_plus_sign,,,,50,,,1,0.9787234042553191,,,,,,,,,,
null,,color_black,614270,black_plus_sign,,,,null,,,,,,,,,,,,,,
null,,learn_phase(without_color),616271,black_plus_sign,,,,null,GW/jukebox.jpg,GW/wheelchair.jpg,,,,,,,,,,,,
null,,black_cross(without_color),616841,green,,,,null,GW/jukebox.jpg,GW/wheelchair.jpg,,,,,,,,,,,,
null,,rt_plussign_withcolor,617343,green,,,,null,GW/jukebox.jpg,GW/wheelchair.jpg,,,,,,,,,,,,
1574.3999996185303,,rt_thecrossant_black,618779,black_plus_sign,,,,50,,,1,0.9789473684210527,,,,,,,,,,
null,,color_black,618881,black_plus_sign,,,,null,,,,,,,,,,,,,,
null,,learn_phase(without_color),620884,black_plus_sign,,,,null,GW/snail.jpg,GW/camera.jpg,,,,,,,,,,,,
null,,black_cross(without_color),621737,green,,,,null,GW/snail.jpg,GW/camera.jpg,,,,,,,,,,,,
null,,rt_plussign_withcolor,622238,green,,,,null,GW/snail.jpg,GW/camera.jpg,,,,,,,,,,,,
1232.0999994277954,,rt_thecrossant_black,623390,black_plus_sign,,,,50,,,1,0.9791666666666666,,,,,,,,,,
null,,color_black,623505,black_plus_sign,,,,null,,,,,,,,,,,,,,
null,,learn_phase(without_color),625508,black_plus_sign,,,,null,GW/globe.jpg,GW/basket.jpg,,,,,,,,,,,,
null,,black_cross(without_color),626055,green,,,,null,GW/globe.jpg,GW/basket.jpg,,,,,,,,,,,,
null,,rt_plussign_withcolor,626557,green,,,,null,GW/globe.jpg,GW/basket.jpg,,,,,,,,,,,,
1834.5,,rt_thecrossant_black,628014,black_plus_sign,,,,50,,,1,0.979381443298969,,,,,,,,,,
null,,color_black,628116,black_plus_sign,,,,null,,,,,,,,,,,,,,
null,,learn_phase(without_color),630118,black_plus_sign,,,,null,GW/gong.jpg,GW/camera.jpg,,,,,,,,,,,,
null,,black_cross(without_color),630909,green,,,,null,GW/gong.jpg,GW/camera.jpg,,,,,,,,,,,,
null,,rt_plussign_withcolor,631411,green,,,,null,GW/gong.jpg,GW/camera.jpg,,,,,,,,,,,,
1260.1999998092651,,rt_thecrossant_black,632623,black_plus_sign,,,,50,,,1,0.9795918367346939,,,,,,,,,,
null,,color_black,632725,black_plus_sign,,,,null,,,,,,,,,,,,,,
null,,learn_phase(without_color),634727,black_plus_sign,,,,null,GW/globe.jpg,GW/gong.jpg,,,,,,,,,,,,
null,,black_cross(without_color),635801,green,,,,null,GW/globe.jpg,GW/gong.jpg,,,,,,,,,,,,
null,,rt_plussign_withcolor,636303,green,,,,null,GW/globe.jpg,GW/gong.jpg,,,,,,,,,,,,
1228.8000001907349,,rt_thecrossant_black,637243,black_plus_sign,,,,50,,,1,0.9797979797979798,,,,,,,,,,
null,,color_black,637344,black_plus_sign,,,,null,,,,,,,,,,,,,,
null,,learn_phase(without_color),639348,black_plus_sign,,,,null,GW/camera.jpg,GW/barrel.jpg,,,,,,,,,,,,
null,,black_cross(without_color),640239,green,,,,null,GW/camera.jpg,GW/barrel.jpg,,,,,,,,,,,,
null,,rt_plussign_withcolor,640742,green,,,,null,GW/camera.jpg,GW/barrel.jpg,,,,,,,,,,,,
1608.5999994277954,,rt_thecrossant_black,641854,black_plus_sign,,,,50,,,1,0.98,,,,,,,,,,
null,,color_black,641957,black_plus_sign,,,,null,,,,,,,,,,,,,,
null,,learn_phase(without_color),643958,black_plus_sign,,,,null,GW/gong.jpg,GW/camera.jpg,,,,,,,,,,,,
null,,black_cross(without_color),644883,blue,,,,null,GW/gong.jpg,GW/camera.jpg,,,,,,,,,,,,
null,,rt_plussign_withcolor,645384,blue,,,,null,GW/gong.jpg,GW/camera.jpg,,,,,,,,,,,,
1515.1000003814697,,rt_thecrossant_black,646465,black_plus_sign,,,,49,,,1,0.9801980198019802,,,,,,,,,,
null,,color_black,646567,black_plus_sign,,,,null,,,,,,,,,,,,,,
null,,learn_phase(without_color),648570,black_plus_sign,,,,null,GW/basket.jpg,GW/gong.jpg,,,,,,,,,,,,
null,,black_cross(without_color),649610,green,,,,null,GW/basket.jpg,GW/gong.jpg,,,,,,,,,,,,
null,,rt_plussign_withcolor,650111,green,,,,null,GW/basket.jpg,GW/gong.jpg,,,,,,,,,,,,
1647.1000003814697,,rt_thecrossant_black,651076,black_plus_sign,,,,50,,,1,0.9803921568627451,,,,,,,,,,
null,,color_black,651177,black_plus_sign,,,,null,,,,,,,,,,,,,,
null,,learn_phase(without_color),653180,black_plus_sign,,,,null,GW/camera.jpg,GW/barrel.jpg,,,,,,,,,,,,
null,,black_cross(without_color),654198,blue,,,,null,GW/camera.jpg,GW/barrel.jpg,,,,,,,,,,,,
null,,rt_plussign_withcolor,654701,blue,,,,null,GW/camera.jpg,GW/barrel.jpg,,,,,,,,,,,,
1368.1999998092651,,rt_thecrossant_black,655685,black_plus_sign,,,,49,,,1,0.9805825242718447,,,,,,,,,,
null,,color_black,655788,black_plus_sign,,,,null,,,,,,,,,,,,,,
null,,learn_phase(without_color),657799,black_plus_sign,,,,null,GW/snail.jpg,GW/camera.jpg,,,,,,,,,,,,
null,,black_cross(without_color),658509,blue,,,,null,GW/snail.jpg,GW/camera.jpg,,,,,,,,,,,,
null,,rt_plussign_withcolor,659010,blue,,,,null,GW/snail.jpg,GW/camera.jpg,,,,,,,,,,,,
2029,,rt_thecrossant_black,660303,black_plus_sign,,,,50,,,0,0.9711538461538461,,,,,,,,,,
null,,color_black,660405,black_plus_sign,,,,null,,,,,,,,,,,,,,
null,,learn_phase(without_color),662415,black_plus_sign,,,,null,GW/camera.jpg,GW/barrel.jpg,,,,,,,,,,,,
null,,black_cross(without_color),662999,blue,,,,null,GW/camera.jpg,GW/barrel.jpg,,,,,,,,,,,,
null,,rt_plussign_withcolor,663501,blue,,,,null,GW/camera.jpg,GW/barrel.jpg,,,,,,,,,,,,
1065.8999996185303,,rt_thecrossant_black,664922,black_plus_sign,,,,49,,,1,0.9714285714285714,,,,,,,,,,
null,,color_black,665024,black_plus_sign,,,,null,,,,,,,,,,,,,,
null,,learn_phase(without_color),667026,black_plus_sign,,,,null,GW/snail.jpg,GW/camera.jpg,,,,,,,,,,,,
null,,black_cross(without_color),667919,green,,,,null,GW/snail.jpg,GW/camera.jpg,,,,,,,,,,,,
null,,rt_plussign_withcolor,668420,green,,,,null,GW/snail.jpg,GW/camera.jpg,,,,,,,,,,,,
1191.1000003814697,,rt_thecrossant_black,669531,black_plus_sign,,,,50,,,1,0.9716981132075472,,,,,,,,,,
null,,color_black,669634,black_plus_sign,,,,null,,,,,,,,,,,,,,
null,,learn_phase(without_color),671636,black_plus_sign,,,,null,GW/wheelchair.jpg,GW/teeth.jpg,,,,,,,,,,,,
null,,black_cross(without_color),672228,blue,,,,null,GW/wheelchair.jpg,GW/teeth.jpg,,,,,,,,,,,,
null,,rt_plussign_withcolor,672729,blue,,,,null,GW/wheelchair.jpg,GW/teeth.jpg,,,,,,,,,,,,
2141.5,,rt_thecrossant_black,674142,black_plus_sign,,,,49,,,1,0.9719626168224299,,,,,,,,,,
null,,color_black,674245,black_plus_sign,,,,null,,,,,,,,,,,,,,
null,,learn_phase(without_color),676247,black_plus_sign,,,,null,GW/camera.jpg,GW/barrel.jpg,,,,,,,,,,,,
null,,black_cross(without_color),676821,blue,,,,null,GW/camera.jpg,GW/barrel.jpg,,,,,,,,,,,,
null,,rt_plussign_withcolor,677323,blue,,,,null,GW/camera.jpg,GW/barrel.jpg,,,,,,,,,,,,
907.5,,rt_thecrossant_black,678753,black_plus_sign,,,,49,,,1,0.9722222222222222,,,,,,,,,,
null,,color_black,678855,black_plus_sign,,,,null,,,,,,,,,,,,,,
null,,learn_phase(without_color),680857,black_plus_sign,,,,null,GW/soldier.jpg,GW/gong.jpg,,,,,,,,,,,,
null,,black_cross(without_color),681793,blue,,,,null,GW/soldier.jpg,GW/gong.jpg,,,,,,,,,,,,
null,,rt_plussign_withcolor,682294,blue,,,,null,GW/soldier.jpg,GW/gong.jpg,,,,,,,,,,,,
960,,rt_thecrossant_black,683363,black_plus_sign,,,,49,,,1,0.9724770642201835,,,,,,,,,,
null,,color_black,683465,black_plus_sign,,,,null,,,,,,,,,,,,,,
null,,learn_phase(without_color),685468,black_plus_sign,,,,null,GW/teeth.jpg,GW/barrel.jpg,,,,,,,,,,,,
null,,black_cross(without_color),686224,green,,,,null,GW/teeth.jpg,GW/barrel.jpg,,,,,,,,,,,,
null,,rt_plussign_withcolor,686726,green,,,,null,GW/teeth.jpg,GW/barrel.jpg,,,,,,,,,,,,
1375.7000007629395,,rt_thecrossant_black,687973,black_plus_sign,,,,50,,,1,0.9727272727272728,,,,,,,,,,
null,,color_black,688074,black_plus_sign,,,,null,,,,,,,,,,,,,,
null,,learn_phase(without_color),690076,black_plus_sign,,,,null,GW/wheelchair.jpg,GW/snail.jpg,,,,,,,,,,,,
null,,black_cross(without_color),690864,green,,,,null,GW/wheelchair.jpg,GW/snail.jpg,,,,,,,,,,,,
null,,rt_plussign_withcolor,691366,green,,,,null,GW/wheelchair.jpg,GW/snail.jpg,,,,,,,,,,,,
1196.6000003814697,,rt_thecrossant_black,692584,black_plus_sign,,,,50,,,1,0.972972972972973,,,,,,,,,,
null,,color_black,692693,black_plus_sign,,,,null,,,,,,,,,,,,,,
null,,learn_phase(without_color),694694,black_plus_sign,,,,null,GW/gong.jpg,GW/camera.jpg,,,,,,,,,,,,
null,,black_cross(without_color),695675,green,,,,null,GW/gong.jpg,GW/camera.jpg,,,,,,,,,,,,
null,,rt_plussign_withcolor,696177,green,,,,null,GW/gong.jpg,GW/camera.jpg,,,,,,,,,,,,
1344.4000005722046,,rt_thecrossant_black,697200,black_plus_sign,,,,50,,,1,0.9732142857142857,,,,,,,,,,
null,,color_black,697303,black_plus_sign,,,,null,,,,,,,,,,,,,,
null,,learn_phase(without_color),699305,black_plus_sign,,,,null,GW/teeth.jpg,GW/barrel.jpg,,,,,,,,,,,,
null,,black_cross(without_color),699912,green,,,,null,GW/teeth.jpg,GW/barrel.jpg,,,,,,,,,,,,
null,,rt_plussign_withcolor,700413,green,,,,null,GW/teeth.jpg,GW/barrel.jpg,,,,,,,,,,,,
1666.6000003814697,,rt_thecrossant_black,701812,black_plus_sign,,,,50,,,1,0.9734513274336283,,,,,,,,,,
null,,color_black,701913,black_plus_sign,,,,null,,,,,,,,,,,,,,
null,,learn_phase(without_color),703916,black_plus_sign,,,,null,GW/globe.jpg,GW/dustpan.jpg,,,,,,,,,,,,
null,,black_cross(without_color),704752,blue,,,,null,GW/globe.jpg,GW/dustpan.jpg,,,,,,,,,,,,
null,,rt_plussign_withcolor,705256,blue,,,,null,GW/globe.jpg,GW/dustpan.jpg,,,,,,,,,,,,
1089,,rt_thecrossant_black,706425,black_plus_sign,,,,49,,,1,0.9736842105263158,,,,,,,,,,
null,,color_black,706527,black_plus_sign,,,,null,,,,,,,,,,,,,,
null,,learn_phase(without_color),708529,black_plus_sign,,,,null,GW/globe.jpg,GW/gong.jpg,,,,,,,,,,,,
null,,black_cross(without_color),708979,green,,,,null,GW/globe.jpg,GW/gong.jpg,,,,,,,,,,,,
null,,rt_plussign_withcolor,709480,green,,,,null,GW/globe.jpg,GW/gong.jpg,,,,,,,,,,,,
1585.6000003814697,,rt_thecrossant_black,711035,black_plus_sign,,,,50,,,1,0.9739130434782609,,,,,,,,,,
null,,color_black,711137,black_plus_sign,,,,null,,,,,,,,,,,,,,
null,,learn_phase(without_color),713139,black_plus_sign,,,,null,GW/wheelchair.jpg,GW/teeth.jpg,,,,,,,,,,,,
null,,black_cross(without_color),713875,green,,,,null,GW/wheelchair.jpg,GW/teeth.jpg,,,,,,,,,,,,
null,,rt_plussign_withcolor,714392,green,,,,null,GW/wheelchair.jpg,GW/teeth.jpg,,,,,,,,,,,,
982.5999994277954,,rt_thecrossant_black,715661,black_plus_sign,,,,50,,,1,0.9741379310344828,,,,,,,,,,
null,,color_black,715762,black_plus_sign,,,,null,,,,,,,,,,,,,,
null,,learn_phase(without_color),717764,black_plus_sign,,,,null,GW/jukebox.jpg,GW/wheelchair.jpg,,,,,,,,,,,,
null,,black_cross(without_color),718693,blue,,,,null,GW/jukebox.jpg,GW/wheelchair.jpg,,,,,,,,,,,,
null,,rt_plussign_withcolor,719194,blue,,,,null,GW/jukebox.jpg,GW/wheelchair.jpg,,,,,,,,,,,,
1598.3000001907349,,rt_thecrossant_black,720268,black_plus_sign,,,,49,,,1,0.9743589743589743,,,,,,,,,,
null,,color_black,720370,black_plus_sign,,,,null,,,,,,,,,,,,,,
null,,learn_phase(without_color),722373,black_plus_sign,,,,null,GW/basket.jpg,GW/paint.jpg,,,,,,,,,,,,
null,,black_cross(without_color),723452,green,,,,null,GW/basket.jpg,GW/paint.jpg,,,,,,,,,,,,
null,,rt_plussign_withcolor,723960,green,,,,null,GW/basket.jpg,GW/paint.jpg,,,,,,,,,,,,
1336.9000005722046,,rt_thecrossant_black,724885,black_plus_sign,,,,50,,,1,0.9745762711864406,,,,,,,,,,
null,,color_black,724987,black_plus_sign,,,,null,,,,,,,,,,,,,,
null,,learn_phase(without_color),726989,black_plus_sign,,,,null,GW/basket.jpg,GW/gong.jpg,,,,,,,,,,,,
null,,black_cross(without_color),727494,blue,,,,null,GW/basket.jpg,GW/gong.jpg,,,,,,,,,,,,
null,,rt_plussign_withcolor,727999,blue,,,,null,GW/basket.jpg,GW/gong.jpg,,,,,,,,,,,,
2124.800000190735,,rt_thecrossant_black,729500,black_plus_sign,,,,49,,,1,0.9747899159663865,,,,,,,,,,
null,,color_black,729602,black_plus_sign,,,,null,,,,,,,,,,,,,,
null,,learn_phase(without_color),731603,black_plus_sign,,,,null,GW/teeth.jpg,GW/hat.jpg,,,,,,,,,,,,
null,,black_cross(without_color),732213,green,,,,null,GW/teeth.jpg,GW/hat.jpg,,,,,,,,,,,,
null,,rt_plussign_withcolor,732715,green,,,,null,GW/teeth.jpg,GW/hat.jpg,,,,,,,,,,,,
1034.5999994277954,,rt_thecrossant_black,734109,black_plus_sign,,,,50,,,1,0.975,,,,,,,,,,
null,,color_black,734210,black_plus_sign,,,,null,,,,,,,,,,,,,,
null,,learn_phase(without_color),736213,black_plus_sign,,,,null,GW/basket.jpg,GW/gong.jpg,,,,,,,,,,,,
null,,black_cross(without_color),736616,blue,,,,null,GW/basket.jpg,GW/gong.jpg,,,,,,,,,,,,
null,,rt_plussign_withcolor,737117,blue,,,,null,GW/basket.jpg,GW/gong.jpg,,,,,,,,,,,,
1438.5,,rt_thecrossant_black,738717,black_plus_sign,,,,49,,,1,0.9752066115702479,,,,,,,,,,
null,,color_black,738818,black_plus_sign,,,,null,,,,,,,,,,,,,,
null,,learn_phase(without_color),740820,black_plus_sign,,,,null,GW/teeth.jpg,GW/barrel.jpg,,,,,,,,,,,,
null,,black_cross(without_color),741429,green,,,,null,GW/teeth.jpg,GW/barrel.jpg,,,,,,,,,,,,
null,,rt_plussign_withcolor,741931,green,,,,null,GW/teeth.jpg,GW/barrel.jpg,,,,,,,,,,,,
965.5,,rt_thecrossant_black,743326,black_plus_sign,,,,50,,,1,0.9754098360655737,,,,,,,,,,
null,,color_black,743440,black_plus_sign,,,,null,,,,,,,,,,,,,,
null,,learn_phase(without_color),745442,black_plus_sign,,,,null,GW/teeth.jpg,GW/hat.jpg,,,,,,,,,,,,
null,,black_cross(without_color),746033,green,,,,null,GW/teeth.jpg,GW/hat.jpg,,,,,,,,,,,,
null,,rt_plussign_withcolor,746535,green,,,,null,GW/teeth.jpg,GW/hat.jpg,,,,,,,,,,,,
1197,,rt_thecrossant_black,747948,black_plus_sign,,,,50,,,1,0.975609756097561,,,,,,,,,,
null,,color_black,748050,black_plus_sign,,,,null,,,,,,,,,,,,,,
null,,learn_phase(without_color),750052,black_plus_sign,,,,null,GW/gong.jpg,GW/camera.jpg,,,,,,,,,,,,
null,,black_cross(without_color),750932,green,,,,null,GW/gong.jpg,GW/camera.jpg,,,,,,,,,,,,
null,,rt_plussign_withcolor,751435,green,,,,null,GW/gong.jpg,GW/camera.jpg,,,,,,,,,,,,
1010,,rt_thecrossant_black,752559,black_plus_sign,,,,50,,,1,0.9758064516129032,,,,,,,,,,
null,,color_black,752660,black_plus_sign,,,,null,,,,,,,,,,,,,,
null,,learn_phase(without_color),754662,black_plus_sign,,,,null,GW/basket.jpg,GW/paint.jpg,,,,,,,,,,,,
null,,black_cross(without_color),755660,green,,,,null,GW/basket.jpg,GW/paint.jpg,,,,,,,,,,,,
null,,rt_plussign_withcolor,756162,green,,,,null,GW/basket.jpg,GW/paint.jpg,,,,,,,,,,,,
1792.3000001907349,,rt_thecrossant_black,757167,black_plus_sign,,,,50,,,1,0.976,,,,,,,,,,
null,,color_black,757269,black_plus_sign,,,,null,,,,,,,,,,,,,,
null,,learn_phase(without_color),759271,black_plus_sign,,,,null,GW/basket.jpg,GW/paint.jpg,,,,,,,,,,,,
null,,black_cross(without_color),760335,green,,,,null,GW/basket.jpg,GW/paint.jpg,,,,,,,,,,,,
null,,rt_plussign_withcolor,760837,green,,,,null,GW/basket.jpg,GW/paint.jpg,,,,,,,,,,,,
1472.5,,rt_thecrossant_black,761787,black_plus_sign,,,,50,,,1,0.9761904761904762,,,,,,,,,,
null,,color_black,761889,black_plus_sign,,,,null,,,,,,,,,,,,,,
14767.699999809265,,intro_1,776658,instruct,,0,Start,,,,,,,,,,,,,,,
1904.0999994277954,,directmemory_phase,778564,GW/barrel.jpg,,,,51,,,1,1,GW/jukebox.jpg,GW/wheelchair.jpg,GW/teeth.jpg,GW/teeth.jpg,GW/wheelchair.jpg,GW/jukebox.jpg,1,,,
null,,html-keyboard-response,779566,<p></p>,,,,null,,,,,,,,,,,,,,
1634.5,,directmemory_phase,781202,GW/globe.jpg,,,,51,,,1,1,GW/jukebox.jpg,GW/snail.jpg,GW/dustpan.jpg,GW/dustpan.jpg,GW/snail.jpg,GW/jukebox.jpg,1,,,
null,,html-keyboard-response,782209,<p></p>,,,,null,,,,,,,,,,,,,,
2387.699999809265,,directmemory_phase,784598,GW/soldier.jpg,,,,51,,,1,1,GW/paint.jpg,GW/dustpan.jpg,GW/gong.jpg,GW/gong.jpg,GW/dustpan.jpg,GW/paint.jpg,1,,,
null,,html-keyboard-response,785599,<p></p>,,,,null,,,,,,,,,,,,,,
1596.8999996185303,,directmemory_phase,787196,GW/dustpan.jpg,,,,49,,,1,1,GW/globe.jpg,GW/wheelchair.jpg,GW/basket.jpg,GW/globe.jpg,GW/basket.jpg,GW/wheelchair.jpg,1,,,
null,,html-keyboard-response,788198,<p></p>,,,,null,,,,,,,,,,,,,,
2125.300000190735,,directmemory_phase,790325,GW/snail.jpg,,,,50,,,0,0.8,GW/dustpan.jpg,GW/globe.jpg,GW/soldier.jpg,GW/soldier.jpg,GW/globe.jpg,GW/dustpan.jpg,0.5,closer,,
null,,html-keyboard-response,791326,<p></p>,,,,null,,,,,,,,,,,,,,
2373.5999994277954,,directmemory_phase,793701,GW/gong.jpg,,,,50,,,1,0.8333333333333334,GW/snail.jpg,GW/basket.jpg,GW/hat.jpg,GW/basket.jpg,GW/snail.jpg,GW/hat.jpg,1,,,
null,,html-keyboard-response,794703,<p></p>,,,,null,,,,,,,,,,,,,,
2748.5999994277954,,directmemory_phase,797453,GW/globe.jpg,,,,51,,,1,0.8571428571428571,GW/teeth.jpg,GW/camera.jpg,GW/soldier.jpg,GW/soldier.jpg,GW/camera.jpg,GW/teeth.jpg,1,,,
null,,html-keyboard-response,798456,<p></p>,,,,null,,,,,,,,,,,,,,
3121.9000005722046,,directmemory_phase,801578,GW/snail.jpg,,,,51,,,1,0.875,GW/basket.jpg,GW/barrel.jpg,GW/camera.jpg,GW/camera.jpg,GW/barrel.jpg,GW/basket.jpg,1,,,
null,,html-keyboard-response,802580,<p></p>,,,,null,,,,,,,,,,,,,,
3953.4000005722046,,directmemory_phase,806535,GW/basket.jpg,,,,51,,,0,0.7777777777777778,GW/globe.jpg,GW/snail.jpg,GW/dustpan.jpg,GW/globe.jpg,GW/dustpan.jpg,GW/snail.jpg,0.5,closer,,
null,,html-keyboard-response,807538,<p></p>,,,,null,,,,,,,,,,,,,,
1983,,directmemory_phase,809522,GW/gong.jpg,,,,51,,,1,0.8,GW/hat.jpg,GW/barrel.jpg,GW/soldier.jpg,GW/soldier.jpg,GW/barrel.jpg,GW/hat.jpg,1,,,
null,,html-keyboard-response,810523,<p></p>,,,,null,,,,,,,,,,,,,,
1505.3999996185303,,directmemory_phase,812029,GW/wheelchair.jpg,,,,49,,,1,0.8181818181818182,GW/jukebox.jpg,GW/basket.jpg,GW/barrel.jpg,GW/jukebox.jpg,GW/barrel.jpg,GW/basket.jpg,1,,,
null,,html-keyboard-response,813031,<p></p>,,,,null,,,,,,,,,,,,,,
1746.2999992370605,,directmemory_phase,814778,GW/gong.jpg,,,,49,,,0,0.75,GW/jukebox.jpg,GW/dustpan.jpg,GW/globe.jpg,GW/globe.jpg,GW/dustpan.jpg,GW/jukebox.jpg,0.5,closer,,
null,,html-keyboard-response,815779,<p></p>,,,,null,,,,,,,,,,,,,,
1769.5,,directmemory_phase,817550,GW/paint.jpg,,,,51,,,1,0.7692307692307693,GW/snail.jpg,GW/gong.jpg,GW/basket.jpg,GW/basket.jpg,GW/gong.jpg,GW/snail.jpg,1,,,
null,,html-keyboard-response,818551,<p></p>,,,,null,,,,,,,,,,,,,,
2260.699999809265,,directmemory_phase,820813,GW/camera.jpg,,,,49,,,0,0.7142857142857143,GW/teeth.jpg,GW/gong.jpg,GW/jukebox.jpg,GW/gong.jpg,GW/teeth.jpg,GW/jukebox.jpg,0.5,closer,,
null,,html-keyboard-response,821815,<p></p>,,,,null,,,,,,,,,,,,,,
2583.1000003814697,,directmemory_phase,824399,GW/basket.jpg,,,,49,,,0,0.6666666666666666,GW/wheelchair.jpg,GW/soldier.jpg,GW/paint.jpg,GW/paint.jpg,GW/soldier.jpg,GW/wheelchair.jpg,0.5,closer,,
null,,html-keyboard-response,825401,<p></p>,,,,null,,,,,,,,,,,,,,
2563.800000190735,,directmemory_phase,827966,GW/camera.jpg,,,,51,,,1,0.6875,GW/paint.jpg,GW/teeth.jpg,GW/barrel.jpg,GW/barrel.jpg,GW/teeth.jpg,GW/paint.jpg,1,,,
null,,html-keyboard-response,828969,<p></p>,,,,null,,,,,,,,,,,,,,
2422.5,,directmemory_phase,831393,GW/basket.jpg,,,,51,,,0,0.6470588235294118,GW/camera.jpg,GW/gong.jpg,GW/wheelchair.jpg,GW/gong.jpg,GW/camera.jpg,GW/wheelchair.jpg,0.5,closer,,
null,,html-keyboard-response,832395,<p></p>,,,,null,,,,,,,,,,,,,,
3353.8999996185303,,directmemory_phase,835749,GW/soldier.jpg,,,,49,,,0,0.6111111111111112,GW/wheelchair.jpg,GW/snail.jpg,GW/paint.jpg,GW/snail.jpg,GW/wheelchair.jpg,GW/paint.jpg,0.5,closer,,
null,,html-keyboard-response,836751,<p></p>,,,,null,,,,,,,,,,,,,,
2878.1000003814697,,directmemory_phase,839631,GW/globe.jpg,,,,51,,,1,0.631578947368421,GW/wheelchair.jpg,GW/paint.jpg,GW/basket.jpg,GW/basket.jpg,GW/paint.jpg,GW/wheelchair.jpg,1,,,
null,,html-keyboard-response,840632,<p></p>,,,,null,,,,,,,,,,,,,,
1951.3000001907349,,directmemory_phase,842584,GW/camera.jpg,,,,50,,,1,0.65,GW/globe.jpg,GW/snail.jpg,GW/dustpan.jpg,GW/snail.jpg,GW/globe.jpg,GW/dustpan.jpg,1,,,
null,,html-keyboard-response,843586,<p></p>,,,,null,,,,,,,,,,,,,,
2214.800000190735,,directmemory_phase,845801,GW/teeth.jpg,,,,51,,,1,0.6666666666666666,GW/gong.jpg,GW/jukebox.jpg,GW/hat.jpg,GW/hat.jpg,GW/jukebox.jpg,GW/gong.jpg,1,,,
null,,html-keyboard-response,846804,<p></p>,,,,null,,,,,,,,,,,,,,
2922.3999996185303,,directmemory_phase,849727,GW/snail.jpg,,,,50,,,1,0.6818181818181818,GW/jukebox.jpg,GW/wheelchair.jpg,GW/hat.jpg,GW/wheelchair.jpg,GW/jukebox.jpg,GW/hat.jpg,1,,,
null,,html-keyboard-response,850729,<p></p>,,,,null,,,,,,,,,,,,,,
1805.8000001907349,,directmemory_phase,852536,GW/barrel.jpg,,,,51,,,0,0.6521739130434783,GW/gong.jpg,GW/camera.jpg,GW/soldier.jpg,GW/camera.jpg,GW/gong.jpg,GW/soldier.jpg,0.5,closer,,
null,,html-keyboard-response,853538,<p></p>,,,,null,,,,,,,,,,,,,,
2928.6000003814697,,directmemory_phase,856467,GW/globe.jpg,,,,49,,,1,0.6666666666666666,GW/gong.jpg,GW/teeth.jpg,GW/paint.jpg,GW/gong.jpg,GW/paint.jpg,GW/teeth.jpg,1,,,
null,,html-keyboard-response,857469,<p></p>,,,,null,,,,,,,,,,,,,,
1806,,directmemory_phase,859276,GW/teeth.jpg,,,,49,,,1,0.68,GW/barrel.jpg,GW/basket.jpg,GW/snail.jpg,GW/barrel.jpg,GW/snail.jpg,GW/basket.jpg,1,,,
null,,html-keyboard-response,860278,<p></p>,,,,null,,,,,,,,,,,,,,
3562.3999996185303,,directmemory_phase,863841,GW/wheelchair.jpg,,,,51,,,0,0.6538461538461539,GW/barrel.jpg,GW/snail.jpg,GW/basket.jpg,GW/snail.jpg,GW/barrel.jpg,GW/basket.jpg,0.5,closer,,
null,,html-keyboard-response,864842,<p></p>,,,,null,,,,,,,,,,,,,,
3304.3999996185303,,directmemory_phase,868148,GW/soldier.jpg,,,,51,,,0,0.6296296296296297,GW/globe.jpg,GW/teeth.jpg,GW/camera.jpg,GW/globe.jpg,GW/camera.jpg,GW/teeth.jpg,0.5,closer,,
null,,html-keyboard-response,869150,<p></p>,,,,null,,,,,,,,,,,,,,
1969.3000001907349,,directmemory_phase,871121,GW/jukebox.jpg,,,,50,,,1,0.6428571428571429,GW/teeth.jpg,GW/wheelchair.jpg,GW/camera.jpg,GW/wheelchair.jpg,GW/teeth.jpg,GW/camera.jpg,1,,,
null,,html-keyboard-response,872123,<p></p>,,,,null,,,,,,,,,,,,,,
3114.2999992370605,,directmemory_phase,875238,GW/gong.jpg,,,,49,,,1,0.6551724137931034,GW/camera.jpg,GW/wheelchair.jpg,GW/snail.jpg,GW/camera.jpg,GW/snail.jpg,GW/wheelchair.jpg,1,,,
null,,html-keyboard-response,876240,<p></p>,,,,null,,,,,,,,,,,,,,
3688.0999994277954,,directmemory_phase,879929,GW/wheelchair.jpg,,,,50,,,1,0.6666666666666666,GW/barrel.jpg,GW/teeth.jpg,GW/basket.jpg,GW/teeth.jpg,GW/barrel.jpg,GW/basket.jpg,1,,,
null,,html-keyboard-response,880931,<p></p>,,,,null,,,,,,,,,,,,,,
3733.4000005722046,,directmemory_phase,884665,,,,,50,,,1,0.6774193548387096,,,,,,,0.5,closer,,
null,,html-keyboard-response,885666,<p></p>,,,,null,,,,,,,,,,,,,,
null,,directmemory_phase,892167,,,,,null,,,0,0.65625,,,,,,,0,,,
null,,html-keyboard-response,893170,<p></p>,,,,null,,,,,,,,,,,,,,
14473.699999809265,,intro_1,907644,instruct,,0,,,,,,,,,,,,,,,,
14781.800000190735,,intro_2,922427,instruct,,1,Next,,,,,,,,,,,,,,,
6063.89999961853,,intro_3,928492,instruct,,1,Next,,,,,,,,,,,,,,,
10764.20000076294,,intro_4,939257,instruct,,1,Next,,,,,,,,,,,,,,,
21579.099999427795,,intro_5,960838,instruct,,1,Next,,,,,,,,,,,,,,,
12024.800000190735,,intro_6,972864,instruct,,1,Next,,,,,,,,,,,,,,,
10152,,intro_7,983017,instruct,,1,Next,,,,,,,,,,,,,,,
20500.89999961853,,intro_8,1003519,instruct,,1,Next,,,,,,,,,,,,,,,
2310.199999809265,,shortestpath_phase,1005830,GW/paint.jpg,,,,50,GW/jukebox.jpg,GW/barrel.jpg,1,1,,,,GW/barrel.jpg,,,,,Two Edge Diff,Four Edge Six Edge
null,,html-keyboard-response,1006832,<p></p>,,,,null,,,,,,,,,,,,,,
2250.199999809265,,shortestpath_phase,1009084,GW/dustpan.jpg,,,,49,GW/teeth.jpg,GW/hat.jpg,1,1,,,,GW/teeth.jpg,,,,,One Edge Diff,Five Edge Six Edge
null,,html-keyboard-response,1010086,<p></p>,,,,null,,,,,,,,,,,,,,
2676.7000007629395,,shortestpath_phase,1012764,GW/barrel.jpg,,,,49,GW/globe.jpg,GW/hat.jpg,0,0.6666666666666666,,,,GW/hat.jpg,,,,,One Edge Diff,Two Edge Three Edge
null,,html-keyboard-response,1013779,<p></p>,,,,null,,,,,,,,,,,,,,
2796.3999996185303,,shortestpath_phase,1016576,GW/globe.jpg,,,,49,GW/paint.jpg,GW/hat.jpg,1,0.75,,,,GW/paint.jpg,,,,,Three Edge Diff,Three Edge Six Edge
null,,html-keyboard-response,1017578,<p></p>,,,,null,,,,,,,,,,,,,,
2589.800000190735,,shortestpath_phase,1020169,GW/hat.jpg,,,,50,GW/dustpan.jpg,GW/basket.jpg,1,0.8,,,,GW/basket.jpg,,,,,One Edge Diff,Five Edge Six Edge
null,,html-keyboard-response,1021172,<p></p>,,,,null,,,,,,,,,,,,,,
2958.699999809265,,shortestpath_phase,1024132,GW/jukebox.jpg,,,,50,GW/globe.jpg,GW/camera.jpg,1,0.8333333333333334,,,,GW/camera.jpg,,,,,One Edge Diff,Three Edge Four Edge
null,,html-keyboard-response,1025133,<p></p>,,,,null,,,,,,,,,,,,,,
2688.5,,shortestpath_phase,1027823,GW/globe.jpg,,,,50,GW/teeth.jpg,GW/hat.jpg,0,0.7142857142857143,,,,GW/teeth.jpg,,,,,One Edge Diff,Four Edge Five Edge
null,,html-keyboard-response,1028825,<p></p>,,,,null,,,,,,,,,,,,,,
2464.0999994277954,,shortestpath_phase,1031290,GW/hat.jpg,,,,50,GW/barrel.jpg,GW/dustpan.jpg,0,0.625,,,,GW/barrel.jpg,,,,,Four Edge Diff,Two Edge Six Edge
null,,html-keyboard-response,1032292,<p></p>,,,,null,,,,,,,,,,,,,,
2484.5,,shortestpath_phase,1034777,GW/jukebox.jpg,,,,49,GW/paint.jpg,GW/teeth.jpg,0,0.5555555555555556,,,,GW/teeth.jpg,,,,,Four Edge Diff,Two Edge Six Edge
null,,html-keyboard-response,1035779,<p></p>,,,,null,,,,,,,,,,,,,,
3082.800000190735,,shortestpath_phase,1038863,GW/hat.jpg,,,,50,GW/gong.jpg,GW/paint.jpg,0,0.5,,,,GW/gong.jpg,,,,,Two Edge Diff,Four Edge Six Edge
null,,html-keyboard-response,1039864,<p></p>,,,,null,,,,,,,,,,,,,,
2905.800000190735,,shortestpath_phase,1042771,GW/paint.jpg,,,,49,GW/wheelchair.jpg,GW/barrel.jpg,0,0.45454545454545453,,,,GW/barrel.jpg,,,,,One Edge Diff,Four Edge Five Edge
null,,html-keyboard-response,1043773,<p></p>,,,,null,,,,,,,,,,,,,,
2194.0999994277954,,shortestpath_phase,1045968,GW/dustpan.jpg,,,,50,GW/hat.jpg,GW/soldier.jpg,1,0.5,,,,GW/soldier.jpg,,,,,Four Edge Diff,Two Edge Six Edge
null,,html-keyboard-response,1046970,<p></p>,,,,null,,,,,,,,,,,,,,
2690.5,,shortestpath_phase,1049662,GW/barrel.jpg,,,,50,GW/dustpan.jpg,GW/gong.jpg,1,0.5384615384615384,,,,GW/gong.jpg,,,,,Two Edge Diff,Two Edge Four Edge
null,,html-keyboard-response,1050665,<p></p>,,,,null,,,,,,,,,,,,,,
2321.699999809265,,shortestpath_phase,1052988,GW/hat.jpg,,,,49,GW/camera.jpg,GW/basket.jpg,1,0.5714285714285714,,,,GW/camera.jpg,,,,,Two Edge Diff,Three Edge Five Edge
null,,html-keyboard-response,1053990,<p></p>,,,,null,,,,,,,,,,,,,,
1745,,shortestpath_phase,1055736,GW/jukebox.jpg,,,,50,GW/paint.jpg,GW/gong.jpg,1,0.6,,,,GW/gong.jpg,,,,,Two Edge Diff,Four Edge Six Edge
null,,html-keyboard-response,1056737,<p></p>,,,,null,,,,,,,,,,,,,,
2493.5,,shortestpath_phase,1059233,GW/paint.jpg,,,,50,GW/snail.jpg,GW/soldier.jpg,1,0.625,,,,GW/soldier.jpg,,,,,One Edge Diff,Three Edge Four Edge
null,,html-keyboard-response,1060236,<p></p>,,,,null,,,,,,,,,,,,,,
3488,,shortestpath_phase,1063725,GW/wheelchair.jpg,,,,49,GW/barrel.jpg,GW/paint.jpg,1,0.6470588235294118,,,,GW/barrel.jpg,,,,,Three Edge Diff,Two Edge Five Edge
null,,html-keyboard-response,1064726,<p></p>,,,,null,,,,,,,,,,,,,,
3179.800000190735,,shortestpath_phase,1067907,GW/teeth.jpg,,,,50,GW/paint.jpg,GW/basket.jpg,1,0.6666666666666666,,,,GW/basket.jpg,,,,,One Edge Diff,Four Edge Five Edge
null,,html-keyboard-response,1068909,<p></p>,,,,null,,,,,,,,,,,,,,
1944.3999996185303,,shortestpath_phase,1070854,GW/dustpan.jpg,,,,50,GW/teeth.jpg,GW/snail.jpg,1,0.6842105263157895,,,,GW/snail.jpg,,,,,Two Edge Diff,Three Edge Five Edge
null,,html-keyboard-response,1071857,<p></p>,,,,null,,,,,,,,,,,,,,
2913.9000005722046,,shortestpath_phase,1074772,GW/teeth.jpg,,,,49,GW/gong.jpg,GW/dustpan.jpg,1,0.7,,,,GW/gong.jpg,,,,,Two Edge Diff,Three Edge Five Edge
null,,html-keyboard-response,1075775,<p></p>,,,,null,,,,,,,,,,,,,,
2192.8999996185303,,shortestpath_phase,1077969,GW/hat.jpg,,,,49,GW/barrel.jpg,GW/paint.jpg,1,0.7142857142857143,,,,GW/barrel.jpg,,,,,Four Edge Diff,Two Edge Six Edge
null,,html-keyboard-response,1078971,<p></p>,,,,null,,,,,,,,,,,,,,
2743.9000005722046,,shortestpath_phase,1081716,GW/paint.jpg,,,,50,GW/jukebox.jpg,GW/globe.jpg,1,0.7272727272727273,,,,GW/globe.jpg,,,,,Four Edge Diff,Two Edge Six Edge
null,,html-keyboard-response,1082717,<p></p>,,,,null,,,,,,,,,,,,,,
2367,,shortestpath_phase,1085085,GW/hat.jpg,,,,50,GW/snail.jpg,GW/soldier.jpg,0,0.6956521739130435,,,,GW/snail.jpg,,,,,One Edge Diff,Three Edge Four Edge
null,,html-keyboard-response,1086089,<p></p>,,,,null,,,,,,,,,,,,,,
2216.699999809265,,shortestpath_phase,1088306,GW/jukebox.jpg,,,,49,GW/teeth.jpg,GW/dustpan.jpg,1,0.7083333333333334,,,,GW/teeth.jpg,,,,,Three Edge Diff,Two Edge Five Edge
null,,html-keyboard-response,1089308,<p></p>,,,,null,,,,,,,,,,,,,,
2399.4000005722046,,shortestpath_phase,1091709,GW/barrel.jpg,,,,50,GW/snail.jpg,GW/jukebox.jpg,0,0.68,,,,GW/snail.jpg,,,,,One Edge Diff,Two Edge Three Edge
null,,html-keyboard-response,1092711,<p></p>,,,,null,,,,,,,,,,,,,,
3083.7999992370605,,shortestpath_phase,1095796,GW/paint.jpg,,,,50,GW/gong.jpg,GW/snail.jpg,0,0.6538461538461539,,,,GW/gong.jpg,,,,,Two Edge Diff,Two Edge Four Edge
null,,html-keyboard-response,1096798,<p></p>,,,,null,,,,,,,,,,,,,,
1449.8000001907349,,shortestpath_phase,1098249,GW/barrel.jpg,,,,49,GW/dustpan.jpg,GW/basket.jpg,0,0.6296296296296297,,,,GW/basket.jpg,,,,,One Edge Diff,Three Edge Four Edge
null,,html-keyboard-response,1099251,<p></p>,,,,null,,,,,,,,,,,,,,
2019.8999996185303,,shortestpath_phase,1101272,GW/jukebox.jpg,,,,49,GW/teeth.jpg,GW/dustpan.jpg,1,0.6428571428571429,,,,GW/teeth.jpg,,,,,Three Edge Diff,Three Edge Six Edge
null,,html-keyboard-response,1102279,<p></p>,,,,null,,,,,,,,,,,,,,
1838.6000003814697,,shortestpath_phase,1104119,GW/dustpan.jpg,,,,50,GW/barrel.jpg,GW/hat.jpg,0,0.6206896551724138,,,,GW/barrel.jpg,,,,,Two Edge Diff,Four Edge Six Edge
null,,html-keyboard-response,1105125,<p></p>,,,,null,,,,,,,,,,,,,,
2130.300000190735,,shortestpath_phase,1107257,GW/soldier.jpg,,,,49,GW/camera.jpg,GW/teeth.jpg,1,0.6333333333333333,,,,GW/camera.jpg,,,,,One Edge Diff,Two Edge Three Edge
null,,html-keyboard-response,1108258,<p></p>,,,,null,,,,,,,,,,,,,,
2510.199999809265,,shortestpath_phase,1110769,GW/barrel.jpg,,,,50,GW/hat.jpg,GW/jukebox.jpg,0,0.6129032258064516,,,,GW/hat.jpg,,,,,One Edge Diff,Two Edge Three Edge
null,,html-keyboard-response,1111770,<p></p>,,,,null,,,,,,,,,,,,,,
2724.5,,shortestpath_phase,1114496,GW/paint.jpg,,,,50,GW/snail.jpg,GW/jukebox.jpg,0,0.59375,,,,GW/snail.jpg,,,,,Two Edge Diff,Four Edge Six Edge
null,,html-keyboard-response,1115498,<p></p>,,,,null,,,,,,,,,,,,,,
2309.3999996185303,,shortestpath_phase,1117808,GW/dustpan.jpg,,,,50,GW/wheelchair.jpg,GW/hat.jpg,0,0.5757575757575758,,,,GW/wheelchair.jpg,,,,,Two Edge Diff,Four Edge Six Edge
null,,html-keyboard-response,1118811,<p></p>,,,,null,,,,,,,,,,,,,,
2199.5,,shortestpath_phase,1121012,GW/barrel.jpg,,,,50,GW/basket.jpg,GW/paint.jpg,0,0.5588235294117647,,,,GW/basket.jpg,,,,,One Edge Diff,Three Edge Four Edge
null,,html-keyboard-response,1122013,<p></p>,,,,null,,,,,,,,,,,,,,
2729.5999994277954,,shortestpath_phase,1124743,GW/dustpan.jpg,,,,50,GW/camera.jpg,GW/jukebox.jpg,0,0.5428571428571428,,,,GW/camera.jpg,,,,,Two Edge Diff,Three Edge Five Edge
null,,html-keyboard-response,1125745,<p></p>,,,,null,,,,,,,,,,,,,,
2634.4000005722046,,shortestpath_phase,1128381,GW/paint.jpg,,,,50,GW/wheelchair.jpg,GW/hat.jpg,0,0.5277777777777778,,,,GW/wheelchair.jpg,,,,,One Edge Diff,Five Edge Six Edge
null,,html-keyboard-response,1129383,<p></p>,,,,null,,,,,,,,,,,,,,
2518.4000005722046,,shortestpath_phase,1131903,GW/jukebox.jpg,,,,50,GW/gong.jpg,GW/dustpan.jpg,0,0.5135135135135135,,,,GW/gong.jpg,,,,,One Edge Diff,Four Edge Five Edge
null,,html-keyboard-response,1132904,<p></p>,,,,null,,,,,,,,,,,,,,
2644.8999996185303,,shortestpath_phase,1135550,GW/paint.jpg,,,,49,GW/hat.jpg,GW/teeth.jpg,0,0.5,,,,GW/teeth.jpg,,,,,One Edge Diff,Five Edge Six Edge
null,,html-keyboard-response,1136553,<p></p>,,,,null,,,,,,,,,,,,,,
3077.8999996185303,,shortestpath_phase,1139632,GW/jukebox.jpg,,,,50,GW/camera.jpg,GW/gong.jpg,0,0.48717948717948717,,,,GW/camera.jpg,,,,,One Edge Diff,Three Edge Four Edge
null,,html-keyboard-response,1140634,<p></p>,,,,null,,,,,,,,,,,,,,
1998.3999996185303,,shortestpath_phase,1142633,GW/paint.jpg,,,,50,GW/teeth.jpg,GW/dustpan.jpg,1,0.5,,,,GW/dustpan.jpg,,,,,Two Edge Diff,Three Edge Five Edge
null,,html-keyboard-response,1143635,<p></p>,,,,null,,,,,,,,,,,,,,
3259.300000190735,,shortestpath_phase,1146895,GW/teeth.jpg,,,,49,GW/paint.jpg,GW/camera.jpg,0,0.4878048780487805,,,,GW/camera.jpg,,,,,Three Edge Diff,Three Edge Six Edge
null,,html-keyboard-response,1147897,<p></p>,,,,null,,,,,,,,,,,,,,
2670.300000190735,,shortestpath_phase,1150568,GW/jukebox.jpg,,,,50,GW/paint.jpg,GW/basket.jpg,1,0.5,,,,GW/basket.jpg,,,,,One Edge Diff,Five Edge Six Edge
null,,html-keyboard-response,1151569,<p></p>,,,,null,,,,,,,,,,,,,,
2680.0999994277954,,shortestpath_phase,1154251,GW/teeth.jpg,,,,50,GW/camera.jpg,GW/globe.jpg,0,0.4883720930232558,,,,GW/camera.jpg,,,,,Two Edge Diff,Two Edge Four Edge
null,,html-keyboard-response,1155253,<p></p>,,,,null,,,,,,,,,,,,,,
1938.4000005722046,,shortestpath_phase,1157192,GW/hat.jpg,,,,49,GW/basket.jpg,GW/paint.jpg,1,0.5,,,,GW/basket.jpg,,,,,One Edge Diff,Five Edge Six Edge
null,,html-keyboard-response,1158194,<p></p>,,,,null,,,,,,,,,,,,,,
2539.199999809265,,shortestpath_phase,1160734,GW/dustpan.jpg,,,,49,GW/hat.jpg,GW/gong.jpg,0,0.4888888888888889,,,,GW/gong.jpg,,,,,Four Edge Diff,Two Edge Six Edge
null,,html-keyboard-response,1161735,<p></p>,,,,null,,,,,,,,,,,,,,
2339.9000005722046,,shortestpath_phase,1164076,GW/basket.jpg,,,,50,GW/camera.jpg,GW/wheelchair.jpg,0,0.4782608695652174,,,,GW/camera.jpg,,,,,Two Edge Diff,Two Edge Four Edge
null,,html-keyboard-response,1165078,<p></p>,,,,null,,,,,,,,,,,,,,
1670.6000003814697,,shortestpath_phase,1166749,GW/barrel.jpg,,,,50,GW/snail.jpg,GW/globe.jpg,0,0.46808510638297873,,,,GW/snail.jpg,,,,,One Edge Diff,Two Edge Three Edge
null,,html-keyboard-response,1167751,<p></p>,,,,null,,,,,,,,,,,,,,
2030.2000007629395,,shortestpath_phase,1169782,GW/wheelchair.jpg,,,,49,GW/camera.jpg,GW/globe.jpg,1,0.4791666666666667,,,,GW/camera.jpg,,,,,One Edge Diff,Two Edge Three Edge
null,,html-keyboard-response,1170784,<p></p>,,,,null,,,,,,,,,,,,,,
1794.6999998092651,,shortestpath_phase,1172580,GW/jukebox.jpg,,,,49,GW/snail.jpg,GW/paint.jpg,1,0.4897959183673469,,,,GW/snail.jpg,,,,,Four Edge Diff,Two Edge Six Edge
null,,html-keyboard-response,1173583,<p></p>,,,,null,,,,,,,,,,,,,,
2747.6000003814697,,shortestpath_phase,1176332,GW/dustpan.jpg,,,,50,GW/jukebox.jpg,GW/wheelchair.jpg,1,0.5,,,,GW/wheelchair.jpg,,,,,One Edge Diff,Four Edge Five Edge
null,,html-keyboard-response,1177333,<p></p>,,,,null,,,,,,,,,,,,,,
1705.2999992370605,,shortestpath_phase,1179040,GW/basket.jpg,,,,49,GW/camera.jpg,GW/hat.jpg,1,0.5098039215686274,,,,GW/camera.jpg,,,,,Three Edge Diff,Three Edge Six Edge
null,,html-keyboard-response,1180041,<p></p>,,,,null,,,,,,,,,,,,,,
1415.5,,shortestpath_phase,1181457,GW/jukebox.jpg,,,,50,GW/soldier.jpg,GW/snail.jpg,1,0.5192307692307693,,,,GW/snail.jpg,,,,,One Edge Diff,Two Edge Three Edge
null,,html-keyboard-response,1182459,<p></p>,,,,null,,,,,,,,,,,,,,
1900,,shortestpath_phase,1184360,GW/dustpan.jpg,,,,49,GW/basket.jpg,GW/paint.jpg,1,0.5283018867924528,,,,GW/basket.jpg,,,,,One Edge Diff,Two Edge Three Edge
null,,html-keyboard-response,1185362,<p></p>,,,,null,,,,,,,,,,,,,,
2044.8999996185303,,shortestpath_phase,1187408,GW/hat.jpg,,,,50,GW/paint.jpg,GW/soldier.jpg,1,0.5370370370370371,,,,GW/soldier.jpg,,,,,Two Edge Diff,Four Edge Six Edge
null,,html-keyboard-response,1188410,<p></p>,,,,null,,,,,,,,,,,,,,
2389.5999994277954,,shortestpath_phase,1190801,GW/dustpan.jpg,,,,50,GW/jukebox.jpg,GW/gong.jpg,1,0.5454545454545454,,,,GW/gong.jpg,,,,,Three Edge Diff,Three Edge Six Edge
null,,html-keyboard-response,1191802,<p></p>,,,,null,,,,,,,,,,,,,,
2528.9000005722046,,shortestpath_phase,1194333,GW/hat.jpg,,,,50,GW/globe.jpg,GW/barrel.jpg,1,0.5535714285714286,,,,GW/barrel.jpg,,,,,Three Edge Diff,Two Edge Five Edge
null,,html-keyboard-response,1195334,<p></p>,,,,null,,,,,,,,,,,,,,
1970.6000003814697,,shortestpath_phase,1197306,GW/dustpan.jpg,,,,49,GW/basket.jpg,GW/teeth.jpg,1,0.5614035087719298,,,,GW/basket.jpg,,,,,Three Edge Diff,Three Edge Six Edge
null,,html-keyboard-response,1198307,<p></p>,,,,null,,,,,,,,,,,,,,
1859.6000003814697,,shortestpath_phase,1200168,GW/teeth.jpg,,,,49,GW/gong.jpg,GW/paint.jpg,1,0.5689655172413793,,,,GW/gong.jpg,,,,,Two Edge Diff,Three Edge Five Edge
null,,html-keyboard-response,1201170,<p></p>,,,,null,,,,,,,,,,,,,,
2024.9000005722046,,shortestpath_phase,1203195,GW/paint.jpg,,,,50,GW/snail.jpg,GW/hat.jpg,0,0.559322033898305,,,,GW/snail.jpg,,,,,Two Edge Diff,Four Edge Six Edge
null,,html-keyboard-response,1204197,<p></p>,,,,null,,,,,,,,,,,,,,
2090,,shortestpath_phase,1206289,GW/basket.jpg,,,,50,GW/teeth.jpg,GW/jukebox.jpg,0,0.55,,,,GW/teeth.jpg,,,,,One Edge Diff,Four Edge Five Edge
null,,html-keyboard-response,1207291,<p></p>,,,,null,,,,,,,,,,,,,,
1915.6000003814697,,shortestpath_phase,1209207,GW/soldier.jpg,,,,49,GW/wheelchair.jpg,GW/teeth.jpg,1,0.5573770491803278,,,,GW/wheelchair.jpg,,,,,One Edge Diff,Two Edge Three Edge
null,,html-keyboard-response,1210210,<p></p>,,,,null,,,,,,,,,,,,,,
1942.3999996185303,,shortestpath_phase,1212153,GW/basket.jpg,,,,50,GW/jukebox.jpg,GW/barrel.jpg,1,0.5645161290322581,,,,GW/barrel.jpg,,,,,Two Edge Diff,Three Edge Five Edge
null,,html-keyboard-response,1213165,<p></p>,,,,null,,,,,,,,,,,,,,
1766.3000001907349,,shortestpath_phase,1214932,GW/hat.jpg,,,,50,GW/soldier.jpg,GW/dustpan.jpg,0,0.5555555555555556,,,,GW/soldier.jpg,,,,,Two Edge Diff,Four Edge Six Edge
null,,html-keyboard-response,1215935,<p></p>,,,,null,,,,,,,,,,,,,,
1548.1999998092651,,shortestpath_phase,1217484,GW/paint.jpg,,,,49,GW/barrel.jpg,GW/teeth.jpg,1,0.5625,,,,GW/barrel.jpg,,,,,One Edge Diff,Four Edge Five Edge
null,,html-keyboard-response,1218487,<p></p>,,,,null,,,,,,,,,,,,,,
1774.6000003814697,,shortestpath_phase,1220262,GW/wheelchair.jpg,,,,49,GW/camera.jpg,GW/paint.jpg,1,0.5692307692307692,,,,GW/camera.jpg,,,,,Three Edge Diff,Three Edge Six Edge
null,,html-keyboard-response,1221265,<p></p>,,,,null,,,,,,,,,,,,,,
2523.199999809265,,shortestpath_phase,1223789,GW/paint.jpg,,,,50,GW/globe.jpg,GW/hat.jpg,0,0.5606060606060606,,,,GW/globe.jpg,,,,,Four Edge Diff,Two Edge Six Edge
null,,html-keyboard-response,1224792,<p></p>,,,,null,,,,,,,,,,,,,,
1778.6000003814697,,shortestpath_phase,1226572,GW/jukebox.jpg,,,,49,GW/gong.jpg,GW/basket.jpg,1,0.5671641791044776,,,,GW/gong.jpg,,,,,One Edge Diff,Four Edge Five Edge
null,,html-keyboard-response,1227573,<p></p>,,,,null,,,,,,,,,,,,,,
1959.7000007629395,,shortestpath_phase,1229534,GW/soldier.jpg,,,,50,GW/hat.jpg,GW/barrel.jpg,1,0.5735294117647058,,,,GW/barrel.jpg,,,,,One Edge Diff,Three Edge Four Edge
null,,html-keyboard-response,1230537,<p></p>,,,,null,,,,,,,,,,,,,,
1994.1000003814697,,shortestpath_phase,1232532,GW/paint.jpg,,,,50,GW/gong.jpg,GW/jukebox.jpg,0,0.5652173913043478,,,,GW/gong.jpg,,,,,Four Edge Diff,Two Edge Six Edge
null,,html-keyboard-response,1233535,<p></p>,,,,null,,,,,,,,,,,,,,
1674.2000007629395,,shortestpath_phase,1235210,GW/teeth.jpg,,,,49,GW/dustpan.jpg,GW/camera.jpg,0,0.5571428571428572,,,,GW/camera.jpg,,,,,Three Edge Diff,Two Edge Five Edge
null,,html-keyboard-response,1236212,<p></p>,,,,null,,,,,,,,,,,,,,
2009.1000003814697,,shortestpath_phase,1238222,GW/gong.jpg,,,,50,GW/wheelchair.jpg,GW/hat.jpg,0,0.5492957746478874,,,,GW/wheelchair.jpg,,,,,One Edge Diff,Three Edge Four Edge
null,,html-keyboard-response,1239223,<p></p>,,,,null,,,,,,,,,,,,,,
2105.0999994277954,,shortestpath_phase,1241330,GW/hat.jpg,,,,49,GW/globe.jpg,GW/paint.jpg,1,0.5555555555555556,,,,GW/globe.jpg,,,,,One Edge Diff,Five Edge Six Edge
null,,html-keyboard-response,1242332,<p></p>,,,,null,,,,,,,,,,,,,,
2124.5999994277954,,shortestpath_phase,1244457,GW/dustpan.jpg,,,,49,GW/gong.jpg,GW/wheelchair.jpg,1,0.5616438356164384,,,,GW/gong.jpg,,,,,Two Edge Diff,Two Edge Four Edge
null,,html-keyboard-response,1245460,<p></p>,,,,null,,,,,,,,,,,,,,
2638.5999994277954,,shortestpath_phase,1248099,GW/globe.jpg,,,,50,GW/hat.jpg,GW/wheelchair.jpg,1,0.5675675675675675,,,,GW/wheelchair.jpg,,,,,Two Edge Diff,Three Edge Five Edge
null,,html-keyboard-response,1249102,<p></p>,,,,null,,,,,,,,,,,,,,
1729.6000003814697,,shortestpath_phase,1250832,GW/hat.jpg,,,,50,GW/gong.jpg,GW/dustpan.jpg,0,0.56,,,,GW/gong.jpg,,,,,Two Edge Diff,Four Edge Six Edge
null,,html-keyboard-response,1251834,<p></p>,,,,null,,,,,,,,,,,,,,
2719.199999809265,,shortestpath_phase,1254555,GW/basket.jpg,,,,49,GW/hat.jpg,GW/soldier.jpg,0,0.5526315789473685,,,,GW/soldier.jpg,,,,,Three Edge Diff,Two Edge Five Edge
null,,html-keyboard-response,1255556,<p></p>,,,,null,,,,,,,,,,,,,,
1330.8000001907349,,shortestpath_phase,1256889,GW/paint.jpg,,,,49,GW/hat.jpg,GW/gong.jpg,0,0.5454545454545454,,,,GW/gong.jpg,,,,,Four Edge Diff,Two Edge Six Edge
null,,html-keyboard-response,1257890,<p></p>,,,,null,,,,,,,,,,,,,,
1499.3999996185303,,shortestpath_phase,1259390,GW/wheelchair.jpg,,,,50,GW/hat.jpg,GW/dustpan.jpg,0,0.5384615384615384,,,,GW/hat.jpg,,,,,Two Edge Diff,Two Edge Four Edge
null,,html-keyboard-response,1260393,<p></p>,,,,null,,,,,,,,,,,,,,
1384.3000001907349,,shortestpath_phase,1261778,GW/dustpan.jpg,,,,50,GW/teeth.jpg,GW/soldier.jpg,1,0.5443037974683544,,,,GW/soldier.jpg,,,,,Three Edge Diff,Three Edge Six Edge
null,,html-keyboard-response,1262780,<p></p>,,,,null,,,,,,,,,,,,,,
2126.699999809265,,shortestpath_phase,1264907,GW/paint.jpg,,,,49,GW/globe.jpg,GW/teeth.jpg,1,0.55,,,,GW/globe.jpg,,,,,Three Edge Diff,Three Edge Six Edge
null,,html-keyboard-response,1265910,<p></p>,,,,null,,,,,,,,,,,,,,
2357.800000190735,,shortestpath_phase,1268269,GW/jukebox.jpg,,,,50,GW/snail.jpg,GW/dustpan.jpg,0,0.5432098765432098,,,,GW/snail.jpg,,,,,Three Edge Diff,Two Edge Five Edge
null,,html-keyboard-response,1269271,<p></p>,,,,null,,,,,,,,,,,,,,
1699.1999998092651,,shortestpath_phase,1270971,GW/hat.jpg,,,,49,GW/paint.jpg,GW/wheelchair.jpg,0,0.5365853658536586,,,,GW/wheelchair.jpg,,,,,Four Edge Diff,Two Edge Six Edge
null,,html-keyboard-response,1271974,<p></p>,,,,null,,,,,,,,,,,,,,
2303.300000190735,,shortestpath_phase,1274279,GW/jukebox.jpg,,,,50,GW/basket.jpg,GW/globe.jpg,1,0.5421686746987951,,,,GW/globe.jpg,,,,,One Edge Diff,Four Edge Five Edge
null,,html-keyboard-response,1275281,<p></p>,,,,null,,,,,,,,,,,,,,
1824.1999998092651,,shortestpath_phase,1277106,GW/basket.jpg,,,,49,GW/dustpan.jpg,GW/hat.jpg,1,0.5476190476190477,,,,GW/dustpan.jpg,,,,,Three Edge Diff,Two Edge Five Edge
null,,html-keyboard-response,1278108,<p></p>,,,,null,,,,,,,,,,,,,,
1536,,shortestpath_phase,1279645,GW/jukebox.jpg,,,,49,GW/hat.jpg,GW/dustpan.jpg,1,0.5529411764705883,,,,GW/hat.jpg,,,,,Two Edge Diff,Three Edge Five Edge
null,,html-keyboard-response,1280648,<p></p>,,,,null,,,,,,,,,,,,,,
1878.6999998092651,,shortestpath_phase,1282528,GW/basket.jpg,,,,49,GW/jukebox.jpg,GW/soldier.jpg,0,0.5465116279069767,,,,GW/soldier.jpg,,,,,Three Edge Diff,Two Edge Five Edge
null,,html-keyboard-response,1283530,<p></p>,,,,null,,,,,,,,,,,,,,
1897.6999998092651,,shortestpath_phase,1285429,GW/jukebox.jpg,,,,49,GW/globe.jpg,GW/paint.jpg,1,0.5517241379310345,,,,GW/globe.jpg,,,,,Two Edge Diff,Four Edge Six Edge
null,,html-keyboard-response,1286431,<p></p>,,,,null,,,,,,,,,,,,,,
1422.1999998092651,,shortestpath_phase,1287854,GW/wheelchair.jpg,,,,50,GW/hat.jpg,GW/basket.jpg,0,0.5454545454545454,,,,GW/hat.jpg,,,,,Two Edge Diff,Two Edge Four Edge
null,,html-keyboard-response,1288856,<p></p>,,,,null,,,,,,,,,,,,,,
1393.6999998092651,,shortestpath_phase,1290251,GW/dustpan.jpg,,,,49,GW/hat.jpg,GW/jukebox.jpg,0,0.5393258426966292,,,,GW/jukebox.jpg,,,,,One Edge Diff,Five Edge Six Edge
null,,html-keyboard-response,1291253,<p></p>,,,,null,,,,,,,,,,,,,,
1880,,shortestpath_phase,1293134,GW/paint.jpg,,,,49,GW/gong.jpg,GW/camera.jpg,1,0.5444444444444444,,,,GW/gong.jpg,,,,,One Edge Diff,Two Edge Three Edge
null,,html-keyboard-response,1294136,<p></p>,,,,null,,,,,,,,,,,,,,
1914.1000003814697,,shortestpath_phase,1296051,GW/hat.jpg,,,,50,GW/globe.jpg,GW/soldier.jpg,1,0.5494505494505495,,,,GW/soldier.jpg,,,,,One Edge Diff,Four Edge Five Edge
null,,html-keyboard-response,1297054,<p></p>,,,,null,,,,,,,,,,,,,,
2139,,shortestpath_phase,1299194,GW/wheelchair.jpg,,,,49,GW/dustpan.jpg,GW/gong.jpg,0,0.5434782608695652,,,,GW/gong.jpg,,,,,One Edge Diff,Three Edge Four Edge
null,,html-keyboard-response,1300195,<p></p>,,,,null,,,,,,,,,,,,,,
1834.8000001907349,,shortestpath_phase,1302031,GW/barrel.jpg,,,,50,GW/paint.jpg,GW/hat.jpg,1,0.5483870967741935,,,,GW/hat.jpg,,,,,Two Edge Diff,Two Edge Four Edge
null,,html-keyboard-response,1303032,<p></p>,,,,null,,,,,,,,,,,,,,
1226.3999996185303,,shortestpath_phase,1304259,GW/teeth.jpg,,,,50,GW/jukebox.jpg,GW/paint.jpg,0,0.5425531914893617,,,,GW/jukebox.jpg,,,,,Three Edge Diff,Two Edge Five Edge
null,,html-keyboard-response,1305262,<p></p>,,,,null,,,,,,,,,,,,,,
1359.1999998092651,,shortestpath_phase,1306622,GW/snail.jpg,,,,50,GW/paint.jpg,GW/barrel.jpg,1,0.5473684210526316,,,,GW/barrel.jpg,,,,,Two Edge Diff,Two Edge Four Edge
null,,html-keyboard-response,1307624,<p></p>,,,,null,,,,,,,,,,,,,,
1625.3000001907349,,shortestpath_phase,1309251,GW/hat.jpg,,,,50,GW/globe.jpg,GW/dustpan.jpg,0,0.5416666666666666,,,,GW/globe.jpg,,,,,One Edge Diff,Five Edge Six Edge
null,,html-keyboard-response,1310252,<p></p>,,,,null,,,,,,,,,,,,,,
1924.8999996185303,,shortestpath_phase,1312178,GW/paint.jpg,,,,50,GW/jukebox.jpg,GW/teeth.jpg,1,0.5463917525773195,,,,GW/teeth.jpg,,,,,One Edge Diff,Five Edge Six Edge
null,,html-keyboard-response,1313181,<p></p>,,,,null,,,,,,,,,,,,,,
1933.6999998092651,,shortestpath_phase,1315115,GW/globe.jpg,,,,50,GW/snail.jpg,GW/teeth.jpg,0,0.5408163265306123,,,,GW/snail.jpg,,,,,Two Edge Diff,Two Edge Four Edge
null,,html-keyboard-response,1316117,<p></p>,,,,null,,,,,,,,,,,,,,
1626,,shortestpath_phase,1317744,GW/dustpan.jpg,,,,50,GW/gong.jpg,GW/teeth.jpg,0,0.5353535353535354,,,,GW/gong.jpg,,,,,Three Edge Diff,Three Edge Six Edge
null,,html-keyboard-response,1318746,<p></p>,,,,null,,,,,,,,,,,,,,
1764.7000007629395,,shortestpath_phase,1320511,GW/jukebox.jpg,,,,49,GW/basket.jpg,GW/snail.jpg,0,0.53,,,,GW/snail.jpg,,,,,Three Edge Diff,Two Edge Five Edge
null,,html-keyboard-response,1321513,<p></p>,,,,null,,,,,,,,,,,,,,
1834.7999992370605,,shortestpath_phase,1323349,GW/dustpan.jpg,,,,49,GW/soldier.jpg,GW/jukebox.jpg,1,0.5346534653465347,,,,GW/soldier.jpg,,,,,Three Edge Diff,Three Edge Six Edge
null,,html-keyboard-response,1324352,<p></p>,,,,null,,,,,,,,,,,,,,
1733.8999996185303,,shortestpath_phase,1326087,GW/snail.jpg,,,,50,GW/paint.jpg,GW/basket.jpg,1,0.5392156862745098,,,,GW/basket.jpg,,,,,One Edge Diff,Three Edge Four Edge
null,,html-keyboard-response,1327089,<p></p>,,,,null,,,,,,,,,,,,,,
1569.3000001907349,,shortestpath_phase,1328659,GW/barrel.jpg,,,,50,GW/gong.jpg,GW/soldier.jpg,0,0.5339805825242718,,,,GW/gong.jpg,,,,,One Edge Diff,Two Edge Three Edge
null,,html-keyboard-response,1329663,<p></p>,,,,null,,,,,,,,,,,,,,
1438.8999996185303,,shortestpath_phase,1331103,GW/jukebox.jpg,,,,50,GW/dustpan.jpg,GW/globe.jpg,1,0.5384615384615384,,,,GW/globe.jpg,,,,,One Edge Diff,Four Edge Five Edge
null,,html-keyboard-response,1332104,<p></p>,,,,null,,,,,,,,,,,,,,
2080,,shortestpath_phase,1334184,GW/teeth.jpg,,,,50,GW/globe.jpg,GW/gong.jpg,1,0.5428571428571428,,,,GW/gong.jpg,,,,,One Edge Diff,Three Edge Four Edge
null,,html-keyboard-response,1335186,<p></p>,,,,null,,,,,,,,,,,,,,
2279.4000005722046,,shortestpath_phase,1337467,GW/paint.jpg,,,,49,GW/barrel.jpg,GW/hat.jpg,1,0.5471698113207547,,,,GW/barrel.jpg,,,,,Two Edge Diff,Four Edge Six Edge
null,,html-keyboard-response,1338468,<p></p>,,,,null,,,,,,,,,,,,,,
1696.5,,shortestpath_phase,1340166,GW/teeth.jpg,,,,50,GW/snail.jpg,GW/dustpan.jpg,0,0.5420560747663551,,,,GW/snail.jpg,,,,,Three Edge Diff,Two Edge Five Edge
null,,html-keyboard-response,1341168,<p></p>,,,,null,,,,,,,,,,,,,,
2578.699999809265,,shortestpath_phase,1343748,GW/gong.jpg,,,,49,GW/teeth.jpg,GW/barrel.jpg,0,0.5370370370370371,,,,GW/barrel.jpg,,,,,One Edge Diff,Two Edge Three Edge
null,,html-keyboard-response,1344752,<p></p>,,,,null,,,,,,,,,,,,,,
1582.2000007629395,,shortestpath_phase,1346336,GW/jukebox.jpg,,,,50,GW/basket.jpg,GW/soldier.jpg,1,0.5412844036697247,,,,GW/soldier.jpg,,,,,Two Edge Diff,Three Edge Five Edge
null,,html-keyboard-response,1347338,<p></p>,,,,null,,,,,,,,,,,,,,
1379.6999998092651,,shortestpath_phase,1348718,GW/gong.jpg,,,,50,GW/hat.jpg,GW/barrel.jpg,1,0.5454545454545454,,,,GW/barrel.jpg,,,,,Two Edge Diff,Two Edge Four Edge
null,,html-keyboard-response,1349722,<p></p>,,,,null,,,,,,,,,,,,,,
2277.7000007629395,,shortestpath_phase,1352001,GW/dustpan.jpg,,,,50,GW/basket.jpg,GW/hat.jpg,0,0.5405405405405406,,,,GW/basket.jpg,,,,,Four Edge Diff,Two Edge Six Edge
null,,html-keyboard-response,1353003,<p></p>,,,,null,,,,,,,,,,,,,,
1644.2999992370605,,shortestpath_phase,1354648,GW/paint.jpg,,,,49,GW/wheelchair.jpg,GW/jukebox.jpg,1,0.5446428571428571,,,,GW/wheelchair.jpg,,,,,One Edge Diff,Five Edge Six Edge
null,,html-keyboard-response,1355650,<p></p>,,,,null,,,,,,,,,,,,,,
1670.7999992370605,,shortestpath_phase,1357322,GW/basket.jpg,,,,50,GW/teeth.jpg,GW/dustpan.jpg,1,0.5486725663716814,,,,GW/dustpan.jpg,,,,,Two Edge Diff,Two Edge Four Edge
null,,html-keyboard-response,1358324,<p></p>,,,,null,,,,,,,,,,,,,,
2470,,shortestpath_phase,1360795,GW/jukebox.jpg,,,,50,GW/snail.jpg,GW/dustpan.jpg,0,0.543859649122807,,,,GW/snail.jpg,,,,,Three Edge Diff,Three Edge Six Edge
null,,html-keyboard-response,1361796,<p></p>,,,,null,,,,,,,,,,,,,,
2638.7000007629395,,shortestpath_phase,1364436,GW/teeth.jpg,,,,49,GW/soldier.jpg,GW/dustpan.jpg,1,0.5478260869565217,,,,GW/soldier.jpg,,,,,Two Edge Diff,Three Edge Five Edge
null,,html-keyboard-response,1365439,<p></p>,,,,null,,,,,,,,,,,,,,
1499.1999998092651,,shortestpath_phase,1366939,GW/jukebox.jpg,,,,50,GW/paint.jpg,GW/dustpan.jpg,1,0.5517241379310345,,,,GW/dustpan.jpg,,,,,One Edge Diff,Five Edge Six Edge
null,,html-keyboard-response,1367941,<p></p>,,,,null,,,,,,,,,,,,,,
2403.2000007629395,,shortestpath_phase,1370345,GW/basket.jpg,,,,50,GW/hat.jpg,GW/teeth.jpg,1,0.5555555555555556,,,,GW/teeth.jpg,,,,,One Edge Diff,Four Edge Five Edge
null,,html-keyboard-response,1371348,<p></p>,,,,null,,,,,,,,,,,,,,
1569.9000005722046,,shortestpath_phase,1372919,GW/dustpan.jpg,,,,50,GW/jukebox.jpg,GW/paint.jpg,1,0.559322033898305,,,,GW/paint.jpg,,,,,Two Edge Diff,Three Edge Five Edge
null,,html-keyboard-response,1373922,<p></p>,,,,null,,,,,,,,,,,,,,
2958.3999996185303,,shortestpath_phase,1376881,GW/hat.jpg,,,,50,GW/camera.jpg,GW/soldier.jpg,0,0.5546218487394958,,,,GW/camera.jpg,,,,,One Edge Diff,Three Edge Four Edge
null,,html-keyboard-response,1377884,<p></p>,,,,null,,,,,,,,,,,,,,
3933.6000003814697,,shortestpath_phase,1381819,,,,,50,,,1,0.5583333333333333,,,,,,,,,Four Edge Diff,Two Edge Six Edge
null,,html-keyboard-response,1382820,<p></p>,,,,null,,,,,,,,,,,,,,
2453.0999994277954,,shortestpath_phase,1385274,,,,,49,,,1,0.5619834710743802,,,,,,,,,Three Edge Diff,Two Edge Five Edge
null,,html-keyboard-response,1386276,<p></p>,,,,null,,,,,,,,,,,,,,
23523.29999923706,,intro_1,1409800,instruct,,0,,,,,,,,,,,,,,,,
33869.89999961853,,intro_2,1443671,instruct,,1,Next,,,,,,,,,,,,,,,
3317,,intro_3,1446990,instruct,,1,Next,,,,,,,,,,,,,,,
