rt,responses,trial_type,time_elapsed,stimulus,graphorder,button_pressed,response,key_press,stimulus_left,stimulus_right,cumulative_accuracy,accuracy,stimulus_down_left,stimulus_down_mid,stimulus_down_right,stimulus_correct,stimulus_short,stimulus_far,weighted_accuracy,missedtrial,condition,specific_pairs
2877.399999856949,{worker_id:62926b2bba027005e0a84475},id_enter,2878,id_enter,GW/hat.jpg; GW/barrel.jpg; GW/paint.jpg; GW/soldier.jpg; GW/dustpan.jpg; GW/jukebox.jpg; GW/basket.jpg; GW/camera.jpg; GW/snail.jpg; GW/gong.jpg; GW/teeth.jpg; GW/wheelchair.jpg; GW/globe.jpg,,,,,,,,,,,,,,,,,
10968.899999856949,,fullscreen,13852,fullscreen,,0,,,,,,,,,,,,,,,,
10383.5,,intro_1,24237,instruct,,0,,,,,,,,,,,,,,,,
7991.600000143051,,intro_2,32230,instruct,,1,Next,,,,,,,,,,,,,,,
4197.200000047684,,intro_3,36428,instruct,,1,Next,,,,,,,,,,,,,,,
null,,learn_prac_1,38430,lean_prac_1,,,,null,,,,,,,,,,,,,,
null,,html-keyboard-response,39435,<p></p>,,,,null,,,,,,,,,,,,,,
1784.0999999046326,,intro_1,41220,instruct,,0,,,,,,,,,,,,,,,,
1501.3000001907349,,intro_2,42722,instruct,,1,Next,,,,,,,,,,,,,,,
null,,learn_prac_2,44723,lean_prac_2,,,,null,,,,,,,,,,,,,,
null,,html-keyboard-response,45725,<p></p>,,,,null,,,,,,,,,,,,,,
1232,,intro_1,46958,instruct,,0,,,,,,,,,,,,,,,,
4337.200000047684,,intro_2,51296,instruct,,1,Next,,,,,,,,,,,,,,,
9229,,intro_3,60526,instruct,,1,Next,,,,,,,,,,,,,,,
null,,prac_atten_color_black,60921,black_plus_sign,,,,null,,,,,,,,,,,,,,
null,,prac_atten_color,61931,prac_stop_color,,,,null,,,,,,,,,,,,,,
null,,prac_atten_color_black,63934,black_plus_sign,,,,null,,,,,,,,,,,,,,
16788.700000047684,,attentioncheck_help,80723,instruct,,,,32,,,,,,,,,,,,,,
null,,prac_atten_color_black,81118,black_plus_sign,,,,null,,,,,,,,,,,,,,
758.5,,prac_atten_color,82115,prac_stop_color,,,,49,,,,,,,,,,,,,,
null,,prac_atten_color_black,84117,black_plus_sign,,,,null,,,,,,,,,,,,,,
1711.1000001430511,,attentioncheck_help,85829,instruct,,,,32,,,,,,,,,,,,,,
null,,prac_atten_color_black,86240,black_plus_sign,,,,null,,,,,,,,,,,,,,
null,,prac_atten_color,86976,prac_stop_color,,,,null,,,,,,,,,,,,,,
1132,,prac_atten_color_black,88977,black_plus_sign,,,,50,,,,,,,,,,,,,,
null,,prac_atten_color_black,89647,black_plus_sign,,,,null,,,,,,,,,,,,,,
null,,prac_atten_color,90348,prac_stop_color,,,,null,,,,,,,,,,,,,,
95.79999995231628,,prac_atten_color_black,92350,black_plus_sign,,,,49,,,,,,,,,,,,,,
null,,prac_atten_color_black,93054,black_plus_sign,,,,null,,,,,,,,,,,,,,
468.2000000476837,,prac_atten_color,93898,prac_stop_color,,,,50,,,,,,,,,,,,,,
null,,prac_atten_color_black,95900,black_plus_sign,,,,null,,,,,,,,,,,,,,
null,,prac_atten_color_black,96471,black_plus_sign,,,,null,,,,,,,,,,,,,,
540.0999999046326,,prac_atten_color,97025,prac_stop_color,,,,49,,,,,,,,,,,,,,
null,,prac_atten_color_black,99027,black_plus_sign,,,,null,,,,,,,,,,,,,,
5376.700000047684,,attentioncheck_help,104405,instruct,,,,32,,,,,,,,,,,,,,
null,,prac_atten_color_black,105254,black_plus_sign,,,,null,,,,,,,,,,,,,,
null,,prac_atten_color,105697,prac_stop_color,,,,null,,,,,,,,,,,,,,
250,,prac_atten_color_black,107699,black_plus_sign,,,,49,,,,,,,,,,,,,,
null,,prac_atten_color_black,108662,black_plus_sign,,,,null,,,,,,,,,,,,,,
469.7999999523163,,prac_atten_color,109607,prac_stop_color,,,,50,,,,,,,,,,,,,,
null,,prac_atten_color_black,111609,black_plus_sign,,,,null,,,,,,,,,,,,,,
null,,prac_atten_color_black,112075,black_plus_sign,,,,null,,,,,,,,,,,,,,
344.59999990463257,,prac_atten_color,112700,prac_stop_color,,,,49,,,,,,,,,,,,,,
null,,prac_atten_color_black,114702,black_plus_sign,,,,null,,,,,,,,,,,,,,
null,,prac_atten_color_black,115482,black_plus_sign,,,,null,,,,,,,,,,,,,,
713.8999998569489,,prac_atten_color,116206,prac_stop_color,,,,49,,,,,,,,,,,,,,
null,,prac_atten_color_black,118208,black_plus_sign,,,,null,,,,,,,,,,,,,,
6384.099999904633,,attentioncheck_feedback,124594,cross_check_feedback,,0,,,,,,,,,,,,,,,,
2715,,last_instruct,127309,instruct,,,,32,,,,,,,,,,,,,,
null,,learn_phase(without_color),129311,black_plus_sign,,,,null,GW/basket.jpg,GW/snail.jpg,,,,,,,,,,,,
null,,black_cross(without_color),130068,blue,,,,null,GW/basket.jpg,GW/snail.jpg,,,,,,,,,,,,
null,,rt_plussign_withcolor,130570,blue,,,,null,GW/basket.jpg,GW/snail.jpg,,,,,,,,,,,,
null,,rt_thecrossant_black,131818,black_plus_sign,,,,null,,,NaN,,,,,,,,,,,
null,,color_black,131921,black_plus_sign,,,,null,,,,,,,,,,,,,,
null,,learn_phase(without_color),133923,black_plus_sign,,,,null,GW/camera.jpg,GW/snail.jpg,,,,,,,,,,,,
null,,black_cross(without_color),134654,blue,,,,null,GW/camera.jpg,GW/snail.jpg,,,,,,,,,,,,
null,,rt_plussign_withcolor,135156,blue,,,,null,GW/camera.jpg,GW/snail.jpg,,,,,,,,,,,,
null,,rt_thecrossant_black,136430,black_plus_sign,,,,null,,,NaN,,,,,,,,,,,
null,,warning_page,139433,warning,,,,null,,,,,,,,,,,,,,
null,,color_black,139535,black_plus_sign,,,,null,,,,,,,,,,,,,,
null,,learn_phase(without_color),141537,black_plus_sign,,,,null,GW/snail.jpg,GW/teeth.jpg,,,,,,,,,,,,
null,,black_cross(without_color),142537,blue,,,,null,GW/snail.jpg,GW/teeth.jpg,,,,,,,,,,,,
null,,rt_plussign_withcolor,143039,blue,,,,null,GW/snail.jpg,GW/teeth.jpg,,,,,,,,,,,,
1609.2999999523163,,rt_thecrossant_black,144043,black_plus_sign,,,,49,,,1,1,,,,,,,,,,
null,,color_black,144145,black_plus_sign,,,,null,,,,,,,,,,,,,,
null,,learn_phase(without_color),146148,black_plus_sign,,,,null,GW/soldier.jpg,GW/wheelchair.jpg,,,,,,,,,,,,
null,,black_cross(without_color),146748,blue,,,,null,GW/soldier.jpg,GW/wheelchair.jpg,,,,,,,,,,,,
null,,rt_plussign_withcolor,147248,blue,,,,null,GW/soldier.jpg,GW/wheelchair.jpg,,,,,,,,,,,,
1429.7000000476837,,rt_thecrossant_black,148652,black_plus_sign,,,,49,,,1,1,,,,,,,,,,
null,,color_black,148755,black_plus_sign,,,,null,,,,,,,,,,,,,,
null,,learn_phase(without_color),150758,black_plus_sign,,,,null,GW/snail.jpg,GW/teeth.jpg,,,,,,,,,,,,
null,,black_cross(without_color),151321,green,,,,null,GW/snail.jpg,GW/teeth.jpg,,,,,,,,,,,,
null,,rt_plussign_withcolor,151824,green,,,,null,GW/snail.jpg,GW/teeth.jpg,,,,,,,,,,,,
997.2999999523163,,rt_thecrossant_black,153266,black_plus_sign,,,,50,,,1,1,,,,,,,,,,
null,,color_black,153367,black_plus_sign,,,,null,,,,,,,,,,,,,,
null,,learn_phase(without_color),155370,black_plus_sign,,,,null,GW/camera.jpg,GW/snail.jpg,,,,,,,,,,,,
null,,black_cross(without_color),155943,green,,,,null,GW/camera.jpg,GW/snail.jpg,,,,,,,,,,,,
null,,rt_plussign_withcolor,156444,green,,,,null,GW/camera.jpg,GW/snail.jpg,,,,,,,,,,,,
1178.8999998569489,,rt_thecrossant_black,157874,black_plus_sign,,,,49,,,0.75,0,,,,,,,,,,
null,,color_black,157976,black_plus_sign,,,,null,,,,,,,,,,,,,,
null,,learn_phase(without_color),159977,black_plus_sign,,,,null,GW/paint.jpg,GW/jukebox.jpg,,,,,,,,,,,,
null,,black_cross(without_color),160551,green,,,,null,GW/paint.jpg,GW/jukebox.jpg,,,,,,,,,,,,
212.5,,rt_plussign_withcolor,161053,green,,,,50,GW/paint.jpg,GW/jukebox.jpg,,,,,,,,,,,,
null,,rt_thecrossant_black,162486,black_plus_sign,,,,null,,,0.8,1,,,,,,,,,,
null,,color_black,162589,black_plus_sign,,,,null,,,,,,,,,,,,,,
null,,learn_phase(without_color),164592,black_plus_sign,,,,null,GW/camera.jpg,GW/gong.jpg,,,,,,,,,,,,
null,,black_cross(without_color),165365,green,,,,null,GW/camera.jpg,GW/gong.jpg,,,,,,,,,,,,
null,,rt_plussign_withcolor,165867,green,,,,null,GW/camera.jpg,GW/gong.jpg,,,,,,,,,,,,
901.7000000476837,,rt_thecrossant_black,167097,black_plus_sign,,,,50,,,0.8333333333333334,1,,,,,,,,,,
null,,color_black,167200,black_plus_sign,,,,null,,,,,,,,,,,,,,
null,,learn_phase(without_color),169202,black_plus_sign,,,,null,GW/soldier.jpg,GW/wheelchair.jpg,,,,,,,,,,,,
null,,black_cross(without_color),169694,green,,,,null,GW/soldier.jpg,GW/wheelchair.jpg,,,,,,,,,,,,
null,,rt_plussign_withcolor,170196,green,,,,null,GW/soldier.jpg,GW/wheelchair.jpg,,,,,,,,,,,,
1816,,rt_thecrossant_black,171709,black_plus_sign,,,,49,,,0.7142857142857143,0,,,,,,,,,,
null,,color_black,171811,black_plus_sign,,,,null,,,,,,,,,,,,,,
null,,learn_phase(without_color),173814,black_plus_sign,,,,null,GW/basket.jpg,GW/globe.jpg,,,,,,,,,,,,
null,,black_cross(without_color),174485,blue,,,,null,GW/basket.jpg,GW/globe.jpg,,,,,,,,,,,,
null,,rt_plussign_withcolor,174987,blue,,,,null,GW/basket.jpg,GW/globe.jpg,,,,,,,,,,,,
1420.7999999523163,,rt_thecrossant_black,176321,black_plus_sign,,,,49,,,0.75,1,,,,,,,,,,
null,,color_black,176424,black_plus_sign,,,,null,,,,,,,,,,,,,,
null,,learn_phase(without_color),178427,black_plus_sign,,,,null,GW/basket.jpg,GW/camera.jpg,,,,,,,,,,,,
null,,black_cross(without_color),178962,blue,,,,null,GW/basket.jpg,GW/camera.jpg,,,,,,,,,,,,
null,,rt_plussign_withcolor,179464,blue,,,,null,GW/basket.jpg,GW/camera.jpg,,,,,,,,,,,,
1660,,rt_thecrossant_black,180933,black_plus_sign,,,,49,,,0.7777777777777778,1,,,,,,,,,,
null,,color_black,181035,black_plus_sign,,,,null,,,,,,,,,,,,,,
null,,learn_phase(without_color),183036,black_plus_sign,,,,null,GW/snail.jpg,GW/teeth.jpg,,,,,,,,,,,,
null,,black_cross(without_color),183910,green,,,,null,GW/snail.jpg,GW/teeth.jpg,,,,,,,,,,,,
null,,rt_plussign_withcolor,184412,green,,,,null,GW/snail.jpg,GW/teeth.jpg,,,,,,,,,,,,
1048.8000001907349,,rt_thecrossant_black,185551,black_plus_sign,,,,50,,,0.8,1,,,,,,,,,,
null,,color_black,185654,black_plus_sign,,,,null,,,,,,,,,,,,,,
null,,learn_phase(without_color),187655,black_plus_sign,,,,null,GW/jukebox.jpg,GW/snail.jpg,,,,,,,,,,,,
null,,black_cross(without_color),188323,green,,,,null,GW/jukebox.jpg,GW/snail.jpg,,,,,,,,,,,,
null,,rt_plussign_withcolor,188825,green,,,,null,GW/jukebox.jpg,GW/snail.jpg,,,,,,,,,,,,
1989.5,,rt_thecrossant_black,190170,black_plus_sign,,,,50,,,0.8181818181818182,1,,,,,,,,,,
null,,color_black,190272,black_plus_sign,,,,null,,,,,,,,,,,,,,
null,,learn_phase(without_color),192275,black_plus_sign,,,,null,GW/paint.jpg,GW/teeth.jpg,,,,,,,,,,,,
null,,black_cross(without_color),193180,blue,,,,null,GW/paint.jpg,GW/teeth.jpg,,,,,,,,,,,,
null,,rt_plussign_withcolor,193682,blue,,,,null,GW/paint.jpg,GW/teeth.jpg,,,,,,,,,,,,
1342.3999998569489,,rt_thecrossant_black,194781,black_plus_sign,,,,49,,,0.8333333333333334,1,,,,,,,,,,
null,,color_black,194884,black_plus_sign,,,,null,,,,,,,,,,,,,,
null,,learn_phase(without_color),196887,black_plus_sign,,,,null,GW/teeth.jpg,GW/wheelchair.jpg,,,,,,,,,,,,
null,,black_cross(without_color),197738,green,,,,null,GW/teeth.jpg,GW/wheelchair.jpg,,,,,,,,,,,,
null,,rt_plussign_withcolor,198240,green,,,,null,GW/teeth.jpg,GW/wheelchair.jpg,,,,,,,,,,,,
1366.3000001907349,,rt_thecrossant_black,199393,black_plus_sign,,,,50,,,0.8461538461538461,1,,,,,,,,,,
null,,color_black,199495,black_plus_sign,,,,null,,,,,,,,,,,,,,
null,,learn_phase(without_color),201498,black_plus_sign,,,,null,GW/basket.jpg,GW/globe.jpg,,,,,,,,,,,,
null,,black_cross(without_color),202496,green,,,,null,GW/basket.jpg,GW/globe.jpg,,,,,,,,,,,,
null,,rt_plussign_withcolor,202997,green,,,,null,GW/basket.jpg,GW/globe.jpg,,,,,,,,,,,,
1428.7000000476837,,rt_thecrossant_black,204008,black_plus_sign,,,,50,,,0.8571428571428571,1,,,,,,,,,,
null,,color_black,204109,black_plus_sign,,,,null,,,,,,,,,,,,,,
null,,learn_phase(without_color),206112,black_plus_sign,,,,null,GW/barrel.jpg,GW/paint.jpg,,,,,,,,,,,,
null,,black_cross(without_color),206627,green,,,,null,GW/barrel.jpg,GW/paint.jpg,,,,,,,,,,,,
null,,rt_plussign_withcolor,207129,green,,,,null,GW/barrel.jpg,GW/paint.jpg,,,,,,,,,,,,
1458.5,,rt_thecrossant_black,208618,black_plus_sign,,,,50,,,0.8666666666666667,1,,,,,,,,,,
null,,color_black,208719,black_plus_sign,,,,null,,,,,,,,,,,,,,
null,,learn_phase(without_color),210722,black_plus_sign,,,,null,GW/basket.jpg,GW/snail.jpg,,,,,,,,,,,,
null,,black_cross(without_color),211591,blue,,,,null,GW/basket.jpg,GW/snail.jpg,,,,,,,,,,,,
null,,rt_plussign_withcolor,212092,blue,,,,null,GW/basket.jpg,GW/snail.jpg,,,,,,,,,,,,
925.2000000476837,,rt_thecrossant_black,213226,black_plus_sign,,,,49,,,0.875,1,,,,,,,,,,
null,,color_black,213329,black_plus_sign,,,,null,,,,,,,,,,,,,,
null,,learn_phase(without_color),215332,black_plus_sign,,,,null,GW/paint.jpg,GW/jukebox.jpg,,,,,,,,,,,,
null,,black_cross(without_color),216356,blue,,,,null,GW/paint.jpg,GW/jukebox.jpg,,,,,,,,,,,,
null,,rt_plussign_withcolor,216858,blue,,,,null,GW/paint.jpg,GW/jukebox.jpg,,,,,,,,,,,,
1361,,rt_thecrossant_black,217853,black_plus_sign,,,,49,,,0.8823529411764706,1,,,,,,,,,,
null,,color_black,217956,black_plus_sign,,,,null,,,,,,,,,,,,,,
null,,learn_phase(without_color),219958,black_plus_sign,,,,null,GW/basket.jpg,GW/snail.jpg,,,,,,,,,,,,
null,,black_cross(without_color),220544,blue,,,,null,GW/basket.jpg,GW/snail.jpg,,,,,,,,,,,,
null,,rt_plussign_withcolor,221046,blue,,,,null,GW/basket.jpg,GW/snail.jpg,,,,,,,,,,,,
1631.3000001907349,,rt_thecrossant_black,222464,black_plus_sign,,,,49,,,0.8888888888888888,1,,,,,,,,,,
null,,color_black,222565,black_plus_sign,,,,null,,,,,,,,,,,,,,
null,,learn_phase(without_color),224568,black_plus_sign,,,,null,GW/teeth.jpg,GW/wheelchair.jpg,,,,,,,,,,,,
null,,black_cross(without_color),225385,green,,,,null,GW/teeth.jpg,GW/wheelchair.jpg,,,,,,,,,,,,
null,,rt_plussign_withcolor,225886,green,,,,null,GW/teeth.jpg,GW/wheelchair.jpg,,,,,,,,,,,,
986.3999998569489,,rt_thecrossant_black,227074,black_plus_sign,,,,50,,,0.8947368421052632,1,,,,,,,,,,
null,,color_black,227176,black_plus_sign,,,,null,,,,,,,,,,,,,,
null,,learn_phase(without_color),229179,black_plus_sign,,,,null,GW/jukebox.jpg,GW/basket.jpg,,,,,,,,,,,,
null,,black_cross(without_color),229658,green,,,,null,GW/jukebox.jpg,GW/basket.jpg,,,,,,,,,,,,
null,,rt_plussign_withcolor,230160,green,,,,null,GW/jukebox.jpg,GW/basket.jpg,,,,,,,,,,,,
974.7000000476837,,rt_thecrossant_black,231686,black_plus_sign,,,,50,,,0.9,1,,,,,,,,,,
null,,color_black,231788,black_plus_sign,,,,null,,,,,,,,,,,,,,
null,,learn_phase(without_color),233789,black_plus_sign,,,,null,GW/paint.jpg,GW/teeth.jpg,,,,,,,,,,,,
null,,black_cross(without_color),234323,green,,,,null,GW/paint.jpg,GW/teeth.jpg,,,,,,,,,,,,
null,,rt_plussign_withcolor,234824,green,,,,null,GW/paint.jpg,GW/teeth.jpg,,,,,,,,,,,,
796.0999999046326,,rt_thecrossant_black,236296,black_plus_sign,,,,50,,,0.9047619047619048,1,,,,,,,,,,
null,,color_black,236398,black_plus_sign,,,,null,,,,,,,,,,,,,,
null,,learn_phase(without_color),238401,black_plus_sign,,,,null,GW/camera.jpg,GW/gong.jpg,,,,,,,,,,,,
null,,black_cross(without_color),239496,blue,,,,null,GW/camera.jpg,GW/gong.jpg,,,,,,,,,,,,
null,,rt_plussign_withcolor,240013,blue,,,,null,GW/camera.jpg,GW/gong.jpg,,,,,,,,,,,,
1079.0999999046326,,rt_thecrossant_black,240922,black_plus_sign,,,,50,,,0.8636363636363636,0,,,,,,,,,,
null,,color_black,241024,black_plus_sign,,,,null,,,,,,,,,,,,,,
null,,learn_phase(without_color),243026,black_plus_sign,,,,null,GW/jukebox.jpg,GW/basket.jpg,,,,,,,,,,,,
null,,black_cross(without_color),243741,green,,,,null,GW/jukebox.jpg,GW/basket.jpg,,,,,,,,,,,,
null,,rt_plussign_withcolor,244244,green,,,,null,GW/jukebox.jpg,GW/basket.jpg,,,,,,,,,,,,
1448.1999998092651,,rt_thecrossant_black,245533,black_plus_sign,,,,50,,,0.8695652173913043,1,,,,,,,,,,
null,,color_black,245635,black_plus_sign,,,,null,,,,,,,,,,,,,,
null,,learn_phase(without_color),247638,black_plus_sign,,,,null,GW/jukebox.jpg,GW/snail.jpg,,,,,,,,,,,,
null,,black_cross(without_color),248161,green,,,,null,GW/jukebox.jpg,GW/snail.jpg,,,,,,,,,,,,
null,,rt_plussign_withcolor,248664,green,,,,null,GW/jukebox.jpg,GW/snail.jpg,,,,,,,,,,,,
1032.1000001430511,,rt_thecrossant_black,250146,black_plus_sign,,,,50,,,0.875,1,,,,,,,,,,
null,,color_black,250249,black_plus_sign,,,,null,,,,,,,,,,,,,,
null,,learn_phase(without_color),252251,black_plus_sign,,,,null,GW/hat.jpg,GW/barrel.jpg,,,,,,,,,,,,
null,,black_cross(without_color),252856,green,,,,null,GW/hat.jpg,GW/barrel.jpg,,,,,,,,,,,,
null,,rt_plussign_withcolor,253357,green,,,,null,GW/hat.jpg,GW/barrel.jpg,,,,,,,,,,,,
914.5,,rt_thecrossant_black,254756,black_plus_sign,,,,50,,,0.88,1,,,,,,,,,,
null,,color_black,254858,black_plus_sign,,,,null,,,,,,,,,,,,,,
null,,learn_phase(without_color),256861,black_plus_sign,,,,null,GW/jukebox.jpg,GW/basket.jpg,,,,,,,,,,,,
null,,black_cross(without_color),257642,green,,,,null,GW/jukebox.jpg,GW/basket.jpg,,,,,,,,,,,,
null,,rt_plussign_withcolor,258143,green,,,,null,GW/jukebox.jpg,GW/basket.jpg,,,,,,,,,,,,
875.5,,rt_thecrossant_black,259367,black_plus_sign,,,,50,,,0.8846153846153846,1,,,,,,,,,,
null,,color_black,259470,black_plus_sign,,,,null,,,,,,,,,,,,,,
null,,learn_phase(without_color),261471,black_plus_sign,,,,null,GW/basket.jpg,GW/snail.jpg,,,,,,,,,,,,
null,,black_cross(without_color),262276,green,,,,null,GW/basket.jpg,GW/snail.jpg,,,,,,,,,,,,
null,,rt_plussign_withcolor,262778,green,,,,null,GW/basket.jpg,GW/snail.jpg,,,,,,,,,,,,
1086.5999999046326,,rt_thecrossant_black,263978,black_plus_sign,,,,50,,,0.8888888888888888,1,,,,,,,,,,
null,,color_black,264079,black_plus_sign,,,,null,,,,,,,,,,,,,,
null,,learn_phase(without_color),266082,black_plus_sign,,,,null,GW/camera.jpg,GW/gong.jpg,,,,,,,,,,,,
null,,black_cross(without_color),266817,blue,,,,null,GW/camera.jpg,GW/gong.jpg,,,,,,,,,,,,
null,,rt_plussign_withcolor,267319,blue,,,,null,GW/camera.jpg,GW/gong.jpg,,,,,,,,,,,,
1652,,rt_thecrossant_black,268589,black_plus_sign,,,,49,,,0.8928571428571429,1,,,,,,,,,,
null,,color_black,268692,black_plus_sign,,,,null,,,,,,,,,,,,,,
null,,learn_phase(without_color),270694,black_plus_sign,,,,null,GW/soldier.jpg,GW/dustpan.jpg,,,,,,,,,,,,
null,,black_cross(without_color),271794,green,,,,null,GW/soldier.jpg,GW/dustpan.jpg,,,,,,,,,,,,
null,,rt_plussign_withcolor,272296,green,,,,null,GW/soldier.jpg,GW/dustpan.jpg,,,,,,,,,,,,
947.7999999523163,,rt_thecrossant_black,273208,black_plus_sign,,,,50,,,0.896551724137931,1,,,,,,,,,,
null,,color_black,273310,black_plus_sign,,,,null,,,,,,,,,,,,,,
null,,learn_phase(without_color),275313,black_plus_sign,,,,null,GW/basket.jpg,GW/camera.jpg,,,,,,,,,,,,
null,,black_cross(without_color),276361,blue,,,,null,GW/basket.jpg,GW/camera.jpg,,,,,,,,,,,,
null,,rt_plussign_withcolor,276863,blue,,,,null,GW/basket.jpg,GW/camera.jpg,,,,,,,,,,,,
2041.5,,rt_thecrossant_black,277818,black_plus_sign,,,,49,,,0.9,1,,,,,,,,,,
null,,color_black,277921,black_plus_sign,,,,null,,,,,,,,,,,,,,
null,,learn_phase(without_color),279923,black_plus_sign,,,,null,GW/soldier.jpg,GW/dustpan.jpg,,,,,,,,,,,,
null,,black_cross(without_color),280776,green,,,,null,GW/soldier.jpg,GW/dustpan.jpg,,,,,,,,,,,,
null,,rt_plussign_withcolor,281277,green,,,,null,GW/soldier.jpg,GW/dustpan.jpg,,,,,,,,,,,,
1441.2999999523163,,rt_thecrossant_black,282429,black_plus_sign,,,,50,,,0.9032258064516129,1,,,,,,,,,,
null,,color_black,282544,black_plus_sign,,,,null,,,,,,,,,,,,,,
null,,learn_phase(without_color),284546,black_plus_sign,,,,null,GW/jukebox.jpg,GW/basket.jpg,,,,,,,,,,,,
null,,black_cross(without_color),285620,green,,,,null,GW/jukebox.jpg,GW/basket.jpg,,,,,,,,,,,,
null,,rt_plussign_withcolor,286122,green,,,,null,GW/jukebox.jpg,GW/basket.jpg,,,,,,,,,,,,
984.7000000476837,,rt_thecrossant_black,287052,black_plus_sign,,,,50,,,0.90625,1,,,,,,,,,,
null,,color_black,287155,black_plus_sign,,,,null,,,,,,,,,,,,,,
null,,learn_phase(without_color),289157,black_plus_sign,,,,null,GW/soldier.jpg,GW/wheelchair.jpg,,,,,,,,,,,,
null,,black_cross(without_color),290195,green,,,,null,GW/soldier.jpg,GW/wheelchair.jpg,,,,,,,,,,,,
null,,rt_plussign_withcolor,290697,green,,,,null,GW/soldier.jpg,GW/wheelchair.jpg,,,,,,,,,,,,
1862.4000000953674,,rt_thecrossant_black,291664,black_plus_sign,,,,50,,,0.9090909090909091,1,,,,,,,,,,
null,,color_black,291766,black_plus_sign,,,,null,,,,,,,,,,,,,,
null,,learn_phase(without_color),293769,black_plus_sign,,,,null,GW/basket.jpg,GW/snail.jpg,,,,,,,,,,,,
null,,black_cross(without_color),294867,green,,,,null,GW/basket.jpg,GW/snail.jpg,,,,,,,,,,,,
null,,rt_plussign_withcolor,295368,green,,,,null,GW/basket.jpg,GW/snail.jpg,,,,,,,,,,,,
1488.6000001430511,,rt_thecrossant_black,296274,black_plus_sign,,,,50,,,0.9117647058823529,1,,,,,,,,,,
null,,color_black,296377,black_plus_sign,,,,null,,,,,,,,,,,,,,
null,,learn_phase(without_color),298380,black_plus_sign,,,,null,GW/snail.jpg,GW/teeth.jpg,,,,,,,,,,,,
null,,black_cross(without_color),298931,blue,,,,null,GW/snail.jpg,GW/teeth.jpg,,,,,,,,,,,,
null,,rt_plussign_withcolor,299433,blue,,,,null,GW/snail.jpg,GW/teeth.jpg,,,,,,,,,,,,
1365.2999999523163,,rt_thecrossant_black,300886,black_plus_sign,,,,49,,,0.9142857142857143,1,,,,,,,,,,
null,,color_black,300988,black_plus_sign,,,,null,,,,,,,,,,,,,,
null,,learn_phase(without_color),302990,black_plus_sign,,,,null,GW/basket.jpg,GW/globe.jpg,,,,,,,,,,,,
null,,black_cross(without_color),303427,green,,,,null,GW/basket.jpg,GW/globe.jpg,,,,,,,,,,,,
null,,rt_plussign_withcolor,303929,green,,,,null,GW/basket.jpg,GW/globe.jpg,,,,,,,,,,,,
1162.4000000953674,,rt_thecrossant_black,305496,black_plus_sign,,,,50,,,0.9166666666666666,1,,,,,,,,,,
null,,color_black,305599,black_plus_sign,,,,null,,,,,,,,,,,,,,
null,,learn_phase(without_color),307612,black_plus_sign,,,,null,GW/hat.jpg,GW/barrel.jpg,,,,,,,,,,,,
null,,black_cross(without_color),308506,blue,,,,null,GW/hat.jpg,GW/barrel.jpg,,,,,,,,,,,,
null,,rt_plussign_withcolor,309008,blue,,,,null,GW/hat.jpg,GW/barrel.jpg,,,,,,,,,,,,
1490.0999999046326,,rt_thecrossant_black,310117,black_plus_sign,,,,49,,,0.918918918918919,1,,,,,,,,,,
null,,color_black,310228,black_plus_sign,,,,null,,,,,,,,,,,,,,
null,,learn_phase(without_color),312232,black_plus_sign,,,,null,GW/camera.jpg,GW/snail.jpg,,,,,,,,,,,,
null,,black_cross(without_color),312724,blue,,,,null,GW/camera.jpg,GW/snail.jpg,,,,,,,,,,,,
null,,rt_plussign_withcolor,313224,blue,,,,null,GW/camera.jpg,GW/snail.jpg,,,,,,,,,,,,
2291.7999999523163,,rt_thecrossant_black,314738,black_plus_sign,,,,49,,,0.9210526315789473,1,,,,,,,,,,
null,,color_black,314839,black_plus_sign,,,,null,,,,,,,,,,,,,,
null,,learn_phase(without_color),316843,black_plus_sign,,,,null,GW/barrel.jpg,GW/soldier.jpg,,,,,,,,,,,,
null,,black_cross(without_color),317322,green,,,,null,GW/barrel.jpg,GW/soldier.jpg,,,,,,,,,,,,
null,,rt_plussign_withcolor,317824,green,,,,null,GW/barrel.jpg,GW/soldier.jpg,,,,,,,,,,,,
1264.2000000476837,,rt_thecrossant_black,319349,black_plus_sign,,,,50,,,0.9230769230769231,1,,,,,,,,,,
null,,color_black,319454,black_plus_sign,,,,null,,,,,,,,,,,,,,
null,,learn_phase(without_color),321456,black_plus_sign,,,,null,GW/basket.jpg,GW/camera.jpg,,,,,,,,,,,,
null,,black_cross(without_color),322260,blue,,,,null,GW/basket.jpg,GW/camera.jpg,,,,,,,,,,,,
null,,rt_plussign_withcolor,322762,blue,,,,null,GW/basket.jpg,GW/camera.jpg,,,,,,,,,,,,
1307.1000001430511,,rt_thecrossant_black,323962,black_plus_sign,,,,49,,,0.925,1,,,,,,,,,,
null,,color_black,324064,black_plus_sign,,,,null,,,,,,,,,,,,,,
null,,learn_phase(without_color),326067,black_plus_sign,,,,null,GW/camera.jpg,GW/snail.jpg,,,,,,,,,,,,
null,,black_cross(without_color),326724,green,,,,null,GW/camera.jpg,GW/snail.jpg,,,,,,,,,,,,
null,,rt_plussign_withcolor,327226,green,,,,null,GW/camera.jpg,GW/snail.jpg,,,,,,,,,,,,
1176.8000001907349,,rt_thecrossant_black,328573,black_plus_sign,,,,50,,,0.926829268292683,1,,,,,,,,,,
null,,color_black,328675,black_plus_sign,,,,null,,,,,,,,,,,,,,
null,,learn_phase(without_color),330679,black_plus_sign,,,,null,GW/paint.jpg,GW/teeth.jpg,,,,,,,,,,,,
null,,black_cross(without_color),331380,blue,,,,null,GW/paint.jpg,GW/teeth.jpg,,,,,,,,,,,,
null,,rt_plussign_withcolor,331881,blue,,,,null,GW/paint.jpg,GW/teeth.jpg,,,,,,,,,,,,
1884.5,,rt_thecrossant_black,333184,black_plus_sign,,,,49,,,0.9285714285714286,1,,,,,,,,,,
null,,color_black,333287,black_plus_sign,,,,null,,,,,,,,,,,,,,
null,,learn_phase(without_color),335290,black_plus_sign,,,,null,GW/barrel.jpg,GW/soldier.jpg,,,,,,,,,,,,
null,,black_cross(without_color),336159,green,,,,null,GW/barrel.jpg,GW/soldier.jpg,,,,,,,,,,,,
null,,rt_plussign_withcolor,336662,green,,,,null,GW/barrel.jpg,GW/soldier.jpg,,,,,,,,,,,,
1220.3999998569489,,rt_thecrossant_black,337797,black_plus_sign,,,,50,,,0.9302325581395349,1,,,,,,,,,,
null,,color_black,337900,black_plus_sign,,,,null,,,,,,,,,,,,,,
null,,learn_phase(without_color),339902,black_plus_sign,,,,null,GW/soldier.jpg,GW/wheelchair.jpg,,,,,,,,,,,,
null,,black_cross(without_color),340417,green,,,,null,GW/soldier.jpg,GW/wheelchair.jpg,,,,,,,,,,,,
null,,rt_plussign_withcolor,340919,green,,,,null,GW/soldier.jpg,GW/wheelchair.jpg,,,,,,,,,,,,
1235.7000000476837,,rt_thecrossant_black,342408,black_plus_sign,,,,50,,,0.9318181818181818,1,,,,,,,,,,
null,,color_black,342510,black_plus_sign,,,,null,,,,,,,,,,,,,,
null,,learn_phase(without_color),344512,black_plus_sign,,,,null,GW/snail.jpg,GW/teeth.jpg,,,,,,,,,,,,
null,,black_cross(without_color),345152,blue,,,,null,GW/snail.jpg,GW/teeth.jpg,,,,,,,,,,,,
null,,rt_plussign_withcolor,345653,blue,,,,null,GW/snail.jpg,GW/teeth.jpg,,,,,,,,,,,,
1211.1000001430511,,rt_thecrossant_black,347019,black_plus_sign,,,,49,,,0.9333333333333333,1,,,,,,,,,,
null,,color_black,347121,black_plus_sign,,,,null,,,,,,,,,,,,,,
null,,learn_phase(without_color),349124,black_plus_sign,,,,null,GW/soldier.jpg,GW/wheelchair.jpg,,,,,,,,,,,,
null,,black_cross(without_color),349746,green,,,,null,GW/soldier.jpg,GW/wheelchair.jpg,,,,,,,,,,,,
null,,rt_plussign_withcolor,350248,green,,,,null,GW/soldier.jpg,GW/wheelchair.jpg,,,,,,,,,,,,
1428.7999999523163,,rt_thecrossant_black,351632,black_plus_sign,,,,50,,,0.9347826086956522,1,,,,,,,,,,
null,,color_black,351734,black_plus_sign,,,,null,,,,,,,,,,,,,,
null,,learn_phase(without_color),353737,black_plus_sign,,,,null,GW/jukebox.jpg,GW/basket.jpg,,,,,,,,,,,,
null,,black_cross(without_color),354497,green,,,,null,GW/jukebox.jpg,GW/basket.jpg,,,,,,,,,,,,
null,,rt_plussign_withcolor,354998,green,,,,null,GW/jukebox.jpg,GW/basket.jpg,,,,,,,,,,,,
1389.2999999523163,,rt_thecrossant_black,356242,black_plus_sign,,,,50,,,0.9361702127659575,1,,,,,,,,,,
null,,color_black,356344,black_plus_sign,,,,null,,,,,,,,,,,,,,
null,,learn_phase(without_color),358347,black_plus_sign,,,,null,GW/snail.jpg,GW/teeth.jpg,,,,,,,,,,,,
null,,black_cross(without_color),359281,green,,,,null,GW/snail.jpg,GW/teeth.jpg,,,,,,,,,,,,
null,,rt_plussign_withcolor,359783,green,,,,null,GW/snail.jpg,GW/teeth.jpg,,,,,,,,,,,,
1037,,rt_thecrossant_black,360852,black_plus_sign,,,,50,,,0.9375,1,,,,,,,,,,
null,,color_black,360954,black_plus_sign,,,,null,,,,,,,,,,,,,,
null,,learn_phase(without_color),362957,black_plus_sign,,,,null,GW/barrel.jpg,GW/soldier.jpg,,,,,,,,,,,,
null,,black_cross(without_color),363580,green,,,,null,GW/barrel.jpg,GW/soldier.jpg,,,,,,,,,,,,
431.7999999523163,,rt_plussign_withcolor,364082,green,,,,50,GW/barrel.jpg,GW/soldier.jpg,,,,,,,,,,,,
null,,rt_thecrossant_black,365471,black_plus_sign,,,,null,,,0.9387755102040817,1,,,,,,,,,,
null,,color_black,365573,black_plus_sign,,,,null,,,,,,,,,,,,,,
null,,learn_phase(without_color),367576,black_plus_sign,,,,null,GW/jukebox.jpg,GW/snail.jpg,,,,,,,,,,,,
null,,black_cross(without_color),368149,blue,,,,null,GW/jukebox.jpg,GW/snail.jpg,,,,,,,,,,,,
375.2000000476837,,rt_plussign_withcolor,368650,blue,,,,49,GW/jukebox.jpg,GW/snail.jpg,,,,,,,,,,,,
null,,rt_thecrossant_black,370082,black_plus_sign,,,,null,,,0.94,1,,,,,,,,,,
null,,color_black,370185,black_plus_sign,,,,null,,,,,,,,,,,,,,
null,,learn_phase(without_color),372189,black_plus_sign,,,,null,GW/barrel.jpg,GW/paint.jpg,,,,,,,,,,,,
null,,black_cross(without_color),372602,blue,,,,null,GW/barrel.jpg,GW/paint.jpg,,,,,,,,,,,,
null,,rt_plussign_withcolor,373104,blue,,,,null,GW/barrel.jpg,GW/paint.jpg,,,,,,,,,,,,
928,,rt_thecrossant_black,374695,black_plus_sign,,,,49,,,0.9411764705882353,1,,,,,,,,,,
null,,color_black,374797,black_plus_sign,,,,null,,,,,,,,,,,,,,
null,,learn_phase(without_color),376799,black_plus_sign,,,,null,GW/hat.jpg,GW/barrel.jpg,,,,,,,,,,,,
null,,black_cross(without_color),377724,blue,,,,null,GW/hat.jpg,GW/barrel.jpg,,,,,,,,,,,,
null,,rt_plussign_withcolor,378226,blue,,,,null,GW/hat.jpg,GW/barrel.jpg,,,,,,,,,,,,
729.5999999046326,,rt_thecrossant_black,379305,black_plus_sign,,,,49,,,0.9423076923076923,1,,,,,,,,,,
null,,color_black,379408,black_plus_sign,,,,null,,,,,,,,,,,,,,
null,,learn_phase(without_color),381410,black_plus_sign,,,,null,GW/soldier.jpg,GW/dustpan.jpg,,,,,,,,,,,,
null,,black_cross(without_color),382287,green,,,,null,GW/soldier.jpg,GW/dustpan.jpg,,,,,,,,,,,,
null,,rt_plussign_withcolor,382789,green,,,,null,GW/soldier.jpg,GW/dustpan.jpg,,,,,,,,,,,,
1181.6000001430511,,rt_thecrossant_black,383916,black_plus_sign,,,,50,,,0.9433962264150944,1,,,,,,,,,,
null,,color_black,384018,black_plus_sign,,,,null,,,,,,,,,,,,,,
null,,learn_phase(without_color),386021,black_plus_sign,,,,null,GW/camera.jpg,GW/gong.jpg,,,,,,,,,,,,
null,,black_cross(without_color),386787,green,,,,null,GW/camera.jpg,GW/gong.jpg,,,,,,,,,,,,
null,,rt_plussign_withcolor,387289,green,,,,null,GW/camera.jpg,GW/gong.jpg,,,,,,,,,,,,
1320.1999998092651,,rt_thecrossant_black,388527,black_plus_sign,,,,50,,,0.9444444444444444,1,,,,,,,,,,
null,,color_black,388630,black_plus_sign,,,,null,,,,,,,,,,,,,,
null,,learn_phase(without_color),390634,black_plus_sign,,,,null,GW/barrel.jpg,GW/paint.jpg,,,,,,,,,,,,
null,,black_cross(without_color),391166,green,,,,null,GW/barrel.jpg,GW/paint.jpg,,,,,,,,,,,,
null,,rt_plussign_withcolor,391667,green,,,,null,GW/barrel.jpg,GW/paint.jpg,,,,,,,,,,,,
1792.1999998092651,,rt_thecrossant_black,393139,black_plus_sign,,,,50,,,0.9454545454545454,1,,,,,,,,,,
null,,color_black,393244,black_plus_sign,,,,null,,,,,,,,,,,,,,
null,,learn_phase(without_color),395246,black_plus_sign,,,,null,GW/soldier.jpg,GW/wheelchair.jpg,,,,,,,,,,,,
null,,black_cross(without_color),395708,green,,,,null,GW/soldier.jpg,GW/wheelchair.jpg,,,,,,,,,,,,
null,,rt_plussign_withcolor,396220,green,,,,null,GW/soldier.jpg,GW/wheelchair.jpg,,,,,,,,,,,,
909.5999999046326,,rt_thecrossant_black,397761,black_plus_sign,,,,50,,,0.9464285714285714,1,,,,,,,,,,
null,,color_black,397864,black_plus_sign,,,,null,,,,,,,,,,,,,,
null,,learn_phase(without_color),399866,black_plus_sign,,,,null,GW/barrel.jpg,GW/paint.jpg,,,,,,,,,,,,
null,,black_cross(without_color),400456,blue,,,,null,GW/barrel.jpg,GW/paint.jpg,,,,,,,,,,,,
null,,rt_plussign_withcolor,400962,blue,,,,null,GW/barrel.jpg,GW/paint.jpg,,,,,,,,,,,,
1210.2000000476837,,rt_thecrossant_black,402375,black_plus_sign,,,,49,,,0.9473684210526315,1,,,,,,,,,,
null,,color_black,402478,black_plus_sign,,,,null,,,,,,,,,,,,,,
null,,learn_phase(without_color),404480,black_plus_sign,,,,null,GW/camera.jpg,GW/snail.jpg,,,,,,,,,,,,
null,,black_cross(without_color),405348,green,,,,null,GW/camera.jpg,GW/snail.jpg,,,,,,,,,,,,
399.89999985694885,,rt_plussign_withcolor,405852,green,,,,50,GW/camera.jpg,GW/snail.jpg,,,,,,,,,,,,
null,,rt_thecrossant_black,406989,black_plus_sign,,,,null,,,0.9482758620689655,1,,,,,,,,,,
null,,color_black,407089,black_plus_sign,,,,null,,,,,,,,,,,,,,
null,,learn_phase(without_color),409091,black_plus_sign,,,,null,GW/barrel.jpg,GW/paint.jpg,,,,,,,,,,,,
null,,black_cross(without_color),410101,blue,,,,null,GW/barrel.jpg,GW/paint.jpg,,,,,,,,,,,,
415,,rt_plussign_withcolor,410604,blue,,,,49,GW/barrel.jpg,GW/paint.jpg,,,,,,,,,,,,
null,,rt_thecrossant_black,411599,black_plus_sign,,,,null,,,0.9491525423728814,1,,,,,,,,,,
null,,color_black,411700,black_plus_sign,,,,null,,,,,,,,,,,,,,
null,,learn_phase(without_color),413704,black_plus_sign,,,,null,GW/hat.jpg,GW/barrel.jpg,,,,,,,,,,,,
null,,black_cross(without_color),414634,blue,,,,null,GW/hat.jpg,GW/barrel.jpg,,,,,,,,,,,,
null,,rt_plussign_withcolor,415136,blue,,,,null,GW/hat.jpg,GW/barrel.jpg,,,,,,,,,,,,
1223.4000000953674,,rt_thecrossant_black,416211,black_plus_sign,,,,49,,,0.95,1,,,,,,,,,,
null,,color_black,416313,black_plus_sign,,,,null,,,,,,,,,,,,,,
null,,learn_phase(without_color),418316,black_plus_sign,,,,null,GW/soldier.jpg,GW/dustpan.jpg,,,,,,,,,,,,
null,,black_cross(without_color),419244,blue,,,,null,GW/soldier.jpg,GW/dustpan.jpg,,,,,,,,,,,,
null,,rt_plussign_withcolor,419746,blue,,,,null,GW/soldier.jpg,GW/dustpan.jpg,,,,,,,,,,,,
1131.7999999523163,,rt_thecrossant_black,420829,black_plus_sign,,,,49,,,0.9508196721311475,1,,,,,,,,,,
null,,color_black,420936,black_plus_sign,,,,null,,,,,,,,,,,,,,
null,,learn_phase(without_color),422939,black_plus_sign,,,,null,GW/barrel.jpg,GW/paint.jpg,,,,,,,,,,,,
null,,black_cross(without_color),423508,blue,,,,null,GW/barrel.jpg,GW/paint.jpg,,,,,,,,,,,,
null,,rt_plussign_withcolor,424010,blue,,,,null,GW/barrel.jpg,GW/paint.jpg,,,,,,,,,,,,
1162.5999999046326,,rt_thecrossant_black,425445,black_plus_sign,,,,49,,,0.9516129032258065,1,,,,,,,,,,
null,,color_black,425547,black_plus_sign,,,,null,,,,,,,,,,,,,,
null,,learn_phase(without_color),427550,black_plus_sign,,,,null,GW/jukebox.jpg,GW/basket.jpg,,,,,,,,,,,,
null,,black_cross(without_color),428564,green,,,,null,GW/jukebox.jpg,GW/basket.jpg,,,,,,,,,,,,
null,,rt_plussign_withcolor,429065,green,,,,null,GW/jukebox.jpg,GW/basket.jpg,,,,,,,,,,,,
821.5,,rt_thecrossant_black,430055,black_plus_sign,,,,50,,,0.9523809523809523,1,,,,,,,,,,
null,,color_black,430158,black_plus_sign,,,,null,,,,,,,,,,,,,,
null,,learn_phase(without_color),432161,black_plus_sign,,,,null,GW/basket.jpg,GW/snail.jpg,,,,,,,,,,,,
null,,black_cross(without_color),432906,blue,,,,null,GW/basket.jpg,GW/snail.jpg,,,,,,,,,,,,
null,,rt_plussign_withcolor,433418,blue,,,,null,GW/basket.jpg,GW/snail.jpg,,,,,,,,,,,,
1441.6999998092651,,rt_thecrossant_black,434678,black_plus_sign,,,,49,,,0.953125,1,,,,,,,,,,
null,,color_black,434780,black_plus_sign,,,,null,,,,,,,,,,,,,,
null,,learn_phase(without_color),436783,black_plus_sign,,,,null,GW/basket.jpg,GW/camera.jpg,,,,,,,,,,,,
null,,black_cross(without_color),437231,green,,,,null,GW/basket.jpg,GW/camera.jpg,,,,,,,,,,,,
null,,rt_plussign_withcolor,437734,green,,,,null,GW/basket.jpg,GW/camera.jpg,,,,,,,,,,,,
1191.7000000476837,,rt_thecrossant_black,439290,black_plus_sign,,,,50,,,0.9538461538461539,1,,,,,,,,,,
null,,color_black,439405,black_plus_sign,,,,null,,,,,,,,,,,,,,
null,,learn_phase(without_color),441408,black_plus_sign,,,,null,GW/basket.jpg,GW/globe.jpg,,,,,,,,,,,,
null,,black_cross(without_color),442509,blue,,,,null,GW/basket.jpg,GW/globe.jpg,,,,,,,,,,,,
null,,rt_plussign_withcolor,443011,blue,,,,null,GW/basket.jpg,GW/globe.jpg,,,,,,,,,,,,
1074.2999999523163,,rt_thecrossant_black,443915,black_plus_sign,,,,49,,,0.9545454545454546,1,,,,,,,,,,
null,,color_black,444017,black_plus_sign,,,,null,,,,,,,,,,,,,,
null,,learn_phase(without_color),446019,black_plus_sign,,,,null,GW/paint.jpg,GW/teeth.jpg,,,,,,,,,,,,
null,,black_cross(without_color),446790,green,,,,null,GW/paint.jpg,GW/teeth.jpg,,,,,,,,,,,,
null,,rt_plussign_withcolor,447292,green,,,,null,GW/paint.jpg,GW/teeth.jpg,,,,,,,,,,,,
1365.7999999523163,,rt_thecrossant_black,448525,black_plus_sign,,,,50,,,0.9552238805970149,1,,,,,,,,,,
null,,color_black,448628,black_plus_sign,,,,null,,,,,,,,,,,,,,
null,,learn_phase(without_color),450632,black_plus_sign,,,,null,GW/barrel.jpg,GW/paint.jpg,,,,,,,,,,,,
null,,black_cross(without_color),451191,green,,,,null,GW/barrel.jpg,GW/paint.jpg,,,,,,,,,,,,
null,,rt_plussign_withcolor,451692,green,,,,null,GW/barrel.jpg,GW/paint.jpg,,,,,,,,,,,,
1195.8000001907349,,rt_thecrossant_black,453137,black_plus_sign,,,,50,,,0.9558823529411765,1,,,,,,,,,,
null,,color_black,453239,black_plus_sign,,,,null,,,,,,,,,,,,,,
null,,learn_phase(without_color),455242,black_plus_sign,,,,null,GW/basket.jpg,GW/globe.jpg,,,,,,,,,,,,
null,,black_cross(without_color),456173,green,,,,null,GW/basket.jpg,GW/globe.jpg,,,,,,,,,,,,
null,,rt_plussign_withcolor,456675,green,,,,null,GW/basket.jpg,GW/globe.jpg,,,,,,,,,,,,
1714,,rt_thecrossant_black,457749,black_plus_sign,,,,50,,,0.9565217391304348,1,,,,,,,,,,
null,,color_black,457852,black_plus_sign,,,,null,,,,,,,,,,,,,,
null,,learn_phase(without_color),459854,black_plus_sign,,,,null,GW/jukebox.jpg,GW/snail.jpg,,,,,,,,,,,,
null,,black_cross(without_color),460739,blue,,,,null,GW/jukebox.jpg,GW/snail.jpg,,,,,,,,,,,,
null,,rt_plussign_withcolor,461240,blue,,,,null,GW/jukebox.jpg,GW/snail.jpg,,,,,,,,,,,,
1350.5999999046326,,rt_thecrossant_black,462361,black_plus_sign,,,,49,,,0.9571428571428572,1,,,,,,,,,,
null,,color_black,462464,black_plus_sign,,,,null,,,,,,,,,,,,,,
null,,learn_phase(without_color),464473,black_plus_sign,,,,null,GW/paint.jpg,GW/teeth.jpg,,,,,,,,,,,,
null,,black_cross(without_color),464897,blue,,,,null,GW/paint.jpg,GW/teeth.jpg,,,,,,,,,,,,
null,,rt_plussign_withcolor,465408,blue,,,,null,GW/paint.jpg,GW/teeth.jpg,,,,,,,,,,,,
1536.5999999046326,,rt_thecrossant_black,466989,black_plus_sign,,,,49,,,0.9577464788732394,1,,,,,,,,,,
null,,color_black,467091,black_plus_sign,,,,null,,,,,,,,,,,,,,
null,,learn_phase(without_color),469094,black_plus_sign,,,,null,GW/teeth.jpg,GW/wheelchair.jpg,,,,,,,,,,,,
null,,black_cross(without_color),469895,blue,,,,null,GW/teeth.jpg,GW/wheelchair.jpg,,,,,,,,,,,,
null,,rt_plussign_withcolor,470397,blue,,,,null,GW/teeth.jpg,GW/wheelchair.jpg,,,,,,,,,,,,
904,,rt_thecrossant_black,471601,black_plus_sign,,,,49,,,0.9583333333333334,1,,,,,,,,,,
null,,color_black,471703,black_plus_sign,,,,null,,,,,,,,,,,,,,
null,,learn_phase(without_color),473706,black_plus_sign,,,,null,GW/barrel.jpg,GW/soldier.jpg,,,,,,,,,,,,
null,,black_cross(without_color),474321,blue,,,,null,GW/barrel.jpg,GW/soldier.jpg,,,,,,,,,,,,
null,,rt_plussign_withcolor,474823,blue,,,,null,GW/barrel.jpg,GW/soldier.jpg,,,,,,,,,,,,
1053.5,,rt_thecrossant_black,476228,black_plus_sign,,,,49,,,0.958904109589041,1,,,,,,,,,,
null,,color_black,476330,black_plus_sign,,,,null,,,,,,,,,,,,,,
null,,learn_phase(without_color),478334,black_plus_sign,,,,null,GW/jukebox.jpg,GW/snail.jpg,,,,,,,,,,,,
null,,black_cross(without_color),479064,green,,,,null,GW/jukebox.jpg,GW/snail.jpg,,,,,,,,,,,,
475.90000009536743,,rt_plussign_withcolor,479566,green,,,,50,GW/jukebox.jpg,GW/snail.jpg,,,,,,,,,,,,
null,,rt_thecrossant_black,480844,black_plus_sign,,,,null,,,0.9594594594594594,1,,,,,,,,,,
null,,color_black,480946,black_plus_sign,,,,null,,,,,,,,,,,,,,
null,,learn_phase(without_color),482948,black_plus_sign,,,,null,GW/snail.jpg,GW/teeth.jpg,,,,,,,,,,,,
null,,black_cross(without_color),483576,blue,,,,null,GW/snail.jpg,GW/teeth.jpg,,,,,,,,,,,,
444.5,,rt_plussign_withcolor,484077,blue,,,,49,GW/snail.jpg,GW/teeth.jpg,,,,,,,,,,,,
null,,rt_thecrossant_black,485454,black_plus_sign,,,,null,,,0.96,1,,,,,,,,,,
null,,color_black,485558,black_plus_sign,,,,null,,,,,,,,,,,,,,
null,,learn_phase(without_color),487561,black_plus_sign,,,,null,GW/hat.jpg,GW/barrel.jpg,,,,,,,,,,,,
null,,black_cross(without_color),488152,blue,,,,null,GW/hat.jpg,GW/barrel.jpg,,,,,,,,,,,,
null,,rt_plussign_withcolor,488654,blue,,,,null,GW/hat.jpg,GW/barrel.jpg,,,,,,,,,,,,
843,,rt_thecrossant_black,490065,black_plus_sign,,,,49,,,0.9605263157894737,1,,,,,,,,,,
null,,color_black,490167,black_plus_sign,,,,null,,,,,,,,,,,,,,
null,,learn_phase(without_color),492169,black_plus_sign,,,,null,GW/paint.jpg,GW/jukebox.jpg,,,,,,,,,,,,
null,,black_cross(without_color),492939,blue,,,,null,GW/paint.jpg,GW/jukebox.jpg,,,,,,,,,,,,
null,,rt_plussign_withcolor,493441,blue,,,,null,GW/paint.jpg,GW/jukebox.jpg,,,,,,,,,,,,
740.5,,rt_thecrossant_black,494677,black_plus_sign,,,,49,,,0.961038961038961,1,,,,,,,,,,
null,,color_black,494780,black_plus_sign,,,,null,,,,,,,,,,,,,,
null,,learn_phase(without_color),496783,black_plus_sign,,,,null,GW/paint.jpg,GW/teeth.jpg,,,,,,,,,,,,
null,,black_cross(without_color),497843,green,,,,null,GW/paint.jpg,GW/teeth.jpg,,,,,,,,,,,,
null,,rt_plussign_withcolor,498344,green,,,,null,GW/paint.jpg,GW/teeth.jpg,,,,,,,,,,,,
1174.8999998569489,,rt_thecrossant_black,499288,black_plus_sign,,,,50,,,0.9615384615384616,1,,,,,,,,,,
null,,color_black,499390,black_plus_sign,,,,null,,,,,,,,,,,,,,
null,,learn_phase(without_color),501393,black_plus_sign,,,,null,GW/paint.jpg,GW/jukebox.jpg,,,,,,,,,,,,
null,,black_cross(without_color),502468,blue,,,,null,GW/paint.jpg,GW/jukebox.jpg,,,,,,,,,,,,
null,,rt_plussign_withcolor,502970,blue,,,,null,GW/paint.jpg,GW/jukebox.jpg,,,,,,,,,,,,
1776.0999999046326,,rt_thecrossant_black,503900,black_plus_sign,,,,49,,,0.9620253164556962,1,,,,,,,,,,
null,,color_black,504005,black_plus_sign,,,,null,,,,,,,,,,,,,,
null,,learn_phase(without_color),506008,black_plus_sign,,,,null,GW/barrel.jpg,GW/paint.jpg,,,,,,,,,,,,
null,,black_cross(without_color),506892,green,,,,null,GW/barrel.jpg,GW/paint.jpg,,,,,,,,,,,,
null,,rt_plussign_withcolor,507393,green,,,,null,GW/barrel.jpg,GW/paint.jpg,,,,,,,,,,,,
2173.7000000476837,,rt_thecrossant_black,508521,black_plus_sign,,,,50,,,0.9625,1,,,,,,,,,,
null,,color_black,508624,black_plus_sign,,,,null,,,,,,,,,,,,,,
null,,learn_phase(without_color),510627,black_plus_sign,,,,null,GW/jukebox.jpg,GW/basket.jpg,,,,,,,,,,,,
null,,black_cross(without_color),511390,blue,,,,null,GW/jukebox.jpg,GW/basket.jpg,,,,,,,,,,,,
null,,rt_plussign_withcolor,511892,blue,,,,null,GW/jukebox.jpg,GW/basket.jpg,,,,,,,,,,,,
1918.3000001907349,,rt_thecrossant_black,513135,black_plus_sign,,,,49,,,0.9629629629629629,1,,,,,,,,,,
null,,color_black,513237,black_plus_sign,,,,null,,,,,,,,,,,,,,
null,,learn_phase(without_color),515241,black_plus_sign,,,,null,GW/basket.jpg,GW/globe.jpg,,,,,,,,,,,,
null,,black_cross(without_color),516178,green,,,,null,GW/basket.jpg,GW/globe.jpg,,,,,,,,,,,,
null,,rt_plussign_withcolor,516679,green,,,,null,GW/basket.jpg,GW/globe.jpg,,,,,,,,,,,,
960.7000000476837,,rt_thecrossant_black,517746,black_plus_sign,,,,50,,,0.9634146341463414,1,,,,,,,,,,
null,,color_black,517847,black_plus_sign,,,,null,,,,,,,,,,,,,,
null,,learn_phase(without_color),519850,black_plus_sign,,,,null,GW/paint.jpg,GW/jukebox.jpg,,,,,,,,,,,,
null,,black_cross(without_color),520829,green,,,,null,GW/paint.jpg,GW/jukebox.jpg,,,,,,,,,,,,
null,,rt_plussign_withcolor,521331,green,,,,null,GW/paint.jpg,GW/jukebox.jpg,,,,,,,,,,,,
1235,,rt_thecrossant_black,522357,black_plus_sign,,,,50,,,0.963855421686747,1,,,,,,,,,,
null,,color_black,522459,black_plus_sign,,,,null,,,,,,,,,,,,,,
null,,learn_phase(without_color),524462,black_plus_sign,,,,null,GW/barrel.jpg,GW/soldier.jpg,,,,,,,,,,,,
null,,black_cross(without_color),525242,green,,,,null,GW/barrel.jpg,GW/soldier.jpg,,,,,,,,,,,,
null,,rt_plussign_withcolor,525744,green,,,,null,GW/barrel.jpg,GW/soldier.jpg,,,,,,,,,,,,
2056.2000000476837,,rt_thecrossant_black,526969,black_plus_sign,,,,50,,,0.9642857142857143,1,,,,,,,,,,
null,,color_black,527070,black_plus_sign,,,,null,,,,,,,,,,,,,,
null,,learn_phase(without_color),529074,black_plus_sign,,,,null,GW/paint.jpg,GW/jukebox.jpg,,,,,,,,,,,,
null,,black_cross(without_color),529872,blue,,,,null,GW/paint.jpg,GW/jukebox.jpg,,,,,,,,,,,,
null,,rt_plussign_withcolor,530374,blue,,,,null,GW/paint.jpg,GW/jukebox.jpg,,,,,,,,,,,,
1434.7999999523163,,rt_thecrossant_black,531581,black_plus_sign,,,,49,,,0.9647058823529412,1,,,,,,,,,,
null,,color_black,531685,black_plus_sign,,,,null,,,,,,,,,,,,,,
null,,learn_phase(without_color),533687,black_plus_sign,,,,null,GW/basket.jpg,GW/globe.jpg,,,,,,,,,,,,
null,,black_cross(without_color),534216,blue,,,,null,GW/basket.jpg,GW/globe.jpg,,,,,,,,,,,,
null,,rt_plussign_withcolor,534718,blue,,,,null,GW/basket.jpg,GW/globe.jpg,,,,,,,,,,,,
1093.3999998569489,,rt_thecrossant_black,536195,black_plus_sign,,,,49,,,0.9651162790697675,1,,,,,,,,,,
null,,color_black,536297,black_plus_sign,,,,null,,,,,,,,,,,,,,
null,,learn_phase(without_color),538300,black_plus_sign,,,,null,GW/basket.jpg,GW/camera.jpg,,,,,,,,,,,,
null,,black_cross(without_color),539005,green,,,,null,GW/basket.jpg,GW/camera.jpg,,,,,,,,,,,,
null,,rt_plussign_withcolor,539507,green,,,,null,GW/basket.jpg,GW/camera.jpg,,,,,,,,,,,,
691.7999999523163,,rt_thecrossant_black,540806,black_plus_sign,,,,50,,,0.9655172413793104,1,,,,,,,,,,
null,,color_black,540908,black_plus_sign,,,,null,,,,,,,,,,,,,,
null,,learn_phase(without_color),542911,black_plus_sign,,,,null,GW/teeth.jpg,GW/wheelchair.jpg,,,,,,,,,,,,
null,,black_cross(without_color),543989,green,,,,null,GW/teeth.jpg,GW/wheelchair.jpg,,,,,,,,,,,,
null,,rt_plussign_withcolor,544491,green,,,,null,GW/teeth.jpg,GW/wheelchair.jpg,,,,,,,,,,,,
955,,rt_thecrossant_black,545417,black_plus_sign,,,,50,,,0.9659090909090909,1,,,,,,,,,,
null,,color_black,545520,black_plus_sign,,,,null,,,,,,,,,,,,,,
null,,learn_phase(without_color),547524,black_plus_sign,,,,null,GW/soldier.jpg,GW/dustpan.jpg,,,,,,,,,,,,
null,,black_cross(without_color),548553,green,,,,null,GW/soldier.jpg,GW/dustpan.jpg,,,,,,,,,,,,
417.39999985694885,,rt_plussign_withcolor,549066,green,,,,50,GW/soldier.jpg,GW/dustpan.jpg,,,,,,,,,,,,
null,,rt_thecrossant_black,550041,black_plus_sign,,,,null,,,0.9662921348314607,1,,,,,,,,,,
null,,color_black,550144,black_plus_sign,,,,null,,,,,,,,,,,,,,
null,,learn_phase(without_color),552146,black_plus_sign,,,,null,GW/barrel.jpg,GW/soldier.jpg,,,,,,,,,,,,
null,,black_cross(without_color),552577,blue,,,,null,GW/barrel.jpg,GW/soldier.jpg,,,,,,,,,,,,
null,,rt_plussign_withcolor,553078,blue,,,,null,GW/barrel.jpg,GW/soldier.jpg,,,,,,,,,,,,
1452.2999999523163,,rt_thecrossant_black,554652,black_plus_sign,,,,49,,,0.9666666666666667,1,,,,,,,,,,
null,,color_black,554754,black_plus_sign,,,,null,,,,,,,,,,,,,,
null,,learn_phase(without_color),556756,black_plus_sign,,,,null,GW/camera.jpg,GW/gong.jpg,,,,,,,,,,,,
null,,black_cross(without_color),557370,blue,,,,null,GW/camera.jpg,GW/gong.jpg,,,,,,,,,,,,
null,,rt_plussign_withcolor,557872,blue,,,,null,GW/camera.jpg,GW/gong.jpg,,,,,,,,,,,,
602.5,,rt_thecrossant_black,559263,black_plus_sign,,,,49,,,0.967032967032967,1,,,,,,,,,,
null,,color_black,559365,black_plus_sign,,,,null,,,,,,,,,,,,,,
null,,learn_phase(without_color),561368,black_plus_sign,,,,null,GW/paint.jpg,GW/teeth.jpg,,,,,,,,,,,,
null,,black_cross(without_color),562466,blue,,,,null,GW/paint.jpg,GW/teeth.jpg,,,,,,,,,,,,
null,,rt_plussign_withcolor,562968,blue,,,,null,GW/paint.jpg,GW/teeth.jpg,,,,,,,,,,,,
730.5999999046326,,rt_thecrossant_black,563875,black_plus_sign,,,,49,,,0.967391304347826,1,,,,,,,,,,
null,,color_black,563976,black_plus_sign,,,,null,,,,,,,,,,,,,,
null,,learn_phase(without_color),565978,black_plus_sign,,,,null,GW/camera.jpg,GW/gong.jpg,,,,,,,,,,,,
null,,black_cross(without_color),566462,blue,,,,null,GW/camera.jpg,GW/gong.jpg,,,,,,,,,,,,
null,,rt_plussign_withcolor,566964,blue,,,,null,GW/camera.jpg,GW/gong.jpg,,,,,,,,,,,,
1420.2000000476837,,rt_thecrossant_black,568484,black_plus_sign,,,,49,,,0.967741935483871,1,,,,,,,,,,
null,,color_black,568586,black_plus_sign,,,,null,,,,,,,,,,,,,,
null,,learn_phase(without_color),570589,black_plus_sign,,,,null,GW/soldier.jpg,GW/dustpan.jpg,,,,,,,,,,,,
null,,black_cross(without_color),571198,green,,,,null,GW/soldier.jpg,GW/dustpan.jpg,,,,,,,,,,,,
413.59999990463257,,rt_plussign_withcolor,571700,green,,,,50,GW/soldier.jpg,GW/dustpan.jpg,,,,,,,,,,,,
null,,rt_thecrossant_black,573096,black_plus_sign,,,,null,,,0.9680851063829787,1,,,,,,,,,,
null,,color_black,573199,black_plus_sign,,,,null,,,,,,,,,,,,,,
null,,learn_phase(without_color),575201,black_plus_sign,,,,null,GW/soldier.jpg,GW/wheelchair.jpg,,,,,,,,,,,,
null,,black_cross(without_color),575953,green,,,,null,GW/soldier.jpg,GW/wheelchair.jpg,,,,,,,,,,,,
null,,rt_plussign_withcolor,576456,green,,,,null,GW/soldier.jpg,GW/wheelchair.jpg,,,,,,,,,,,,
1477.7000000476837,,rt_thecrossant_black,577708,black_plus_sign,,,,50,,,0.968421052631579,1,,,,,,,,,,
null,,color_black,577811,black_plus_sign,,,,null,,,,,,,,,,,,,,
null,,learn_phase(without_color),579814,black_plus_sign,,,,null,GW/basket.jpg,GW/snail.jpg,,,,,,,,,,,,
null,,black_cross(without_color),580900,blue,,,,null,GW/basket.jpg,GW/snail.jpg,,,,,,,,,,,,
null,,rt_plussign_withcolor,581403,blue,,,,null,GW/basket.jpg,GW/snail.jpg,,,,,,,,,,,,
1170.2000000476837,,rt_thecrossant_black,582321,black_plus_sign,,,,49,,,0.96875,1,,,,,,,,,,
null,,color_black,582438,black_plus_sign,,,,null,,,,,,,,,,,,,,
null,,learn_phase(without_color),584441,black_plus_sign,,,,null,GW/camera.jpg,GW/snail.jpg,,,,,,,,,,,,
null,,black_cross(without_color),585103,green,,,,null,GW/camera.jpg,GW/snail.jpg,,,,,,,,,,,,
null,,rt_plussign_withcolor,585605,green,,,,null,GW/camera.jpg,GW/snail.jpg,,,,,,,,,,,,
1518.4000000953674,,rt_thecrossant_black,586948,black_plus_sign,,,,50,,,0.9690721649484536,1,,,,,,,,,,
null,,color_black,587051,black_plus_sign,,,,null,,,,,,,,,,,,,,
null,,learn_phase(without_color),589054,black_plus_sign,,,,null,GW/soldier.jpg,GW/wheelchair.jpg,,,,,,,,,,,,
null,,black_cross(without_color),590154,blue,,,,null,GW/soldier.jpg,GW/wheelchair.jpg,,,,,,,,,,,,
null,,rt_plussign_withcolor,590655,blue,,,,null,GW/soldier.jpg,GW/wheelchair.jpg,,,,,,,,,,,,
1211.2999999523163,,rt_thecrossant_black,591560,black_plus_sign,,,,49,,,0.9693877551020408,1,,,,,,,,,,
null,,color_black,591662,black_plus_sign,,,,null,,,,,,,,,,,,,,
null,,learn_phase(without_color),593665,black_plus_sign,,,,null,GW/soldier.jpg,GW/dustpan.jpg,,,,,,,,,,,,
null,,black_cross(without_color),594519,green,,,,null,GW/soldier.jpg,GW/dustpan.jpg,,,,,,,,,,,,
null,,rt_plussign_withcolor,595021,green,,,,null,GW/soldier.jpg,GW/dustpan.jpg,,,,,,,,,,,,
1451.2000000476837,,rt_thecrossant_black,596170,black_plus_sign,,,,50,,,0.9696969696969697,1,,,,,,,,,,
null,,color_black,596272,black_plus_sign,,,,null,,,,,,,,,,,,,,
null,,learn_phase(without_color),598274,black_plus_sign,,,,null,GW/snail.jpg,GW/teeth.jpg,,,,,,,,,,,,
null,,black_cross(without_color),598997,blue,,,,null,GW/snail.jpg,GW/teeth.jpg,,,,,,,,,,,,
null,,rt_plussign_withcolor,599499,blue,,,,null,GW/snail.jpg,GW/teeth.jpg,,,,,,,,,,,,
1073.3999998569489,,rt_thecrossant_black,600780,black_plus_sign,,,,49,,,0.97,1,,,,,,,,,,
null,,color_black,600883,black_plus_sign,,,,null,,,,,,,,,,,,,,
null,,learn_phase(without_color),602886,black_plus_sign,,,,null,GW/basket.jpg,GW/camera.jpg,,,,,,,,,,,,
null,,black_cross(without_color),603562,green,,,,null,GW/basket.jpg,GW/camera.jpg,,,,,,,,,,,,
null,,rt_plussign_withcolor,604064,green,,,,null,GW/basket.jpg,GW/camera.jpg,,,,,,,,,,,,
992.0999999046326,,rt_thecrossant_black,605393,black_plus_sign,,,,50,,,0.9702970297029703,1,,,,,,,,,,
null,,color_black,605496,black_plus_sign,,,,null,,,,,,,,,,,,,,
null,,learn_phase(without_color),607498,black_plus_sign,,,,null,GW/barrel.jpg,GW/soldier.jpg,,,,,,,,,,,,
null,,black_cross(without_color),608001,blue,,,,null,GW/barrel.jpg,GW/soldier.jpg,,,,,,,,,,,,
null,,rt_plussign_withcolor,608504,blue,,,,null,GW/barrel.jpg,GW/soldier.jpg,,,,,,,,,,,,
1056.8999998569489,,rt_thecrossant_black,610006,black_plus_sign,,,,49,,,0.9705882352941176,1,,,,,,,,,,
null,,color_black,610108,black_plus_sign,,,,null,,,,,,,,,,,,,,
null,,learn_phase(without_color),612111,black_plus_sign,,,,null,GW/paint.jpg,GW/jukebox.jpg,,,,,,,,,,,,
null,,black_cross(without_color),612670,green,,,,null,GW/paint.jpg,GW/jukebox.jpg,,,,,,,,,,,,
381.7000000476837,,rt_plussign_withcolor,613171,green,,,,50,GW/paint.jpg,GW/jukebox.jpg,,,,,,,,,,,,
null,,rt_thecrossant_black,614617,black_plus_sign,,,,50,,,0.970873786407767,1,,,,,,,,,,
null,,color_black,614720,black_plus_sign,,,,null,,,,,,,,,,,,,,
null,,learn_phase(without_color),616724,black_plus_sign,,,,null,GW/camera.jpg,GW/gong.jpg,,,,,,,,,,,,
null,,black_cross(without_color),617676,blue,,,,null,GW/camera.jpg,GW/gong.jpg,,,,,,,,,,,,
null,,rt_plussign_withcolor,618179,blue,,,,null,GW/camera.jpg,GW/gong.jpg,,,,,,,,,,,,
1377.1000001430511,,rt_thecrossant_black,619232,black_plus_sign,,,,49,,,0.9711538461538461,1,,,,,,,,,,
null,,color_black,619334,black_plus_sign,,,,null,,,,,,,,,,,,,,
null,,learn_phase(without_color),621336,black_plus_sign,,,,null,GW/hat.jpg,GW/barrel.jpg,,,,,,,,,,,,
null,,black_cross(without_color),622426,blue,,,,null,GW/hat.jpg,GW/barrel.jpg,,,,,,,,,,,,
null,,rt_plussign_withcolor,622928,blue,,,,null,GW/hat.jpg,GW/barrel.jpg,,,,,,,,,,,,
1765.7000000476837,,rt_thecrossant_black,623843,black_plus_sign,,,,49,,,0.9714285714285714,1,,,,,,,,,,
null,,color_black,623945,black_plus_sign,,,,null,,,,,,,,,,,,,,
null,,learn_phase(without_color),625947,black_plus_sign,,,,null,GW/teeth.jpg,GW/wheelchair.jpg,,,,,,,,,,,,
null,,black_cross(without_color),626960,blue,,,,null,GW/teeth.jpg,GW/wheelchair.jpg,,,,,,,,,,,,
null,,rt_plussign_withcolor,627461,blue,,,,null,GW/teeth.jpg,GW/wheelchair.jpg,,,,,,,,,,,,
1544.7999999523163,,rt_thecrossant_black,628454,black_plus_sign,,,,49,,,0.9716981132075472,1,,,,,,,,,,
null,,color_black,628556,black_plus_sign,,,,null,,,,,,,,,,,,,,
null,,learn_phase(without_color),630559,black_plus_sign,,,,null,GW/camera.jpg,GW/snail.jpg,,,,,,,,,,,,
null,,black_cross(without_color),631513,green,,,,null,GW/camera.jpg,GW/snail.jpg,,,,,,,,,,,,
null,,rt_plussign_withcolor,632015,green,,,,null,GW/camera.jpg,GW/snail.jpg,,,,,,,,,,,,
1515.5,,rt_thecrossant_black,633066,black_plus_sign,,,,50,,,0.9719626168224299,1,,,,,,,,,,
null,,color_black,633168,black_plus_sign,,,,null,,,,,,,,,,,,,,
null,,learn_phase(without_color),635171,black_plus_sign,,,,null,GW/teeth.jpg,GW/wheelchair.jpg,,,,,,,,,,,,
null,,black_cross(without_color),635646,blue,,,,null,GW/teeth.jpg,GW/wheelchair.jpg,,,,,,,,,,,,
null,,rt_plussign_withcolor,636148,blue,,,,null,GW/teeth.jpg,GW/wheelchair.jpg,,,,,,,,,,,,
1090.5999999046326,,rt_thecrossant_black,637677,black_plus_sign,,,,49,,,0.9722222222222222,1,,,,,,,,,,
null,,color_black,637778,black_plus_sign,,,,null,,,,,,,,,,,,,,
null,,learn_phase(without_color),639782,black_plus_sign,,,,null,GW/jukebox.jpg,GW/snail.jpg,,,,,,,,,,,,
null,,black_cross(without_color),640795,green,,,,null,GW/jukebox.jpg,GW/snail.jpg,,,,,,,,,,,,
392.5,,rt_plussign_withcolor,641296,green,,,,50,GW/jukebox.jpg,GW/snail.jpg,,,,,,,,,,,,
null,,rt_thecrossant_black,642288,black_plus_sign,,,,null,,,0.9724770642201835,1,,,,,,,,,,
null,,color_black,642391,black_plus_sign,,,,null,,,,,,,,,,,,,,
null,,learn_phase(without_color),644394,black_plus_sign,,,,null,GW/barrel.jpg,GW/soldier.jpg,,,,,,,,,,,,
null,,black_cross(without_color),645006,blue,,,,null,GW/barrel.jpg,GW/soldier.jpg,,,,,,,,,,,,
null,,rt_plussign_withcolor,645507,blue,,,,null,GW/barrel.jpg,GW/soldier.jpg,,,,,,,,,,,,
1974.2999999523163,,rt_thecrossant_black,646901,black_plus_sign,,,,49,,,0.9727272727272728,1,,,,,,,,,,
null,,color_black,647010,black_plus_sign,,,,null,,,,,,,,,,,,,,
null,,learn_phase(without_color),649012,black_plus_sign,,,,null,GW/basket.jpg,GW/globe.jpg,,,,,,,,,,,,
null,,black_cross(without_color),650096,green,,,,null,GW/basket.jpg,GW/globe.jpg,,,,,,,,,,,,
null,,rt_plussign_withcolor,650598,green,,,,null,GW/basket.jpg,GW/globe.jpg,,,,,,,,,,,,
1051.0999999046326,,rt_thecrossant_black,651519,black_plus_sign,,,,50,,,0.972972972972973,1,,,,,,,,,,
null,,color_black,651622,black_plus_sign,,,,null,,,,,,,,,,,,,,
null,,learn_phase(without_color),653625,black_plus_sign,,,,null,GW/jukebox.jpg,GW/basket.jpg,,,,,,,,,,,,
null,,black_cross(without_color),654363,blue,,,,null,GW/jukebox.jpg,GW/basket.jpg,,,,,,,,,,,,
null,,rt_plussign_withcolor,654865,blue,,,,null,GW/jukebox.jpg,GW/basket.jpg,,,,,,,,,,,,
1678.9000000953674,,rt_thecrossant_black,656132,black_plus_sign,,,,49,,,0.9732142857142857,1,,,,,,,,,,
null,,color_black,656234,black_plus_sign,,,,null,,,,,,,,,,,,,,
null,,learn_phase(without_color),658236,black_plus_sign,,,,null,GW/hat.jpg,GW/barrel.jpg,,,,,,,,,,,,
null,,black_cross(without_color),659136,blue,,,,null,GW/hat.jpg,GW/barrel.jpg,,,,,,,,,,,,
null,,rt_plussign_withcolor,659638,blue,,,,null,GW/hat.jpg,GW/barrel.jpg,,,,,,,,,,,,
1488.2999999523163,,rt_thecrossant_black,660743,black_plus_sign,,,,49,,,0.9734513274336283,1,,,,,,,,,,
null,,color_black,660846,black_plus_sign,,,,null,,,,,,,,,,,,,,
null,,learn_phase(without_color),662849,black_plus_sign,,,,null,GW/basket.jpg,GW/camera.jpg,,,,,,,,,,,,
null,,black_cross(without_color),663590,green,,,,null,GW/basket.jpg,GW/camera.jpg,,,,,,,,,,,,
412.2000000476837,,rt_plussign_withcolor,664094,green,,,,50,GW/basket.jpg,GW/camera.jpg,,,,,,,,,,,,
null,,rt_thecrossant_black,665356,black_plus_sign,,,,null,,,0.9736842105263158,1,,,,,,,,,,
null,,color_black,665459,black_plus_sign,,,,null,,,,,,,,,,,,,,
null,,learn_phase(without_color),667462,black_plus_sign,,,,null,GW/camera.jpg,GW/snail.jpg,,,,,,,,,,,,
null,,black_cross(without_color),668297,green,,,,null,GW/camera.jpg,GW/snail.jpg,,,,,,,,,,,,
null,,rt_plussign_withcolor,668799,green,,,,null,GW/camera.jpg,GW/snail.jpg,,,,,,,,,,,,
956.1000001430511,,rt_thecrossant_black,669968,black_plus_sign,,,,50,,,0.9739130434782609,1,,,,,,,,,,
null,,color_black,670070,black_plus_sign,,,,null,,,,,,,,,,,,,,
null,,learn_phase(without_color),672073,black_plus_sign,,,,null,GW/jukebox.jpg,GW/snail.jpg,,,,,,,,,,,,
null,,black_cross(without_color),672547,green,,,,null,GW/jukebox.jpg,GW/snail.jpg,,,,,,,,,,,,
null,,rt_plussign_withcolor,673049,green,,,,null,GW/jukebox.jpg,GW/snail.jpg,,,,,,,,,,,,
1008.9000000953674,,rt_thecrossant_black,674579,black_plus_sign,,,,50,,,0.9741379310344828,1,,,,,,,,,,
null,,color_black,674693,black_plus_sign,,,,null,,,,,,,,,,,,,,
null,,learn_phase(without_color),676696,black_plus_sign,,,,null,GW/teeth.jpg,GW/wheelchair.jpg,,,,,,,,,,,,
null,,black_cross(without_color),677697,blue,,,,null,GW/teeth.jpg,GW/wheelchair.jpg,,,,,,,,,,,,
null,,rt_plussign_withcolor,678199,blue,,,,null,GW/teeth.jpg,GW/wheelchair.jpg,,,,,,,,,,,,
856.3999998569489,,rt_thecrossant_black,679203,black_plus_sign,,,,49,,,0.9743589743589743,1,,,,,,,,,,
null,,color_black,679306,black_plus_sign,,,,null,,,,,,,,,,,,,,
null,,learn_phase(without_color),681309,black_plus_sign,,,,null,GW/paint.jpg,GW/jukebox.jpg,,,,,,,,,,,,
null,,black_cross(without_color),681860,blue,,,,null,GW/paint.jpg,GW/jukebox.jpg,,,,,,,,,,,,
null,,rt_plussign_withcolor,682362,blue,,,,null,GW/paint.jpg,GW/jukebox.jpg,,,,,,,,,,,,
1579.9000000953674,,rt_thecrossant_black,683817,black_plus_sign,,,,49,,,0.9745762711864406,1,,,,,,,,,,
null,,color_black,683918,black_plus_sign,,,,null,,,,,,,,,,,,,,
null,,learn_phase(without_color),685921,black_plus_sign,,,,null,GW/basket.jpg,GW/snail.jpg,,,,,,,,,,,,
null,,black_cross(without_color),686974,blue,,,,null,GW/basket.jpg,GW/snail.jpg,,,,,,,,,,,,
null,,rt_plussign_withcolor,687476,blue,,,,null,GW/basket.jpg,GW/snail.jpg,,,,,,,,,,,,
1031.8999998569489,,rt_thecrossant_black,688428,black_plus_sign,,,,49,,,0.9747899159663865,1,,,,,,,,,,
null,,color_black,688530,black_plus_sign,,,,null,,,,,,,,,,,,,,
null,,learn_phase(without_color),690533,black_plus_sign,,,,null,GW/paint.jpg,GW/teeth.jpg,,,,,,,,,,,,
null,,black_cross(without_color),691165,blue,,,,null,GW/paint.jpg,GW/teeth.jpg,,,,,,,,,,,,
null,,rt_plussign_withcolor,691667,blue,,,,null,GW/paint.jpg,GW/teeth.jpg,,,,,,,,,,,,
1708.8999998569489,,rt_thecrossant_black,693039,black_plus_sign,,,,49,,,0.975,1,,,,,,,,,,
null,,color_black,693153,black_plus_sign,,,,null,,,,,,,,,,,,,,
null,,learn_phase(without_color),695156,black_plus_sign,,,,null,GW/hat.jpg,GW/barrel.jpg,,,,,,,,,,,,
null,,black_cross(without_color),695593,blue,,,,null,GW/hat.jpg,GW/barrel.jpg,,,,,,,,,,,,
null,,rt_plussign_withcolor,696095,blue,,,,null,GW/hat.jpg,GW/barrel.jpg,,,,,,,,,,,,
749.6000001430511,,rt_thecrossant_black,697664,black_plus_sign,,,,49,,,0.9752066115702479,1,,,,,,,,,,
null,,color_black,697767,black_plus_sign,,,,null,,,,,,,,,,,,,,
null,,learn_phase(without_color),699770,black_plus_sign,,,,null,GW/teeth.jpg,GW/wheelchair.jpg,,,,,,,,,,,,
null,,black_cross(without_color),700827,blue,,,,null,GW/teeth.jpg,GW/wheelchair.jpg,,,,,,,,,,,,
449.89999985694885,,rt_plussign_withcolor,701328,blue,,,,49,GW/teeth.jpg,GW/wheelchair.jpg,,,,,,,,,,,,
null,,rt_thecrossant_black,702276,black_plus_sign,,,,null,,,0.9754098360655737,1,,,,,,,,,,
null,,color_black,702379,black_plus_sign,,,,null,,,,,,,,,,,,,,
null,,learn_phase(without_color),704398,black_plus_sign,,,,null,GW/basket.jpg,GW/camera.jpg,,,,,,,,,,,,
null,,black_cross(without_color),705440,blue,,,,null,GW/basket.jpg,GW/camera.jpg,,,,,,,,,,,,
420.10000014305115,,rt_plussign_withcolor,705941,blue,,,,49,GW/basket.jpg,GW/camera.jpg,,,,,,,,,,,,
null,,rt_thecrossant_black,706904,black_plus_sign,,,,null,,,0.975609756097561,1,,,,,,,,,,
null,,color_black,707005,black_plus_sign,,,,null,,,,,,,,,,,,,,
null,,learn_phase(without_color),709008,black_plus_sign,,,,null,GW/camera.jpg,GW/gong.jpg,,,,,,,,,,,,
null,,black_cross(without_color),709991,green,,,,null,GW/camera.jpg,GW/gong.jpg,,,,,,,,,,,,
null,,rt_plussign_withcolor,710493,green,,,,null,GW/camera.jpg,GW/gong.jpg,,,,,,,,,,,,
1482.2999999523163,,rt_thecrossant_black,711513,black_plus_sign,,,,50,,,0.9758064516129032,1,,,,,,,,,,
null,,color_black,711615,black_plus_sign,,,,null,,,,,,,,,,,,,,
null,,learn_phase(without_color),713619,black_plus_sign,,,,null,GW/jukebox.jpg,GW/snail.jpg,,,,,,,,,,,,
null,,black_cross(without_color),714306,blue,,,,null,GW/jukebox.jpg,GW/snail.jpg,,,,,,,,,,,,
null,,rt_plussign_withcolor,714817,blue,,,,null,GW/jukebox.jpg,GW/snail.jpg,,,,,,,,,,,,
1100.2999999523163,,rt_thecrossant_black,716135,black_plus_sign,,,,49,,,0.976,1,,,,,,,,,,
null,,color_black,716237,black_plus_sign,,,,null,,,,,,,,,,,,,,
null,,learn_phase(without_color),718241,black_plus_sign,,,,null,GW/soldier.jpg,GW/dustpan.jpg,,,,,,,,,,,,
null,,black_cross(without_color),718890,blue,,,,null,GW/soldier.jpg,GW/dustpan.jpg,,,,,,,,,,,,
null,,rt_plussign_withcolor,719393,blue,,,,null,GW/soldier.jpg,GW/dustpan.jpg,,,,,,,,,,,,
795.4000000953674,,rt_thecrossant_black,720748,black_plus_sign,,,,49,,,0.9761904761904762,1,,,,,,,,,,
null,,color_black,720851,black_plus_sign,,,,null,,,,,,,,,,,,,,
23904.5,,intro_1,744758,instruct,,0,Start,,,,,,,,,,,,,,,
2605.7000000476837,,directmemory_phase,747365,GW/wheelchair.jpg,,,,49,,,1,1,GW/teeth.jpg,GW/jukebox.jpg,GW/paint.jpg,GW/teeth.jpg,GW/paint.jpg,GW/jukebox.jpg,1,,,
null,,html-keyboard-response,748380,<p></p>,,,,null,,,,,,,,,,,,,,
1687.0999999046326,,directmemory_phase,750069,GW/barrel.jpg,,,,49,,,1,1,GW/paint.jpg,GW/snail.jpg,GW/dustpan.jpg,GW/paint.jpg,GW/dustpan.jpg,GW/snail.jpg,1,,,
null,,html-keyboard-response,751071,<p></p>,,,,null,,,,,,,,,,,,,,
null,,directmemory_phase,757573,GW/snail.jpg,,,,null,,,0.6666666666666666,0,GW/teeth.jpg,GW/dustpan.jpg,GW/gong.jpg,GW/teeth.jpg,GW/gong.jpg,GW/dustpan.jpg,0,,,
null,,html-keyboard-response,758576,<p></p>,,,,null,,,,,,,,,,,,,,
3811.7000000476837,,directmemory_phase,762389,GW/soldier.jpg,,,,49,,,0.5,0,GW/paint.jpg,GW/barrel.jpg,GW/jukebox.jpg,GW/barrel.jpg,GW/paint.jpg,GW/jukebox.jpg,0.5,closer,,
null,,html-keyboard-response,763392,<p></p>,,,,null,,,,,,,,,,,,,,
2482.2999999523163,,directmemory_phase,765876,GW/jukebox.jpg,,,,51,,,0.6,1,GW/dustpan.jpg,GW/globe.jpg,GW/basket.jpg,GW/basket.jpg,GW/globe.jpg,GW/dustpan.jpg,1,,,
null,,html-keyboard-response,766878,<p></p>,,,,null,,,,,,,,,,,,,,
2517.2000000476837,,directmemory_phase,769397,GW/dustpan.jpg,,,,51,,,0.6666666666666666,1,GW/hat.jpg,GW/barrel.jpg,GW/soldier.jpg,GW/soldier.jpg,GW/barrel.jpg,GW/hat.jpg,1,,,
null,,html-keyboard-response,770399,<p></p>,,,,null,,,,,,,,,,,,,,
3788,,directmemory_phase,774189,GW/paint.jpg,,,,50,,,0.7142857142857143,1,GW/hat.jpg,GW/teeth.jpg,GW/camera.jpg,GW/teeth.jpg,GW/hat.jpg,GW/camera.jpg,1,,,
null,,html-keyboard-response,775192,<p></p>,,,,null,,,,,,,,,,,,,,
3785.4000000953674,,directmemory_phase,778979,GW/snail.jpg,,,,49,,,0.625,0,GW/dustpan.jpg,GW/paint.jpg,GW/jukebox.jpg,GW/jukebox.jpg,GW/paint.jpg,GW/dustpan.jpg,0.5,closer,,
null,,html-keyboard-response,779981,<p></p>,,,,null,,,,,,,,,,,,,,
1446.6999998092651,,directmemory_phase,781429,GW/teeth.jpg,,,,50,,,0.6666666666666666,1,GW/jukebox.jpg,GW/wheelchair.jpg,GW/hat.jpg,GW/wheelchair.jpg,GW/jukebox.jpg,GW/hat.jpg,1,,,
null,,html-keyboard-response,782432,<p></p>,,,,null,,,,,,,,,,,,,,
1827.3999998569489,,directmemory_phase,784261,GW/basket.jpg,,,,51,,,0.7,1,GW/soldier.jpg,GW/gong.jpg,GW/globe.jpg,GW/globe.jpg,GW/gong.jpg,GW/soldier.jpg,1,,,
null,,html-keyboard-response,785269,<p></p>,,,,null,,,,,,,,,,,,,,
3006,,directmemory_phase,788275,GW/soldier.jpg,,,,49,,,0.7272727272727273,1,GW/dustpan.jpg,GW/camera.jpg,GW/paint.jpg,GW/dustpan.jpg,GW/paint.jpg,GW/camera.jpg,1,,,
null,,html-keyboard-response,789278,<p></p>,,,,null,,,,,,,,,,,,,,
3534.2999999523163,,directmemory_phase,792813,GW/camera.jpg,,,,49,,,0.6666666666666666,0,GW/jukebox.jpg,GW/basket.jpg,GW/soldier.jpg,GW/basket.jpg,GW/jukebox.jpg,GW/soldier.jpg,0.5,closer,,
null,,html-keyboard-response,793816,<p></p>,,,,null,,,,,,,,,,,,,,
3059.5,,directmemory_phase,796877,GW/soldier.jpg,,,,50,,,0.6153846153846154,0,GW/camera.jpg,GW/paint.jpg,GW/wheelchair.jpg,GW/wheelchair.jpg,GW/paint.jpg,GW/camera.jpg,0.5,closer,,
null,,html-keyboard-response,797880,<p></p>,,,,null,,,,,,,,,,,,,,
2811.300000190735,,directmemory_phase,800693,GW/jukebox.jpg,,,,49,,,0.6428571428571429,1,GW/paint.jpg,GW/wheelchair.jpg,GW/camera.jpg,GW/paint.jpg,GW/camera.jpg,GW/wheelchair.jpg,1,,,
null,,html-keyboard-response,801696,<p></p>,,,,null,,,,,,,,,,,,,,
2346.7999999523163,,directmemory_phase,804045,GW/basket.jpg,,,,49,,,0.6666666666666666,1,GW/camera.jpg,GW/barrel.jpg,GW/paint.jpg,GW/camera.jpg,GW/paint.jpg,GW/barrel.jpg,1,,,
null,,html-keyboard-response,805047,<p></p>,,,,null,,,,,,,,,,,,,,
4828.799999952316,,directmemory_phase,809877,GW/hat.jpg,,,,49,,,0.6875,1,GW/barrel.jpg,GW/dustpan.jpg,GW/paint.jpg,GW/barrel.jpg,GW/paint.jpg,GW/dustpan.jpg,1,,,
null,,html-keyboard-response,810881,<p></p>,,,,null,,,,,,,,,,,,,,
3482.399999856949,,directmemory_phase,814365,GW/basket.jpg,,,,51,,,0.7058823529411765,1,GW/wheelchair.jpg,GW/gong.jpg,GW/snail.jpg,GW/snail.jpg,GW/gong.jpg,GW/wheelchair.jpg,1,,,
null,,html-keyboard-response,815367,<p></p>,,,,null,,,,,,,,,,,,,,
1811.6999998092651,,directmemory_phase,817181,GW/wheelchair.jpg,,,,50,,,0.7222222222222222,1,GW/snail.jpg,GW/soldier.jpg,GW/globe.jpg,GW/soldier.jpg,GW/snail.jpg,GW/globe.jpg,1,,,
null,,html-keyboard-response,818184,<p></p>,,,,null,,,,,,,,,,,,,,
3644.100000143051,,directmemory_phase,821829,GW/jukebox.jpg,,,,50,,,0.6842105263157895,0,GW/dustpan.jpg,GW/camera.jpg,GW/snail.jpg,GW/snail.jpg,GW/camera.jpg,GW/dustpan.jpg,0.5,closer,,
null,,html-keyboard-response,822832,<p></p>,,,,null,,,,,,,,,,,,,,
1387.0999999046326,,directmemory_phase,824221,GW/globe.jpg,,,,50,,,0.7,1,GW/camera.jpg,GW/basket.jpg,GW/wheelchair.jpg,GW/basket.jpg,GW/camera.jpg,GW/wheelchair.jpg,1,,,
null,,html-keyboard-response,825225,<p></p>,,,,null,,,,,,,,,,,,,,
4106.400000095367,,directmemory_phase,829333,GW/camera.jpg,,,,49,,,0.6666666666666666,0,GW/barrel.jpg,GW/teeth.jpg,GW/snail.jpg,GW/snail.jpg,GW/teeth.jpg,GW/barrel.jpg,0.5,closer,,
null,,html-keyboard-response,830336,<p></p>,,,,null,,,,,,,,,,,,,,
1763.5,,directmemory_phase,832101,GW/paint.jpg,,,,50,,,0.6818181818181818,1,GW/hat.jpg,GW/barrel.jpg,GW/globe.jpg,GW/barrel.jpg,GW/hat.jpg,GW/globe.jpg,1,,,
null,,html-keyboard-response,833104,<p></p>,,,,null,,,,,,,,,,,,,,
2578.5,,directmemory_phase,835685,GW/snail.jpg,,,,50,,,0.6521739130434783,0,GW/barrel.jpg,GW/wheelchair.jpg,GW/camera.jpg,GW/camera.jpg,GW/wheelchair.jpg,GW/barrel.jpg,0.5,closer,,
null,,html-keyboard-response,836688,<p></p>,,,,null,,,,,,,,,,,,,,
2267.0999999046326,,directmemory_phase,838956,GW/paint.jpg,,,,49,,,0.6666666666666666,1,GW/jukebox.jpg,GW/globe.jpg,GW/wheelchair.jpg,GW/jukebox.jpg,GW/wheelchair.jpg,GW/globe.jpg,1,,,
null,,html-keyboard-response,839958,<p></p>,,,,null,,,,,,,,,,,,,,
2004.5,,directmemory_phase,841963,GW/gong.jpg,,,,51,,,0.64,0,GW/snail.jpg,GW/camera.jpg,GW/wheelchair.jpg,GW/camera.jpg,GW/snail.jpg,GW/wheelchair.jpg,0.5,closer,,
null,,html-keyboard-response,842965,<p></p>,,,,null,,,,,,,,,,,,,,
1503.0999999046326,,directmemory_phase,844469,GW/snail.jpg,,,,50,,,0.6538461538461539,1,GW/gong.jpg,GW/basket.jpg,GW/dustpan.jpg,GW/basket.jpg,GW/gong.jpg,GW/dustpan.jpg,1,,,
null,,html-keyboard-response,845472,<p></p>,,,,null,,,,,,,,,,,,,,
4315,,directmemory_phase,849789,GW/camera.jpg,,,,51,,,0.6666666666666666,1,GW/wheelchair.jpg,GW/jukebox.jpg,GW/gong.jpg,GW/gong.jpg,GW/jukebox.jpg,GW/wheelchair.jpg,1,,,
null,,html-keyboard-response,850792,<p></p>,,,,null,,,,,,,,,,,,,,
2547.5,,directmemory_phase,853341,GW/teeth.jpg,,,,50,,,0.6428571428571429,0,GW/snail.jpg,GW/gong.jpg,GW/soldier.jpg,GW/snail.jpg,GW/soldier.jpg,GW/gong.jpg,0.5,closer,,
null,,html-keyboard-response,854344,<p></p>,,,,null,,,,,,,,,,,,,,
4907.400000095367,,directmemory_phase,859253,GW/barrel.jpg,,,,50,,,0.6206896551724138,0,GW/soldier.jpg,GW/snail.jpg,GW/jukebox.jpg,GW/soldier.jpg,GW/jukebox.jpg,GW/snail.jpg,0.5,closer,,
null,,html-keyboard-response,860257,<p></p>,,,,null,,,,,,,,,,,,,,
4010.5,,directmemory_phase,864269,GW/basket.jpg,,,,51,,,0.6,0,GW/jukebox.jpg,GW/soldier.jpg,GW/gong.jpg,GW/jukebox.jpg,GW/gong.jpg,GW/soldier.jpg,0.5,closer,,
null,,html-keyboard-response,865272,<p></p>,,,,null,,,,,,,,,,,,,,
2697.899999856949,,directmemory_phase,867971,GW/barrel.jpg,,,,51,,,0.6129032258064516,1,GW/globe.jpg,GW/wheelchair.jpg,GW/hat.jpg,GW/hat.jpg,GW/wheelchair.jpg,GW/globe.jpg,1,,,
null,,html-keyboard-response,868974,<p></p>,,,,null,,,,,,,,,,,,,,
2061.7000000476837,,directmemory_phase,871036,GW/teeth.jpg,,,,49,,,0.625,1,GW/paint.jpg,GW/dustpan.jpg,GW/basket.jpg,GW/paint.jpg,GW/basket.jpg,GW/dustpan.jpg,1,,,
null,,html-keyboard-response,872039,<p></p>,,,,null,,,,,,,,,,,,,,
12732.700000047684,,intro_1,884773,instruct,,0,,,,,,,,,,,,,,,,
6410.900000095367,,intro_2,891185,instruct,,0,Previous,,,,,,,,,,,,,,,
1199.2000000476837,,intro_1,892385,instruct,,0,,,,,,,,,,,,,,,,
5510.900000095367,,intro_2,897898,instruct,,1,Next,,,,,,,,,,,,,,,
9230.700000047684,,intro_3,907129,instruct,,1,Next,,,,,,,,,,,,,,,
8703,,intro_4,915833,instruct,,1,Next,,,,,,,,,,,,,,,
8112.799999952316,,intro_5,923947,instruct,,1,Next,,,,,,,,,,,,,,,
4585.200000047684,,intro_6,928533,instruct,,1,Next,,,,,,,,,,,,,,,
2598.7000000476837,,intro_7,931133,instruct,,1,Next,,,,,,,,,,,,,,,
10128.799999952316,,intro_8,941263,instruct,,1,Next,,,,,,,,,,,,,,,
4884.400000095367,,shortestpath_phase,946149,GW/dustpan.jpg,,,,50,GW/jukebox.jpg,GW/teeth.jpg,1,1,,,,GW/teeth.jpg,,,,,One Edge Diff,Three Edge Four Edge
null,,html-keyboard-response,947153,<p></p>,,,,null,,,,,,,,,,,,,,
1633.5,,shortestpath_phase,948789,GW/gong.jpg,,,,50,GW/soldier.jpg,GW/hat.jpg,0.5,0,,,,GW/soldier.jpg,,,,,One Edge Diff,Five Edge Six Edge
null,,html-keyboard-response,949792,<p></p>,,,,null,,,,,,,,,,,,,,
2635,,shortestpath_phase,952429,GW/dustpan.jpg,,,,49,GW/gong.jpg,GW/barrel.jpg,0.3333333333333333,0,,,,GW/barrel.jpg,,,,,Four Edge Diff,Two Edge Six Edge
null,,html-keyboard-response,953432,<p></p>,,,,null,,,,,,,,,,,,,,
null,,shortestpath_phase,960935,GW/hat.jpg,,,,null,GW/gong.jpg,GW/globe.jpg,0.25,0,,,,GW/globe.jpg,,,,,One Edge Diff,Five Edge Six Edge
null,,html-keyboard-response,961938,<p></p>,,,,null,,,,,,,,,,,,,,
3016.2999999523163,,shortestpath_phase,964956,GW/gong.jpg,,,,50,GW/snail.jpg,GW/hat.jpg,0.2,0,,,,GW/snail.jpg,,,,,Four Edge Diff,Two Edge Six Edge
null,,html-keyboard-response,965957,<p></p>,,,,null,,,,,,,,,,,,,,
3334.5,,shortestpath_phase,969293,GW/dustpan.jpg,,,,49,GW/barrel.jpg,GW/basket.jpg,0.3333333333333333,1,,,,GW/barrel.jpg,,,,,Three Edge Diff,Two Edge Five Edge
null,,html-keyboard-response,970309,<p></p>,,,,null,,,,,,,,,,,,,,
5718.300000190735,,shortestpath_phase,976028,GW/globe.jpg,,,,50,GW/snail.jpg,GW/hat.jpg,0.2857142857142857,0,,,,GW/snail.jpg,,,,,Three Edge Diff,Three Edge Six Edge
null,,html-keyboard-response,977031,<p></p>,,,,null,,,,,,,,,,,,,,
2115.699999809265,,shortestpath_phase,979149,GW/gong.jpg,,,,49,GW/barrel.jpg,GW/hat.jpg,0.375,1,,,,GW/barrel.jpg,,,,,One Edge Diff,Five Edge Six Edge
null,,html-keyboard-response,980151,<p></p>,,,,null,,,,,,,,,,,,,,
1539,,shortestpath_phase,981691,GW/soldier.jpg,,,,50,GW/globe.jpg,GW/camera.jpg,0.4444444444444444,1,,,,GW/camera.jpg,,,,,One Edge Diff,Four Edge Five Edge
null,,html-keyboard-response,982694,<p></p>,,,,null,,,,,,,,,,,,,,
2437.5,,shortestpath_phase,985133,GW/gong.jpg,,,,50,GW/dustpan.jpg,GW/snail.jpg,0.5,1,,,,GW/snail.jpg,,,,,Four Edge Diff,Two Edge Six Edge
null,,html-keyboard-response,986137,<p></p>,,,,null,,,,,,,,,,,,,,
2891,,shortestpath_phase,989029,GW/camera.jpg,,,,49,GW/hat.jpg,GW/teeth.jpg,0.45454545454545453,0,,,,GW/teeth.jpg,,,,,Three Edge Diff,Two Edge Five Edge
null,,html-keyboard-response,990031,<p></p>,,,,null,,,,,,,,,,,,,,
1556.2000000476837,,shortestpath_phase,991589,GW/dustpan.jpg,,,,50,GW/snail.jpg,GW/paint.jpg,0.5,1,,,,GW/paint.jpg,,,,,One Edge Diff,Three Edge Four Edge
null,,html-keyboard-response,992592,<p></p>,,,,null,,,,,,,,,,,,,,
2482.7000000476837,,shortestpath_phase,995077,GW/hat.jpg,,,,49,GW/camera.jpg,GW/wheelchair.jpg,0.46153846153846156,0,,,,GW/wheelchair.jpg,,,,,Two Edge Diff,Three Edge Five Edge
null,,html-keyboard-response,996080,<p></p>,,,,null,,,,,,,,,,,,,,
2147.2999999523163,,shortestpath_phase,998229,GW/globe.jpg,,,,50,GW/dustpan.jpg,GW/snail.jpg,0.5,1,,,,GW/snail.jpg,,,,,Four Edge Diff,Two Edge Six Edge
null,,html-keyboard-response,999232,<p></p>,,,,null,,,,,,,,,,,,,,
3643.699999809265,,shortestpath_phase,1002877,GW/wheelchair.jpg,,,,49,GW/basket.jpg,GW/globe.jpg,0.5333333333333333,1,,,,GW/basket.jpg,,,,,One Edge Diff,Three Edge Four Edge
null,,html-keyboard-response,1003881,<p></p>,,,,null,,,,,,,,,,,,,,
1888.9000000953674,,shortestpath_phase,1005772,GW/soldier.jpg,,,,50,GW/gong.jpg,GW/camera.jpg,0.5625,1,,,,GW/camera.jpg,,,,,One Edge Diff,Four Edge Five Edge
null,,html-keyboard-response,1006782,<p></p>,,,,null,,,,,,,,,,,,,,
1580.5,,shortestpath_phase,1008365,GW/dustpan.jpg,,,,49,GW/paint.jpg,GW/camera.jpg,0.5882352941176471,1,,,,GW/paint.jpg,,,,,Two Edge Diff,Three Edge Five Edge
null,,html-keyboard-response,1009368,<p></p>,,,,null,,,,,,,,,,,,,,
1971.3999998569489,,shortestpath_phase,1011341,GW/soldier.jpg,,,,50,GW/teeth.jpg,GW/snail.jpg,0.5555555555555556,0,,,,GW/teeth.jpg,,,,,One Edge Diff,Two Edge Three Edge
null,,html-keyboard-response,1012345,<p></p>,,,,null,,,,,,,,,,,,,,
2378.4000000953674,,shortestpath_phase,1014725,GW/barrel.jpg,,,,50,GW/wheelchair.jpg,GW/gong.jpg,0.5263157894736842,0,,,,GW/wheelchair.jpg,,,,,Three Edge Diff,Two Edge Five Edge
null,,html-keyboard-response,1015728,<p></p>,,,,null,,,,,,,,,,,,,,
2625.800000190735,,shortestpath_phase,1018355,GW/hat.jpg,,,,49,GW/basket.jpg,GW/soldier.jpg,0.5,0,,,,GW/soldier.jpg,,,,,Two Edge Diff,Two Edge Four Edge
null,,html-keyboard-response,1019358,<p></p>,,,,null,,,,,,,,,,,,,,
3557.199999809265,,shortestpath_phase,1022917,GW/snail.jpg,,,,50,GW/dustpan.jpg,GW/wheelchair.jpg,0.5238095238095238,1,,,,GW/wheelchair.jpg,,,,,Two Edge Diff,Two Edge Four Edge
null,,html-keyboard-response,1023920,<p></p>,,,,null,,,,,,,,,,,,,,
1378.9000000953674,,shortestpath_phase,1025301,GW/camera.jpg,,,,49,GW/dustpan.jpg,GW/soldier.jpg,0.5,0,,,,GW/soldier.jpg,,,,,One Edge Diff,Four Edge Five Edge
null,,html-keyboard-response,1026305,<p></p>,,,,null,,,,,,,,,,,,,,
2080.7000000476837,,shortestpath_phase,1028388,GW/gong.jpg,,,,50,GW/wheelchair.jpg,GW/basket.jpg,0.5217391304347826,1,,,,GW/basket.jpg,,,,,Two Edge Diff,Two Edge Four Edge
null,,html-keyboard-response,1029390,<p></p>,,,,null,,,,,,,,,,,,,,
1004.6000001430511,,shortestpath_phase,1030397,GW/camera.jpg,,,,49,GW/dustpan.jpg,GW/jukebox.jpg,0.5,0,,,,GW/jukebox.jpg,,,,,Three Edge Diff,Two Edge Five Edge
null,,html-keyboard-response,1031399,<p></p>,,,,null,,,,,,,,,,,,,,
1276.1999998092651,,shortestpath_phase,1032677,GW/soldier.jpg,,,,49,GW/hat.jpg,GW/basket.jpg,0.52,1,,,,GW/hat.jpg,,,,,Two Edge Diff,Two Edge Four Edge
null,,html-keyboard-response,1033680,<p></p>,,,,null,,,,,,,,,,,,,,
1378.9000000953674,,shortestpath_phase,1035061,GW/globe.jpg,,,,50,GW/jukebox.jpg,GW/dustpan.jpg,0.5,0,,,,GW/jukebox.jpg,,,,,Four Edge Diff,Two Edge Six Edge
null,,html-keyboard-response,1036065,<p></p>,,,,null,,,,,,,,,,,,,,
2098.2999999523163,,shortestpath_phase,1038165,GW/basket.jpg,,,,49,GW/dustpan.jpg,GW/paint.jpg,0.48148148148148145,0,,,,GW/paint.jpg,,,,,Three Edge Diff,Three Edge Six Edge
null,,html-keyboard-response,1039169,<p></p>,,,,null,,,,,,,,,,,,,,
1546.5,,shortestpath_phase,1040717,GW/globe.jpg,,,,50,GW/hat.jpg,GW/camera.jpg,0.5,1,,,,GW/camera.jpg,,,,,Three Edge Diff,Three Edge Six Edge
null,,html-keyboard-response,1041720,<p></p>,,,,null,,,,,,,,,,,,,,
2690.7999999523163,,shortestpath_phase,1044413,GW/snail.jpg,,,,49,GW/dustpan.jpg,GW/gong.jpg,0.4827586206896552,0,,,,GW/gong.jpg,,,,,Two Edge Diff,Two Edge Four Edge
null,,html-keyboard-response,1045426,<p></p>,,,,null,,,,,,,,,,,,,,
2920.9000000953674,,shortestpath_phase,1048349,GW/globe.jpg,,,,50,GW/teeth.jpg,GW/wheelchair.jpg,0.4666666666666667,0,,,,GW/teeth.jpg,,,,,One Edge Diff,Three Edge Four Edge
null,,html-keyboard-response,1049352,<p></p>,,,,null,,,,,,,,,,,,,,
1914.2000000476837,,shortestpath_phase,1051268,GW/gong.jpg,,,,50,GW/dustpan.jpg,GW/paint.jpg,0.4838709677419355,1,,,,GW/paint.jpg,,,,,Two Edge Diff,Four Edge Six Edge
null,,html-keyboard-response,1052270,<p></p>,,,,null,,,,,,,,,,,,,,
1214.0999999046326,,shortestpath_phase,1053485,GW/barrel.jpg,,,,49,GW/teeth.jpg,GW/gong.jpg,0.5,1,,,,GW/teeth.jpg,,,,,Three Edge Diff,Two Edge Five Edge
null,,html-keyboard-response,1054488,<p></p>,,,,null,,,,,,,,,,,,,,
1418.6999998092651,,shortestpath_phase,1055909,GW/gong.jpg,,,,50,GW/globe.jpg,GW/barrel.jpg,0.48484848484848486,0,,,,GW/globe.jpg,,,,,Two Edge Diff,Three Edge Five Edge
null,,html-keyboard-response,1056912,<p></p>,,,,null,,,,,,,,,,,,,,
2643.5,,shortestpath_phase,1059557,GW/soldier.jpg,,,,49,GW/gong.jpg,GW/teeth.jpg,0.47058823529411764,0,,,,GW/teeth.jpg,,,,,Three Edge Diff,Three Edge Six Edge
null,,html-keyboard-response,1060560,<p></p>,,,,null,,,,,,,,,,,,,,
1321.5999999046326,,shortestpath_phase,1061883,GW/gong.jpg,,,,50,GW/basket.jpg,GW/dustpan.jpg,0.45714285714285713,0,,,,GW/basket.jpg,,,,,Four Edge Diff,Two Edge Six Edge
null,,html-keyboard-response,1062885,<p></p>,,,,null,,,,,,,,,,,,,,
1621.6999998092651,,shortestpath_phase,1064509,GW/hat.jpg,,,,50,GW/gong.jpg,GW/soldier.jpg,0.4722222222222222,1,,,,GW/soldier.jpg,,,,,Four Edge Diff,Two Edge Six Edge
null,,html-keyboard-response,1065512,<p></p>,,,,null,,,,,,,,,,,,,,
890.7000000476837,,shortestpath_phase,1066405,GW/gong.jpg,,,,49,GW/barrel.jpg,GW/wheelchair.jpg,0.4594594594594595,0,,,,GW/wheelchair.jpg,,,,,One Edge Diff,Four Edge Five Edge
null,,html-keyboard-response,1067407,<p></p>,,,,null,,,,,,,,,,,,,,
852.5,,shortestpath_phase,1068261,GW/dustpan.jpg,,,,50,GW/gong.jpg,GW/snail.jpg,0.47368421052631576,1,,,,GW/snail.jpg,,,,,Two Edge Diff,Four Edge Six Edge
null,,html-keyboard-response,1069273,<p></p>,,,,null,,,,,,,,,,,,,,
930,,shortestpath_phase,1070205,GW/soldier.jpg,,,,50,GW/teeth.jpg,GW/jukebox.jpg,0.46153846153846156,0,,,,GW/teeth.jpg,,,,,One Edge Diff,Two Edge Three Edge
null,,html-keyboard-response,1071209,<p></p>,,,,null,,,,,,,,,,,,,,
1426.4000000953674,,shortestpath_phase,1072637,GW/dustpan.jpg,,,,49,GW/gong.jpg,GW/camera.jpg,0.45,0,,,,GW/camera.jpg,,,,,One Edge Diff,Five Edge Six Edge
null,,html-keyboard-response,1073641,<p></p>,,,,null,,,,,,,,,,,,,,
1098.8999998569489,,shortestpath_phase,1074741,GW/teeth.jpg,,,,50,GW/soldier.jpg,GW/hat.jpg,0.43902439024390244,0,,,,GW/soldier.jpg,,,,,One Edge Diff,Two Edge Three Edge
null,,html-keyboard-response,1075744,<p></p>,,,,null,,,,,,,,,,,,,,
874.2999999523163,,shortestpath_phase,1076620,GW/dustpan.jpg,,,,50,GW/wheelchair.jpg,GW/snail.jpg,0.42857142857142855,0,,,,GW/wheelchair.jpg,,,,,Two Edge Diff,Two Edge Four Edge
null,,html-keyboard-response,1077622,<p></p>,,,,null,,,,,,,,,,,,,,
1013.7000000476837,,shortestpath_phase,1078637,GW/soldier.jpg,,,,49,GW/teeth.jpg,GW/gong.jpg,0.4418604651162791,1,,,,GW/teeth.jpg,,,,,Three Edge Diff,Two Edge Five Edge
null,,html-keyboard-response,1079640,<p></p>,,,,null,,,,,,,,,,,,,,
988.4000000953674,,shortestpath_phase,1080629,GW/camera.jpg,,,,50,GW/dustpan.jpg,GW/jukebox.jpg,0.45454545454545453,1,,,,GW/jukebox.jpg,,,,,Three Edge Diff,Three Edge Six Edge
null,,html-keyboard-response,1081632,<p></p>,,,,null,,,,,,,,,,,,,,
1361.7999999523163,,shortestpath_phase,1082995,GW/hat.jpg,,,,49,GW/gong.jpg,GW/paint.jpg,0.4444444444444444,0,,,,GW/paint.jpg,,,,,Four Edge Diff,Two Edge Six Edge
null,,html-keyboard-response,1083998,<p></p>,,,,null,,,,,,,,,,,,,,
1102,,shortestpath_phase,1085101,GW/soldier.jpg,,,,50,GW/globe.jpg,GW/jukebox.jpg,0.45652173913043476,1,,,,GW/jukebox.jpg,,,,,Two Edge Diff,Three Edge Five Edge
null,,html-keyboard-response,1086104,<p></p>,,,,null,,,,,,,,,,,,,,
1306.5,,shortestpath_phase,1087413,GW/paint.jpg,,,,50,GW/wheelchair.jpg,GW/dustpan.jpg,0.44680851063829785,0,,,,GW/wheelchair.jpg,,,,,One Edge Diff,Two Edge Three Edge
null,,html-keyboard-response,1088416,<p></p>,,,,null,,,,,,,,,,,,,,
794.1000001430511,,shortestpath_phase,1089211,GW/soldier.jpg,,,,49,GW/jukebox.jpg,GW/basket.jpg,0.4583333333333333,1,,,,GW/jukebox.jpg,,,,,One Edge Diff,Three Edge Four Edge
null,,html-keyboard-response,1090213,<p></p>,,,,null,,,,,,,,,,,,,,
2591,,shortestpath_phase,1092805,GW/hat.jpg,,,,50,GW/snail.jpg,GW/wheelchair.jpg,0.46938775510204084,1,,,,GW/wheelchair.jpg,,,,,One Edge Diff,Three Edge Four Edge
null,,html-keyboard-response,1093808,<p></p>,,,,null,,,,,,,,,,,,,,
1755.2000000476837,,shortestpath_phase,1095565,GW/globe.jpg,,,,50,GW/soldier.jpg,GW/dustpan.jpg,0.46,0,,,,GW/soldier.jpg,,,,,One Edge Diff,Five Edge Six Edge
null,,html-keyboard-response,1096568,<p></p>,,,,null,,,,,,,,,,,,,,
1530.7000000476837,,shortestpath_phase,1098101,GW/dustpan.jpg,,,,49,GW/camera.jpg,GW/jukebox.jpg,0.45098039215686275,0,,,,GW/jukebox.jpg,,,,,One Edge Diff,Four Edge Five Edge
null,,html-keyboard-response,1099105,<p></p>,,,,null,,,,,,,,,,,,,,
1522.1999998092651,,shortestpath_phase,1100629,GW/soldier.jpg,,,,49,GW/gong.jpg,GW/paint.jpg,0.4423076923076923,0,,,,GW/paint.jpg,,,,,Three Edge Diff,Two Edge Five Edge
null,,html-keyboard-response,1101631,<p></p>,,,,null,,,,,,,,,,,,,,
1739.7000000476837,,shortestpath_phase,1103372,GW/jukebox.jpg,,,,50,GW/globe.jpg,GW/wheelchair.jpg,0.4339622641509434,0,,,,GW/globe.jpg,,,,,One Edge Diff,Two Edge Three Edge
null,,html-keyboard-response,1104375,<p></p>,,,,null,,,,,,,,,,,,,,
2196,,shortestpath_phase,1106573,GW/hat.jpg,,,,50,GW/basket.jpg,GW/teeth.jpg,0.4444444444444444,1,,,,GW/teeth.jpg,,,,,One Edge Diff,Three Edge Four Edge
null,,html-keyboard-response,1107575,<p></p>,,,,null,,,,,,,,,,,,,,
1891.6000001430511,,shortestpath_phase,1109469,GW/dustpan.jpg,,,,49,GW/globe.jpg,GW/barrel.jpg,0.43636363636363634,0,,,,GW/barrel.jpg,,,,,Four Edge Diff,Two Edge Six Edge
null,,html-keyboard-response,1110472,<p></p>,,,,null,,,,,,,,,,,,,,
2883.100000143051,,shortestpath_phase,1113357,GW/globe.jpg,,,,50,GW/teeth.jpg,GW/soldier.jpg,0.42857142857142855,0,,,,GW/teeth.jpg,,,,,Two Edge Diff,Three Edge Five Edge
null,,html-keyboard-response,1114360,<p></p>,,,,null,,,,,,,,,,,,,,
1547.7000000476837,,shortestpath_phase,1115909,GW/gong.jpg,,,,50,GW/dustpan.jpg,GW/barrel.jpg,0.43859649122807015,1,,,,GW/barrel.jpg,,,,,One Edge Diff,Five Edge Six Edge
null,,html-keyboard-response,1116912,<p></p>,,,,null,,,,,,,,,,,,,,
706.6999998092651,,shortestpath_phase,1117621,GW/globe.jpg,,,,49,GW/jukebox.jpg,GW/hat.jpg,0.4482758620689655,1,,,,GW/jukebox.jpg,,,,,Three Edge Diff,Three Edge Six Edge
null,,html-keyboard-response,1118624,<p></p>,,,,null,,,,,,,,,,,,,,
1098.2000000476837,,shortestpath_phase,1119725,GW/hat.jpg,,,,50,GW/snail.jpg,GW/gong.jpg,0.4406779661016949,0,,,,GW/snail.jpg,,,,,Two Edge Diff,Four Edge Six Edge
null,,html-keyboard-response,1120728,<p></p>,,,,null,,,,,,,,,,,,,,
1993.7999999523163,,shortestpath_phase,1122723,GW/globe.jpg,,,,49,GW/jukebox.jpg,GW/wheelchair.jpg,0.45,1,,,,GW/jukebox.jpg,,,,,Two Edge Diff,Two Edge Four Edge
null,,html-keyboard-response,1123725,<p></p>,,,,null,,,,,,,,,,,,,,
1982.5,,shortestpath_phase,1125709,GW/hat.jpg,,,,49,GW/teeth.jpg,GW/soldier.jpg,0.4426229508196721,0,,,,GW/soldier.jpg,,,,,One Edge Diff,Two Edge Three Edge
null,,html-keyboard-response,1126713,<p></p>,,,,null,,,,,,,,,,,,,,
2946.7999999523163,,shortestpath_phase,1129661,GW/snail.jpg,,,,49,GW/wheelchair.jpg,GW/hat.jpg,0.45161290322580644,1,,,,GW/wheelchair.jpg,,,,,Two Edge Diff,Two Edge Four Edge
null,,html-keyboard-response,1130665,<p></p>,,,,null,,,,,,,,,,,,,,
1114.2999999523163,,shortestpath_phase,1131781,GW/basket.jpg,,,,50,GW/dustpan.jpg,GW/hat.jpg,0.4603174603174603,1,,,,GW/hat.jpg,,,,,One Edge Diff,Four Edge Five Edge
null,,html-keyboard-response,1132785,<p></p>,,,,null,,,,,,,,,,,,,,
3168.899999856949,,shortestpath_phase,1135955,GW/camera.jpg,,,,50,GW/dustpan.jpg,GW/teeth.jpg,0.46875,1,,,,GW/teeth.jpg,,,,,Three Edge Diff,Three Edge Six Edge
null,,html-keyboard-response,1136957,<p></p>,,,,null,,,,,,,,,,,,,,
1663,,shortestpath_phase,1138621,GW/barrel.jpg,,,,49,GW/gong.jpg,GW/dustpan.jpg,0.46153846153846156,0,,,,GW/dustpan.jpg,,,,,Three Edge Diff,Three Edge Six Edge
null,,html-keyboard-response,1139624,<p></p>,,,,null,,,,,,,,,,,,,,
979.1000001430511,,shortestpath_phase,1140605,GW/hat.jpg,,,,50,GW/teeth.jpg,GW/camera.jpg,0.45454545454545453,0,,,,GW/teeth.jpg,,,,,Two Edge Diff,Three Edge Five Edge
null,,html-keyboard-response,1141608,<p></p>,,,,null,,,,,,,,,,,,,,
1843.2000000476837,,shortestpath_phase,1143453,GW/dustpan.jpg,,,,49,GW/paint.jpg,GW/barrel.jpg,0.44776119402985076,0,,,,GW/barrel.jpg,,,,,One Edge Diff,Two Edge Three Edge
null,,html-keyboard-response,1144457,<p></p>,,,,null,,,,,,,,,,,,,,
3674.199999809265,,shortestpath_phase,1148133,GW/teeth.jpg,,,,49,GW/soldier.jpg,GW/globe.jpg,0.45588235294117646,1,,,,GW/soldier.jpg,,,,,One Edge Diff,Two Edge Three Edge
null,,html-keyboard-response,1149135,<p></p>,,,,null,,,,,,,,,,,,,,
1124.2000000476837,,shortestpath_phase,1150261,GW/dustpan.jpg,,,,50,GW/camera.jpg,GW/globe.jpg,0.4492753623188406,0,,,,GW/camera.jpg,,,,,One Edge Diff,Five Edge Six Edge
null,,html-keyboard-response,1151265,<p></p>,,,,null,,,,,,,,,,,,,,
1882.4000000953674,,shortestpath_phase,1153149,GW/paint.jpg,,,,50,GW/gong.jpg,GW/globe.jpg,0.45714285714285713,1,,,,GW/globe.jpg,,,,,One Edge Diff,Three Edge Four Edge
null,,html-keyboard-response,1154153,<p></p>,,,,null,,,,,,,,,,,,,,
714.4000000953674,,shortestpath_phase,1154869,GW/dustpan.jpg,,,,49,GW/basket.jpg,GW/wheelchair.jpg,0.4507042253521127,0,,,,GW/wheelchair.jpg,,,,,Three Edge Diff,Three Edge Six Edge
null,,html-keyboard-response,1155873,<p></p>,,,,null,,,,,,,,,,,,,,
386.40000009536743,,shortestpath_phase,1156261,GW/snail.jpg,,,,49,GW/gong.jpg,GW/hat.jpg,0.4583333333333333,1,,,,GW/gong.jpg,,,,,Two Edge Diff,Two Edge Four Edge
null,,html-keyboard-response,1157264,<p></p>,,,,null,,,,,,,,,,,,,,
452,,shortestpath_phase,1157717,GW/hat.jpg,,,,50,GW/dustpan.jpg,GW/globe.jpg,0.4520547945205479,0,,,,GW/dustpan.jpg,,,,,Two Edge Diff,Three Edge Five Edge
null,,html-keyboard-response,1158720,<p></p>,,,,null,,,,,,,,,,,,,,
402.39999985694885,,shortestpath_phase,1159125,GW/globe.jpg,,,,49,GW/camera.jpg,GW/soldier.jpg,0.4594594594594595,1,,,,GW/camera.jpg,,,,,Three Edge Diff,Three Edge Six Edge
null,,html-keyboard-response,1160128,<p></p>,,,,null,,,,,,,,,,,,,,
497.60000014305115,,shortestpath_phase,1160627,GW/gong.jpg,,,,50,GW/wheelchair.jpg,GW/hat.jpg,0.4533333333333333,0,,,,GW/wheelchair.jpg,,,,,Two Edge Diff,Four Edge Six Edge
null,,html-keyboard-response,1161630,<p></p>,,,,null,,,,,,,,,,,,,,
421.2999999523163,,shortestpath_phase,1162053,GW/camera.jpg,,,,49,GW/paint.jpg,GW/teeth.jpg,0.4473684210526316,0,,,,GW/teeth.jpg,,,,,One Edge Diff,Two Edge Three Edge
null,,html-keyboard-response,1163056,<p></p>,,,,null,,,,,,,,,,,,,,
610.7000000476837,,shortestpath_phase,1163669,GW/globe.jpg,,,,49,GW/barrel.jpg,GW/dustpan.jpg,0.45454545454545453,1,,,,GW/barrel.jpg,,,,,Two Edge Diff,Four Edge Six Edge
null,,html-keyboard-response,1164672,<p></p>,,,,null,,,,,,,,,,,,,,
1267.5999999046326,,shortestpath_phase,1165941,GW/dustpan.jpg,,,,50,GW/snail.jpg,GW/globe.jpg,0.44871794871794873,0,,,,GW/snail.jpg,,,,,Two Edge Diff,Four Edge Six Edge
null,,html-keyboard-response,1166944,<p></p>,,,,null,,,,,,,,,,,,,,
1131.2999999523163,,shortestpath_phase,1168077,GW/globe.jpg,,,,50,GW/wheelchair.jpg,GW/dustpan.jpg,0.4430379746835443,0,,,,GW/wheelchair.jpg,,,,,Two Edge Diff,Four Edge Six Edge
null,,html-keyboard-response,1169080,<p></p>,,,,null,,,,,,,,,,,,,,
2634.5,,shortestpath_phase,1171717,GW/hat.jpg,,,,50,GW/jukebox.jpg,GW/camera.jpg,0.4375,0,,,,GW/jukebox.jpg,,,,,Two Edge Diff,Three Edge Five Edge
null,,html-keyboard-response,1172728,<p></p>,,,,null,,,,,,,,,,,,,,
1090.1999998092651,,shortestpath_phase,1173820,GW/wheelchair.jpg,,,,49,GW/hat.jpg,GW/dustpan.jpg,0.43209876543209874,0,,,,GW/dustpan.jpg,,,,,One Edge Diff,Two Edge Three Edge
null,,html-keyboard-response,1174822,<p></p>,,,,null,,,,,,,,,,,,,,
1780.5,,shortestpath_phase,1176605,GW/globe.jpg,,,,50,GW/hat.jpg,GW/jukebox.jpg,0.43902439024390244,1,,,,GW/jukebox.jpg,,,,,Three Edge Diff,Two Edge Five Edge
null,,html-keyboard-response,1177617,<p></p>,,,,null,,,,,,,,,,,,,,
505.40000009536743,,shortestpath_phase,1178125,GW/paint.jpg,,,,49,GW/gong.jpg,GW/camera.jpg,0.43373493975903615,0,,,,GW/camera.jpg,,,,,One Edge Diff,Three Edge Four Edge
null,,html-keyboard-response,1179129,<p></p>,,,,null,,,,,,,,,,,,,,
1794.0999999046326,,shortestpath_phase,1180925,GW/globe.jpg,,,,50,GW/snail.jpg,GW/barrel.jpg,0.42857142857142855,0,,,,GW/snail.jpg,,,,,Two Edge Diff,Two Edge Four Edge
null,,html-keyboard-response,1181929,<p></p>,,,,null,,,,,,,,,,,,,,
938,,shortestpath_phase,1182869,GW/dustpan.jpg,,,,50,GW/gong.jpg,GW/wheelchair.jpg,0.43529411764705883,1,,,,GW/wheelchair.jpg,,,,,Four Edge Diff,Two Edge Six Edge
null,,html-keyboard-response,1183872,<p></p>,,,,null,,,,,,,,,,,,,,
1627.2999999523163,,shortestpath_phase,1185501,GW/soldier.jpg,,,,49,GW/basket.jpg,GW/teeth.jpg,0.43023255813953487,0,,,,GW/teeth.jpg,,,,,Two Edge Diff,Two Edge Four Edge
null,,html-keyboard-response,1186505,<p></p>,,,,null,,,,,,,,,,,,,,
1122.0999999046326,,shortestpath_phase,1187629,GW/dustpan.jpg,,,,50,GW/globe.jpg,GW/basket.jpg,0.4367816091954023,1,,,,GW/basket.jpg,,,,,One Edge Diff,Five Edge Six Edge
null,,html-keyboard-response,1188634,<p></p>,,,,null,,,,,,,,,,,,,,
1481.4000000953674,,shortestpath_phase,1190117,GW/barrel.jpg,,,,49,GW/gong.jpg,GW/globe.jpg,0.4318181818181818,0,,,,GW/globe.jpg,,,,,One Edge Diff,Four Edge Five Edge
null,,html-keyboard-response,1191120,<p></p>,,,,null,,,,,,,,,,,,,,
1066.6999998092651,,shortestpath_phase,1192189,GW/dustpan.jpg,,,,50,GW/wheelchair.jpg,GW/basket.jpg,0.42696629213483145,0,,,,GW/wheelchair.jpg,,,,,Three Edge Diff,Two Edge Five Edge
null,,html-keyboard-response,1193192,<p></p>,,,,null,,,,,,,,,,,,,,
1314.7999999523163,,shortestpath_phase,1194509,GW/gong.jpg,,,,49,GW/globe.jpg,GW/basket.jpg,0.4222222222222222,0,,,,GW/basket.jpg,,,,,One Edge Diff,Two Edge Three Edge
null,,html-keyboard-response,1195512,<p></p>,,,,null,,,,,,,,,,,,,,
1179.5,,shortestpath_phase,1196693,GW/globe.jpg,,,,49,GW/hat.jpg,GW/dustpan.jpg,0.42857142857142855,1,,,,GW/hat.jpg,,,,,One Edge Diff,Five Edge Six Edge
null,,html-keyboard-response,1197696,<p></p>,,,,null,,,,,,,,,,,,,,
281.5,,shortestpath_phase,1197979,GW/camera.jpg,,,,50,GW/teeth.jpg,GW/dustpan.jpg,0.42391304347826086,0,,,,GW/teeth.jpg,,,,,Three Edge Diff,Two Edge Five Edge
null,,html-keyboard-response,1198982,<p></p>,,,,null,,,,,,,,,,,,,,
429.60000014305115,,shortestpath_phase,1199413,GW/hat.jpg,,,,49,GW/globe.jpg,GW/basket.jpg,0.41935483870967744,0,,,,GW/basket.jpg,,,,,One Edge Diff,Four Edge Five Edge
null,,html-keyboard-response,1200417,<p></p>,,,,null,,,,,,,,,,,,,,
544.7000000476837,,shortestpath_phase,1200963,GW/dustpan.jpg,,,,49,GW/jukebox.jpg,GW/globe.jpg,0.425531914893617,1,,,,GW/jukebox.jpg,,,,,Two Edge Diff,Four Edge Six Edge
null,,html-keyboard-response,1201976,<p></p>,,,,null,,,,,,,,,,,,,,
625.6999998092651,,shortestpath_phase,1202603,GW/soldier.jpg,,,,50,GW/teeth.jpg,GW/globe.jpg,0.42105263157894735,0,,,,GW/teeth.jpg,,,,,Three Edge Diff,Two Edge Five Edge
null,,html-keyboard-response,1203605,<p></p>,,,,null,,,,,,,,,,,,,,
470.89999985694885,,shortestpath_phase,1204077,GW/dustpan.jpg,,,,49,GW/gong.jpg,GW/basket.jpg,0.4166666666666667,0,,,,GW/basket.jpg,,,,,One Edge Diff,Five Edge Six Edge
null,,html-keyboard-response,1205081,<p></p>,,,,null,,,,,,,,,,,,,,
241,,shortestpath_phase,1205323,GW/hat.jpg,,,,50,GW/globe.jpg,GW/soldier.jpg,0.422680412371134,1,,,,GW/soldier.jpg,,,,,Three Edge Diff,Two Edge Five Edge
null,,html-keyboard-response,1206327,<p></p>,,,,null,,,,,,,,,,,,,,
474.89999985694885,,shortestpath_phase,1206804,GW/camera.jpg,,,,50,GW/soldier.jpg,GW/paint.jpg,0.42857142857142855,1,,,,GW/paint.jpg,,,,,One Edge Diff,Three Edge Four Edge
null,,html-keyboard-response,1207807,<p></p>,,,,null,,,,,,,,,,,,,,
236.09999990463257,,shortestpath_phase,1208045,GW/hat.jpg,,,,49,GW/dustpan.jpg,GW/camera.jpg,0.43434343434343436,1,,,,GW/dustpan.jpg,,,,,Two Edge Diff,Three Edge Five Edge
null,,html-keyboard-response,1209048,<p></p>,,,,null,,,,,,,,,,,,,,
332.2000000476837,,shortestpath_phase,1209381,GW/globe.jpg,,,,49,GW/dustpan.jpg,GW/camera.jpg,0.43,0,,,,GW/camera.jpg,,,,,Four Edge Diff,Two Edge Six Edge
null,,html-keyboard-response,1210384,<p></p>,,,,null,,,,,,,,,,,,,,
1306.3999998569489,,shortestpath_phase,1211693,GW/dustpan.jpg,,,,50,GW/jukebox.jpg,GW/gong.jpg,0.42574257425742573,0,,,,GW/jukebox.jpg,,,,,Two Edge Diff,Four Edge Six Edge
null,,html-keyboard-response,1212696,<p></p>,,,,null,,,,,,,,,,,,,,
1466.7999999523163,,shortestpath_phase,1214165,GW/hat.jpg,,,,50,GW/camera.jpg,GW/gong.jpg,0.4215686274509804,0,,,,GW/camera.jpg,,,,,One Edge Diff,Five Edge Six Edge
null,,html-keyboard-response,1215168,<p></p>,,,,null,,,,,,,,,,,,,,
1130.5999999046326,,shortestpath_phase,1216301,GW/globe.jpg,,,,49,GW/wheelchair.jpg,GW/soldier.jpg,0.42718446601941745,1,,,,GW/wheelchair.jpg,,,,,One Edge Diff,Four Edge Five Edge
null,,html-keyboard-response,1217304,<p></p>,,,,null,,,,,,,,,,,,,,
1090.1000001430511,,shortestpath_phase,1218396,GW/hat.jpg,,,,49,GW/gong.jpg,GW/basket.jpg,0.4230769230769231,0,,,,GW/basket.jpg,,,,,Two Edge Diff,Four Edge Six Edge
null,,html-keyboard-response,1219399,<p></p>,,,,null,,,,,,,,,,,,,,
212.09999990463257,,shortestpath_phase,1219613,GW/dustpan.jpg,,,,50,GW/globe.jpg,GW/wheelchair.jpg,0.42857142857142855,1,,,,GW/wheelchair.jpg,,,,,Four Edge Diff,Two Edge Six Edge
null,,html-keyboard-response,1220616,<p></p>,,,,null,,,,,,,,,,,,,,
307,,shortestpath_phase,1220925,GW/gong.jpg,,,,49,GW/soldier.jpg,GW/snail.jpg,0.42452830188679247,0,,,,GW/snail.jpg,,,,,Three Edge Diff,Three Edge Six Edge
null,,html-keyboard-response,1221929,<p></p>,,,,null,,,,,,,,,,,,,,
762.1999998092651,,shortestpath_phase,1222693,GW/globe.jpg,,,,50,GW/soldier.jpg,GW/paint.jpg,0.42990654205607476,1,,,,GW/paint.jpg,,,,,Two Edge Diff,Three Edge Five Edge
null,,html-keyboard-response,1223696,<p></p>,,,,null,,,,,,,,,,,,,,
1402.6999998092651,,shortestpath_phase,1225101,GW/gong.jpg,,,,49,GW/dustpan.jpg,GW/wheelchair.jpg,0.42592592592592593,0,,,,GW/wheelchair.jpg,,,,,Two Edge Diff,Four Edge Six Edge
null,,html-keyboard-response,1226117,<p></p>,,,,null,,,,,,,,,,,,,,
462.2000000476837,,shortestpath_phase,1226581,GW/basket.jpg,,,,50,GW/soldier.jpg,GW/dustpan.jpg,0.42201834862385323,0,,,,GW/soldier.jpg,,,,,One Edge Diff,Four Edge Five Edge
null,,html-keyboard-response,1227584,<p></p>,,,,null,,,,,,,,,,,,,,
1242.7000000476837,,shortestpath_phase,1228829,GW/barrel.jpg,,,,50,GW/camera.jpg,GW/gong.jpg,0.41818181818181815,0,,,,GW/camera.jpg,,,,,One Edge Diff,Four Edge Five Edge
null,,html-keyboard-response,1229833,<p></p>,,,,null,,,,,,,,,,,,,,
1969.3999998569489,,shortestpath_phase,1231805,GW/gong.jpg,,,,50,GW/basket.jpg,GW/hat.jpg,0.4144144144144144,0,,,,GW/basket.jpg,,,,,Four Edge Diff,Two Edge Six Edge
null,,html-keyboard-response,1232808,<p></p>,,,,null,,,,,,,,,,,,,,
1105.8999998569489,,shortestpath_phase,1233916,GW/barrel.jpg,,,,50,GW/gong.jpg,GW/jukebox.jpg,0.41964285714285715,1,,,,GW/jukebox.jpg,,,,,Three Edge Diff,Three Edge Six Edge
null,,html-keyboard-response,1234918,<p></p>,,,,null,,,,,,,,,,,,,,
428.7000000476837,,shortestpath_phase,1235349,GW/hat.jpg,,,,49,GW/snail.jpg,GW/teeth.jpg,0.415929203539823,0,,,,GW/teeth.jpg,,,,,One Edge Diff,Three Edge Four Edge
null,,html-keyboard-response,1236352,<p></p>,,,,null,,,,,,,,,,,,,,
713.2000000476837,,shortestpath_phase,1237067,GW/gong.jpg,,,,50,GW/jukebox.jpg,GW/barrel.jpg,0.41228070175438597,0,,,,GW/jukebox.jpg,,,,,Two Edge Diff,Three Edge Five Edge
null,,html-keyboard-response,1238070,<p></p>,,,,null,,,,,,,,,,,,,,
700.7999999523163,,shortestpath_phase,1238773,GW/barrel.jpg,,,,49,GW/wheelchair.jpg,GW/snail.jpg,0.41739130434782606,1,,,,GW/wheelchair.jpg,,,,,One Edge Diff,Two Edge Three Edge
null,,html-keyboard-response,1239776,<p></p>,,,,null,,,,,,,,,,,,,,
762.8000001907349,,shortestpath_phase,1240541,GW/hat.jpg,,,,50,GW/camera.jpg,GW/basket.jpg,0.4224137931034483,1,,,,GW/basket.jpg,,,,,One Edge Diff,Four Edge Five Edge
null,,html-keyboard-response,1241545,<p></p>,,,,null,,,,,,,,,,,,,,
441.39999985694885,,shortestpath_phase,1241987,GW/gong.jpg,,,,49,GW/dustpan.jpg,GW/soldier.jpg,0.4188034188034188,0,,,,GW/soldier.jpg,,,,,One Edge Diff,Five Edge Six Edge
null,,html-keyboard-response,1242990,<p></p>,,,,null,,,,,,,,,,,,,,
750,,shortestpath_phase,1243741,GW/globe.jpg,,,,49,GW/barrel.jpg,GW/camera.jpg,0.4152542372881356,0,,,,GW/camera.jpg,,,,,Two Edge Diff,Two Edge Four Edge
null,,html-keyboard-response,1244745,<p></p>,,,,null,,,,,,,,,,,,,,
873.5999999046326,,shortestpath_phase,1245621,GW/gong.jpg,,,,50,GW/hat.jpg,GW/paint.jpg,0.42016806722689076,1,,,,GW/paint.jpg,,,,,Two Edge Diff,Four Edge Six Edge
null,,html-keyboard-response,1246624,<p></p>,,,,null,,,,,,,,,,,,,,
570.7999999523163,,shortestpath_phase,1247197,GW/basket.jpg,,,,50,GW/wheelchair.jpg,GW/dustpan.jpg,0.4166666666666667,0,,,,GW/wheelchair.jpg,,,,,Two Edge Diff,Three Edge Five Edge
null,,html-keyboard-response,1248200,<p></p>,,,,null,,,,,,,,,,,,,,
4426.900000095367,,shortestpath_phase,1252629,,,,,49,,,0.4214876033057851,1,,,,,,,,,One Edge Diff,Three Edge Four Edge
null,,html-keyboard-response,1253633,<p></p>,,,,null,,,,,,,,,,,,,,
33254.90000009537,,intro_1,1286890,instruct,,0,,,,,,,,,,,,,,,,
25262.700000047684,,intro_2,1312154,instruct,,1,Next,,,,,,,,,,,,,,,
2096.7000000476837,,intro_3,1314252,instruct,,1,Next,,,,,,,,,,,,,,,
