rt,responses,trial_type,time_elapsed,stimulus,graphorder,button_pressed,response,key_press,stimulus_left,stimulus_right,accuracy,cumulative_accuracy,stimulus_down_left,stimulus_down_mid,stimulus_down_right,stimulus_correct,stimulus_short,stimulus_far,weighted_accuracy,missedtrial,condition,specific_pairs
4170.800000071526,{worker_id:63c3118da7ffa9c9fa88a10e},id_enter,4172,id_enter,GW/paint.jpg; GW/snail.jpg; GW/teeth.jpg; GW/camera.jpg; GW/barrel.jpg; GW/dustpan.jpg; GW/soldier.jpg; GW/jukebox.jpg; GW/hat.jpg; GW/basket.jpg; GW/globe.jpg; GW/gong.jpg; GW/wheelchair.jpg,,,,,,,,,,,,,,,,,
4506.200000047684,,fullscreen,8683,fullscreen,,0,,,,,,,,,,,,,,,,
4899.299999952316,,intro_1,13584,instruct,,0,,,,,,,,,,,,,,,,
29770.699999928474,,intro_2,43356,instruct,,1,Next,,,,,,,,,,,,,,,
4639.899999976158,,intro_3,47996,instruct,,1,Next,,,,,,,,,,,,,,,
null,,learn_prac_1,49998,lean_prac_1,,,,null,,,,,,,,,,,,,,
null,,html-keyboard-response,51001,<p></p>,,,,null,,,,,,,,,,,,,,
4629.700000047684,,intro_1,55631,instruct,,0,,,,,,,,,,,,,,,,
2511.100000023842,,intro_2,58143,instruct,,1,Next,,,,,,,,,,,,,,,
null,,learn_prac_2,60145,lean_prac_2,,,,null,,,,,,,,,,,,,,
null,,html-keyboard-response,61149,<p></p>,,,,null,,,,,,,,,,,,,,
1949.3000000715256,,intro_1,63099,instruct,,0,,,,,,,,,,,,,,,,
2457.1999999284744,,intro_2,65558,instruct,,1,Next,,,,,,,,,,,,,,,
84361.29999995232,,intro_3,149920,instruct,,1,Next,,,,,,,,,,,,,,,
null,,prac_atten_color_black,150255,black_plus_sign,,,,null,,,,,,,,,,,,,,
866.5,,prac_atten_color,151326,prac_stop_color,,,,49,,,,,,,,,,,,,,
null,,prac_atten_color_black,153328,black_plus_sign,,,,null,,,,,,,,,,,,,,
null,,prac_atten_color_black,153662,black_plus_sign,,,,null,,,,,,,,,,,,,,
655.7999999523163,,prac_atten_color,154716,prac_stop_color,,,,50,,,,,,,,,,,,,,
null,,prac_atten_color_black,156723,black_plus_sign,,,,null,,,,,,,,,,,,,,
null,,prac_atten_color_black,157073,black_plus_sign,,,,null,,,,,,,,,,,,,,
944.7999999523163,,prac_atten_color,158162,prac_stop_color,,,,50,,,,,,,,,,,,,,
null,,prac_atten_color_black,160165,black_plus_sign,,,,null,,,,,,,,,,,,,,
null,,prac_atten_color_black,160480,black_plus_sign,,,,null,,,,,,,,,,,,,,
756.1000000238419,,prac_atten_color,161258,prac_stop_color,,,,49,,,,,,,,,,,,,,
null,,prac_atten_color_black,163259,black_plus_sign,,,,null,,,,,,,,,,,,,,
null,,prac_atten_color_black,163886,black_plus_sign,,,,null,,,,,,,,,,,,,,
null,,prac_atten_color,164292,prac_stop_color,,,,null,,,,,,,,,,,,,,
44.199999928474426,,prac_atten_color_black,166293,black_plus_sign,,,,50,,,,,,,,,,,,,,
null,,prac_atten_color_black,167291,black_plus_sign,,,,null,,,,,,,,,,,,,,
767.5,,prac_atten_color,168224,prac_stop_color,,,,50,,,,,,,,,,,,,,
null,,prac_atten_color_black,170226,black_plus_sign,,,,null,,,,,,,,,,,,,,
null,,prac_atten_color_black,170698,black_plus_sign,,,,null,,,,,,,,,,,,,,
733.1999999284744,,prac_atten_color,171726,prac_stop_color,,,,49,,,,,,,,,,,,,,
null,,prac_atten_color_black,173727,black_plus_sign,,,,null,,,,,,,,,,,,,,
null,,prac_atten_color_black,174104,black_plus_sign,,,,null,,,,,,,,,,,,,,
null,,prac_atten_color,174891,prac_stop_color,,,,null,,,,,,,,,,,,,,
139.39999997615814,,prac_atten_color_black,176892,black_plus_sign,,,,50,,,,,,,,,,,,,,
null,,prac_atten_color_black,177510,black_plus_sign,,,,null,,,,,,,,,,,,,,
447.3000000715256,,prac_atten_color,177988,prac_stop_color,,,,49,,,,,,,,,,,,,,
null,,prac_atten_color_black,179989,black_plus_sign,,,,null,,,,,,,,,,,,,,
null,,prac_atten_color_black,180916,black_plus_sign,,,,null,,,,,,,,,,,,,,
null,,prac_atten_color,181969,prac_stop_color,,,,null,,,,,,,,,,,,,,
278.2000000476837,,prac_atten_color_black,183970,black_plus_sign,,,,49,,,,,,,,,,,,,,
2146.399999976158,,attentioncheck_feedback,186118,cross_check_feedback,,0,,,,,,,,,,,,,,,,
10092.5,,last_instruct,196211,instruct,,,,32,,,,,,,,,,,,,,
null,,learn_phase(without_color),198213,black_plus_sign,,,,null,GW/jukebox.jpg,GW/basket.jpg,,,,,,,,,,,,
null,,black_cross(without_color),198689,blue,,,,null,GW/jukebox.jpg,GW/basket.jpg,,,,,,,,,,,,
null,,rt_plussign_withcolor,199191,blue,,,,null,GW/jukebox.jpg,GW/basket.jpg,,,,,,,,,,,,
888,,rt_thecrossant_black,200720,black_plus_sign,,,,49,,,1,1,,,,,,,,,,
null,,color_black,200823,black_plus_sign,,,,null,,,,,,,,,,,,,,
null,,learn_phase(without_color),202825,black_plus_sign,,,,null,GW/soldier.jpg,GW/hat.jpg,,,,,,,,,,,,
null,,black_cross(without_color),203620,green,,,,null,GW/soldier.jpg,GW/hat.jpg,,,,,,,,,,,,
null,,rt_plussign_withcolor,204122,green,,,,null,GW/soldier.jpg,GW/hat.jpg,,,,,,,,,,,,
741.7000000476837,,rt_thecrossant_black,205331,black_plus_sign,,,,50,,,1,1,,,,,,,,,,
null,,color_black,205433,black_plus_sign,,,,null,,,,,,,,,,,,,,
null,,learn_phase(without_color),207435,black_plus_sign,,,,null,GW/hat.jpg,GW/globe.jpg,,,,,,,,,,,,
null,,black_cross(without_color),208518,green,,,,null,GW/hat.jpg,GW/globe.jpg,,,,,,,,,,,,
486.90000009536743,,rt_plussign_withcolor,209020,green,,,,50,GW/hat.jpg,GW/globe.jpg,,,,,,,,,,,,
null,,rt_thecrossant_black,209948,black_plus_sign,,,,null,,,1,1,,,,,,,,,,
null,,color_black,210050,black_plus_sign,,,,null,,,,,,,,,,,,,,
null,,learn_phase(without_color),212053,black_plus_sign,,,,null,GW/snail.jpg,GW/camera.jpg,,,,,,,,,,,,
null,,black_cross(without_color),212852,blue,,,,null,GW/snail.jpg,GW/camera.jpg,,,,,,,,,,,,
414.10000002384186,,rt_plussign_withcolor,213353,blue,,,,49,GW/snail.jpg,GW/camera.jpg,,,,,,,,,,,,
null,,rt_thecrossant_black,214558,black_plus_sign,,,,null,,,1,1,,,,,,,,,,
null,,color_black,214659,black_plus_sign,,,,null,,,,,,,,,,,,,,
null,,learn_phase(without_color),216662,black_plus_sign,,,,null,GW/soldier.jpg,GW/hat.jpg,,,,,,,,,,,,
null,,black_cross(without_color),217701,blue,,,,null,GW/soldier.jpg,GW/hat.jpg,,,,,,,,,,,,
482.5,,rt_plussign_withcolor,218203,blue,,,,49,GW/soldier.jpg,GW/hat.jpg,,,,,,,,,,,,
null,,rt_thecrossant_black,219167,black_plus_sign,,,,null,,,1,1,,,,,,,,,,
null,,color_black,219270,black_plus_sign,,,,null,,,,,,,,,,,,,,
null,,learn_phase(without_color),221274,black_plus_sign,,,,null,GW/hat.jpg,GW/globe.jpg,,,,,,,,,,,,
null,,black_cross(without_color),222296,green,,,,null,GW/hat.jpg,GW/globe.jpg,,,,,,,,,,,,
373.7999999523163,,rt_plussign_withcolor,222797,green,,,,50,GW/hat.jpg,GW/globe.jpg,,,,,,,,,,,,
null,,rt_thecrossant_black,223778,black_plus_sign,,,,null,,,1,1,,,,,,,,,,
null,,color_black,223881,black_plus_sign,,,,null,,,,,,,,,,,,,,
null,,learn_phase(without_color),225884,black_plus_sign,,,,null,GW/soldier.jpg,GW/jukebox.jpg,,,,,,,,,,,,
null,,black_cross(without_color),226643,blue,,,,null,GW/soldier.jpg,GW/jukebox.jpg,,,,,,,,,,,,
null,,rt_plussign_withcolor,227144,blue,,,,null,GW/soldier.jpg,GW/jukebox.jpg,,,,,,,,,,,,
1241.3999999761581,,rt_thecrossant_black,228390,black_plus_sign,,,,49,,,1,1,,,,,,,,,,
null,,color_black,228492,black_plus_sign,,,,null,,,,,,,,,,,,,,
null,,learn_phase(without_color),230495,black_plus_sign,,,,null,GW/snail.jpg,GW/camera.jpg,,,,,,,,,,,,
null,,black_cross(without_color),231082,blue,,,,null,GW/snail.jpg,GW/camera.jpg,,,,,,,,,,,,
null,,rt_plussign_withcolor,231584,blue,,,,null,GW/snail.jpg,GW/camera.jpg,,,,,,,,,,,,
1007.1999999284744,,rt_thecrossant_black,233000,black_plus_sign,,,,49,,,1,1,,,,,,,,,,
null,,color_black,233102,black_plus_sign,,,,null,,,,,,,,,,,,,,
null,,learn_phase(without_color),235105,black_plus_sign,,,,null,GW/globe.jpg,GW/gong.jpg,,,,,,,,,,,,
null,,black_cross(without_color),235807,green,,,,null,GW/globe.jpg,GW/gong.jpg,,,,,,,,,,,,
494.7000000476837,,rt_plussign_withcolor,236308,green,,,,50,GW/globe.jpg,GW/gong.jpg,,,,,,,,,,,,
null,,rt_thecrossant_black,237620,black_plus_sign,,,,null,,,1,1,,,,,,,,,,
null,,color_black,237722,black_plus_sign,,,,null,,,,,,,,,,,,,,
null,,learn_phase(without_color),239727,black_plus_sign,,,,null,GW/dustpan.jpg,GW/soldier.jpg,,,,,,,,,,,,
null,,black_cross(without_color),240617,green,,,,null,GW/dustpan.jpg,GW/soldier.jpg,,,,,,,,,,,,
null,,rt_plussign_withcolor,241118,green,,,,null,GW/dustpan.jpg,GW/soldier.jpg,,,,,,,,,,,,
983.2000000476837,,rt_thecrossant_black,242235,black_plus_sign,,,,50,,,1,1,,,,,,,,,,
null,,color_black,242339,black_plus_sign,,,,null,,,,,,,,,,,,,,
null,,learn_phase(without_color),244342,black_plus_sign,,,,null,GW/dustpan.jpg,GW/hat.jpg,,,,,,,,,,,,
null,,black_cross(without_color),245149,green,,,,null,GW/dustpan.jpg,GW/hat.jpg,,,,,,,,,,,,
null,,rt_plussign_withcolor,245651,green,,,,null,GW/dustpan.jpg,GW/hat.jpg,,,,,,,,,,,,
1054.1000000238419,,rt_thecrossant_black,246849,black_plus_sign,,,,50,,,1,1,,,,,,,,,,
null,,color_black,246950,black_plus_sign,,,,null,,,,,,,,,,,,,,
null,,learn_phase(without_color),248953,black_plus_sign,,,,null,GW/hat.jpg,GW/globe.jpg,,,,,,,,,,,,
null,,black_cross(without_color),249395,green,,,,null,GW/hat.jpg,GW/globe.jpg,,,,,,,,,,,,
null,,rt_plussign_withcolor,249896,green,,,,null,GW/hat.jpg,GW/globe.jpg,,,,,,,,,,,,
1538.3000000715256,,rt_thecrossant_black,251457,black_plus_sign,,,,50,,,1,1,,,,,,,,,,
null,,color_black,251560,black_plus_sign,,,,null,,,,,,,,,,,,,,
null,,learn_phase(without_color),253562,black_plus_sign,,,,null,GW/snail.jpg,GW/teeth.jpg,,,,,,,,,,,,
null,,black_cross(without_color),254314,green,,,,null,GW/snail.jpg,GW/teeth.jpg,,,,,,,,,,,,
null,,rt_plussign_withcolor,254816,green,,,,null,GW/snail.jpg,GW/teeth.jpg,,,,,,,,,,,,
668.3000000715256,,rt_thecrossant_black,256068,black_plus_sign,,,,50,,,1,1,,,,,,,,,,
null,,color_black,256170,black_plus_sign,,,,null,,,,,,,,,,,,,,
null,,learn_phase(without_color),258172,black_plus_sign,,,,null,GW/jukebox.jpg,GW/hat.jpg,,,,,,,,,,,,
null,,black_cross(without_color),258803,blue,,,,null,GW/jukebox.jpg,GW/hat.jpg,,,,,,,,,,,,
null,,rt_plussign_withcolor,259304,blue,,,,null,GW/jukebox.jpg,GW/hat.jpg,,,,,,,,,,,,
1076.3000000715256,,rt_thecrossant_black,260679,black_plus_sign,,,,49,,,1,1,,,,,,,,,,
null,,color_black,260786,black_plus_sign,,,,null,,,,,,,,,,,,,,
null,,learn_phase(without_color),262790,black_plus_sign,,,,null,GW/camera.jpg,GW/gong.jpg,,,,,,,,,,,,
null,,black_cross(without_color),263624,blue,,,,null,GW/camera.jpg,GW/gong.jpg,,,,,,,,,,,,
null,,rt_plussign_withcolor,264127,blue,,,,null,GW/camera.jpg,GW/gong.jpg,,,,,,,,,,,,
820.7999999523163,,rt_thecrossant_black,265297,black_plus_sign,,,,49,,,1,1,,,,,,,,,,
null,,color_black,265399,black_plus_sign,,,,null,,,,,,,,,,,,,,
null,,learn_phase(without_color),267401,black_plus_sign,,,,null,GW/snail.jpg,GW/camera.jpg,,,,,,,,,,,,
null,,black_cross(without_color),268051,green,,,,null,GW/snail.jpg,GW/camera.jpg,,,,,,,,,,,,
null,,rt_plussign_withcolor,268552,green,,,,null,GW/snail.jpg,GW/camera.jpg,,,,,,,,,,,,
939.1000000238419,,rt_thecrossant_black,269906,black_plus_sign,,,,49,,,0,0.9375,,,,,,,,,,
null,,color_black,270009,black_plus_sign,,,,null,,,,,,,,,,,,,,
null,,learn_phase(without_color),272011,black_plus_sign,,,,null,GW/paint.jpg,GW/snail.jpg,,,,,,,,,,,,
null,,black_cross(without_color),272499,blue,,,,null,GW/paint.jpg,GW/snail.jpg,,,,,,,,,,,,
null,,rt_plussign_withcolor,273001,blue,,,,null,GW/paint.jpg,GW/snail.jpg,,,,,,,,,,,,
907.1999999284744,,rt_thecrossant_black,274515,black_plus_sign,,,,49,,,1,0.9411764705882353,,,,,,,,,,
null,,color_black,274617,black_plus_sign,,,,null,,,,,,,,,,,,,,
null,,learn_phase(without_color),276620,black_plus_sign,,,,null,GW/soldier.jpg,GW/jukebox.jpg,,,,,,,,,,,,
null,,black_cross(without_color),277208,blue,,,,null,GW/soldier.jpg,GW/jukebox.jpg,,,,,,,,,,,,
null,,rt_plussign_withcolor,277709,blue,,,,null,GW/soldier.jpg,GW/jukebox.jpg,,,,,,,,,,,,
672.1000000238419,,rt_thecrossant_black,279125,black_plus_sign,,,,49,,,1,0.9444444444444444,,,,,,,,,,
null,,color_black,279229,black_plus_sign,,,,null,,,,,,,,,,,,,,
null,,learn_phase(without_color),281230,black_plus_sign,,,,null,GW/jukebox.jpg,GW/basket.jpg,,,,,,,,,,,,
null,,black_cross(without_color),282229,green,,,,null,GW/jukebox.jpg,GW/basket.jpg,,,,,,,,,,,,
null,,rt_plussign_withcolor,282732,green,,,,null,GW/jukebox.jpg,GW/basket.jpg,,,,,,,,,,,,
763.1000000238419,,rt_thecrossant_black,283737,black_plus_sign,,,,50,,,1,0.9473684210526315,,,,,,,,,,
null,,color_black,283838,black_plus_sign,,,,null,,,,,,,,,,,,,,
null,,learn_phase(without_color),285842,black_plus_sign,,,,null,GW/dustpan.jpg,GW/soldier.jpg,,,,,,,,,,,,
null,,black_cross(without_color),286631,green,,,,null,GW/dustpan.jpg,GW/soldier.jpg,,,,,,,,,,,,
null,,rt_plussign_withcolor,287132,green,,,,null,GW/dustpan.jpg,GW/soldier.jpg,,,,,,,,,,,,
1229,,rt_thecrossant_black,288347,black_plus_sign,,,,50,,,1,0.95,,,,,,,,,,
null,,color_black,288448,black_plus_sign,,,,null,,,,,,,,,,,,,,
null,,learn_phase(without_color),290450,black_plus_sign,,,,null,GW/camera.jpg,GW/gong.jpg,,,,,,,,,,,,
null,,black_cross(without_color),291094,blue,,,,null,GW/camera.jpg,GW/gong.jpg,,,,,,,,,,,,
454.2000000476837,,rt_plussign_withcolor,291596,blue,,,,49,GW/camera.jpg,GW/gong.jpg,,,,,,,,,,,,
null,,rt_thecrossant_black,292957,black_plus_sign,,,,null,,,1,0.9523809523809523,,,,,,,,,,
null,,color_black,293059,black_plus_sign,,,,null,,,,,,,,,,,,,,
null,,learn_phase(without_color),295062,black_plus_sign,,,,null,GW/soldier.jpg,GW/jukebox.jpg,,,,,,,,,,,,
null,,black_cross(without_color),296048,blue,,,,null,GW/soldier.jpg,GW/jukebox.jpg,,,,,,,,,,,,
null,,rt_plussign_withcolor,296553,blue,,,,null,GW/soldier.jpg,GW/jukebox.jpg,,,,,,,,,,,,
1114.2000000476837,,rt_thecrossant_black,297574,black_plus_sign,,,,49,,,1,0.9545454545454546,,,,,,,,,,
null,,color_black,297677,black_plus_sign,,,,null,,,,,,,,,,,,,,
null,,learn_phase(without_color),299679,black_plus_sign,,,,null,GW/teeth.jpg,GW/dustpan.jpg,,,,,,,,,,,,
null,,black_cross(without_color),300230,blue,,,,null,GW/teeth.jpg,GW/dustpan.jpg,,,,,,,,,,,,
467.2000000476837,,rt_plussign_withcolor,300732,blue,,,,49,GW/teeth.jpg,GW/dustpan.jpg,,,,,,,,,,,,
null,,rt_thecrossant_black,302186,black_plus_sign,,,,null,,,1,0.9565217391304348,,,,,,,,,,
null,,color_black,302290,black_plus_sign,,,,null,,,,,,,,,,,,,,
null,,learn_phase(without_color),304292,black_plus_sign,,,,null,GW/camera.jpg,GW/gong.jpg,,,,,,,,,,,,
null,,black_cross(without_color),305070,blue,,,,null,GW/camera.jpg,GW/gong.jpg,,,,,,,,,,,,
500.89999997615814,,rt_plussign_withcolor,305573,blue,,,,49,GW/camera.jpg,GW/gong.jpg,,,,,,,,,,,,
null,,rt_thecrossant_black,306797,black_plus_sign,,,,null,,,1,0.9583333333333334,,,,,,,,,,
null,,color_black,306898,black_plus_sign,,,,null,,,,,,,,,,,,,,
null,,learn_phase(without_color),308900,black_plus_sign,,,,null,GW/paint.jpg,GW/snail.jpg,,,,,,,,,,,,
null,,black_cross(without_color),309621,blue,,,,null,GW/paint.jpg,GW/snail.jpg,,,,,,,,,,,,
409.10000002384186,,rt_plussign_withcolor,310123,blue,,,,49,GW/paint.jpg,GW/snail.jpg,,,,,,,,,,,,
null,,rt_thecrossant_black,311406,black_plus_sign,,,,null,,,1,0.96,,,,,,,,,,
null,,color_black,311508,black_plus_sign,,,,null,,,,,,,,,,,,,,
null,,learn_phase(without_color),313511,black_plus_sign,,,,null,GW/globe.jpg,GW/gong.jpg,,,,,,,,,,,,
null,,black_cross(without_color),314349,blue,,,,null,GW/globe.jpg,GW/gong.jpg,,,,,,,,,,,,
null,,rt_plussign_withcolor,314850,blue,,,,null,GW/globe.jpg,GW/gong.jpg,,,,,,,,,,,,
828.1000000238419,,rt_thecrossant_black,316018,black_plus_sign,,,,49,,,1,0.9615384615384616,,,,,,,,,,
null,,color_black,316121,black_plus_sign,,,,null,,,,,,,,,,,,,,
null,,learn_phase(without_color),318125,black_plus_sign,,,,null,GW/paint.jpg,GW/snail.jpg,,,,,,,,,,,,
null,,black_cross(without_color),318653,blue,,,,null,GW/paint.jpg,GW/snail.jpg,,,,,,,,,,,,
449.89999997615814,,rt_plussign_withcolor,319155,blue,,,,49,GW/paint.jpg,GW/snail.jpg,,,,,,,,,,,,
null,,rt_thecrossant_black,320631,black_plus_sign,,,,null,,,1,0.9629629629629629,,,,,,,,,,
null,,color_black,320735,black_plus_sign,,,,null,,,,,,,,,,,,,,
null,,learn_phase(without_color),322738,black_plus_sign,,,,null,GW/globe.jpg,GW/gong.jpg,,,,,,,,,,,,
null,,black_cross(without_color),323766,green,,,,null,GW/globe.jpg,GW/gong.jpg,,,,,,,,,,,,
371.7999999523163,,rt_plussign_withcolor,324273,green,,,,50,GW/globe.jpg,GW/gong.jpg,,,,,,,,,,,,
null,,rt_thecrossant_black,325251,black_plus_sign,,,,null,,,1,0.9642857142857143,,,,,,,,,,
null,,color_black,325354,black_plus_sign,,,,null,,,,,,,,,,,,,,
null,,learn_phase(without_color),327356,black_plus_sign,,,,null,GW/hat.jpg,GW/globe.jpg,,,,,,,,,,,,
null,,black_cross(without_color),328006,blue,,,,null,GW/hat.jpg,GW/globe.jpg,,,,,,,,,,,,
208.79999995231628,,rt_plussign_withcolor,328508,blue,,,,50,GW/hat.jpg,GW/globe.jpg,,,,,,,,,,,,
null,,rt_thecrossant_black,329872,black_plus_sign,,,,null,,,0,0.9310344827586207,,,,,,,,,,
null,,color_black,329974,black_plus_sign,,,,null,,,,,,,,,,,,,,
null,,learn_phase(without_color),331977,black_plus_sign,,,,null,GW/teeth.jpg,GW/globe.jpg,,,,,,,,,,,,
null,,black_cross(without_color),332571,green,,,,null,GW/teeth.jpg,GW/globe.jpg,,,,,,,,,,,,
null,,rt_plussign_withcolor,333072,green,,,,null,GW/teeth.jpg,GW/globe.jpg,,,,,,,,,,,,
845.6000000238419,,rt_thecrossant_black,334484,black_plus_sign,,,,50,,,1,0.9333333333333333,,,,,,,,,,
null,,color_black,334587,black_plus_sign,,,,null,,,,,,,,,,,,,,
null,,learn_phase(without_color),336589,black_plus_sign,,,,null,GW/soldier.jpg,GW/wheelchair.jpg,,,,,,,,,,,,
null,,black_cross(without_color),337443,green,,,,null,GW/soldier.jpg,GW/wheelchair.jpg,,,,,,,,,,,,
null,,rt_plussign_withcolor,337945,green,,,,null,GW/soldier.jpg,GW/wheelchair.jpg,,,,,,,,,,,,
null,,rt_thecrossant_black,339097,black_plus_sign,,,,null,,,,0.9333333333333333,,,,,,,,,,
null,,color_black,339200,black_plus_sign,,,,null,,,,,,,,,,,,,,
null,,learn_phase(without_color),341204,black_plus_sign,,,,null,GW/jukebox.jpg,GW/basket.jpg,,,,,,,,,,,,
null,,black_cross(without_color),341615,blue,,,,null,GW/jukebox.jpg,GW/basket.jpg,,,,,,,,,,,,
null,,rt_plussign_withcolor,342117,blue,,,,null,GW/jukebox.jpg,GW/basket.jpg,,,,,,,,,,,,
1072.2000000476837,,rt_thecrossant_black,343710,black_plus_sign,,,,49,,,1,0.9354838709677419,,,,,,,,,,
null,,color_black,343813,black_plus_sign,,,,null,,,,,,,,,,,,,,
null,,learn_phase(without_color),345816,black_plus_sign,,,,null,GW/soldier.jpg,GW/jukebox.jpg,,,,,,,,,,,,
null,,black_cross(without_color),346815,green,,,,null,GW/soldier.jpg,GW/jukebox.jpg,,,,,,,,,,,,
null,,rt_plussign_withcolor,347316,green,,,,null,GW/soldier.jpg,GW/jukebox.jpg,,,,,,,,,,,,
678.5999999046326,,rt_thecrossant_black,348321,black_plus_sign,,,,50,,,1,0.9375,,,,,,,,,,
null,,color_black,348424,black_plus_sign,,,,null,,,,,,,,,,,,,,
null,,learn_phase(without_color),350427,black_plus_sign,,,,null,GW/snail.jpg,GW/camera.jpg,,,,,,,,,,,,
null,,black_cross(without_color),351401,green,,,,null,GW/snail.jpg,GW/camera.jpg,,,,,,,,,,,,
475,,rt_plussign_withcolor,351903,green,,,,50,GW/snail.jpg,GW/camera.jpg,,,,,,,,,,,,
null,,rt_thecrossant_black,352934,black_plus_sign,,,,null,,,1,0.9393939393939394,,,,,,,,,,
null,,color_black,353036,black_plus_sign,,,,null,,,,,,,,,,,,,,
null,,learn_phase(without_color),355039,black_plus_sign,,,,null,GW/soldier.jpg,GW/wheelchair.jpg,,,,,,,,,,,,
null,,black_cross(without_color),355705,blue,,,,null,GW/soldier.jpg,GW/wheelchair.jpg,,,,,,,,,,,,
367.7999999523163,,rt_plussign_withcolor,356208,blue,,,,49,GW/soldier.jpg,GW/wheelchair.jpg,,,,,,,,,,,,
null,,rt_thecrossant_black,357546,black_plus_sign,,,,null,,,1,0.9411764705882353,,,,,,,,,,
null,,color_black,357647,black_plus_sign,,,,null,,,,,,,,,,,,,,
null,,learn_phase(without_color),359650,black_plus_sign,,,,null,GW/globe.jpg,GW/gong.jpg,,,,,,,,,,,,
null,,black_cross(without_color),360365,blue,,,,null,GW/globe.jpg,GW/gong.jpg,,,,,,,,,,,,
null,,rt_plussign_withcolor,360867,blue,,,,null,GW/globe.jpg,GW/gong.jpg,,,,,,,,,,,,
774,,rt_thecrossant_black,362158,black_plus_sign,,,,49,,,1,0.9428571428571428,,,,,,,,,,
null,,color_black,362260,black_plus_sign,,,,null,,,,,,,,,,,,,,
null,,learn_phase(without_color),364263,black_plus_sign,,,,null,GW/snail.jpg,GW/teeth.jpg,,,,,,,,,,,,
null,,black_cross(without_color),365086,green,,,,null,GW/snail.jpg,GW/teeth.jpg,,,,,,,,,,,,
null,,rt_plussign_withcolor,365587,green,,,,null,GW/snail.jpg,GW/teeth.jpg,,,,,,,,,,,,
966.9000000953674,,rt_thecrossant_black,366767,black_plus_sign,,,,50,,,1,0.9444444444444444,,,,,,,,,,
null,,color_black,366869,black_plus_sign,,,,null,,,,,,,,,,,,,,
null,,learn_phase(without_color),368871,black_plus_sign,,,,null,GW/soldier.jpg,GW/hat.jpg,,,,,,,,,,,,
null,,black_cross(without_color),369945,green,,,,null,GW/soldier.jpg,GW/hat.jpg,,,,,,,,,,,,
null,,rt_plussign_withcolor,370446,green,,,,null,GW/soldier.jpg,GW/hat.jpg,,,,,,,,,,,,
1025.8999999761581,,rt_thecrossant_black,371375,black_plus_sign,,,,50,,,1,0.9459459459459459,,,,,,,,,,
null,,color_black,371476,black_plus_sign,,,,null,,,,,,,,,,,,,,
null,,learn_phase(without_color),373479,black_plus_sign,,,,null,GW/dustpan.jpg,GW/soldier.jpg,,,,,,,,,,,,
null,,black_cross(without_color),374048,green,,,,null,GW/dustpan.jpg,GW/soldier.jpg,,,,,,,,,,,,
null,,rt_plussign_withcolor,374550,green,,,,null,GW/dustpan.jpg,GW/soldier.jpg,,,,,,,,,,,,
1229.2000000476837,,rt_thecrossant_black,375986,black_plus_sign,,,,50,,,1,0.9473684210526315,,,,,,,,,,
null,,color_black,376087,black_plus_sign,,,,null,,,,,,,,,,,,,,
null,,learn_phase(without_color),378090,black_plus_sign,,,,null,GW/teeth.jpg,GW/dustpan.jpg,,,,,,,,,,,,
null,,black_cross(without_color),379123,blue,,,,null,GW/teeth.jpg,GW/dustpan.jpg,,,,,,,,,,,,
442.40000009536743,,rt_plussign_withcolor,379624,blue,,,,49,GW/teeth.jpg,GW/dustpan.jpg,,,,,,,,,,,,
null,,rt_thecrossant_black,380595,black_plus_sign,,,,null,,,1,0.9487179487179487,,,,,,,,,,
null,,color_black,380697,black_plus_sign,,,,null,,,,,,,,,,,,,,
null,,learn_phase(without_color),382698,black_plus_sign,,,,null,GW/hat.jpg,GW/globe.jpg,,,,,,,,,,,,
null,,black_cross(without_color),383168,green,,,,null,GW/hat.jpg,GW/globe.jpg,,,,,,,,,,,,
null,,rt_plussign_withcolor,383671,green,,,,null,GW/hat.jpg,GW/globe.jpg,,,,,,,,,,,,
1679.6000000238419,,rt_thecrossant_black,385212,black_plus_sign,,,,50,,,1,0.95,,,,,,,,,,
null,,color_black,385314,black_plus_sign,,,,null,,,,,,,,,,,,,,
null,,learn_phase(without_color),387316,black_plus_sign,,,,null,GW/soldier.jpg,GW/jukebox.jpg,,,,,,,,,,,,
null,,black_cross(without_color),387912,green,,,,null,GW/soldier.jpg,GW/jukebox.jpg,,,,,,,,,,,,
null,,rt_plussign_withcolor,388412,green,,,,null,GW/soldier.jpg,GW/jukebox.jpg,,,,,,,,,,,,
744.5,,rt_thecrossant_black,389824,black_plus_sign,,,,50,,,1,0.9512195121951219,,,,,,,,,,
null,,color_black,389926,black_plus_sign,,,,null,,,,,,,,,,,,,,
null,,learn_phase(without_color),391927,black_plus_sign,,,,null,GW/paint.jpg,GW/snail.jpg,,,,,,,,,,,,
null,,black_cross(without_color),392636,green,,,,null,GW/paint.jpg,GW/snail.jpg,,,,,,,,,,,,
null,,rt_plussign_withcolor,393138,green,,,,null,GW/paint.jpg,GW/snail.jpg,,,,,,,,,,,,
808.0999999046326,,rt_thecrossant_black,394433,black_plus_sign,,,,50,,,1,0.9523809523809523,,,,,,,,,,
null,,color_black,394536,black_plus_sign,,,,null,,,,,,,,,,,,,,
null,,learn_phase(without_color),396538,black_plus_sign,,,,null,GW/soldier.jpg,GW/hat.jpg,,,,,,,,,,,,
null,,black_cross(without_color),396985,green,,,,null,GW/soldier.jpg,GW/hat.jpg,,,,,,,,,,,,
null,,rt_plussign_withcolor,397486,green,,,,null,GW/soldier.jpg,GW/hat.jpg,,,,,,,,,,,,
837.6000000238419,,rt_thecrossant_black,399045,black_plus_sign,,,,50,,,1,0.9534883720930233,,,,,,,,,,
null,,color_black,399147,black_plus_sign,,,,null,,,,,,,,,,,,,,
null,,learn_phase(without_color),401151,black_plus_sign,,,,null,GW/jukebox.jpg,GW/hat.jpg,,,,,,,,,,,,
null,,black_cross(without_color),401951,blue,,,,null,GW/jukebox.jpg,GW/hat.jpg,,,,,,,,,,,,
null,,rt_plussign_withcolor,402453,blue,,,,null,GW/jukebox.jpg,GW/hat.jpg,,,,,,,,,,,,
831.3999999761581,,rt_thecrossant_black,403657,black_plus_sign,,,,49,,,1,0.9545454545454546,,,,,,,,,,
null,,color_black,403760,black_plus_sign,,,,null,,,,,,,,,,,,,,
null,,learn_phase(without_color),405762,black_plus_sign,,,,null,GW/snail.jpg,GW/teeth.jpg,,,,,,,,,,,,
null,,black_cross(without_color),406407,green,,,,null,GW/snail.jpg,GW/teeth.jpg,,,,,,,,,,,,
null,,rt_plussign_withcolor,406909,green,,,,null,GW/snail.jpg,GW/teeth.jpg,,,,,,,,,,,,
942.8999999761581,,rt_thecrossant_black,408268,black_plus_sign,,,,50,,,1,0.9555555555555556,,,,,,,,,,
null,,color_black,408370,black_plus_sign,,,,null,,,,,,,,,,,,,,
null,,learn_phase(without_color),410372,black_plus_sign,,,,null,GW/globe.jpg,GW/gong.jpg,,,,,,,,,,,,
null,,black_cross(without_color),411009,blue,,,,null,GW/globe.jpg,GW/gong.jpg,,,,,,,,,,,,
null,,rt_plussign_withcolor,411511,blue,,,,null,GW/globe.jpg,GW/gong.jpg,,,,,,,,,,,,
1185.5999999046326,,rt_thecrossant_black,412877,black_plus_sign,,,,49,,,1,0.9565217391304348,,,,,,,,,,
null,,color_black,412979,black_plus_sign,,,,null,,,,,,,,,,,,,,
null,,learn_phase(without_color),414983,black_plus_sign,,,,null,GW/soldier.jpg,GW/hat.jpg,,,,,,,,,,,,
null,,black_cross(without_color),415752,blue,,,,null,GW/soldier.jpg,GW/hat.jpg,,,,,,,,,,,,
null,,rt_plussign_withcolor,416255,blue,,,,null,GW/soldier.jpg,GW/hat.jpg,,,,,,,,,,,,
780.8999999761581,,rt_thecrossant_black,417490,black_plus_sign,,,,49,,,1,0.9574468085106383,,,,,,,,,,
null,,color_black,417591,black_plus_sign,,,,null,,,,,,,,,,,,,,
null,,learn_phase(without_color),419593,black_plus_sign,,,,null,GW/snail.jpg,GW/teeth.jpg,,,,,,,,,,,,
null,,black_cross(without_color),420229,blue,,,,null,GW/snail.jpg,GW/teeth.jpg,,,,,,,,,,,,
471.7999999523163,,rt_plussign_withcolor,420731,blue,,,,49,GW/snail.jpg,GW/teeth.jpg,,,,,,,,,,,,
null,,rt_thecrossant_black,422100,black_plus_sign,,,,null,,,1,0.9583333333333334,,,,,,,,,,
null,,color_black,422201,black_plus_sign,,,,null,,,,,,,,,,,,,,
null,,learn_phase(without_color),424204,black_plus_sign,,,,null,GW/teeth.jpg,GW/dustpan.jpg,,,,,,,,,,,,
null,,black_cross(without_color),424768,green,,,,null,GW/teeth.jpg,GW/dustpan.jpg,,,,,,,,,,,,
null,,rt_plussign_withcolor,425269,green,,,,null,GW/teeth.jpg,GW/dustpan.jpg,,,,,,,,,,,,
1330.4000000953674,,rt_thecrossant_black,426709,black_plus_sign,,,,50,,,1,0.9591836734693877,,,,,,,,,,
null,,color_black,426811,black_plus_sign,,,,null,,,,,,,,,,,,,,
null,,learn_phase(without_color),428812,black_plus_sign,,,,null,GW/dustpan.jpg,GW/soldier.jpg,,,,,,,,,,,,
null,,black_cross(without_color),429749,blue,,,,null,GW/dustpan.jpg,GW/soldier.jpg,,,,,,,,,,,,
null,,rt_plussign_withcolor,430251,blue,,,,null,GW/dustpan.jpg,GW/soldier.jpg,,,,,,,,,,,,
686.5,,rt_thecrossant_black,431317,black_plus_sign,,,,49,,,1,0.96,,,,,,,,,,
null,,color_black,431419,black_plus_sign,,,,null,,,,,,,,,,,,,,
null,,learn_phase(without_color),433422,black_plus_sign,,,,null,GW/jukebox.jpg,GW/basket.jpg,,,,,,,,,,,,
null,,black_cross(without_color),434055,green,,,,null,GW/jukebox.jpg,GW/basket.jpg,,,,,,,,,,,,
null,,rt_plussign_withcolor,434557,green,,,,null,GW/jukebox.jpg,GW/basket.jpg,,,,,,,,,,,,
1259.2999999523163,,rt_thecrossant_black,435928,black_plus_sign,,,,50,,,1,0.9607843137254902,,,,,,,,,,
null,,color_black,436032,black_plus_sign,,,,null,,,,,,,,,,,,,,
null,,learn_phase(without_color),438035,black_plus_sign,,,,null,GW/snail.jpg,GW/teeth.jpg,,,,,,,,,,,,
null,,black_cross(without_color),438785,green,,,,null,GW/snail.jpg,GW/teeth.jpg,,,,,,,,,,,,
null,,rt_plussign_withcolor,439286,green,,,,null,GW/snail.jpg,GW/teeth.jpg,,,,,,,,,,,,
1247.7000000476837,,rt_thecrossant_black,440540,black_plus_sign,,,,50,,,1,0.9615384615384616,,,,,,,,,,
null,,color_black,440643,black_plus_sign,,,,null,,,,,,,,,,,,,,
null,,learn_phase(without_color),442645,black_plus_sign,,,,null,GW/globe.jpg,GW/gong.jpg,,,,,,,,,,,,
null,,black_cross(without_color),443276,green,,,,null,GW/globe.jpg,GW/gong.jpg,,,,,,,,,,,,
null,,rt_plussign_withcolor,443777,green,,,,null,GW/globe.jpg,GW/gong.jpg,,,,,,,,,,,,
1065.8000000715256,,rt_thecrossant_black,445153,black_plus_sign,,,,50,,,1,0.9622641509433962,,,,,,,,,,
null,,color_black,445256,black_plus_sign,,,,null,,,,,,,,,,,,,,
null,,learn_phase(without_color),447260,black_plus_sign,,,,null,GW/teeth.jpg,GW/globe.jpg,,,,,,,,,,,,
null,,black_cross(without_color),447851,green,,,,null,GW/teeth.jpg,GW/globe.jpg,,,,,,,,,,,,
425.10000002384186,,rt_plussign_withcolor,448353,green,,,,50,GW/teeth.jpg,GW/globe.jpg,,,,,,,,,,,,
null,,rt_thecrossant_black,449765,black_plus_sign,,,,null,,,1,0.9629629629629629,,,,,,,,,,
null,,color_black,449867,black_plus_sign,,,,null,,,,,,,,,,,,,,
null,,learn_phase(without_color),451869,black_plus_sign,,,,null,GW/camera.jpg,GW/barrel.jpg,,,,,,,,,,,,
null,,black_cross(without_color),452644,blue,,,,null,GW/camera.jpg,GW/barrel.jpg,,,,,,,,,,,,
null,,rt_plussign_withcolor,453145,blue,,,,null,GW/camera.jpg,GW/barrel.jpg,,,,,,,,,,,,
873,,rt_thecrossant_black,454375,black_plus_sign,,,,49,,,1,0.9636363636363636,,,,,,,,,,
null,,color_black,454477,black_plus_sign,,,,null,,,,,,,,,,,,,,
null,,learn_phase(without_color),456481,black_plus_sign,,,,null,GW/soldier.jpg,GW/wheelchair.jpg,,,,,,,,,,,,
null,,black_cross(without_color),457104,green,,,,null,GW/soldier.jpg,GW/wheelchair.jpg,,,,,,,,,,,,
null,,rt_plussign_withcolor,457608,green,,,,null,GW/soldier.jpg,GW/wheelchair.jpg,,,,,,,,,,,,
1370,,rt_thecrossant_black,458988,black_plus_sign,,,,50,,,1,0.9642857142857143,,,,,,,,,,
null,,color_black,459091,black_plus_sign,,,,null,,,,,,,,,,,,,,
null,,learn_phase(without_color),461093,black_plus_sign,,,,null,GW/dustpan.jpg,GW/hat.jpg,,,,,,,,,,,,
null,,black_cross(without_color),461850,blue,,,,null,GW/dustpan.jpg,GW/hat.jpg,,,,,,,,,,,,
null,,rt_plussign_withcolor,462351,blue,,,,null,GW/dustpan.jpg,GW/hat.jpg,,,,,,,,,,,,
775.2000000476837,,rt_thecrossant_black,463598,black_plus_sign,,,,49,,,1,0.9649122807017544,,,,,,,,,,
null,,color_black,463701,black_plus_sign,,,,null,,,,,,,,,,,,,,
null,,learn_phase(without_color),465703,black_plus_sign,,,,null,GW/soldier.jpg,GW/hat.jpg,,,,,,,,,,,,
null,,black_cross(without_color),466214,green,,,,null,GW/soldier.jpg,GW/hat.jpg,,,,,,,,,,,,
null,,rt_plussign_withcolor,466716,green,,,,null,GW/soldier.jpg,GW/hat.jpg,,,,,,,,,,,,
1407.8999999761581,,rt_thecrossant_black,468208,black_plus_sign,,,,50,,,1,0.9655172413793104,,,,,,,,,,
null,,color_black,468310,black_plus_sign,,,,null,,,,,,,,,,,,,,
null,,learn_phase(without_color),470315,black_plus_sign,,,,null,GW/teeth.jpg,GW/globe.jpg,,,,,,,,,,,,
null,,black_cross(without_color),471087,green,,,,null,GW/teeth.jpg,GW/globe.jpg,,,,,,,,,,,,
null,,rt_plussign_withcolor,471589,green,,,,null,GW/teeth.jpg,GW/globe.jpg,,,,,,,,,,,,
795.2000000476837,,rt_thecrossant_black,472820,black_plus_sign,,,,49,,,0,0.9491525423728814,,,,,,,,,,
null,,color_black,472922,black_plus_sign,,,,null,,,,,,,,,,,,,,
null,,learn_phase(without_color),474925,black_plus_sign,,,,null,GW/snail.jpg,GW/camera.jpg,,,,,,,,,,,,
null,,black_cross(without_color),475667,green,,,,null,GW/snail.jpg,GW/camera.jpg,,,,,,,,,,,,
null,,rt_plussign_withcolor,476169,green,,,,null,GW/snail.jpg,GW/camera.jpg,,,,,,,,,,,,
1194.3000000715256,,rt_thecrossant_black,477431,black_plus_sign,,,,50,,,1,0.95,,,,,,,,,,
null,,color_black,477533,black_plus_sign,,,,null,,,,,,,,,,,,,,
null,,learn_phase(without_color),479535,black_plus_sign,,,,null,GW/teeth.jpg,GW/globe.jpg,,,,,,,,,,,,
null,,black_cross(without_color),480511,blue,,,,null,GW/teeth.jpg,GW/globe.jpg,,,,,,,,,,,,
null,,rt_plussign_withcolor,481015,blue,,,,null,GW/teeth.jpg,GW/globe.jpg,,,,,,,,,,,,
1164.3000000715256,,rt_thecrossant_black,482043,black_plus_sign,,,,49,,,1,0.9508196721311475,,,,,,,,,,
null,,color_black,482146,black_plus_sign,,,,null,,,,,,,,,,,,,,
null,,learn_phase(without_color),484148,black_plus_sign,,,,null,GW/teeth.jpg,GW/dustpan.jpg,,,,,,,,,,,,
null,,black_cross(without_color),484797,green,,,,null,GW/teeth.jpg,GW/dustpan.jpg,,,,,,,,,,,,
null,,rt_plussign_withcolor,485298,green,,,,null,GW/teeth.jpg,GW/dustpan.jpg,,,,,,,,,,,,
1494.6000000238419,,rt_thecrossant_black,486653,black_plus_sign,,,,50,,,1,0.9516129032258065,,,,,,,,,,
null,,color_black,486756,black_plus_sign,,,,null,,,,,,,,,,,,,,
null,,learn_phase(without_color),488759,black_plus_sign,,,,null,GW/dustpan.jpg,GW/soldier.jpg,,,,,,,,,,,,
null,,black_cross(without_color),489476,blue,,,,null,GW/dustpan.jpg,GW/soldier.jpg,,,,,,,,,,,,
null,,rt_plussign_withcolor,489978,blue,,,,null,GW/dustpan.jpg,GW/soldier.jpg,,,,,,,,,,,,
965.8999999761581,,rt_thecrossant_black,491265,black_plus_sign,,,,49,,,1,0.9523809523809523,,,,,,,,,,
null,,color_black,491367,black_plus_sign,,,,null,,,,,,,,,,,,,,
null,,learn_phase(without_color),493370,black_plus_sign,,,,null,GW/soldier.jpg,GW/jukebox.jpg,,,,,,,,,,,,
null,,black_cross(without_color),493801,green,,,,null,GW/soldier.jpg,GW/jukebox.jpg,,,,,,,,,,,,
null,,rt_plussign_withcolor,494302,green,,,,null,GW/soldier.jpg,GW/jukebox.jpg,,,,,,,,,,,,
1072.1000000238419,,rt_thecrossant_black,495873,black_plus_sign,,,,49,,,0,0.9375,,,,,,,,,,
null,,color_black,495977,black_plus_sign,,,,null,,,,,,,,,,,,,,
null,,learn_phase(without_color),497980,black_plus_sign,,,,null,GW/teeth.jpg,GW/dustpan.jpg,,,,,,,,,,,,
null,,black_cross(without_color),498946,blue,,,,null,GW/teeth.jpg,GW/dustpan.jpg,,,,,,,,,,,,
null,,rt_plussign_withcolor,499448,blue,,,,null,GW/teeth.jpg,GW/dustpan.jpg,,,,,,,,,,,,
685.8000000715256,,rt_thecrossant_black,500486,black_plus_sign,,,,49,,,1,0.9384615384615385,,,,,,,,,,
null,,color_black,500588,black_plus_sign,,,,null,,,,,,,,,,,,,,
null,,learn_phase(without_color),502591,black_plus_sign,,,,null,GW/jukebox.jpg,GW/basket.jpg,,,,,,,,,,,,
null,,black_cross(without_color),503662,green,,,,null,GW/jukebox.jpg,GW/basket.jpg,,,,,,,,,,,,
null,,rt_plussign_withcolor,504165,green,,,,null,GW/jukebox.jpg,GW/basket.jpg,,,,,,,,,,,,
1761.3000000715256,,rt_thecrossant_black,505096,black_plus_sign,,,,50,,,1,0.9393939393939394,,,,,,,,,,
null,,color_black,505199,black_plus_sign,,,,null,,,,,,,,,,,,,,
null,,learn_phase(without_color),507201,black_plus_sign,,,,null,GW/soldier.jpg,GW/jukebox.jpg,,,,,,,,,,,,
null,,black_cross(without_color),508088,blue,,,,null,GW/soldier.jpg,GW/jukebox.jpg,,,,,,,,,,,,
null,,rt_plussign_withcolor,508590,blue,,,,null,GW/soldier.jpg,GW/jukebox.jpg,,,,,,,,,,,,
1289.6000000238419,,rt_thecrossant_black,509706,black_plus_sign,,,,49,,,1,0.9402985074626866,,,,,,,,,,
null,,color_black,509808,black_plus_sign,,,,null,,,,,,,,,,,,,,
null,,learn_phase(without_color),511811,black_plus_sign,,,,null,GW/jukebox.jpg,GW/hat.jpg,,,,,,,,,,,,
null,,black_cross(without_color),512605,blue,,,,null,GW/jukebox.jpg,GW/hat.jpg,,,,,,,,,,,,
null,,rt_plussign_withcolor,513107,blue,,,,null,GW/jukebox.jpg,GW/hat.jpg,,,,,,,,,,,,
1174.2999999523163,,rt_thecrossant_black,514316,black_plus_sign,,,,49,,,1,0.9411764705882353,,,,,,,,,,
null,,color_black,514419,black_plus_sign,,,,null,,,,,,,,,,,,,,
null,,learn_phase(without_color),516422,black_plus_sign,,,,null,GW/jukebox.jpg,GW/basket.jpg,,,,,,,,,,,,
null,,black_cross(without_color),517449,blue,,,,null,GW/jukebox.jpg,GW/basket.jpg,,,,,,,,,,,,
null,,rt_plussign_withcolor,517950,blue,,,,null,GW/jukebox.jpg,GW/basket.jpg,,,,,,,,,,,,
1048.3999999761581,,rt_thecrossant_black,518927,black_plus_sign,,,,49,,,1,0.9420289855072463,,,,,,,,,,
null,,color_black,519029,black_plus_sign,,,,null,,,,,,,,,,,,,,
null,,learn_phase(without_color),521032,black_plus_sign,,,,null,GW/soldier.jpg,GW/wheelchair.jpg,,,,,,,,,,,,
null,,black_cross(without_color),521945,green,,,,null,GW/soldier.jpg,GW/wheelchair.jpg,,,,,,,,,,,,
null,,rt_plussign_withcolor,522447,green,,,,null,GW/soldier.jpg,GW/wheelchair.jpg,,,,,,,,,,,,
1273,,rt_thecrossant_black,523540,black_plus_sign,,,,49,,,0,0.9285714285714286,,,,,,,,,,
null,,color_black,523643,black_plus_sign,,,,null,,,,,,,,,,,,,,
null,,learn_phase(without_color),525646,black_plus_sign,,,,null,GW/dustpan.jpg,GW/hat.jpg,,,,,,,,,,,,
null,,black_cross(without_color),526502,green,,,,null,GW/dustpan.jpg,GW/hat.jpg,,,,,,,,,,,,
null,,rt_plussign_withcolor,527004,green,,,,null,GW/dustpan.jpg,GW/hat.jpg,,,,,,,,,,,,
1596.8999999761581,,rt_thecrossant_black,528151,black_plus_sign,,,,50,,,1,0.9295774647887324,,,,,,,,,,
null,,color_black,528253,black_plus_sign,,,,null,,,,,,,,,,,,,,
null,,learn_phase(without_color),530255,black_plus_sign,,,,null,GW/hat.jpg,GW/globe.jpg,,,,,,,,,,,,
null,,black_cross(without_color),531085,blue,,,,null,GW/hat.jpg,GW/globe.jpg,,,,,,,,,,,,
null,,rt_plussign_withcolor,531587,blue,,,,null,GW/hat.jpg,GW/globe.jpg,,,,,,,,,,,,
1173.3999999761581,,rt_thecrossant_black,532762,black_plus_sign,,,,49,,,1,0.9305555555555556,,,,,,,,,,
null,,color_black,532866,black_plus_sign,,,,null,,,,,,,,,,,,,,
null,,learn_phase(without_color),534868,black_plus_sign,,,,null,GW/soldier.jpg,GW/wheelchair.jpg,,,,,,,,,,,,
null,,black_cross(without_color),535670,green,,,,null,GW/soldier.jpg,GW/wheelchair.jpg,,,,,,,,,,,,
null,,rt_plussign_withcolor,536172,green,,,,null,GW/soldier.jpg,GW/wheelchair.jpg,,,,,,,,,,,,
1467,,rt_thecrossant_black,537376,black_plus_sign,,,,50,,,1,0.9315068493150684,,,,,,,,,,
null,,color_black,537478,black_plus_sign,,,,null,,,,,,,,,,,,,,
null,,learn_phase(without_color),539479,black_plus_sign,,,,null,GW/dustpan.jpg,GW/soldier.jpg,,,,,,,,,,,,
null,,black_cross(without_color),540112,green,,,,null,GW/dustpan.jpg,GW/soldier.jpg,,,,,,,,,,,,
null,,rt_plussign_withcolor,540613,green,,,,null,GW/dustpan.jpg,GW/soldier.jpg,,,,,,,,,,,,
1988.1000000238419,,rt_thecrossant_black,541984,black_plus_sign,,,,50,,,1,0.9324324324324325,,,,,,,,,,
null,,color_black,542086,black_plus_sign,,,,null,,,,,,,,,,,,,,
null,,learn_phase(without_color),544089,black_plus_sign,,,,null,GW/camera.jpg,GW/barrel.jpg,,,,,,,,,,,,
null,,black_cross(without_color),544615,blue,,,,null,GW/camera.jpg,GW/barrel.jpg,,,,,,,,,,,,
460.39999997615814,,rt_plussign_withcolor,545118,blue,,,,49,GW/camera.jpg,GW/barrel.jpg,,,,,,,,,,,,
null,,rt_thecrossant_black,546602,black_plus_sign,,,,null,,,1,0.9333333333333333,,,,,,,,,,
null,,color_black,546704,black_plus_sign,,,,null,,,,,,,,,,,,,,
null,,learn_phase(without_color),548709,black_plus_sign,,,,null,GW/soldier.jpg,GW/wheelchair.jpg,,,,,,,,,,,,
null,,black_cross(without_color),549151,blue,,,,null,GW/soldier.jpg,GW/wheelchair.jpg,,,,,,,,,,,,
null,,rt_plussign_withcolor,549652,blue,,,,null,GW/soldier.jpg,GW/wheelchair.jpg,,,,,,,,,,,,
825.5,,rt_thecrossant_black,551215,black_plus_sign,,,,49,,,1,0.9342105263157895,,,,,,,,,,
null,,color_black,551317,black_plus_sign,,,,null,,,,,,,,,,,,,,
null,,learn_phase(without_color),553320,black_plus_sign,,,,null,GW/snail.jpg,GW/camera.jpg,,,,,,,,,,,,
null,,black_cross(without_color),554410,blue,,,,null,GW/snail.jpg,GW/camera.jpg,,,,,,,,,,,,
null,,rt_plussign_withcolor,554911,blue,,,,null,GW/snail.jpg,GW/camera.jpg,,,,,,,,,,,,
634,,rt_thecrossant_black,555825,black_plus_sign,,,,49,,,1,0.935064935064935,,,,,,,,,,
null,,color_black,555927,black_plus_sign,,,,null,,,,,,,,,,,,,,
null,,learn_phase(without_color),557928,black_plus_sign,,,,null,GW/hat.jpg,GW/globe.jpg,,,,,,,,,,,,
null,,black_cross(without_color),558845,blue,,,,null,GW/hat.jpg,GW/globe.jpg,,,,,,,,,,,,
371.89999997615814,,rt_plussign_withcolor,559346,blue,,,,49,GW/hat.jpg,GW/globe.jpg,,,,,,,,,,,,
null,,rt_thecrossant_black,560433,black_plus_sign,,,,null,,,1,0.9358974358974359,,,,,,,,,,
null,,color_black,560535,black_plus_sign,,,,null,,,,,,,,,,,,,,
null,,learn_phase(without_color),562538,black_plus_sign,,,,null,GW/soldier.jpg,GW/wheelchair.jpg,,,,,,,,,,,,
null,,black_cross(without_color),563426,blue,,,,null,GW/soldier.jpg,GW/wheelchair.jpg,,,,,,,,,,,,
376.10000002384186,,rt_plussign_withcolor,563927,blue,,,,49,GW/soldier.jpg,GW/wheelchair.jpg,,,,,,,,,,,,
null,,rt_thecrossant_black,565045,black_plus_sign,,,,null,,,1,0.9367088607594937,,,,,,,,,,
null,,color_black,565147,black_plus_sign,,,,null,,,,,,,,,,,,,,
null,,learn_phase(without_color),567149,black_plus_sign,,,,null,GW/snail.jpg,GW/teeth.jpg,,,,,,,,,,,,
null,,black_cross(without_color),567780,green,,,,null,GW/snail.jpg,GW/teeth.jpg,,,,,,,,,,,,
null,,rt_plussign_withcolor,568282,green,,,,null,GW/snail.jpg,GW/teeth.jpg,,,,,,,,,,,,
1205.6999999284744,,rt_thecrossant_black,569654,black_plus_sign,,,,50,,,1,0.9375,,,,,,,,,,
null,,color_black,569756,black_plus_sign,,,,null,,,,,,,,,,,,,,
null,,learn_phase(without_color),571759,black_plus_sign,,,,null,GW/hat.jpg,GW/globe.jpg,,,,,,,,,,,,
null,,black_cross(without_color),572592,green,,,,null,GW/hat.jpg,GW/globe.jpg,,,,,,,,,,,,
null,,rt_plussign_withcolor,573093,green,,,,null,GW/hat.jpg,GW/globe.jpg,,,,,,,,,,,,
801.5,,rt_thecrossant_black,574263,black_plus_sign,,,,50,,,1,0.9382716049382716,,,,,,,,,,
null,,color_black,574366,black_plus_sign,,,,null,,,,,,,,,,,,,,
null,,learn_phase(without_color),576368,black_plus_sign,,,,null,GW/dustpan.jpg,GW/hat.jpg,,,,,,,,,,,,
null,,black_cross(without_color),576866,blue,,,,null,GW/dustpan.jpg,GW/hat.jpg,,,,,,,,,,,,
null,,rt_plussign_withcolor,577368,blue,,,,null,GW/dustpan.jpg,GW/hat.jpg,,,,,,,,,,,,
1247,,rt_thecrossant_black,578874,black_plus_sign,,,,49,,,1,0.9390243902439024,,,,,,,,,,
null,,color_black,578977,black_plus_sign,,,,null,,,,,,,,,,,,,,
null,,learn_phase(without_color),580980,black_plus_sign,,,,null,GW/globe.jpg,GW/gong.jpg,,,,,,,,,,,,
null,,black_cross(without_color),581757,blue,,,,null,GW/globe.jpg,GW/gong.jpg,,,,,,,,,,,,
473.09999990463257,,rt_plussign_withcolor,582259,blue,,,,49,GW/globe.jpg,GW/gong.jpg,,,,,,,,,,,,
null,,rt_thecrossant_black,583490,black_plus_sign,,,,null,,,1,0.9397590361445783,,,,,,,,,,
null,,color_black,583593,black_plus_sign,,,,null,,,,,,,,,,,,,,
null,,learn_phase(without_color),585596,black_plus_sign,,,,null,GW/dustpan.jpg,GW/soldier.jpg,,,,,,,,,,,,
null,,black_cross(without_color),586435,green,,,,null,GW/dustpan.jpg,GW/soldier.jpg,,,,,,,,,,,,
null,,rt_plussign_withcolor,586938,green,,,,null,GW/dustpan.jpg,GW/soldier.jpg,,,,,,,,,,,,
1429.1000000238419,,rt_thecrossant_black,588103,black_plus_sign,,,,50,,,1,0.9404761904761905,,,,,,,,,,
null,,color_black,588206,black_plus_sign,,,,null,,,,,,,,,,,,,,
null,,learn_phase(without_color),590209,black_plus_sign,,,,null,GW/jukebox.jpg,GW/hat.jpg,,,,,,,,,,,,
null,,black_cross(without_color),590615,green,,,,null,GW/jukebox.jpg,GW/hat.jpg,,,,,,,,,,,,
null,,rt_plussign_withcolor,591117,green,,,,null,GW/jukebox.jpg,GW/hat.jpg,,,,,,,,,,,,
null,,rt_thecrossant_black,592717,black_plus_sign,,,,null,,,,0.9404761904761905,,,,,,,,,,
null,,color_black,592820,black_plus_sign,,,,null,,,,,,,,,,,,,,
null,,learn_phase(without_color),594822,black_plus_sign,,,,null,GW/camera.jpg,GW/gong.jpg,,,,,,,,,,,,
null,,black_cross(without_color),595913,green,,,,null,GW/camera.jpg,GW/gong.jpg,,,,,,,,,,,,
null,,rt_plussign_withcolor,596415,green,,,,null,GW/camera.jpg,GW/gong.jpg,,,,,,,,,,,,
935,,rt_thecrossant_black,597327,black_plus_sign,,,,50,,,1,0.9411764705882353,,,,,,,,,,
null,,color_black,597429,black_plus_sign,,,,null,,,,,,,,,,,,,,
null,,learn_phase(without_color),599432,black_plus_sign,,,,null,GW/teeth.jpg,GW/globe.jpg,,,,,,,,,,,,
null,,black_cross(without_color),599895,green,,,,null,GW/teeth.jpg,GW/globe.jpg,,,,,,,,,,,,
null,,rt_plussign_withcolor,600397,green,,,,null,GW/teeth.jpg,GW/globe.jpg,,,,,,,,,,,,
1804.6000000238419,,rt_thecrossant_black,601939,black_plus_sign,,,,50,,,1,0.9418604651162791,,,,,,,,,,
null,,color_black,602040,black_plus_sign,,,,null,,,,,,,,,,,,,,
null,,learn_phase(without_color),604043,black_plus_sign,,,,null,GW/teeth.jpg,GW/dustpan.jpg,,,,,,,,,,,,
null,,black_cross(without_color),604733,blue,,,,null,GW/teeth.jpg,GW/dustpan.jpg,,,,,,,,,,,,
null,,rt_plussign_withcolor,605235,blue,,,,null,GW/teeth.jpg,GW/dustpan.jpg,,,,,,,,,,,,
737.8999999761581,,rt_thecrossant_black,606551,black_plus_sign,,,,49,,,1,0.9425287356321839,,,,,,,,,,
null,,color_black,606654,black_plus_sign,,,,null,,,,,,,,,,,,,,
null,,learn_phase(without_color),608658,black_plus_sign,,,,null,GW/camera.jpg,GW/gong.jpg,,,,,,,,,,,,
null,,black_cross(without_color),609715,blue,,,,null,GW/camera.jpg,GW/gong.jpg,,,,,,,,,,,,
null,,rt_plussign_withcolor,610217,blue,,,,null,GW/camera.jpg,GW/gong.jpg,,,,,,,,,,,,
923.5,,rt_thecrossant_black,611165,black_plus_sign,,,,49,,,1,0.9431818181818182,,,,,,,,,,
null,,color_black,611268,black_plus_sign,,,,null,,,,,,,,,,,,,,
null,,learn_phase(without_color),613271,black_plus_sign,,,,null,GW/snail.jpg,GW/teeth.jpg,,,,,,,,,,,,
null,,black_cross(without_color),613800,green,,,,null,GW/snail.jpg,GW/teeth.jpg,,,,,,,,,,,,
null,,rt_plussign_withcolor,614301,green,,,,null,GW/snail.jpg,GW/teeth.jpg,,,,,,,,,,,,
1308.6000000238419,,rt_thecrossant_black,615777,black_plus_sign,,,,50,,,1,0.9438202247191011,,,,,,,,,,
null,,color_black,615878,black_plus_sign,,,,null,,,,,,,,,,,,,,
null,,learn_phase(without_color),617881,black_plus_sign,,,,null,GW/teeth.jpg,GW/globe.jpg,,,,,,,,,,,,
null,,black_cross(without_color),618338,green,,,,null,GW/teeth.jpg,GW/globe.jpg,,,,,,,,,,,,
null,,rt_plussign_withcolor,618841,green,,,,null,GW/teeth.jpg,GW/globe.jpg,,,,,,,,,,,,
1166.3999999761581,,rt_thecrossant_black,620388,black_plus_sign,,,,50,,,1,0.9444444444444444,,,,,,,,,,
null,,color_black,620491,black_plus_sign,,,,null,,,,,,,,,,,,,,
null,,learn_phase(without_color),622493,black_plus_sign,,,,null,GW/dustpan.jpg,GW/hat.jpg,,,,,,,,,,,,
null,,black_cross(without_color),623550,blue,,,,null,GW/dustpan.jpg,GW/hat.jpg,,,,,,,,,,,,
null,,rt_plussign_withcolor,624051,blue,,,,null,GW/dustpan.jpg,GW/hat.jpg,,,,,,,,,,,,
797.3999999761581,,rt_thecrossant_black,625000,black_plus_sign,,,,49,,,1,0.945054945054945,,,,,,,,,,
null,,color_black,625102,black_plus_sign,,,,null,,,,,,,,,,,,,,
null,,learn_phase(without_color),627106,black_plus_sign,,,,null,GW/jukebox.jpg,GW/hat.jpg,,,,,,,,,,,,
null,,black_cross(without_color),627600,green,,,,null,GW/jukebox.jpg,GW/hat.jpg,,,,,,,,,,,,
391.09999990463257,,rt_plussign_withcolor,628104,green,,,,50,GW/jukebox.jpg,GW/hat.jpg,,,,,,,,,,,,
null,,rt_thecrossant_black,629614,black_plus_sign,,,,null,,,1,0.9456521739130435,,,,,,,,,,
null,,color_black,629716,black_plus_sign,,,,null,,,,,,,,,,,,,,
null,,learn_phase(without_color),631721,black_plus_sign,,,,null,GW/paint.jpg,GW/snail.jpg,,,,,,,,,,,,
null,,black_cross(without_color),632524,blue,,,,null,GW/paint.jpg,GW/snail.jpg,,,,,,,,,,,,
null,,rt_plussign_withcolor,633026,blue,,,,null,GW/paint.jpg,GW/snail.jpg,,,,,,,,,,,,
709,,rt_thecrossant_black,634227,black_plus_sign,,,,49,,,1,0.946236559139785,,,,,,,,,,
null,,color_black,634329,black_plus_sign,,,,null,,,,,,,,,,,,,,
null,,learn_phase(without_color),636332,black_plus_sign,,,,null,GW/snail.jpg,GW/camera.jpg,,,,,,,,,,,,
null,,black_cross(without_color),637047,green,,,,null,GW/snail.jpg,GW/camera.jpg,,,,,,,,,,,,
null,,rt_plussign_withcolor,637548,green,,,,null,GW/snail.jpg,GW/camera.jpg,,,,,,,,,,,,
1568.7999999523163,,rt_thecrossant_black,638839,black_plus_sign,,,,49,,,0,0.9361702127659575,,,,,,,,,,
null,,color_black,638940,black_plus_sign,,,,null,,,,,,,,,,,,,,
null,,learn_phase(without_color),640943,black_plus_sign,,,,null,GW/paint.jpg,GW/snail.jpg,,,,,,,,,,,,
null,,black_cross(without_color),641837,green,,,,null,GW/paint.jpg,GW/snail.jpg,,,,,,,,,,,,
null,,rt_plussign_withcolor,642338,green,,,,null,GW/paint.jpg,GW/snail.jpg,,,,,,,,,,,,
1402.8999999761581,,rt_thecrossant_black,643450,black_plus_sign,,,,50,,,1,0.9368421052631579,,,,,,,,,,
null,,color_black,643553,black_plus_sign,,,,null,,,,,,,,,,,,,,
null,,learn_phase(without_color),645555,black_plus_sign,,,,null,GW/camera.jpg,GW/gong.jpg,,,,,,,,,,,,
null,,black_cross(without_color),646119,blue,,,,null,GW/camera.jpg,GW/gong.jpg,,,,,,,,,,,,
null,,rt_plussign_withcolor,646621,blue,,,,null,GW/camera.jpg,GW/gong.jpg,,,,,,,,,,,,
1393.6000000238419,,rt_thecrossant_black,648061,black_plus_sign,,,,49,,,1,0.9375,,,,,,,,,,
null,,color_black,648163,black_plus_sign,,,,null,,,,,,,,,,,,,,
null,,learn_phase(without_color),650166,black_plus_sign,,,,null,GW/camera.jpg,GW/barrel.jpg,,,,,,,,,,,,
null,,black_cross(without_color),650863,green,,,,null,GW/camera.jpg,GW/barrel.jpg,,,,,,,,,,,,
null,,rt_plussign_withcolor,651365,green,,,,null,GW/camera.jpg,GW/barrel.jpg,,,,,,,,,,,,
1225.1000000238419,,rt_thecrossant_black,652673,black_plus_sign,,,,50,,,1,0.9381443298969072,,,,,,,,,,
null,,color_black,652774,black_plus_sign,,,,null,,,,,,,,,,,,,,
null,,learn_phase(without_color),654776,black_plus_sign,,,,null,GW/jukebox.jpg,GW/hat.jpg,,,,,,,,,,,,
null,,black_cross(without_color),655252,green,,,,null,GW/jukebox.jpg,GW/hat.jpg,,,,,,,,,,,,
null,,rt_plussign_withcolor,655753,green,,,,null,GW/jukebox.jpg,GW/hat.jpg,,,,,,,,,,,,
1030.7999999523163,,rt_thecrossant_black,657283,black_plus_sign,,,,50,,,1,0.9387755102040817,,,,,,,,,,
null,,color_black,657386,black_plus_sign,,,,null,,,,,,,,,,,,,,
null,,learn_phase(without_color),659390,black_plus_sign,,,,null,GW/camera.jpg,GW/gong.jpg,,,,,,,,,,,,
null,,black_cross(without_color),660058,blue,,,,null,GW/camera.jpg,GW/gong.jpg,,,,,,,,,,,,
null,,rt_plussign_withcolor,660560,blue,,,,null,GW/camera.jpg,GW/gong.jpg,,,,,,,,,,,,
855.5,,rt_thecrossant_black,661895,black_plus_sign,,,,49,,,1,0.9393939393939394,,,,,,,,,,
null,,color_black,661998,black_plus_sign,,,,null,,,,,,,,,,,,,,
null,,learn_phase(without_color),664002,black_plus_sign,,,,null,GW/soldier.jpg,GW/jukebox.jpg,,,,,,,,,,,,
null,,black_cross(without_color),664480,green,,,,null,GW/soldier.jpg,GW/jukebox.jpg,,,,,,,,,,,,
null,,rt_plussign_withcolor,664982,green,,,,null,GW/soldier.jpg,GW/jukebox.jpg,,,,,,,,,,,,
1239.7999999523163,,rt_thecrossant_black,666507,black_plus_sign,,,,50,,,1,0.94,,,,,,,,,,
null,,color_black,666610,black_plus_sign,,,,null,,,,,,,,,,,,,,
null,,learn_phase(without_color),668613,black_plus_sign,,,,null,GW/dustpan.jpg,GW/hat.jpg,,,,,,,,,,,,
null,,black_cross(without_color),669411,green,,,,null,GW/dustpan.jpg,GW/hat.jpg,,,,,,,,,,,,
null,,rt_plussign_withcolor,669913,green,,,,null,GW/dustpan.jpg,GW/hat.jpg,,,,,,,,,,,,
818.9000000953674,,rt_thecrossant_black,671121,black_plus_sign,,,,49,,,0,0.9306930693069307,,,,,,,,,,
null,,color_black,671226,black_plus_sign,,,,null,,,,,,,,,,,,,,
null,,learn_phase(without_color),673229,black_plus_sign,,,,null,GW/camera.jpg,GW/barrel.jpg,,,,,,,,,,,,
null,,black_cross(without_color),673808,blue,,,,null,GW/camera.jpg,GW/barrel.jpg,,,,,,,,,,,,
null,,rt_plussign_withcolor,674310,blue,,,,null,GW/camera.jpg,GW/barrel.jpg,,,,,,,,,,,,
1055.5,,rt_thecrossant_black,675735,black_plus_sign,,,,49,,,1,0.9313725490196079,,,,,,,,,,
null,,color_black,675838,black_plus_sign,,,,null,,,,,,,,,,,,,,
null,,learn_phase(without_color),677841,black_plus_sign,,,,null,GW/dustpan.jpg,GW/hat.jpg,,,,,,,,,,,,
null,,black_cross(without_color),678351,green,,,,null,GW/dustpan.jpg,GW/hat.jpg,,,,,,,,,,,,
null,,rt_plussign_withcolor,678852,green,,,,null,GW/dustpan.jpg,GW/hat.jpg,,,,,,,,,,,,
1210.5,,rt_thecrossant_black,680347,black_plus_sign,,,,50,,,1,0.9320388349514563,,,,,,,,,,
null,,color_black,680450,black_plus_sign,,,,null,,,,,,,,,,,,,,
null,,learn_phase(without_color),682453,black_plus_sign,,,,null,GW/teeth.jpg,GW/dustpan.jpg,,,,,,,,,,,,
null,,black_cross(without_color),683097,green,,,,null,GW/teeth.jpg,GW/dustpan.jpg,,,,,,,,,,,,
null,,rt_plussign_withcolor,683599,green,,,,null,GW/teeth.jpg,GW/dustpan.jpg,,,,,,,,,,,,
1114,,rt_thecrossant_black,684959,black_plus_sign,,,,50,,,1,0.9326923076923077,,,,,,,,,,
null,,color_black,685061,black_plus_sign,,,,null,,,,,,,,,,,,,,
null,,learn_phase(without_color),687063,black_plus_sign,,,,null,GW/paint.jpg,GW/snail.jpg,,,,,,,,,,,,
null,,black_cross(without_color),687585,green,,,,null,GW/paint.jpg,GW/snail.jpg,,,,,,,,,,,,
null,,rt_plussign_withcolor,688087,green,,,,null,GW/paint.jpg,GW/snail.jpg,,,,,,,,,,,,
757.7999999523163,,rt_thecrossant_black,689570,black_plus_sign,,,,50,,,1,0.9333333333333333,,,,,,,,,,
null,,color_black,689673,black_plus_sign,,,,null,,,,,,,,,,,,,,
null,,learn_phase(without_color),691676,black_plus_sign,,,,null,GW/jukebox.jpg,GW/basket.jpg,,,,,,,,,,,,
null,,black_cross(without_color),692347,blue,,,,null,GW/jukebox.jpg,GW/basket.jpg,,,,,,,,,,,,
null,,rt_plussign_withcolor,692849,blue,,,,null,GW/jukebox.jpg,GW/basket.jpg,,,,,,,,,,,,
693.6000000238419,,rt_thecrossant_black,694182,black_plus_sign,,,,49,,,1,0.9339622641509434,,,,,,,,,,
null,,color_black,694285,black_plus_sign,,,,null,,,,,,,,,,,,,,
null,,learn_phase(without_color),696287,black_plus_sign,,,,null,GW/soldier.jpg,GW/hat.jpg,,,,,,,,,,,,
null,,black_cross(without_color),696902,blue,,,,null,GW/soldier.jpg,GW/hat.jpg,,,,,,,,,,,,
null,,rt_plussign_withcolor,697405,blue,,,,null,GW/soldier.jpg,GW/hat.jpg,,,,,,,,,,,,
898.7000000476837,,rt_thecrossant_black,698793,black_plus_sign,,,,49,,,1,0.9345794392523364,,,,,,,,,,
null,,color_black,698895,black_plus_sign,,,,null,,,,,,,,,,,,,,
null,,learn_phase(without_color),700899,black_plus_sign,,,,null,GW/dustpan.jpg,GW/soldier.jpg,,,,,,,,,,,,
null,,black_cross(without_color),701802,blue,,,,null,GW/dustpan.jpg,GW/soldier.jpg,,,,,,,,,,,,
null,,rt_plussign_withcolor,702304,blue,,,,null,GW/dustpan.jpg,GW/soldier.jpg,,,,,,,,,,,,
946.6000000238419,,rt_thecrossant_black,703405,black_plus_sign,,,,49,,,1,0.9351851851851852,,,,,,,,,,
null,,color_black,703508,black_plus_sign,,,,null,,,,,,,,,,,,,,
null,,learn_phase(without_color),705511,black_plus_sign,,,,null,GW/jukebox.jpg,GW/hat.jpg,,,,,,,,,,,,
null,,black_cross(without_color),706572,green,,,,null,GW/jukebox.jpg,GW/hat.jpg,,,,,,,,,,,,
null,,rt_plussign_withcolor,707074,green,,,,null,GW/jukebox.jpg,GW/hat.jpg,,,,,,,,,,,,
1217.2999999523163,,rt_thecrossant_black,708017,black_plus_sign,,,,49,,,0,0.926605504587156,,,,,,,,,,
null,,color_black,708119,black_plus_sign,,,,null,,,,,,,,,,,,,,
null,,learn_phase(without_color),710122,black_plus_sign,,,,null,GW/camera.jpg,GW/barrel.jpg,,,,,,,,,,,,
null,,black_cross(without_color),711213,green,,,,null,GW/camera.jpg,GW/barrel.jpg,,,,,,,,,,,,
null,,rt_plussign_withcolor,711716,green,,,,null,GW/camera.jpg,GW/barrel.jpg,,,,,,,,,,,,
1430,,rt_thecrossant_black,712628,black_plus_sign,,,,50,,,1,0.9272727272727272,,,,,,,,,,
null,,color_black,712731,black_plus_sign,,,,null,,,,,,,,,,,,,,
null,,learn_phase(without_color),714735,black_plus_sign,,,,null,GW/dustpan.jpg,GW/hat.jpg,,,,,,,,,,,,
null,,black_cross(without_color),715159,green,,,,null,GW/dustpan.jpg,GW/hat.jpg,,,,,,,,,,,,
null,,rt_plussign_withcolor,715661,green,,,,null,GW/dustpan.jpg,GW/hat.jpg,,,,,,,,,,,,
null,,rt_thecrossant_black,717240,black_plus_sign,,,,null,,,,0.9272727272727272,,,,,,,,,,
null,,color_black,717343,black_plus_sign,,,,null,,,,,,,,,,,,,,
null,,learn_phase(without_color),719345,black_plus_sign,,,,null,GW/paint.jpg,GW/snail.jpg,,,,,,,,,,,,
null,,black_cross(without_color),720382,green,,,,null,GW/paint.jpg,GW/snail.jpg,,,,,,,,,,,,
null,,rt_plussign_withcolor,720886,green,,,,null,GW/paint.jpg,GW/snail.jpg,,,,,,,,,,,,
null,,rt_thecrossant_black,721855,black_plus_sign,,,,null,,,,0.9272727272727272,,,,,,,,,,
null,,warning_page,724858,warning,,,,null,,,,,,,,,,,,,,
null,,color_black,724960,black_plus_sign,,,,null,,,,,,,,,,,,,,
null,,learn_phase(without_color),726964,black_plus_sign,,,,null,GW/teeth.jpg,GW/globe.jpg,,,,,,,,,,,,
null,,black_cross(without_color),727472,green,,,,null,GW/teeth.jpg,GW/globe.jpg,,,,,,,,,,,,
null,,rt_plussign_withcolor,727974,green,,,,null,GW/teeth.jpg,GW/globe.jpg,,,,,,,,,,,,
1944.6999999284744,,rt_thecrossant_black,729469,black_plus_sign,,,,50,,,1,0.9279279279279279,,,,,,,,,,
null,,color_black,729572,black_plus_sign,,,,null,,,,,,,,,,,,,,
null,,learn_phase(without_color),731574,black_plus_sign,,,,null,GW/camera.jpg,GW/barrel.jpg,,,,,,,,,,,,
null,,black_cross(without_color),732462,green,,,,null,GW/camera.jpg,GW/barrel.jpg,,,,,,,,,,,,
476.39999997615814,,rt_plussign_withcolor,732964,green,,,,50,GW/camera.jpg,GW/barrel.jpg,,,,,,,,,,,,
null,,rt_thecrossant_black,734081,black_plus_sign,,,,null,,,1,0.9285714285714286,,,,,,,,,,
null,,color_black,734182,black_plus_sign,,,,null,,,,,,,,,,,,,,
null,,learn_phase(without_color),736185,black_plus_sign,,,,null,GW/jukebox.jpg,GW/hat.jpg,,,,,,,,,,,,
null,,black_cross(without_color),737235,green,,,,null,GW/jukebox.jpg,GW/hat.jpg,,,,,,,,,,,,
488.09999990463257,,rt_plussign_withcolor,737736,green,,,,50,GW/jukebox.jpg,GW/hat.jpg,,,,,,,,,,,,
null,,rt_thecrossant_black,738691,black_plus_sign,,,,null,,,1,0.9292035398230089,,,,,,,,,,
null,,color_black,738794,black_plus_sign,,,,null,,,,,,,,,,,,,,
null,,learn_phase(without_color),740796,black_plus_sign,,,,null,GW/teeth.jpg,GW/globe.jpg,,,,,,,,,,,,
null,,black_cross(without_color),741362,green,,,,null,GW/teeth.jpg,GW/globe.jpg,,,,,,,,,,,,
null,,rt_plussign_withcolor,741866,green,,,,null,GW/teeth.jpg,GW/globe.jpg,,,,,,,,,,,,
1166.2000000476837,,rt_thecrossant_black,743308,black_plus_sign,,,,50,,,1,0.9298245614035088,,,,,,,,,,
null,,color_black,743410,black_plus_sign,,,,null,,,,,,,,,,,,,,
null,,learn_phase(without_color),745415,black_plus_sign,,,,null,GW/camera.jpg,GW/barrel.jpg,,,,,,,,,,,,
null,,black_cross(without_color),746149,green,,,,null,GW/camera.jpg,GW/barrel.jpg,,,,,,,,,,,,
null,,rt_plussign_withcolor,746651,green,,,,null,GW/camera.jpg,GW/barrel.jpg,,,,,,,,,,,,
801.0999999046326,,rt_thecrossant_black,747921,black_plus_sign,,,,50,,,1,0.9304347826086956,,,,,,,,,,
null,,color_black,748023,black_plus_sign,,,,null,,,,,,,,,,,,,,
null,,learn_phase(without_color),750040,black_plus_sign,,,,null,GW/globe.jpg,GW/gong.jpg,,,,,,,,,,,,
null,,black_cross(without_color),750991,blue,,,,null,GW/globe.jpg,GW/gong.jpg,,,,,,,,,,,,
null,,rt_plussign_withcolor,751493,blue,,,,null,GW/globe.jpg,GW/gong.jpg,,,,,,,,,,,,
1036.8999999761581,,rt_thecrossant_black,752547,black_plus_sign,,,,49,,,1,0.9310344827586207,,,,,,,,,,
null,,color_black,752649,black_plus_sign,,,,null,,,,,,,,,,,,,,
null,,learn_phase(without_color),754652,black_plus_sign,,,,null,GW/camera.jpg,GW/gong.jpg,,,,,,,,,,,,
null,,black_cross(without_color),755248,blue,,,,null,GW/camera.jpg,GW/gong.jpg,,,,,,,,,,,,
null,,rt_plussign_withcolor,755750,blue,,,,null,GW/camera.jpg,GW/gong.jpg,,,,,,,,,,,,
1144.5,,rt_thecrossant_black,757158,black_plus_sign,,,,49,,,1,0.9316239316239316,,,,,,,,,,
null,,color_black,757260,black_plus_sign,,,,null,,,,,,,,,,,,,,
null,,learn_phase(without_color),759263,black_plus_sign,,,,null,GW/jukebox.jpg,GW/basket.jpg,,,,,,,,,,,,
null,,black_cross(without_color),759684,green,,,,null,GW/jukebox.jpg,GW/basket.jpg,,,,,,,,,,,,
null,,rt_plussign_withcolor,760185,green,,,,null,GW/jukebox.jpg,GW/basket.jpg,,,,,,,,,,,,
971.1000000238419,,rt_thecrossant_black,761769,black_plus_sign,,,,50,,,1,0.9322033898305084,,,,,,,,,,
null,,color_black,761871,black_plus_sign,,,,null,,,,,,,,,,,,,,
null,,learn_phase(without_color),763887,black_plus_sign,,,,null,GW/teeth.jpg,GW/dustpan.jpg,,,,,,,,,,,,
null,,black_cross(without_color),764365,green,,,,null,GW/teeth.jpg,GW/dustpan.jpg,,,,,,,,,,,,
null,,rt_plussign_withcolor,764867,green,,,,null,GW/teeth.jpg,GW/dustpan.jpg,,,,,,,,,,,,
553.7999999523163,,rt_thecrossant_black,766393,black_plus_sign,,,,50,,,1,0.9327731092436975,,,,,,,,,,
null,,color_black,766497,black_plus_sign,,,,null,,,,,,,,,,,,,,
null,,learn_phase(without_color),768500,black_plus_sign,,,,null,GW/soldier.jpg,GW/wheelchair.jpg,,,,,,,,,,,,
null,,black_cross(without_color),769267,blue,,,,null,GW/soldier.jpg,GW/wheelchair.jpg,,,,,,,,,,,,
null,,rt_plussign_withcolor,769769,blue,,,,null,GW/soldier.jpg,GW/wheelchair.jpg,,,,,,,,,,,,
696.5,,rt_thecrossant_black,771006,black_plus_sign,,,,49,,,1,0.9333333333333333,,,,,,,,,,
null,,color_black,771109,black_plus_sign,,,,null,,,,,,,,,,,,,,
null,,learn_phase(without_color),773112,black_plus_sign,,,,null,GW/soldier.jpg,GW/hat.jpg,,,,,,,,,,,,
null,,black_cross(without_color),774182,blue,,,,null,GW/soldier.jpg,GW/hat.jpg,,,,,,,,,,,,
null,,rt_plussign_withcolor,774685,blue,,,,null,GW/soldier.jpg,GW/hat.jpg,,,,,,,,,,,,
1010.1000000238419,,rt_thecrossant_black,775619,black_plus_sign,,,,49,,,1,0.9338842975206612,,,,,,,,,,
null,,color_black,775720,black_plus_sign,,,,null,,,,,,,,,,,,,,
null,,learn_phase(without_color),777722,black_plus_sign,,,,null,GW/snail.jpg,GW/teeth.jpg,,,,,,,,,,,,
null,,black_cross(without_color),778548,blue,,,,null,GW/snail.jpg,GW/teeth.jpg,,,,,,,,,,,,
null,,rt_plussign_withcolor,779049,blue,,,,null,GW/snail.jpg,GW/teeth.jpg,,,,,,,,,,,,
1260,,rt_thecrossant_black,780228,black_plus_sign,,,,49,,,1,0.9344262295081968,,,,,,,,,,
null,,color_black,780331,black_plus_sign,,,,null,,,,,,,,,,,,,,
null,,learn_phase(without_color),782336,black_plus_sign,,,,null,GW/camera.jpg,GW/barrel.jpg,,,,,,,,,,,,
null,,black_cross(without_color),782999,blue,,,,null,GW/camera.jpg,GW/barrel.jpg,,,,,,,,,,,,
null,,rt_plussign_withcolor,783501,blue,,,,null,GW/camera.jpg,GW/barrel.jpg,,,,,,,,,,,,
963.5,,rt_thecrossant_black,784842,black_plus_sign,,,,49,,,1,0.9349593495934959,,,,,,,,,,
null,,color_black,784959,black_plus_sign,,,,null,,,,,,,,,,,,,,
null,,learn_phase(without_color),786963,black_plus_sign,,,,null,GW/snail.jpg,GW/camera.jpg,,,,,,,,,,,,
null,,black_cross(without_color),787749,green,,,,null,GW/snail.jpg,GW/camera.jpg,,,,,,,,,,,,
null,,rt_plussign_withcolor,788251,green,,,,null,GW/snail.jpg,GW/camera.jpg,,,,,,,,,,,,
992.5,,rt_thecrossant_black,789469,black_plus_sign,,,,49,,,0,0.9274193548387096,,,,,,,,,,
null,,color_black,789572,black_plus_sign,,,,null,,,,,,,,,,,,,,
27264.699999928474,,intro_1,816838,instruct,,0,Start,,,,,,,,,,,,,,,
3560.7000000476837,,directmemory_phase,820400,GW/hat.jpg,,,,51,,,0,0,GW/basket.jpg,GW/jukebox.jpg,GW/barrel.jpg,GW/jukebox.jpg,GW/basket.jpg,GW/barrel.jpg,0.5,closer,,
null,,html-keyboard-response,821402,<p></p>,,,,null,,,,,,,,,,,,,,
2231.100000023842,,directmemory_phase,823634,GW/soldier.jpg,,,,49,,,1,0.5,GW/dustpan.jpg,GW/camera.jpg,GW/globe.jpg,GW/dustpan.jpg,GW/globe.jpg,GW/camera.jpg,1,,,
null,,html-keyboard-response,824636,<p></p>,,,,null,,,,,,,,,,,,,,
2657.3000000715256,,directmemory_phase,827295,GW/snail.jpg,,,,51,,,1,0.6666666666666666,GW/wheelchair.jpg,GW/gong.jpg,GW/paint.jpg,GW/paint.jpg,GW/gong.jpg,GW/wheelchair.jpg,1,,,
null,,html-keyboard-response,828297,<p></p>,,,,null,,,,,,,,,,,,,,
3620.899999976158,,directmemory_phase,831919,GW/dustpan.jpg,,,,51,,,1,0.75,GW/barrel.jpg,GW/wheelchair.jpg,GW/hat.jpg,GW/hat.jpg,GW/wheelchair.jpg,GW/barrel.jpg,1,,,
null,,html-keyboard-response,832922,<p></p>,,,,null,,,,,,,,,,,,,,
4327.099999904633,,directmemory_phase,837250,GW/globe.jpg,,,,49,,,0,0.6,GW/jukebox.jpg,GW/teeth.jpg,GW/wheelchair.jpg,GW/teeth.jpg,GW/jukebox.jpg,GW/wheelchair.jpg,0.5,closer,,
null,,html-keyboard-response,838252,<p></p>,,,,null,,,,,,,,,,,,,,
2607.100000023842,,directmemory_phase,840861,GW/gong.jpg,,,,49,,,1,0.6666666666666666,GW/camera.jpg,GW/paint.jpg,GW/teeth.jpg,GW/camera.jpg,GW/teeth.jpg,GW/paint.jpg,1,,,
null,,html-keyboard-response,841863,<p></p>,,,,null,,,,,,,,,,,,,,
2211.600000023842,,directmemory_phase,844076,GW/teeth.jpg,,,,49,,,1,0.7142857142857143,GW/snail.jpg,GW/jukebox.jpg,GW/paint.jpg,GW/snail.jpg,GW/paint.jpg,GW/jukebox.jpg,1,,,
null,,html-keyboard-response,845079,<p></p>,,,,null,,,,,,,,,,,,,,
2927.600000023842,,directmemory_phase,848007,GW/hat.jpg,,,,51,,,0,0.625,GW/globe.jpg,GW/camera.jpg,GW/teeth.jpg,GW/globe.jpg,GW/teeth.jpg,GW/camera.jpg,0.5,closer,,
null,,html-keyboard-response,849010,<p></p>,,,,null,,,,,,,,,,,,,,
3629.2999999523163,,directmemory_phase,852640,GW/paint.jpg,,,,49,,,1,0.6666666666666666,GW/snail.jpg,GW/globe.jpg,GW/teeth.jpg,GW/snail.jpg,GW/teeth.jpg,GW/globe.jpg,1,,,
null,,html-keyboard-response,853642,<p></p>,,,,null,,,,,,,,,,,,,,
2260.100000023842,,directmemory_phase,855903,GW/soldier.jpg,,,,51,,,1,0.7,GW/camera.jpg,GW/teeth.jpg,GW/hat.jpg,GW/hat.jpg,GW/teeth.jpg,GW/camera.jpg,1,,,
null,,html-keyboard-response,856906,<p></p>,,,,null,,,,,,,,,,,,,,
1949.2999999523163,,directmemory_phase,858857,GW/snail.jpg,,,,50,,,0,0.6363636363636364,GW/camera.jpg,GW/hat.jpg,GW/gong.jpg,GW/camera.jpg,GW/gong.jpg,GW/hat.jpg,0.5,closer,,
null,,html-keyboard-response,859859,<p></p>,,,,null,,,,,,,,,,,,,,
1440.3000000715256,,directmemory_phase,861301,GW/dustpan.jpg,,,,49,,,1,0.6666666666666666,GW/soldier.jpg,GW/camera.jpg,GW/snail.jpg,GW/soldier.jpg,GW/snail.jpg,GW/camera.jpg,1,,,
null,,html-keyboard-response,862302,<p></p>,,,,null,,,,,,,,,,,,,,
2079.7000000476837,,directmemory_phase,864383,GW/basket.jpg,,,,49,,,0,0.6153846153846154,GW/hat.jpg,GW/jukebox.jpg,GW/teeth.jpg,GW/jukebox.jpg,GW/hat.jpg,GW/teeth.jpg,0.5,closer,,
null,,html-keyboard-response,865386,<p></p>,,,,null,,,,,,,,,,,,,,
1670.0999999046326,,directmemory_phase,867057,GW/gong.jpg,,,,49,,,1,0.6428571428571429,GW/globe.jpg,GW/dustpan.jpg,GW/hat.jpg,GW/globe.jpg,GW/hat.jpg,GW/dustpan.jpg,1,,,
null,,html-keyboard-response,868059,<p></p>,,,,null,,,,,,,,,,,,,,
1848.3999999761581,,directmemory_phase,869909,GW/jukebox.jpg,,,,50,,,1,0.6666666666666666,GW/wheelchair.jpg,GW/soldier.jpg,GW/teeth.jpg,GW/soldier.jpg,GW/wheelchair.jpg,GW/teeth.jpg,1,,,
null,,html-keyboard-response,870911,<p></p>,,,,null,,,,,,,,,,,,,,
1648.2000000476837,,directmemory_phase,872560,GW/camera.jpg,,,,49,,,1,0.6875,GW/barrel.jpg,GW/hat.jpg,GW/teeth.jpg,GW/barrel.jpg,GW/teeth.jpg,GW/hat.jpg,1,,,
null,,html-keyboard-response,873563,<p></p>,,,,null,,,,,,,,,,,,,,
3942.2999999523163,,directmemory_phase,877507,GW/soldier.jpg,,,,49,,,0,0.6470588235294118,GW/basket.jpg,GW/jukebox.jpg,GW/gong.jpg,GW/jukebox.jpg,GW/basket.jpg,GW/gong.jpg,0.5,closer,,
null,,html-keyboard-response,878509,<p></p>,,,,null,,,,,,,,,,,,,,
2713.8000000715256,,directmemory_phase,881224,GW/camera.jpg,,,,50,,,0,0.6111111111111112,GW/dustpan.jpg,GW/teeth.jpg,GW/snail.jpg,GW/snail.jpg,GW/teeth.jpg,GW/dustpan.jpg,0.5,closer,,
null,,html-keyboard-response,882226,<p></p>,,,,null,,,,,,,,,,,,,,
2085.5999999046326,,directmemory_phase,884313,GW/jukebox.jpg,,,,51,,,1,0.631578947368421,GW/gong.jpg,GW/globe.jpg,GW/basket.jpg,GW/basket.jpg,GW/globe.jpg,GW/gong.jpg,1,,,
null,,html-keyboard-response,885315,<p></p>,,,,null,,,,,,,,,,,,,,
2027.6999999284744,,directmemory_phase,887344,GW/wheelchair.jpg,,,,50,,,1,0.65,GW/jukebox.jpg,GW/soldier.jpg,GW/snail.jpg,GW/soldier.jpg,GW/jukebox.jpg,GW/snail.jpg,1,,,
null,,html-keyboard-response,888365,<p></p>,,,,null,,,,,,,,,,,,,,
2412.3000000715256,,directmemory_phase,890778,GW/jukebox.jpg,,,,50,,,0,0.6190476190476191,GW/camera.jpg,GW/dustpan.jpg,GW/hat.jpg,GW/hat.jpg,GW/dustpan.jpg,GW/camera.jpg,0.5,closer,,
null,,html-keyboard-response,891781,<p></p>,,,,null,,,,,,,,,,,,,,
2377.899999976158,,directmemory_phase,894160,GW/dustpan.jpg,,,,49,,,1,0.6363636363636364,GW/teeth.jpg,GW/basket.jpg,GW/jukebox.jpg,GW/teeth.jpg,GW/jukebox.jpg,GW/basket.jpg,1,,,
null,,html-keyboard-response,895163,<p></p>,,,,null,,,,,,,,,,,,,,
1678.3999999761581,,directmemory_phase,896843,GW/globe.jpg,,,,49,,,1,0.6521739130434783,GW/hat.jpg,GW/paint.jpg,GW/camera.jpg,GW/hat.jpg,GW/camera.jpg,GW/paint.jpg,1,,,
null,,html-keyboard-response,897847,<p></p>,,,,null,,,,,,,,,,,,,,
2339.7999999523163,,directmemory_phase,900189,GW/teeth.jpg,,,,51,,,0,0.625,GW/dustpan.jpg,GW/basket.jpg,GW/soldier.jpg,GW/dustpan.jpg,GW/soldier.jpg,GW/basket.jpg,0.5,closer,,
null,,html-keyboard-response,901191,<p></p>,,,,null,,,,,,,,,,,,,,
1388.3999999761581,,directmemory_phase,902581,GW/hat.jpg,,,,49,,,1,0.64,GW/soldier.jpg,GW/paint.jpg,GW/basket.jpg,GW/soldier.jpg,GW/basket.jpg,GW/paint.jpg,1,,,
null,,html-keyboard-response,903583,<p></p>,,,,null,,,,,,,,,,,,,,
1845.9000000953674,,directmemory_phase,905431,GW/teeth.jpg,,,,51,,,1,0.6538461538461539,GW/jukebox.jpg,GW/paint.jpg,GW/globe.jpg,GW/globe.jpg,GW/paint.jpg,GW/jukebox.jpg,1,,,
null,,html-keyboard-response,906433,<p></p>,,,,null,,,,,,,,,,,,,,
1595.8999999761581,,directmemory_phase,908031,GW/hat.jpg,,,,49,,,0,0.6296296296296297,GW/paint.jpg,GW/gong.jpg,GW/dustpan.jpg,GW/dustpan.jpg,GW/gong.jpg,GW/paint.jpg,0.5,closer,,
null,,html-keyboard-response,909033,<p></p>,,,,null,,,,,,,,,,,,,,
2081.7000000476837,,directmemory_phase,911117,GW/snail.jpg,,,,50,,,0,0.6071428571428571,GW/jukebox.jpg,GW/dustpan.jpg,GW/teeth.jpg,GW/teeth.jpg,GW/dustpan.jpg,GW/jukebox.jpg,0.5,closer,,
null,,html-keyboard-response,912120,<p></p>,,,,null,,,,,,,,,,,,,,
2135.2999999523163,,directmemory_phase,914257,GW/camera.jpg,,,,51,,,0,0.5862068965517241,GW/globe.jpg,GW/gong.jpg,GW/hat.jpg,GW/gong.jpg,GW/globe.jpg,GW/hat.jpg,0.5,closer,,
null,,html-keyboard-response,915259,<p></p>,,,,null,,,,,,,,,,,,,,
1400.5,,directmemory_phase,916661,GW/soldier.jpg,,,,49,,,1,0.6,GW/wheelchair.jpg,GW/gong.jpg,GW/basket.jpg,GW/wheelchair.jpg,GW/basket.jpg,GW/gong.jpg,1,,,
null,,html-keyboard-response,917663,<p></p>,,,,null,,,,,,,,,,,,,,
3073.1999999284744,,directmemory_phase,920738,GW/globe.jpg,,,,50,,,0,0.5806451612903226,GW/basket.jpg,GW/soldier.jpg,GW/gong.jpg,GW/gong.jpg,GW/soldier.jpg,GW/basket.jpg,0.5,closer,,
null,,html-keyboard-response,921740,<p></p>,,,,null,,,,,,,,,,,,,,
1762.8999999761581,,directmemory_phase,923504,GW/barrel.jpg,,,,50,,,0,0.5625,GW/dustpan.jpg,GW/snail.jpg,GW/camera.jpg,GW/camera.jpg,GW/snail.jpg,GW/dustpan.jpg,0.5,closer,,
null,,html-keyboard-response,924513,<p></p>,,,,null,,,,,,,,,,,,,,
11037.200000047684,,intro_1,935552,instruct,,0,,,,,,,,,,,,,,,,
5643.5,,intro_2,941197,instruct,,1,Next,,,,,,,,,,,,,,,
2610.5,,intro_3,943809,instruct,,1,Next,,,,,,,,,,,,,,,
2680.6999999284744,,intro_4,946491,instruct,,1,Next,,,,,,,,,,,,,,,
9255.899999976158,,intro_5,955748,instruct,,1,Next,,,,,,,,,,,,,,,
25232.200000047684,,intro_6,980982,instruct,,1,Next,,,,,,,,,,,,,,,
5935,,intro_7,986918,instruct,,1,Next,,,,,,,,,,,,,,,
8568.200000047684,,intro_8,995488,instruct,,1,Next,,,,,,,,,,,,,,,
1457.2000000476837,,shortestpath_phase,996947,GW/snail.jpg,,,,49,GW/basket.jpg,GW/gong.jpg,0,0,,,,GW/gong.jpg,,,,,Three Edge Diff,Two Edge Five Edge
null,,html-keyboard-response,997951,<p></p>,,,,null,,,,,,,,,,,,,,
1442.7999999523163,,shortestpath_phase,999395,GW/basket.jpg,,,,49,GW/paint.jpg,GW/camera.jpg,0,0,,,,GW/camera.jpg,,,,,One Edge Diff,Five Edge Six Edge
null,,html-keyboard-response,1000398,<p></p>,,,,null,,,,,,,,,,,,,,
1235,,shortestpath_phase,1001634,GW/wheelchair.jpg,,,,50,GW/gong.jpg,GW/barrel.jpg,0,0,,,,GW/gong.jpg,,,,,Two Edge Diff,Four Edge Six Edge
null,,html-keyboard-response,1002636,<p></p>,,,,null,,,,,,,,,,,,,,
1054.6999999284744,,shortestpath_phase,1003692,GW/paint.jpg,,,,49,GW/soldier.jpg,GW/camera.jpg,0,0,,,,GW/camera.jpg,,,,,Two Edge Diff,Two Edge Four Edge
null,,html-keyboard-response,1004694,<p></p>,,,,null,,,,,,,,,,,,,,
1516.1999999284744,,shortestpath_phase,1006212,GW/wheelchair.jpg,,,,50,GW/snail.jpg,GW/dustpan.jpg,1,0.2,,,,GW/dustpan.jpg,,,,,Two Edge Diff,Two Edge Four Edge
null,,html-keyboard-response,1007215,<p></p>,,,,null,,,,,,,,,,,,,,
1353.6000000238419,,shortestpath_phase,1008569,GW/jukebox.jpg,,,,49,GW/barrel.jpg,GW/globe.jpg,0,0.16666666666666666,,,,GW/globe.jpg,,,,,Three Edge Diff,Two Edge Five Edge
null,,html-keyboard-response,1009571,<p></p>,,,,null,,,,,,,,,,,,,,
1097.2999999523163,,shortestpath_phase,1010670,GW/paint.jpg,,,,50,GW/teeth.jpg,GW/basket.jpg,0,0.14285714285714285,,,,GW/teeth.jpg,,,,,Four Edge Diff,Two Edge Six Edge
null,,html-keyboard-response,1011672,<p></p>,,,,null,,,,,,,,,,,,,,
1293,,shortestpath_phase,1012966,GW/snail.jpg,,,,50,GW/globe.jpg,GW/basket.jpg,0,0.125,,,,GW/globe.jpg,,,,,Three Edge Diff,Two Edge Five Edge
null,,html-keyboard-response,1013969,<p></p>,,,,null,,,,,,,,,,,,,,
817.5,,shortestpath_phase,1014787,GW/paint.jpg,,,,49,GW/wheelchair.jpg,GW/camera.jpg,0,0.1111111111111111,,,,GW/camera.jpg,,,,,Three Edge Diff,Three Edge Six Edge
null,,html-keyboard-response,1015789,<p></p>,,,,null,,,,,,,,,,,,,,
1485.1000000238419,,shortestpath_phase,1017275,GW/dustpan.jpg,,,,49,GW/jukebox.jpg,GW/gong.jpg,1,0.2,,,,GW/jukebox.jpg,,,,,One Edge Diff,Two Edge Three Edge
null,,html-keyboard-response,1018277,<p></p>,,,,null,,,,,,,,,,,,,,
1477.2999999523163,,shortestpath_phase,1019756,GW/basket.jpg,,,,49,GW/soldier.jpg,GW/barrel.jpg,1,0.2727272727272727,,,,GW/soldier.jpg,,,,,Four Edge Diff,Two Edge Six Edge
null,,html-keyboard-response,1020757,<p></p>,,,,null,,,,,,,,,,,,,,
895.6000000238419,,shortestpath_phase,1021654,GW/paint.jpg,,,,50,GW/jukebox.jpg,GW/basket.jpg,0,0.25,,,,GW/jukebox.jpg,,,,,One Edge Diff,Five Edge Six Edge
null,,html-keyboard-response,1022657,<p></p>,,,,null,,,,,,,,,,,,,,
1496.6999999284744,,shortestpath_phase,1024155,GW/basket.jpg,,,,50,GW/gong.jpg,GW/snail.jpg,0,0.23076923076923078,,,,GW/gong.jpg,,,,,One Edge Diff,Four Edge Five Edge
null,,html-keyboard-response,1025157,<p></p>,,,,null,,,,,,,,,,,,,,
1223.1000000238419,,shortestpath_phase,1026381,GW/camera.jpg,,,,49,GW/teeth.jpg,GW/basket.jpg,1,0.2857142857142857,,,,GW/teeth.jpg,,,,,Three Edge Diff,Three Edge Six Edge
null,,html-keyboard-response,1027383,<p></p>,,,,null,,,,,,,,,,,,,,
1588.1999999284744,,shortestpath_phase,1028972,GW/wheelchair.jpg,,,,49,GW/barrel.jpg,GW/snail.jpg,0,0.26666666666666666,,,,GW/snail.jpg,,,,,Two Edge Diff,Four Edge Six Edge
null,,html-keyboard-response,1029973,<p></p>,,,,null,,,,,,,,,,,,,,
2284.5999999046326,,shortestpath_phase,1032259,GW/barrel.jpg,,,,50,GW/jukebox.jpg,GW/hat.jpg,1,0.3125,,,,GW/hat.jpg,,,,,One Edge Diff,Four Edge Five Edge
null,,html-keyboard-response,1033261,<p></p>,,,,null,,,,,,,,,,,,,,
813,,shortestpath_phase,1034076,GW/paint.jpg,,,,49,GW/camera.jpg,GW/hat.jpg,1,0.35294117647058826,,,,GW/camera.jpg,,,,,Two Edge Diff,Two Edge Four Edge
null,,html-keyboard-response,1035080,<p></p>,,,,null,,,,,,,,,,,,,,
2333.600000023842,,shortestpath_phase,1037415,GW/basket.jpg,,,,49,GW/hat.jpg,GW/paint.jpg,1,0.3888888888888889,,,,GW/hat.jpg,,,,,Four Edge Diff,Two Edge Six Edge
null,,html-keyboard-response,1038417,<p></p>,,,,null,,,,,,,,,,,,,,
1403.7000000476837,,shortestpath_phase,1039822,GW/barrel.jpg,,,,49,GW/hat.jpg,GW/gong.jpg,0,0.3684210526315789,,,,GW/gong.jpg,,,,,Two Edge Diff,Two Edge Four Edge
null,,html-keyboard-response,1040824,<p></p>,,,,null,,,,,,,,,,,,,,
1428.3999999761581,,shortestpath_phase,1042253,GW/basket.jpg,,,,50,GW/camera.jpg,GW/soldier.jpg,1,0.4,,,,GW/soldier.jpg,,,,,Three Edge Diff,Three Edge Six Edge
null,,html-keyboard-response,1043256,<p></p>,,,,null,,,,,,,,,,,,,,
977.1000000238419,,shortestpath_phase,1044235,GW/barrel.jpg,,,,49,GW/teeth.jpg,GW/gong.jpg,0,0.38095238095238093,,,,GW/gong.jpg,,,,,One Edge Diff,Two Edge Three Edge
null,,html-keyboard-response,1045237,<p></p>,,,,null,,,,,,,,,,,,,,
1448.1000000238419,,shortestpath_phase,1046686,GW/camera.jpg,,,,50,GW/teeth.jpg,GW/dustpan.jpg,0,0.36363636363636365,,,,GW/teeth.jpg,,,,,One Edge Diff,Two Edge Three Edge
null,,html-keyboard-response,1047689,<p></p>,,,,null,,,,,,,,,,,,,,
1393.3999999761581,,shortestpath_phase,1049084,GW/paint.jpg,,,,50,GW/gong.jpg,GW/wheelchair.jpg,0,0.34782608695652173,,,,GW/gong.jpg,,,,,Two Edge Diff,Three Edge Five Edge
null,,html-keyboard-response,1050086,<p></p>,,,,null,,,,,,,,,,,,,,
2546.600000023842,,shortestpath_phase,1052634,GW/basket.jpg,,,,50,GW/teeth.jpg,GW/barrel.jpg,0,0.3333333333333333,,,,GW/teeth.jpg,,,,,Two Edge Diff,Four Edge Six Edge
null,,html-keyboard-response,1053636,<p></p>,,,,null,,,,,,,,,,,,,,
1122.5,,shortestpath_phase,1054759,GW/gong.jpg,,,,50,GW/wheelchair.jpg,GW/dustpan.jpg,1,0.36,,,,GW/dustpan.jpg,,,,,One Edge Diff,Three Edge Four Edge
null,,html-keyboard-response,1055762,<p></p>,,,,null,,,,,,,,,,,,,,
946.8000000715256,,shortestpath_phase,1056711,GW/basket.jpg,,,,49,GW/barrel.jpg,GW/camera.jpg,0,0.34615384615384615,,,,GW/camera.jpg,,,,,One Edge Diff,Five Edge Six Edge
null,,html-keyboard-response,1057713,<p></p>,,,,null,,,,,,,,,,,,,,
1626.2999999523163,,shortestpath_phase,1059340,GW/wheelchair.jpg,,,,50,GW/snail.jpg,GW/camera.jpg,0,0.3333333333333333,,,,GW/snail.jpg,,,,,One Edge Diff,Four Edge Five Edge
null,,html-keyboard-response,1060345,<p></p>,,,,null,,,,,,,,,,,,,,
901.2999999523163,,shortestpath_phase,1061247,GW/camera.jpg,,,,50,GW/teeth.jpg,GW/wheelchair.jpg,0,0.32142857142857145,,,,GW/teeth.jpg,,,,,Three Edge Diff,Two Edge Five Edge
null,,html-keyboard-response,1062250,<p></p>,,,,null,,,,,,,,,,,,,,
2070.600000023842,,shortestpath_phase,1064322,GW/basket.jpg,,,,49,GW/camera.jpg,GW/dustpan.jpg,0,0.3103448275862069,,,,GW/dustpan.jpg,,,,,Two Edge Diff,Three Edge Five Edge
null,,html-keyboard-response,1065323,<p></p>,,,,null,,,,,,,,,,,,,,
1106,,shortestpath_phase,1066431,GW/hat.jpg,,,,50,GW/paint.jpg,GW/camera.jpg,1,0.3333333333333333,,,,GW/camera.jpg,,,,,One Edge Diff,Three Edge Four Edge
null,,html-keyboard-response,1067434,<p></p>,,,,null,,,,,,,,,,,,,,
971.8000000715256,,shortestpath_phase,1068407,GW/basket.jpg,,,,49,GW/paint.jpg,GW/teeth.jpg,0,0.3225806451612903,,,,GW/teeth.jpg,,,,,Two Edge Diff,Four Edge Six Edge
null,,html-keyboard-response,1069410,<p></p>,,,,null,,,,,,,,,,,,,,
1009.3999999761581,,shortestpath_phase,1070420,GW/camera.jpg,,,,50,GW/basket.jpg,GW/hat.jpg,1,0.34375,,,,GW/hat.jpg,,,,,Two Edge Diff,Three Edge Five Edge
null,,html-keyboard-response,1071423,<p></p>,,,,null,,,,,,,,,,,,,,
1559.7000000476837,,shortestpath_phase,1072984,GW/barrel.jpg,,,,50,GW/dustpan.jpg,GW/wheelchair.jpg,0,0.3333333333333333,,,,GW/dustpan.jpg,,,,,Two Edge Diff,Four Edge Six Edge
null,,html-keyboard-response,1073987,<p></p>,,,,null,,,,,,,,,,,,,,
1944.2999999523163,,shortestpath_phase,1075933,GW/gong.jpg,,,,50,GW/basket.jpg,GW/hat.jpg,1,0.35294117647058826,,,,GW/hat.jpg,,,,,Two Edge Diff,Two Edge Four Edge
null,,html-keyboard-response,1076934,<p></p>,,,,null,,,,,,,,,,,,,,
1236,,shortestpath_phase,1078172,GW/camera.jpg,,,,49,GW/wheelchair.jpg,GW/globe.jpg,0,0.34285714285714286,,,,GW/globe.jpg,,,,,Three Edge Diff,Two Edge Five Edge
null,,html-keyboard-response,1079174,<p></p>,,,,null,,,,,,,,,,,,,,
1502.3999999761581,,shortestpath_phase,1080677,GW/wheelchair.jpg,,,,49,GW/barrel.jpg,GW/paint.jpg,0,0.3333333333333333,,,,GW/paint.jpg,,,,,One Edge Diff,Five Edge Six Edge
null,,html-keyboard-response,1081679,<p></p>,,,,null,,,,,,,,,,,,,,
1226.5,,shortestpath_phase,1082907,GW/soldier.jpg,,,,49,GW/barrel.jpg,GW/globe.jpg,0,0.32432432432432434,,,,GW/globe.jpg,,,,,Three Edge Diff,Three Edge Six Edge
null,,html-keyboard-response,1083910,<p></p>,,,,null,,,,,,,,,,,,,,
1704.7000000476837,,shortestpath_phase,1085616,GW/jukebox.jpg,,,,49,GW/camera.jpg,GW/barrel.jpg,1,0.34210526315789475,,,,GW/camera.jpg,,,,,One Edge Diff,Four Edge Five Edge
null,,html-keyboard-response,1086618,<p></p>,,,,null,,,,,,,,,,,,,,
1568.7000000476837,,shortestpath_phase,1088188,GW/paint.jpg,,,,50,GW/globe.jpg,GW/teeth.jpg,1,0.358974358974359,,,,GW/teeth.jpg,,,,,One Edge Diff,Two Edge Three Edge
null,,html-keyboard-response,1089190,<p></p>,,,,null,,,,,,,,,,,,,,
874.9000000953674,,shortestpath_phase,1090066,GW/camera.jpg,,,,49,GW/jukebox.jpg,GW/hat.jpg,0,0.35,,,,GW/hat.jpg,,,,,One Edge Diff,Three Edge Four Edge
null,,html-keyboard-response,1091068,<p></p>,,,,null,,,,,,,,,,,,,,
945.8999999761581,,shortestpath_phase,1092015,GW/wheelchair.jpg,,,,50,GW/globe.jpg,GW/snail.jpg,0,0.34146341463414637,,,,GW/globe.jpg,,,,,One Edge Diff,Three Edge Four Edge
null,,html-keyboard-response,1093017,<p></p>,,,,null,,,,,,,,,,,,,,
976.7999999523163,,shortestpath_phase,1093995,GW/jukebox.jpg,,,,49,GW/teeth.jpg,GW/barrel.jpg,1,0.35714285714285715,,,,GW/teeth.jpg,,,,,Two Edge Diff,Three Edge Five Edge
null,,html-keyboard-response,1094997,<p></p>,,,,null,,,,,,,,,,,,,,
1478.7000000476837,,shortestpath_phase,1096477,GW/barrel.jpg,,,,50,GW/gong.jpg,GW/basket.jpg,0,0.3488372093023256,,,,GW/gong.jpg,,,,,Four Edge Diff,Two Edge Six Edge
null,,html-keyboard-response,1097480,<p></p>,,,,null,,,,,,,,,,,,,,
1777.1999999284744,,shortestpath_phase,1099258,GW/globe.jpg,,,,50,GW/soldier.jpg,GW/barrel.jpg,0,0.3409090909090909,,,,GW/soldier.jpg,,,,,One Edge Diff,Two Edge Three Edge
null,,html-keyboard-response,1100260,<p></p>,,,,null,,,,,,,,,,,,,,
745,,shortestpath_phase,1101007,GW/barrel.jpg,,,,50,GW/wheelchair.jpg,GW/hat.jpg,1,0.35555555555555557,,,,GW/hat.jpg,,,,,Two Edge Diff,Four Edge Six Edge
null,,html-keyboard-response,1102010,<p></p>,,,,null,,,,,,,,,,,,,,
1148.1999999284744,,shortestpath_phase,1103159,GW/basket.jpg,,,,49,GW/barrel.jpg,GW/gong.jpg,0,0.34782608695652173,,,,GW/gong.jpg,,,,,Two Edge Diff,Four Edge Six Edge
null,,html-keyboard-response,1104162,<p></p>,,,,null,,,,,,,,,,,,,,
678.1999999284744,,shortestpath_phase,1104841,GW/barrel.jpg,,,,49,GW/basket.jpg,GW/jukebox.jpg,0,0.3404255319148936,,,,GW/jukebox.jpg,,,,,One Edge Diff,Five Edge Six Edge
null,,html-keyboard-response,1105844,<p></p>,,,,null,,,,,,,,,,,,,,
1440.6000000238419,,shortestpath_phase,1107287,GW/paint.jpg,,,,50,GW/jukebox.jpg,GW/hat.jpg,1,0.3541666666666667,,,,GW/hat.jpg,,,,,One Edge Diff,Four Edge Five Edge
null,,html-keyboard-response,1108289,<p></p>,,,,null,,,,,,,,,,,,,,
1647.6000000238419,,shortestpath_phase,1109941,GW/jukebox.jpg,,,,49,GW/paint.jpg,GW/gong.jpg,0,0.3469387755102041,,,,GW/gong.jpg,,,,,Two Edge Diff,Three Edge Five Edge
null,,html-keyboard-response,1110942,<p></p>,,,,null,,,,,,,,,,,,,,
1466.6999999284744,,shortestpath_phase,1112410,GW/barrel.jpg,,,,50,GW/jukebox.jpg,GW/paint.jpg,1,0.36,,,,GW/paint.jpg,,,,,Two Edge Diff,Three Edge Five Edge
null,,html-keyboard-response,1113412,<p></p>,,,,null,,,,,,,,,,,,,,
1495.5,,shortestpath_phase,1114909,GW/basket.jpg,,,,50,GW/barrel.jpg,GW/snail.jpg,1,0.37254901960784315,,,,GW/snail.jpg,,,,,One Edge Diff,Five Edge Six Edge
null,,html-keyboard-response,1115911,<p></p>,,,,null,,,,,,,,,,,,,,
1037.8999999761581,,shortestpath_phase,1116950,GW/paint.jpg,,,,49,GW/dustpan.jpg,GW/soldier.jpg,1,0.38461538461538464,,,,GW/dustpan.jpg,,,,,One Edge Diff,Three Edge Four Edge
null,,html-keyboard-response,1117952,<p></p>,,,,null,,,,,,,,,,,,,,
1025,,shortestpath_phase,1118978,GW/barrel.jpg,,,,49,GW/snail.jpg,GW/soldier.jpg,1,0.39622641509433965,,,,GW/snail.jpg,,,,,Three Edge Diff,Three Edge Six Edge
null,,html-keyboard-response,1119980,<p></p>,,,,null,,,,,,,,,,,,,,
2027.5,,shortestpath_phase,1122008,GW/basket.jpg,,,,50,GW/gong.jpg,GW/globe.jpg,1,0.4074074074074074,,,,GW/globe.jpg,,,,,One Edge Diff,Three Edge Four Edge
null,,html-keyboard-response,1123010,<p></p>,,,,null,,,,,,,,,,,,,,
1405.5999999046326,,shortestpath_phase,1124416,GW/wheelchair.jpg,,,,50,GW/hat.jpg,GW/camera.jpg,0,0.4,,,,GW/hat.jpg,,,,,Three Edge Diff,Three Edge Six Edge
null,,html-keyboard-response,1125418,<p></p>,,,,null,,,,,,,,,,,,,,
1665.5,,shortestpath_phase,1127085,GW/camera.jpg,,,,50,GW/globe.jpg,GW/jukebox.jpg,0,0.39285714285714285,,,,GW/globe.jpg,,,,,Two Edge Diff,Two Edge Four Edge
null,,html-keyboard-response,1128087,<p></p>,,,,null,,,,,,,,,,,,,,
845.6999999284744,,shortestpath_phase,1128934,GW/jukebox.jpg,,,,49,GW/barrel.jpg,GW/wheelchair.jpg,0,0.38596491228070173,,,,GW/wheelchair.jpg,,,,,Three Edge Diff,Three Edge Six Edge
null,,html-keyboard-response,1129935,<p></p>,,,,null,,,,,,,,,,,,,,
860.2000000476837,,shortestpath_phase,1130797,GW/barrel.jpg,,,,49,GW/paint.jpg,GW/snail.jpg,0,0.3793103448275862,,,,GW/snail.jpg,,,,,One Edge Diff,Two Edge Three Edge
null,,html-keyboard-response,1131799,<p></p>,,,,null,,,,,,,,,,,,,,
686.1000000238419,,shortestpath_phase,1132486,GW/jukebox.jpg,,,,49,GW/paint.jpg,GW/wheelchair.jpg,0,0.3728813559322034,,,,GW/wheelchair.jpg,,,,,Three Edge Diff,Three Edge Six Edge
null,,html-keyboard-response,1133488,<p></p>,,,,null,,,,,,,,,,,,,,
1166.5,,shortestpath_phase,1134657,GW/basket.jpg,,,,50,GW/gong.jpg,GW/hat.jpg,1,0.38333333333333336,,,,GW/hat.jpg,,,,,Two Edge Diff,Two Edge Four Edge
null,,html-keyboard-response,1135659,<p></p>,,,,null,,,,,,,,,,,,,,
896.7999999523163,,shortestpath_phase,1136557,GW/wheelchair.jpg,,,,49,GW/camera.jpg,GW/barrel.jpg,1,0.39344262295081966,,,,GW/camera.jpg,,,,,One Edge Diff,Five Edge Six Edge
null,,html-keyboard-response,1137560,<p></p>,,,,null,,,,,,,,,,,,,,
1532.1000000238419,,shortestpath_phase,1139093,GW/jukebox.jpg,,,,49,GW/camera.jpg,GW/gong.jpg,0,0.3870967741935484,,,,GW/gong.jpg,,,,,One Edge Diff,Three Edge Four Edge
null,,html-keyboard-response,1140096,<p></p>,,,,null,,,,,,,,,,,,,,
1278.8999999761581,,shortestpath_phase,1141376,GW/barrel.jpg,,,,49,GW/dustpan.jpg,GW/basket.jpg,1,0.3968253968253968,,,,GW/dustpan.jpg,,,,,Two Edge Diff,Four Edge Six Edge
null,,html-keyboard-response,1142379,<p></p>,,,,null,,,,,,,,,,,,,,
1034.2000000476837,,shortestpath_phase,1143414,GW/wheelchair.jpg,,,,49,GW/camera.jpg,GW/jukebox.jpg,0,0.390625,,,,GW/jukebox.jpg,,,,,Three Edge Diff,Two Edge Five Edge
null,,html-keyboard-response,1144417,<p></p>,,,,null,,,,,,,,,,,,,,
635.3999999761581,,shortestpath_phase,1145053,GW/paint.jpg,,,,49,GW/dustpan.jpg,GW/wheelchair.jpg,1,0.4,,,,GW/dustpan.jpg,,,,,Two Edge Diff,Three Edge Five Edge
null,,html-keyboard-response,1146057,<p></p>,,,,null,,,,,,,,,,,,,,
765,,shortestpath_phase,1146824,GW/wheelchair.jpg,,,,49,GW/paint.jpg,GW/hat.jpg,0,0.3939393939393939,,,,GW/hat.jpg,,,,,Three Edge Diff,Two Edge Five Edge
null,,html-keyboard-response,1147827,<p></p>,,,,null,,,,,,,,,,,,,,
1413.2000000476837,,shortestpath_phase,1149241,GW/paint.jpg,,,,50,GW/wheelchair.jpg,GW/soldier.jpg,1,0.40298507462686567,,,,GW/soldier.jpg,,,,,One Edge Diff,Four Edge Five Edge
null,,html-keyboard-response,1150244,<p></p>,,,,null,,,,,,,,,,,,,,
672.1999999284744,,shortestpath_phase,1150917,GW/snail.jpg,,,,49,GW/wheelchair.jpg,GW/basket.jpg,1,0.4117647058823529,,,,GW/wheelchair.jpg,,,,,One Edge Diff,Four Edge Five Edge
null,,html-keyboard-response,1151920,<p></p>,,,,null,,,,,,,,,,,,,,
1255,,shortestpath_phase,1153177,GW/basket.jpg,,,,50,GW/gong.jpg,GW/paint.jpg,0,0.4057971014492754,,,,GW/gong.jpg,,,,,Two Edge Diff,Four Edge Six Edge
null,,html-keyboard-response,1154179,<p></p>,,,,null,,,,,,,,,,,,,,
1867.5,,shortestpath_phase,1156048,GW/snail.jpg,,,,49,GW/barrel.jpg,GW/basket.jpg,1,0.4142857142857143,,,,GW/barrel.jpg,,,,,Three Edge Diff,Three Edge Six Edge
null,,html-keyboard-response,1157050,<p></p>,,,,null,,,,,,,,,,,,,,
1267.4000000953674,,shortestpath_phase,1158319,GW/camera.jpg,,,,50,GW/paint.jpg,GW/jukebox.jpg,0,0.4084507042253521,,,,GW/paint.jpg,,,,,Two Edge Diff,Two Edge Four Edge
null,,html-keyboard-response,1159323,<p></p>,,,,null,,,,,,,,,,,,,,
655.3000000715256,,shortestpath_phase,1159980,GW/barrel.jpg,,,,49,GW/wheelchair.jpg,GW/gong.jpg,0,0.4027777777777778,,,,GW/gong.jpg,,,,,Four Edge Diff,Two Edge Six Edge
null,,html-keyboard-response,1160981,<p></p>,,,,null,,,,,,,,,,,,,,
1513.0999999046326,,shortestpath_phase,1162495,GW/basket.jpg,,,,50,GW/soldier.jpg,GW/paint.jpg,0,0.3972602739726027,,,,GW/soldier.jpg,,,,,Four Edge Diff,Two Edge Six Edge
null,,html-keyboard-response,1163499,<p></p>,,,,null,,,,,,,,,,,,,,
2497.399999976158,,shortestpath_phase,1165998,GW/barrel.jpg,,,,49,GW/jukebox.jpg,GW/snail.jpg,0,0.3918918918918919,,,,GW/snail.jpg,,,,,Three Edge Diff,Two Edge Five Edge
null,,html-keyboard-response,1167001,<p></p>,,,,null,,,,,,,,,,,,,,
1361.7000000476837,,shortestpath_phase,1168364,GW/basket.jpg,,,,49,GW/camera.jpg,GW/teeth.jpg,0,0.38666666666666666,,,,GW/teeth.jpg,,,,,One Edge Diff,Four Edge Five Edge
null,,html-keyboard-response,1169366,<p></p>,,,,null,,,,,,,,,,,,,,
1430,,shortestpath_phase,1170797,GW/dustpan.jpg,,,,50,GW/barrel.jpg,GW/snail.jpg,1,0.39473684210526316,,,,GW/snail.jpg,,,,,Two Edge Diff,Two Edge Four Edge
null,,html-keyboard-response,1171799,<p></p>,,,,null,,,,,,,,,,,,,,
1531,,shortestpath_phase,1173331,GW/jukebox.jpg,,,,49,GW/teeth.jpg,GW/paint.jpg,1,0.4025974025974026,,,,GW/teeth.jpg,,,,,Two Edge Diff,Three Edge Five Edge
null,,html-keyboard-response,1174333,<p></p>,,,,null,,,,,,,,,,,,,,
2007.8999999761581,,shortestpath_phase,1176343,GW/soldier.jpg,,,,50,GW/snail.jpg,GW/barrel.jpg,0,0.3974358974358974,,,,GW/snail.jpg,,,,,Two Edge Diff,Three Edge Five Edge
null,,html-keyboard-response,1177345,<p></p>,,,,null,,,,,,,,,,,,,,
869.1999999284744,,shortestpath_phase,1178215,GW/paint.jpg,,,,49,GW/hat.jpg,GW/basket.jpg,1,0.4050632911392405,,,,GW/hat.jpg,,,,,Two Edge Diff,Four Edge Six Edge
null,,html-keyboard-response,1179218,<p></p>,,,,null,,,,,,,,,,,,,,
1129.3000000715256,,shortestpath_phase,1180349,GW/barrel.jpg,,,,50,GW/soldier.jpg,GW/basket.jpg,0,0.4,,,,GW/soldier.jpg,,,,,One Edge Diff,Five Edge Six Edge
null,,html-keyboard-response,1181351,<p></p>,,,,null,,,,,,,,,,,,,,
865.9000000953674,,shortestpath_phase,1182218,GW/paint.jpg,,,,50,GW/camera.jpg,GW/basket.jpg,0,0.3950617283950617,,,,GW/camera.jpg,,,,,Four Edge Diff,Two Edge Six Edge
null,,html-keyboard-response,1183222,<p></p>,,,,null,,,,,,,,,,,,,,
694.2000000476837,,shortestpath_phase,1183917,GW/jukebox.jpg,,,,49,GW/gong.jpg,GW/wheelchair.jpg,0,0.3902439024390244,,,,GW/wheelchair.jpg,,,,,One Edge Diff,Two Edge Three Edge
null,,html-keyboard-response,1184921,<p></p>,,,,null,,,,,,,,,,,,,,
1050.5,,shortestpath_phase,1185972,GW/paint.jpg,,,,50,GW/dustpan.jpg,GW/hat.jpg,0,0.3855421686746988,,,,GW/dustpan.jpg,,,,,One Edge Diff,Three Edge Four Edge
null,,html-keyboard-response,1186974,<p></p>,,,,null,,,,,,,,,,,,,,
819.2000000476837,,shortestpath_phase,1187795,GW/barrel.jpg,,,,50,GW/wheelchair.jpg,GW/soldier.jpg,1,0.39285714285714285,,,,GW/soldier.jpg,,,,,One Edge Diff,Five Edge Six Edge
null,,html-keyboard-response,1188796,<p></p>,,,,null,,,,,,,,,,,,,,
1158.1000000238419,,shortestpath_phase,1189956,GW/dustpan.jpg,,,,50,GW/basket.jpg,GW/globe.jpg,1,0.4,,,,GW/globe.jpg,,,,,One Edge Diff,Two Edge Three Edge
null,,html-keyboard-response,1190958,<p></p>,,,,null,,,,,,,,,,,,,,
2496.2000000476837,,shortestpath_phase,1193455,GW/paint.jpg,,,,49,GW/basket.jpg,GW/soldier.jpg,0,0.3953488372093023,,,,GW/soldier.jpg,,,,,Two Edge Diff,Four Edge Six Edge
null,,html-keyboard-response,1194457,<p></p>,,,,null,,,,,,,,,,,,,,
728,,shortestpath_phase,1195187,GW/barrel.jpg,,,,49,GW/hat.jpg,GW/basket.jpg,1,0.40229885057471265,,,,GW/hat.jpg,,,,,Two Edge Diff,Four Edge Six Edge
null,,html-keyboard-response,1196189,<p></p>,,,,null,,,,,,,,,,,,,,
1169.5,,shortestpath_phase,1197360,GW/wheelchair.jpg,,,,50,GW/jukebox.jpg,GW/teeth.jpg,0,0.3977272727272727,,,,GW/jukebox.jpg,,,,,One Edge Diff,Two Edge Three Edge
null,,html-keyboard-response,1198363,<p></p>,,,,null,,,,,,,,,,,,,,
973.1000000238419,,shortestpath_phase,1199337,GW/barrel.jpg,,,,49,GW/hat.jpg,GW/globe.jpg,0,0.39325842696629215,,,,GW/globe.jpg,,,,,One Edge Diff,Three Edge Four Edge
null,,html-keyboard-response,1200340,<p></p>,,,,null,,,,,,,,,,,,,,
911.8999999761581,,shortestpath_phase,1201253,GW/paint.jpg,,,,49,GW/basket.jpg,GW/wheelchair.jpg,0,0.3888888888888889,,,,GW/wheelchair.jpg,,,,,One Edge Diff,Five Edge Six Edge
null,,html-keyboard-response,1202255,<p></p>,,,,null,,,,,,,,,,,,,,
1294.1999999284744,,shortestpath_phase,1203551,GW/gong.jpg,,,,50,GW/teeth.jpg,GW/dustpan.jpg,0,0.38461538461538464,,,,GW/teeth.jpg,,,,,One Edge Diff,Two Edge Three Edge
null,,html-keyboard-response,1204554,<p></p>,,,,null,,,,,,,,,,,,,,
1499.7999999523163,,shortestpath_phase,1206056,GW/paint.jpg,,,,49,GW/jukebox.jpg,GW/barrel.jpg,0,0.3804347826086957,,,,GW/barrel.jpg,,,,,Two Edge Diff,Three Edge Five Edge
null,,html-keyboard-response,1207057,<p></p>,,,,null,,,,,,,,,,,,,,
850.8000000715256,,shortestpath_phase,1207910,GW/wheelchair.jpg,,,,49,GW/barrel.jpg,GW/hat.jpg,0,0.3763440860215054,,,,GW/hat.jpg,,,,,Four Edge Diff,Two Edge Six Edge
null,,html-keyboard-response,1208912,<p></p>,,,,null,,,,,,,,,,,,,,
1192,,shortestpath_phase,1210105,GW/paint.jpg,,,,49,GW/soldier.jpg,GW/globe.jpg,0,0.3723404255319149,,,,GW/globe.jpg,,,,,One Edge Diff,Three Edge Four Edge
null,,html-keyboard-response,1211107,<p></p>,,,,null,,,,,,,,,,,,,,
772.8999999761581,,shortestpath_phase,1211882,GW/basket.jpg,,,,49,GW/paint.jpg,GW/snail.jpg,0,0.3684210526315789,,,,GW/snail.jpg,,,,,One Edge Diff,Five Edge Six Edge
null,,html-keyboard-response,1212884,<p></p>,,,,null,,,,,,,,,,,,,,
1252.3999999761581,,shortestpath_phase,1214138,GW/teeth.jpg,,,,50,GW/soldier.jpg,GW/basket.jpg,0,0.3645833333333333,,,,GW/soldier.jpg,,,,,Two Edge Diff,Two Edge Four Edge
null,,html-keyboard-response,1215141,<p></p>,,,,null,,,,,,,,,,,,,,
857.6000000238419,,shortestpath_phase,1216000,GW/snail.jpg,,,,49,GW/basket.jpg,GW/globe.jpg,0,0.36082474226804123,,,,GW/globe.jpg,,,,,Three Edge Diff,Three Edge Six Edge
null,,html-keyboard-response,1217005,<p></p>,,,,null,,,,,,,,,,,,,,
1370.3000000715256,,shortestpath_phase,1218376,GW/jukebox.jpg,,,,50,GW/wheelchair.jpg,GW/camera.jpg,0,0.35714285714285715,,,,GW/wheelchair.jpg,,,,,Two Edge Diff,Two Edge Four Edge
null,,html-keyboard-response,1219379,<p></p>,,,,null,,,,,,,,,,,,,,
900.8999999761581,,shortestpath_phase,1220281,GW/barrel.jpg,,,,49,GW/snail.jpg,GW/wheelchair.jpg,1,0.36363636363636365,,,,GW/snail.jpg,,,,,Four Edge Diff,Two Edge Six Edge
null,,html-keyboard-response,1221283,<p></p>,,,,null,,,,,,,,,,,,,,
629.5999999046326,,shortestpath_phase,1221916,GW/wheelchair.jpg,,,,49,GW/barrel.jpg,GW/jukebox.jpg,0,0.36,,,,GW/jukebox.jpg,,,,,Four Edge Diff,Two Edge Six Edge
null,,html-keyboard-response,1222919,<p></p>,,,,null,,,,,,,,,,,,,,
1687.6999999284744,,shortestpath_phase,1224608,GW/hat.jpg,,,,49,GW/basket.jpg,GW/camera.jpg,1,0.36633663366336633,,,,GW/basket.jpg,,,,,One Edge Diff,Two Edge Three Edge
null,,html-keyboard-response,1225610,<p></p>,,,,null,,,,,,,,,,,,,,
774.6999999284744,,shortestpath_phase,1226386,GW/wheelchair.jpg,,,,49,GW/camera.jpg,GW/dustpan.jpg,0,0.3627450980392157,,,,GW/dustpan.jpg,,,,,Three Edge Diff,Two Edge Five Edge
null,,html-keyboard-response,1227390,<p></p>,,,,null,,,,,,,,,,,,,,
924.6000000238419,,shortestpath_phase,1228316,GW/paint.jpg,,,,50,GW/teeth.jpg,GW/soldier.jpg,0,0.3592233009708738,,,,GW/teeth.jpg,,,,,Two Edge Diff,Two Edge Four Edge
null,,html-keyboard-response,1229318,<p></p>,,,,null,,,,,,,,,,,,,,
1701.8999999761581,,shortestpath_phase,1231021,GW/camera.jpg,,,,49,GW/globe.jpg,GW/basket.jpg,1,0.36538461538461536,,,,GW/globe.jpg,,,,,Three Edge Diff,Three Edge Six Edge
null,,html-keyboard-response,1232022,<p></p>,,,,null,,,,,,,,,,,,,,
760.1000000238419,,shortestpath_phase,1232783,GW/basket.jpg,,,,49,GW/hat.jpg,GW/barrel.jpg,1,0.37142857142857144,,,,GW/hat.jpg,,,,,Four Edge Diff,Two Edge Six Edge
null,,html-keyboard-response,1233786,<p></p>,,,,null,,,,,,,,,,,,,,
1421.3000000715256,,shortestpath_phase,1235208,GW/wheelchair.jpg,,,,49,GW/dustpan.jpg,GW/globe.jpg,1,0.37735849056603776,,,,GW/dustpan.jpg,,,,,One Edge Diff,Two Edge Three Edge
null,,html-keyboard-response,1236210,<p></p>,,,,null,,,,,,,,,,,,,,
1466.7999999523163,,shortestpath_phase,1237678,GW/barrel.jpg,,,,50,GW/soldier.jpg,GW/paint.jpg,1,0.38317757009345793,,,,GW/paint.jpg,,,,,Two Edge Diff,Three Edge Five Edge
null,,html-keyboard-response,1238681,<p></p>,,,,null,,,,,,,,,,,,,,
1567.9000000953674,,shortestpath_phase,1240250,GW/wheelchair.jpg,,,,50,GW/gong.jpg,GW/paint.jpg,0,0.37962962962962965,,,,GW/gong.jpg,,,,,One Edge Diff,Four Edge Five Edge
null,,html-keyboard-response,1241252,<p></p>,,,,null,,,,,,,,,,,,,,
1362,,shortestpath_phase,1242615,GW/barrel.jpg,,,,50,GW/basket.jpg,GW/snail.jpg,1,0.3853211009174312,,,,GW/snail.jpg,,,,,Four Edge Diff,Two Edge Six Edge
null,,html-keyboard-response,1243618,<p></p>,,,,null,,,,,,,,,,,,,,
927.1000000238419,,shortestpath_phase,1244546,GW/wheelchair.jpg,,,,50,GW/dustpan.jpg,GW/barrel.jpg,0,0.38181818181818183,,,,GW/dustpan.jpg,,,,,Four Edge Diff,Two Edge Six Edge
null,,html-keyboard-response,1245548,<p></p>,,,,null,,,,,,,,,,,,,,
904.3000000715256,,shortestpath_phase,1246453,GW/basket.jpg,,,,49,GW/globe.jpg,GW/camera.jpg,1,0.38738738738738737,,,,GW/globe.jpg,,,,,Two Edge Diff,Three Edge Five Edge
null,,html-keyboard-response,1247455,<p></p>,,,,null,,,,,,,,,,,,,,
1678,,shortestpath_phase,1249135,GW/wheelchair.jpg,,,,49,GW/camera.jpg,GW/hat.jpg,0,0.38392857142857145,,,,GW/hat.jpg,,,,,Three Edge Diff,Two Edge Five Edge
null,,html-keyboard-response,1250137,<p></p>,,,,null,,,,,,,,,,,,,,
1326.7999999523163,,shortestpath_phase,1251466,GW/jukebox.jpg,,,,49,GW/paint.jpg,GW/globe.jpg,0,0.3805309734513274,,,,GW/globe.jpg,,,,,Three Edge Diff,Two Edge Five Edge
null,,html-keyboard-response,1252468,<p></p>,,,,null,,,,,,,,,,,,,,
1105.6000000238419,,shortestpath_phase,1253575,GW/camera.jpg,,,,50,GW/teeth.jpg,GW/wheelchair.jpg,0,0.37719298245614036,,,,GW/teeth.jpg,,,,,Three Edge Diff,Three Edge Six Edge
null,,html-keyboard-response,1254577,<p></p>,,,,null,,,,,,,,,,,,,,
881.5999999046326,,shortestpath_phase,1255460,GW/barrel.jpg,,,,49,GW/wheelchair.jpg,GW/jukebox.jpg,0,0.3739130434782609,,,,GW/jukebox.jpg,,,,,One Edge Diff,Five Edge Six Edge
null,,html-keyboard-response,1256462,<p></p>,,,,null,,,,,,,,,,,,,,
1359.0999999046326,,shortestpath_phase,1257822,GW/camera.jpg,,,,50,GW/wheelchair.jpg,GW/soldier.jpg,1,0.3793103448275862,,,,GW/soldier.jpg,,,,,One Edge Diff,Four Edge Five Edge
null,,html-keyboard-response,1258824,<p></p>,,,,null,,,,,,,,,,,,,,
1086.6000000238419,,shortestpath_phase,1259912,GW/snail.jpg,,,,49,GW/dustpan.jpg,GW/basket.jpg,1,0.38461538461538464,,,,GW/dustpan.jpg,,,,,Three Edge Diff,Two Edge Five Edge
null,,html-keyboard-response,1260914,<p></p>,,,,null,,,,,,,,,,,,,,
1005.6000000238419,,shortestpath_phase,1261922,GW/paint.jpg,,,,49,GW/gong.jpg,GW/hat.jpg,1,0.3898305084745763,,,,GW/gong.jpg,,,,,One Edge Diff,Three Edge Four Edge
null,,html-keyboard-response,1262925,<p></p>,,,,null,,,,,,,,,,,,,,
881.4000000953674,,shortestpath_phase,1263808,GW/wheelchair.jpg,,,,50,GW/paint.jpg,GW/snail.jpg,1,0.3949579831932773,,,,GW/snail.jpg,,,,,One Edge Diff,Four Edge Five Edge
null,,html-keyboard-response,1264810,<p></p>,,,,null,,,,,,,,,,,,,,
1082.8000000715256,,shortestpath_phase,1265894,GW/paint.jpg,,,,49,GW/hat.jpg,GW/barrel.jpg,0,0.39166666666666666,,,,GW/barrel.jpg,,,,,One Edge Diff,Three Edge Four Edge
null,,html-keyboard-response,1266896,<p></p>,,,,null,,,,,,,,,,,,,,
1579.6999999284744,,shortestpath_phase,1268477,GW/camera.jpg,,,,50,GW/soldier.jpg,GW/basket.jpg,0,0.3884297520661157,,,,GW/soldier.jpg,,,,,One Edge Diff,Four Edge Five Edge
null,,html-keyboard-response,1269479,<p></p>,,,,null,,,,,,,,,,,,,,
17219.900000095367,,intro_1,1286700,instruct,,0,,,,,,,,,,,,,,,,
23870.799999952316,,intro_2,1310572,instruct,,1,Next,,,,,,,,,,,,,,,
10509.100000023842,,intro_3,1321083,instruct,,1,Next,,,,,,,,,,,,,,,
