rt,responses,trial_type,time_elapsed,stimulus,graphorder,button_pressed,response,key_press,stimulus_left,stimulus_right,accuracy,cumulative_accuracy,stimulus_down_left,stimulus_down_mid,stimulus_down_right,stimulus_correct,stimulus_short,stimulus_far,weighted_accuracy,missedtrial,condition,specific_pairs
16592.899999976158,{worker_id:65958f57929aaa555306baf9},id_enter,16595,id_enter,GW/teeth.jpg; GW/gong.jpg; GW/globe.jpg; GW/barrel.jpg; GW/paint.jpg; GW/jukebox.jpg; GW/dustpan.jpg; GW/hat.jpg; GW/basket.jpg; GW/wheelchair.jpg; GW/soldier.jpg; GW/camera.jpg; GW/snail.jpg,,,,,,,,,,,,,,,,,
42732.10000002384,,fullscreen,59332,fullscreen,,0,,,,,,,,,,,,,,,,
54407,,intro_1,113742,instruct,,0,,,,,,,,,,,,,,,,
5640.300000011921,,intro_2,119384,instruct,,1,Next,,,,,,,,,,,,,,,
96131.69999998808,,intro_3,215519,instruct,,1,Next,,,,,,,,,,,,,,,
null,,learn_prac_1,217521,lean_prac_1,,,,null,,,,,,,,,,,,,,
null,,html-keyboard-response,218524,<p></p>,,,,null,,,,,,,,,,,,,,
6489,,intro_1,225014,instruct,,0,,,,,,,,,,,,,,,,
4276.600000023842,,intro_2,229292,instruct,,1,Next,,,,,,,,,,,,,,,
null,,learn_prac_2,231295,lean_prac_2,,,,null,,,,,,,,,,,,,,
null,,html-keyboard-response,232298,<p></p>,,,,null,,,,,,,,,,,,,,
1217.6000000238419,,intro_1,233516,instruct,,0,,,,,,,,,,,,,,,,
2474.5,,intro_2,235992,instruct,,1,Next,,,,,,,,,,,,,,,
132631.59999996424,,intro_3,368628,instruct,,1,Next,,,,,,,,,,,,,,,
null,,prac_atten_color_black,369457,black_plus_sign,,,,null,,,,,,,,,,,,,,
null,,prac_atten_color,370034,prac_stop_color,,,,null,,,,,,,,,,,,,,
70.10000002384186,,prac_atten_color_black,372036,black_plus_sign,,,,49,,,,,,,,,,,,,,
null,,prac_atten_color_black,372866,black_plus_sign,,,,null,,,,,,,,,,,,,,
null,,prac_atten_color,373284,prac_stop_color,,,,null,,,,,,,,,,,,,,
95.60000002384186,,prac_atten_color_black,375287,black_plus_sign,,,,50,,,,,,,,,,,,,,
null,,prac_atten_color_black,376274,black_plus_sign,,,,null,,,,,,,,,,,,,,
499.2000000476837,,prac_atten_color,376827,prac_stop_color,,,,50,,,,,,,,,,,,,,
null,,prac_atten_color_black,378830,black_plus_sign,,,,null,,,,,,,,,,,,,,
null,,prac_atten_color_black,379681,black_plus_sign,,,,null,,,,,,,,,,,,,,
null,,prac_atten_color,380500,prac_stop_color,,,,null,,,,,,,,,,,,,,
224.9000000357628,,prac_atten_color_black,382503,black_plus_sign,,,,49,,,,,,,,,,,,,,
null,,prac_atten_color_black,383089,black_plus_sign,,,,null,,,,,,,,,,,,,,
586.5999999642372,,prac_atten_color,383780,prac_stop_color,,,,50,,,,,,,,,,,,,,
null,,prac_atten_color_black,385782,black_plus_sign,,,,null,,,,,,,,,,,,,,
null,,prac_atten_color_black,386497,black_plus_sign,,,,null,,,,,,,,,,,,,,
null,,prac_atten_color,386994,prac_stop_color,,,,null,,,,,,,,,,,,,,
86,,prac_atten_color_black,388997,black_plus_sign,,,,50,,,,,,,,,,,,,,
null,,prac_atten_color_black,389904,black_plus_sign,,,,null,,,,,,,,,,,,,,
774.1999999880791,,prac_atten_color,390750,prac_stop_color,,,,49,,,,,,,,,,,,,,
null,,prac_atten_color_black,392753,black_plus_sign,,,,null,,,,,,,,,,,,,,
null,,prac_atten_color_black,393312,black_plus_sign,,,,null,,,,,,,,,,,,,,
null,,prac_atten_color,394003,prac_stop_color,,,,null,,,,,,,,,,,,,,
240.0999999642372,,prac_atten_color_black,396005,black_plus_sign,,,,49,,,,,,,,,,,,,,
16919.899999976158,,attentioncheck_help,412927,instruct,,,,32,,,,,,,,,,,,,,
null,,prac_atten_color_black,413640,black_plus_sign,,,,null,,,,,,,,,,,,,,
null,,prac_atten_color,414368,prac_stop_color,,,,null,,,,,,,,,,,,,,
243.80000001192093,,prac_atten_color_black,416370,black_plus_sign,,,,49,,,,,,,,,,,,,,
null,,prac_atten_color_black,417047,black_plus_sign,,,,null,,,,,,,,,,,,,,
null,,prac_atten_color,417515,prac_stop_color,,,,null,,,,,,,,,,,,,,
26.399999976158142,,prac_atten_color_black,419518,black_plus_sign,,,,49,,,,,,,,,,,,,,
4046.600000023842,,attentioncheck_feedback,423566,cross_check_feedback,,0,,,,,,,,,,,,,,,,
30079.599999964237,,last_instruct,453647,instruct,,,,32,,,,,,,,,,,,,,
null,,learn_phase(without_color),455649,black_plus_sign,,,,null,GW/globe.jpg,GW/soldier.jpg,,,,,,,,,,,,
null,,black_cross(without_color),456430,green,,,,null,GW/globe.jpg,GW/soldier.jpg,,,,,,,,,,,,
null,,rt_plussign_withcolor,456933,green,,,,null,GW/globe.jpg,GW/soldier.jpg,,,,,,,,,,,,
1122.1000000238419,,rt_thecrossant_black,458158,black_plus_sign,,,,50,,,1,1,,,,,,,,,,
null,,color_black,458261,black_plus_sign,,,,null,,,,,,,,,,,,,,
null,,learn_phase(without_color),460265,black_plus_sign,,,,null,GW/dustpan.jpg,GW/basket.jpg,,,,,,,,,,,,
null,,black_cross(without_color),460894,green,,,,null,GW/dustpan.jpg,GW/basket.jpg,,,,,,,,,,,,
464.10000002384186,,rt_plussign_withcolor,461396,green,,,,50,GW/dustpan.jpg,GW/basket.jpg,,,,,,,,,,,,
null,,rt_thecrossant_black,462773,black_plus_sign,,,,null,,,1,1,,,,,,,,,,
null,,color_black,462875,black_plus_sign,,,,null,,,,,,,,,,,,,,
null,,learn_phase(without_color),464877,black_plus_sign,,,,null,GW/hat.jpg,GW/wheelchair.jpg,,,,,,,,,,,,
null,,black_cross(without_color),465299,green,,,,null,GW/hat.jpg,GW/wheelchair.jpg,,,,,,,,,,,,
null,,rt_plussign_withcolor,465800,green,,,,null,GW/hat.jpg,GW/wheelchair.jpg,,,,,,,,,,,,
735,,rt_thecrossant_black,467384,black_plus_sign,,,,49,,,0,0.6666666666666666,,,,,,,,,,
null,,color_black,467487,black_plus_sign,,,,null,,,,,,,,,,,,,,
null,,learn_phase(without_color),469490,black_plus_sign,,,,null,GW/teeth.jpg,GW/gong.jpg,,,,,,,,,,,,
null,,black_cross(without_color),470174,green,,,,null,GW/teeth.jpg,GW/gong.jpg,,,,,,,,,,,,
457.19999998807907,,rt_plussign_withcolor,470675,green,,,,50,GW/teeth.jpg,GW/gong.jpg,,,,,,,,,,,,
null,,rt_thecrossant_black,471996,black_plus_sign,,,,null,,,1,0.75,,,,,,,,,,
null,,color_black,472099,black_plus_sign,,,,null,,,,,,,,,,,,,,
null,,learn_phase(without_color),474102,black_plus_sign,,,,null,GW/dustpan.jpg,GW/basket.jpg,,,,,,,,,,,,
null,,black_cross(without_color),474675,green,,,,null,GW/dustpan.jpg,GW/basket.jpg,,,,,,,,,,,,
null,,rt_plussign_withcolor,475178,green,,,,null,GW/dustpan.jpg,GW/basket.jpg,,,,,,,,,,,,
787,,rt_thecrossant_black,476610,black_plus_sign,,,,50,,,1,0.8,,,,,,,,,,
null,,color_black,476712,black_plus_sign,,,,null,,,,,,,,,,,,,,
null,,learn_phase(without_color),478714,black_plus_sign,,,,null,GW/barrel.jpg,GW/camera.jpg,,,,,,,,,,,,
null,,black_cross(without_color),479194,green,,,,null,GW/barrel.jpg,GW/camera.jpg,,,,,,,,,,,,
468.10000002384186,,rt_plussign_withcolor,479697,green,,,,50,GW/barrel.jpg,GW/camera.jpg,,,,,,,,,,,,
null,,rt_thecrossant_black,481223,black_plus_sign,,,,null,,,1,0.8333333333333334,,,,,,,,,,
null,,color_black,481326,black_plus_sign,,,,null,,,,,,,,,,,,,,
null,,learn_phase(without_color),483329,black_plus_sign,,,,null,GW/soldier.jpg,GW/camera.jpg,,,,,,,,,,,,
null,,black_cross(without_color),484125,blue,,,,null,GW/soldier.jpg,GW/camera.jpg,,,,,,,,,,,,
null,,rt_plussign_withcolor,484628,blue,,,,null,GW/soldier.jpg,GW/camera.jpg,,,,,,,,,,,,
583.3000000119209,,rt_thecrossant_black,485836,black_plus_sign,,,,49,,,1,0.8571428571428571,,,,,,,,,,
null,,color_black,485938,black_plus_sign,,,,null,,,,,,,,,,,,,,
null,,learn_phase(without_color),487943,black_plus_sign,,,,null,GW/basket.jpg,GW/soldier.jpg,,,,,,,,,,,,
null,,black_cross(without_color),489043,blue,,,,null,GW/basket.jpg,GW/soldier.jpg,,,,,,,,,,,,
null,,rt_plussign_withcolor,489546,blue,,,,null,GW/basket.jpg,GW/soldier.jpg,,,,,,,,,,,,
1014.3999999761581,,rt_thecrossant_black,490451,black_plus_sign,,,,49,,,1,0.875,,,,,,,,,,
null,,color_black,490554,black_plus_sign,,,,null,,,,,,,,,,,,,,
null,,learn_phase(without_color),492556,black_plus_sign,,,,null,GW/globe.jpg,GW/jukebox.jpg,,,,,,,,,,,,
null,,black_cross(without_color),493146,green,,,,null,GW/globe.jpg,GW/jukebox.jpg,,,,,,,,,,,,
440.5999999642372,,rt_plussign_withcolor,493648,green,,,,50,GW/globe.jpg,GW/jukebox.jpg,,,,,,,,,,,,
null,,rt_thecrossant_black,495063,black_plus_sign,,,,null,,,1,0.8888888888888888,,,,,,,,,,
null,,color_black,495166,black_plus_sign,,,,null,,,,,,,,,,,,,,
null,,learn_phase(without_color),497169,black_plus_sign,,,,null,GW/barrel.jpg,GW/paint.jpg,,,,,,,,,,,,
null,,black_cross(without_color),497916,green,,,,null,GW/barrel.jpg,GW/paint.jpg,,,,,,,,,,,,
null,,rt_plussign_withcolor,498419,green,,,,null,GW/barrel.jpg,GW/paint.jpg,,,,,,,,,,,,
1232.2999999523163,,rt_thecrossant_black,499676,black_plus_sign,,,,49,,,0,0.8,,,,,,,,,,
null,,color_black,499779,black_plus_sign,,,,null,,,,,,,,,,,,,,
null,,learn_phase(without_color),501783,black_plus_sign,,,,null,GW/jukebox.jpg,GW/basket.jpg,,,,,,,,,,,,
null,,black_cross(without_color),502872,green,,,,null,GW/jukebox.jpg,GW/basket.jpg,,,,,,,,,,,,
null,,rt_plussign_withcolor,503374,green,,,,null,GW/jukebox.jpg,GW/basket.jpg,,,,,,,,,,,,
880.1000000238419,,rt_thecrossant_black,504290,black_plus_sign,,,,49,,,0,0.7272727272727273,,,,,,,,,,
null,,warning_page,507293,warning,,,,null,,,,,,,,,,,,,,
null,,color_black,507396,black_plus_sign,,,,null,,,,,,,,,,,,,,
null,,learn_phase(without_color),509398,black_plus_sign,,,,null,GW/jukebox.jpg,GW/dustpan.jpg,,,,,,,,,,,,
null,,black_cross(without_color),510182,green,,,,null,GW/jukebox.jpg,GW/dustpan.jpg,,,,,,,,,,,,
null,,rt_plussign_withcolor,510683,green,,,,null,GW/jukebox.jpg,GW/dustpan.jpg,,,,,,,,,,,,
1252.199999988079,,rt_thecrossant_black,511904,black_plus_sign,,,,49,,,0,0.6666666666666666,,,,,,,,,,
null,,warning_page,514906,warning,,,,null,,,,,,,,,,,,,,
null,,color_black,515008,black_plus_sign,,,,null,,,,,,,,,,,,,,
null,,learn_phase(without_color),517011,black_plus_sign,,,,null,GW/dustpan.jpg,GW/hat.jpg,,,,,,,,,,,,
null,,black_cross(without_color),517905,green,,,,null,GW/dustpan.jpg,GW/hat.jpg,,,,,,,,,,,,
null,,rt_plussign_withcolor,518406,green,,,,null,GW/dustpan.jpg,GW/hat.jpg,,,,,,,,,,,,
1107,,rt_thecrossant_black,519517,black_plus_sign,,,,50,,,1,0.6923076923076923,,,,,,,,,,
null,,color_black,519619,black_plus_sign,,,,null,,,,,,,,,,,,,,
null,,learn_phase(without_color),521623,black_plus_sign,,,,null,GW/jukebox.jpg,GW/basket.jpg,,,,,,,,,,,,
null,,black_cross(without_color),522382,blue,,,,null,GW/jukebox.jpg,GW/basket.jpg,,,,,,,,,,,,
425.10000002384186,,rt_plussign_withcolor,522884,blue,,,,49,GW/jukebox.jpg,GW/basket.jpg,,,,,,,,,,,,
null,,rt_thecrossant_black,524131,black_plus_sign,,,,null,,,1,0.7142857142857143,,,,,,,,,,
null,,color_black,524234,black_plus_sign,,,,null,,,,,,,,,,,,,,
null,,learn_phase(without_color),526236,black_plus_sign,,,,null,GW/globe.jpg,GW/soldier.jpg,,,,,,,,,,,,
null,,black_cross(without_color),526818,green,,,,null,GW/globe.jpg,GW/soldier.jpg,,,,,,,,,,,,
424,,rt_plussign_withcolor,527319,green,,,,50,GW/globe.jpg,GW/soldier.jpg,,,,,,,,,,,,
null,,rt_thecrossant_black,528742,black_plus_sign,,,,null,,,1,0.7333333333333333,,,,,,,,,,
null,,color_black,528845,black_plus_sign,,,,null,,,,,,,,,,,,,,
null,,learn_phase(without_color),530848,black_plus_sign,,,,null,GW/dustpan.jpg,GW/snail.jpg,,,,,,,,,,,,
null,,black_cross(without_color),531787,blue,,,,null,GW/dustpan.jpg,GW/snail.jpg,,,,,,,,,,,,
null,,rt_plussign_withcolor,532290,blue,,,,null,GW/dustpan.jpg,GW/snail.jpg,,,,,,,,,,,,
991.6999999880791,,rt_thecrossant_black,533356,black_plus_sign,,,,49,,,1,0.75,,,,,,,,,,
null,,color_black,533459,black_plus_sign,,,,null,,,,,,,,,,,,,,
null,,learn_phase(without_color),535462,black_plus_sign,,,,null,GW/gong.jpg,GW/barrel.jpg,,,,,,,,,,,,
null,,black_cross(without_color),536522,blue,,,,null,GW/gong.jpg,GW/barrel.jpg,,,,,,,,,,,,
null,,rt_plussign_withcolor,537025,blue,,,,null,GW/gong.jpg,GW/barrel.jpg,,,,,,,,,,,,
1049.9000000357628,,rt_thecrossant_black,537969,black_plus_sign,,,,49,,,1,0.7647058823529411,,,,,,,,,,
null,,color_black,538072,black_plus_sign,,,,null,,,,,,,,,,,,,,
null,,learn_phase(without_color),540075,black_plus_sign,,,,null,GW/teeth.jpg,GW/gong.jpg,,,,,,,,,,,,
null,,black_cross(without_color),540552,blue,,,,null,GW/teeth.jpg,GW/gong.jpg,,,,,,,,,,,,
469.89999997615814,,rt_plussign_withcolor,541054,blue,,,,49,GW/teeth.jpg,GW/gong.jpg,,,,,,,,,,,,
null,,rt_thecrossant_black,542582,black_plus_sign,,,,null,,,1,0.7777777777777778,,,,,,,,,,
null,,color_black,542685,black_plus_sign,,,,null,,,,,,,,,,,,,,
null,,learn_phase(without_color),544688,black_plus_sign,,,,null,GW/basket.jpg,GW/soldier.jpg,,,,,,,,,,,,
null,,black_cross(without_color),545636,blue,,,,null,GW/basket.jpg,GW/soldier.jpg,,,,,,,,,,,,
null,,rt_plussign_withcolor,546137,blue,,,,null,GW/basket.jpg,GW/soldier.jpg,,,,,,,,,,,,
614.3000000119209,,rt_thecrossant_black,547194,black_plus_sign,,,,49,,,1,0.7894736842105263,,,,,,,,,,
null,,color_black,547297,black_plus_sign,,,,null,,,,,,,,,,,,,,
null,,learn_phase(without_color),549300,black_plus_sign,,,,null,GW/gong.jpg,GW/globe.jpg,,,,,,,,,,,,
null,,black_cross(without_color),549946,blue,,,,null,GW/gong.jpg,GW/globe.jpg,,,,,,,,,,,,
438.89999997615814,,rt_plussign_withcolor,550448,blue,,,,49,GW/gong.jpg,GW/globe.jpg,,,,,,,,,,,,
null,,rt_thecrossant_black,551808,black_plus_sign,,,,null,,,1,0.8,,,,,,,,,,
null,,color_black,551911,black_plus_sign,,,,null,,,,,,,,,,,,,,
null,,learn_phase(without_color),553914,black_plus_sign,,,,null,GW/basket.jpg,GW/soldier.jpg,,,,,,,,,,,,
null,,black_cross(without_color),554847,green,,,,null,GW/basket.jpg,GW/soldier.jpg,,,,,,,,,,,,
304.10000002384186,,rt_plussign_withcolor,555350,green,,,,49,GW/basket.jpg,GW/soldier.jpg,,,,,,,,,,,,
null,,rt_thecrossant_black,556421,black_plus_sign,,,,50,,,0,0.7619047619047619,,,,,,,,,,
null,,color_black,556522,black_plus_sign,,,,null,,,,,,,,,,,,,,
null,,learn_phase(without_color),558525,black_plus_sign,,,,null,GW/hat.jpg,GW/basket.jpg,,,,,,,,,,,,
null,,black_cross(without_color),559105,blue,,,,null,GW/hat.jpg,GW/basket.jpg,,,,,,,,,,,,
473.80000001192093,,rt_plussign_withcolor,559607,blue,,,,49,GW/hat.jpg,GW/basket.jpg,,,,,,,,,,,,
null,,rt_thecrossant_black,561032,black_plus_sign,,,,null,,,1,0.7727272727272727,,,,,,,,,,
null,,color_black,561136,black_plus_sign,,,,null,,,,,,,,,,,,,,
null,,learn_phase(without_color),563139,black_plus_sign,,,,null,GW/basket.jpg,GW/soldier.jpg,,,,,,,,,,,,
null,,black_cross(without_color),564195,blue,,,,null,GW/basket.jpg,GW/soldier.jpg,,,,,,,,,,,,
null,,rt_plussign_withcolor,564697,blue,,,,null,GW/basket.jpg,GW/soldier.jpg,,,,,,,,,,,,
681.8999999761581,,rt_thecrossant_black,565647,black_plus_sign,,,,49,,,1,0.782608695652174,,,,,,,,,,
null,,color_black,565749,black_plus_sign,,,,null,,,,,,,,,,,,,,
null,,learn_phase(without_color),567753,black_plus_sign,,,,null,GW/gong.jpg,GW/globe.jpg,,,,,,,,,,,,
null,,black_cross(without_color),568763,green,,,,null,GW/gong.jpg,GW/globe.jpg,,,,,,,,,,,,
null,,rt_plussign_withcolor,569265,green,,,,null,GW/gong.jpg,GW/globe.jpg,,,,,,,,,,,,
1294.5,,rt_thecrossant_black,570260,black_plus_sign,,,,50,,,1,0.7916666666666666,,,,,,,,,,
null,,color_black,570362,black_plus_sign,,,,null,,,,,,,,,,,,,,
null,,learn_phase(without_color),572365,black_plus_sign,,,,null,GW/jukebox.jpg,GW/basket.jpg,,,,,,,,,,,,
null,,black_cross(without_color),573059,green,,,,null,GW/jukebox.jpg,GW/basket.jpg,,,,,,,,,,,,
null,,rt_plussign_withcolor,573561,green,,,,null,GW/jukebox.jpg,GW/basket.jpg,,,,,,,,,,,,
1343.0999999642372,,rt_thecrossant_black,574873,black_plus_sign,,,,49,,,0,0.76,,,,,,,,,,
null,,color_black,574976,black_plus_sign,,,,null,,,,,,,,,,,,,,
null,,learn_phase(without_color),576979,black_plus_sign,,,,null,GW/teeth.jpg,GW/gong.jpg,,,,,,,,,,,,
null,,black_cross(without_color),578036,green,,,,null,GW/teeth.jpg,GW/gong.jpg,,,,,,,,,,,,
390.9000000357628,,rt_plussign_withcolor,578538,green,,,,50,GW/teeth.jpg,GW/gong.jpg,,,,,,,,,,,,
null,,rt_thecrossant_black,579486,black_plus_sign,,,,null,,,1,0.7692307692307693,,,,,,,,,,
null,,color_black,579589,black_plus_sign,,,,null,,,,,,,,,,,,,,
null,,learn_phase(without_color),581592,black_plus_sign,,,,null,GW/dustpan.jpg,GW/snail.jpg,,,,,,,,,,,,
null,,black_cross(without_color),582145,blue,,,,null,GW/dustpan.jpg,GW/snail.jpg,,,,,,,,,,,,
null,,rt_plussign_withcolor,582648,blue,,,,null,GW/dustpan.jpg,GW/snail.jpg,,,,,,,,,,,,
1271.7000000476837,,rt_thecrossant_black,584100,black_plus_sign,,,,49,,,1,0.7777777777777778,,,,,,,,,,
null,,color_black,584203,black_plus_sign,,,,null,,,,,,,,,,,,,,
null,,learn_phase(without_color),586206,black_plus_sign,,,,null,GW/jukebox.jpg,GW/basket.jpg,,,,,,,,,,,,
null,,black_cross(without_color),587185,green,,,,null,GW/jukebox.jpg,GW/basket.jpg,,,,,,,,,,,,
408,,rt_plussign_withcolor,587686,green,,,,50,GW/jukebox.jpg,GW/basket.jpg,,,,,,,,,,,,
null,,rt_thecrossant_black,588712,black_plus_sign,,,,null,,,1,0.7857142857142857,,,,,,,,,,
null,,color_black,588815,black_plus_sign,,,,null,,,,,,,,,,,,,,
null,,learn_phase(without_color),590819,black_plus_sign,,,,null,GW/globe.jpg,GW/jukebox.jpg,,,,,,,,,,,,
null,,black_cross(without_color),591248,blue,,,,null,GW/globe.jpg,GW/jukebox.jpg,,,,,,,,,,,,
474,,rt_plussign_withcolor,591750,blue,,,,49,GW/globe.jpg,GW/jukebox.jpg,,,,,,,,,,,,
null,,rt_thecrossant_black,593326,black_plus_sign,,,,null,,,1,0.7931034482758621,,,,,,,,,,
null,,color_black,593429,black_plus_sign,,,,null,,,,,,,,,,,,,,
null,,learn_phase(without_color),595432,black_plus_sign,,,,null,GW/barrel.jpg,GW/camera.jpg,,,,,,,,,,,,
null,,black_cross(without_color),596512,green,,,,null,GW/barrel.jpg,GW/camera.jpg,,,,,,,,,,,,
null,,rt_plussign_withcolor,597014,green,,,,null,GW/barrel.jpg,GW/camera.jpg,,,,,,,,,,,,
686.1999999880791,,rt_thecrossant_black,597940,black_plus_sign,,,,50,,,1,0.8,,,,,,,,,,
null,,color_black,598042,black_plus_sign,,,,null,,,,,,,,,,,,,,
null,,learn_phase(without_color),600046,black_plus_sign,,,,null,GW/dustpan.jpg,GW/hat.jpg,,,,,,,,,,,,
null,,black_cross(without_color),600512,blue,,,,null,GW/dustpan.jpg,GW/hat.jpg,,,,,,,,,,,,
null,,rt_plussign_withcolor,601015,blue,,,,null,GW/dustpan.jpg,GW/hat.jpg,,,,,,,,,,,,
1378.300000011921,,rt_thecrossant_black,602553,black_plus_sign,,,,49,,,1,0.8064516129032258,,,,,,,,,,
null,,color_black,602656,black_plus_sign,,,,null,,,,,,,,,,,,,,
null,,learn_phase(without_color),604659,black_plus_sign,,,,null,GW/jukebox.jpg,GW/dustpan.jpg,,,,,,,,,,,,
null,,black_cross(without_color),605346,blue,,,,null,GW/jukebox.jpg,GW/dustpan.jpg,,,,,,,,,,,,
null,,rt_plussign_withcolor,605847,blue,,,,null,GW/jukebox.jpg,GW/dustpan.jpg,,,,,,,,,,,,
582.3999999761581,,rt_thecrossant_black,607166,black_plus_sign,,,,49,,,1,0.8125,,,,,,,,,,
null,,color_black,607268,black_plus_sign,,,,null,,,,,,,,,,,,,,
null,,learn_phase(without_color),609271,black_plus_sign,,,,null,GW/globe.jpg,GW/jukebox.jpg,,,,,,,,,,,,
null,,black_cross(without_color),610368,blue,,,,null,GW/globe.jpg,GW/jukebox.jpg,,,,,,,,,,,,
456.39999997615814,,rt_plussign_withcolor,610870,blue,,,,49,GW/globe.jpg,GW/jukebox.jpg,,,,,,,,,,,,
null,,rt_thecrossant_black,611778,black_plus_sign,,,,null,,,1,0.8181818181818182,,,,,,,,,,
null,,color_black,611881,black_plus_sign,,,,null,,,,,,,,,,,,,,
null,,learn_phase(without_color),613883,black_plus_sign,,,,null,GW/teeth.jpg,GW/gong.jpg,,,,,,,,,,,,
null,,black_cross(without_color),614810,blue,,,,null,GW/teeth.jpg,GW/gong.jpg,,,,,,,,,,,,
472.39999997615814,,rt_plussign_withcolor,615311,blue,,,,49,GW/teeth.jpg,GW/gong.jpg,,,,,,,,,,,,
null,,rt_thecrossant_black,616390,black_plus_sign,,,,null,,,1,0.8235294117647058,,,,,,,,,,
null,,color_black,616492,black_plus_sign,,,,null,,,,,,,,,,,,,,
null,,learn_phase(without_color),618496,black_plus_sign,,,,null,GW/jukebox.jpg,GW/dustpan.jpg,,,,,,,,,,,,
null,,black_cross(without_color),618953,green,,,,null,GW/jukebox.jpg,GW/dustpan.jpg,,,,,,,,,,,,
null,,rt_plussign_withcolor,619456,green,,,,null,GW/jukebox.jpg,GW/dustpan.jpg,,,,,,,,,,,,
1327,,rt_thecrossant_black,621003,black_plus_sign,,,,50,,,1,0.8285714285714286,,,,,,,,,,
null,,color_black,621106,black_plus_sign,,,,null,,,,,,,,,,,,,,
null,,learn_phase(without_color),623110,black_plus_sign,,,,null,GW/hat.jpg,GW/basket.jpg,,,,,,,,,,,,
null,,black_cross(without_color),624145,green,,,,null,GW/hat.jpg,GW/basket.jpg,,,,,,,,,,,,
null,,rt_plussign_withcolor,624647,green,,,,null,GW/hat.jpg,GW/basket.jpg,,,,,,,,,,,,
560.5,,rt_thecrossant_black,625616,black_plus_sign,,,,50,,,1,0.8333333333333334,,,,,,,,,,
null,,color_black,625720,black_plus_sign,,,,null,,,,,,,,,,,,,,
null,,learn_phase(without_color),627723,black_plus_sign,,,,null,GW/jukebox.jpg,GW/dustpan.jpg,,,,,,,,,,,,
null,,black_cross(without_color),628311,blue,,,,null,GW/jukebox.jpg,GW/dustpan.jpg,,,,,,,,,,,,
null,,rt_plussign_withcolor,628813,blue,,,,null,GW/jukebox.jpg,GW/dustpan.jpg,,,,,,,,,,,,
1388.1000000238419,,rt_thecrossant_black,630231,black_plus_sign,,,,50,,,0,0.8108108108108109,,,,,,,,,,
null,,color_black,630333,black_plus_sign,,,,null,,,,,,,,,,,,,,
null,,learn_phase(without_color),632337,black_plus_sign,,,,null,GW/hat.jpg,GW/basket.jpg,,,,,,,,,,,,
null,,black_cross(without_color),632747,blue,,,,null,GW/hat.jpg,GW/basket.jpg,,,,,,,,,,,,
null,,rt_plussign_withcolor,633249,blue,,,,null,GW/hat.jpg,GW/basket.jpg,,,,,,,,,,,,
749,,rt_thecrossant_black,634843,black_plus_sign,,,,49,,,1,0.8157894736842105,,,,,,,,,,
null,,color_black,634946,black_plus_sign,,,,null,,,,,,,,,,,,,,
null,,learn_phase(without_color),636949,black_plus_sign,,,,null,GW/jukebox.jpg,GW/dustpan.jpg,,,,,,,,,,,,
null,,black_cross(without_color),637852,blue,,,,null,GW/jukebox.jpg,GW/dustpan.jpg,,,,,,,,,,,,
463.2999999523163,,rt_plussign_withcolor,638353,blue,,,,49,GW/jukebox.jpg,GW/dustpan.jpg,,,,,,,,,,,,
null,,rt_thecrossant_black,639457,black_plus_sign,,,,null,,,1,0.8205128205128205,,,,,,,,,,
null,,color_black,639559,black_plus_sign,,,,null,,,,,,,,,,,,,,
null,,learn_phase(without_color),641561,black_plus_sign,,,,null,GW/dustpan.jpg,GW/hat.jpg,,,,,,,,,,,,
null,,black_cross(without_color),642530,green,,,,null,GW/dustpan.jpg,GW/hat.jpg,,,,,,,,,,,,
null,,rt_plussign_withcolor,643033,green,,,,null,GW/dustpan.jpg,GW/hat.jpg,,,,,,,,,,,,
1052.300000011921,,rt_thecrossant_black,644070,black_plus_sign,,,,50,,,1,0.825,,,,,,,,,,
null,,color_black,644173,black_plus_sign,,,,null,,,,,,,,,,,,,,
null,,learn_phase(without_color),646177,black_plus_sign,,,,null,GW/globe.jpg,GW/jukebox.jpg,,,,,,,,,,,,
null,,black_cross(without_color),646997,green,,,,null,GW/globe.jpg,GW/jukebox.jpg,,,,,,,,,,,,
null,,rt_plussign_withcolor,647500,green,,,,null,GW/globe.jpg,GW/jukebox.jpg,,,,,,,,,,,,
1348.8999999761581,,rt_thecrossant_black,648685,black_plus_sign,,,,50,,,1,0.8292682926829268,,,,,,,,,,
null,,color_black,648788,black_plus_sign,,,,null,,,,,,,,,,,,,,
null,,learn_phase(without_color),650791,black_plus_sign,,,,null,GW/gong.jpg,GW/barrel.jpg,,,,,,,,,,,,
null,,black_cross(without_color),651869,green,,,,null,GW/gong.jpg,GW/barrel.jpg,,,,,,,,,,,,
null,,rt_plussign_withcolor,652370,green,,,,null,GW/gong.jpg,GW/barrel.jpg,,,,,,,,,,,,
1164.800000011921,,rt_thecrossant_black,653298,black_plus_sign,,,,50,,,1,0.8333333333333334,,,,,,,,,,
null,,color_black,653400,black_plus_sign,,,,null,,,,,,,,,,,,,,
null,,learn_phase(without_color),655404,black_plus_sign,,,,null,GW/globe.jpg,GW/soldier.jpg,,,,,,,,,,,,
null,,black_cross(without_color),656450,blue,,,,null,GW/globe.jpg,GW/soldier.jpg,,,,,,,,,,,,
null,,rt_plussign_withcolor,656952,blue,,,,null,GW/globe.jpg,GW/soldier.jpg,,,,,,,,,,,,
1679.8999999761581,,rt_thecrossant_black,657912,black_plus_sign,,,,49,,,1,0.8372093023255814,,,,,,,,,,
null,,color_black,658014,black_plus_sign,,,,null,,,,,,,,,,,,,,
null,,learn_phase(without_color),660016,black_plus_sign,,,,null,GW/teeth.jpg,GW/gong.jpg,,,,,,,,,,,,
null,,black_cross(without_color),660770,green,,,,null,GW/teeth.jpg,GW/gong.jpg,,,,,,,,,,,,
null,,rt_plussign_withcolor,661273,green,,,,null,GW/teeth.jpg,GW/gong.jpg,,,,,,,,,,,,
1334.8999999761581,,rt_thecrossant_black,662524,black_plus_sign,,,,50,,,1,0.8409090909090909,,,,,,,,,,
null,,color_black,662626,black_plus_sign,,,,null,,,,,,,,,,,,,,
null,,learn_phase(without_color),664630,black_plus_sign,,,,null,GW/hat.jpg,GW/wheelchair.jpg,,,,,,,,,,,,
null,,black_cross(without_color),665059,green,,,,null,GW/hat.jpg,GW/wheelchair.jpg,,,,,,,,,,,,
null,,rt_plussign_withcolor,665561,green,,,,null,GW/hat.jpg,GW/wheelchair.jpg,,,,,,,,,,,,
1115.7999999523163,,rt_thecrossant_black,667137,black_plus_sign,,,,49,,,0,0.8222222222222222,,,,,,,,,,
null,,color_black,667240,black_plus_sign,,,,null,,,,,,,,,,,,,,
null,,learn_phase(without_color),669243,black_plus_sign,,,,null,GW/dustpan.jpg,GW/snail.jpg,,,,,,,,,,,,
null,,black_cross(without_color),669750,green,,,,null,GW/dustpan.jpg,GW/snail.jpg,,,,,,,,,,,,
493.19999998807907,,rt_plussign_withcolor,670252,green,,,,50,GW/dustpan.jpg,GW/snail.jpg,,,,,,,,,,,,
null,,rt_thecrossant_black,671751,black_plus_sign,,,,null,,,1,0.8260869565217391,,,,,,,,,,
null,,color_black,671854,black_plus_sign,,,,null,,,,,,,,,,,,,,
null,,learn_phase(without_color),673856,black_plus_sign,,,,null,GW/barrel.jpg,GW/camera.jpg,,,,,,,,,,,,
null,,black_cross(without_color),674732,green,,,,null,GW/barrel.jpg,GW/camera.jpg,,,,,,,,,,,,
481.30000001192093,,rt_plussign_withcolor,675235,green,,,,50,GW/barrel.jpg,GW/camera.jpg,,,,,,,,,,,,
null,,rt_thecrossant_black,676363,black_plus_sign,,,,null,,,1,0.8297872340425532,,,,,,,,,,
null,,color_black,676465,black_plus_sign,,,,null,,,,,,,,,,,,,,
null,,learn_phase(without_color),678468,black_plus_sign,,,,null,GW/hat.jpg,GW/wheelchair.jpg,,,,,,,,,,,,
null,,black_cross(without_color),679399,blue,,,,null,GW/hat.jpg,GW/wheelchair.jpg,,,,,,,,,,,,
null,,rt_plussign_withcolor,679901,blue,,,,null,GW/hat.jpg,GW/wheelchair.jpg,,,,,,,,,,,,
975.9000000357628,,rt_thecrossant_black,680975,black_plus_sign,,,,49,,,1,0.8333333333333334,,,,,,,,,,
null,,color_black,681077,black_plus_sign,,,,null,,,,,,,,,,,,,,
null,,learn_phase(without_color),683080,black_plus_sign,,,,null,GW/gong.jpg,GW/globe.jpg,,,,,,,,,,,,
null,,black_cross(without_color),683658,blue,,,,null,GW/gong.jpg,GW/globe.jpg,,,,,,,,,,,,
475.39999997615814,,rt_plussign_withcolor,684160,blue,,,,49,GW/gong.jpg,GW/globe.jpg,,,,,,,,,,,,
null,,rt_thecrossant_black,685587,black_plus_sign,,,,null,,,1,0.8367346938775511,,,,,,,,,,
null,,color_black,685689,black_plus_sign,,,,null,,,,,,,,,,,,,,
null,,learn_phase(without_color),687692,black_plus_sign,,,,null,GW/globe.jpg,GW/soldier.jpg,,,,,,,,,,,,
null,,black_cross(without_color),688794,blue,,,,null,GW/globe.jpg,GW/soldier.jpg,,,,,,,,,,,,
null,,rt_plussign_withcolor,689296,blue,,,,null,GW/globe.jpg,GW/soldier.jpg,,,,,,,,,,,,
849.1999999880791,,rt_thecrossant_black,690200,black_plus_sign,,,,49,,,1,0.84,,,,,,,,,,
null,,color_black,690302,black_plus_sign,,,,null,,,,,,,,,,,,,,
null,,learn_phase(without_color),692304,black_plus_sign,,,,null,GW/globe.jpg,GW/jukebox.jpg,,,,,,,,,,,,
null,,black_cross(without_color),692875,blue,,,,null,GW/globe.jpg,GW/jukebox.jpg,,,,,,,,,,,,
434,,rt_plussign_withcolor,693378,blue,,,,49,GW/globe.jpg,GW/jukebox.jpg,,,,,,,,,,,,
null,,rt_thecrossant_black,694812,black_plus_sign,,,,null,,,1,0.8431372549019608,,,,,,,,,,
null,,color_black,694915,black_plus_sign,,,,null,,,,,,,,,,,,,,
null,,learn_phase(without_color),696919,black_plus_sign,,,,null,GW/gong.jpg,GW/globe.jpg,,,,,,,,,,,,
null,,black_cross(without_color),697771,blue,,,,null,GW/gong.jpg,GW/globe.jpg,,,,,,,,,,,,
454,,rt_plussign_withcolor,698272,blue,,,,49,GW/gong.jpg,GW/globe.jpg,,,,,,,,,,,,
null,,rt_thecrossant_black,699424,black_plus_sign,,,,null,,,1,0.8461538461538461,,,,,,,,,,
null,,color_black,699526,black_plus_sign,,,,null,,,,,,,,,,,,,,
null,,learn_phase(without_color),701529,black_plus_sign,,,,null,GW/barrel.jpg,GW/paint.jpg,,,,,,,,,,,,
null,,black_cross(without_color),702025,blue,,,,null,GW/barrel.jpg,GW/paint.jpg,,,,,,,,,,,,
431.80000001192093,,rt_plussign_withcolor,702528,blue,,,,49,GW/barrel.jpg,GW/paint.jpg,,,,,,,,,,,,
null,,rt_thecrossant_black,704037,black_plus_sign,,,,null,,,1,0.8490566037735849,,,,,,,,,,
null,,color_black,704139,black_plus_sign,,,,null,,,,,,,,,,,,,,
null,,learn_phase(without_color),706141,black_plus_sign,,,,null,GW/barrel.jpg,GW/camera.jpg,,,,,,,,,,,,
null,,black_cross(without_color),707192,blue,,,,null,GW/barrel.jpg,GW/camera.jpg,,,,,,,,,,,,
421.7999999523163,,rt_plussign_withcolor,707694,blue,,,,49,GW/barrel.jpg,GW/camera.jpg,,,,,,,,,,,,
null,,rt_thecrossant_black,708649,black_plus_sign,,,,null,,,1,0.8518518518518519,,,,,,,,,,
null,,color_black,708751,black_plus_sign,,,,null,,,,,,,,,,,,,,
null,,learn_phase(without_color),710753,black_plus_sign,,,,null,GW/hat.jpg,GW/basket.jpg,,,,,,,,,,,,
null,,black_cross(without_color),711503,green,,,,null,GW/hat.jpg,GW/basket.jpg,,,,,,,,,,,,
null,,rt_plussign_withcolor,712004,green,,,,null,GW/hat.jpg,GW/basket.jpg,,,,,,,,,,,,
1336.6000000238419,,rt_thecrossant_black,713259,black_plus_sign,,,,50,,,1,0.8545454545454545,,,,,,,,,,
null,,color_black,713362,black_plus_sign,,,,null,,,,,,,,,,,,,,
null,,learn_phase(without_color),715364,black_plus_sign,,,,null,GW/dustpan.jpg,GW/snail.jpg,,,,,,,,,,,,
null,,black_cross(without_color),716295,blue,,,,null,GW/dustpan.jpg,GW/snail.jpg,,,,,,,,,,,,
null,,rt_plussign_withcolor,716797,blue,,,,null,GW/dustpan.jpg,GW/snail.jpg,,,,,,,,,,,,
849,,rt_thecrossant_black,717871,black_plus_sign,,,,49,,,1,0.8571428571428571,,,,,,,,,,
null,,color_black,717974,black_plus_sign,,,,null,,,,,,,,,,,,,,
null,,learn_phase(without_color),719978,black_plus_sign,,,,null,GW/teeth.jpg,GW/gong.jpg,,,,,,,,,,,,
null,,black_cross(without_color),721010,green,,,,null,GW/teeth.jpg,GW/gong.jpg,,,,,,,,,,,,
496.80000001192093,,rt_plussign_withcolor,721512,green,,,,50,GW/teeth.jpg,GW/gong.jpg,,,,,,,,,,,,
null,,rt_thecrossant_black,722484,black_plus_sign,,,,null,,,1,0.8596491228070176,,,,,,,,,,
null,,color_black,722586,black_plus_sign,,,,null,,,,,,,,,,,,,,
null,,learn_phase(without_color),724590,black_plus_sign,,,,null,GW/jukebox.jpg,GW/basket.jpg,,,,,,,,,,,,
null,,black_cross(without_color),725674,blue,,,,null,GW/jukebox.jpg,GW/basket.jpg,,,,,,,,,,,,
null,,rt_plussign_withcolor,726177,blue,,,,null,GW/jukebox.jpg,GW/basket.jpg,,,,,,,,,,,,
1260.8999999761581,,rt_thecrossant_black,727099,black_plus_sign,,,,49,,,1,0.8620689655172413,,,,,,,,,,
null,,color_black,727201,black_plus_sign,,,,null,,,,,,,,,,,,,,
null,,learn_phase(without_color),729204,black_plus_sign,,,,null,GW/basket.jpg,GW/soldier.jpg,,,,,,,,,,,,
null,,black_cross(without_color),729915,blue,,,,null,GW/basket.jpg,GW/soldier.jpg,,,,,,,,,,,,
487.0999999642372,,rt_plussign_withcolor,730418,blue,,,,49,GW/basket.jpg,GW/soldier.jpg,,,,,,,,,,,,
null,,rt_thecrossant_black,731713,black_plus_sign,,,,null,,,1,0.864406779661017,,,,,,,,,,
null,,color_black,731817,black_plus_sign,,,,null,,,,,,,,,,,,,,
null,,learn_phase(without_color),733820,black_plus_sign,,,,null,GW/globe.jpg,GW/soldier.jpg,,,,,,,,,,,,
null,,black_cross(without_color),734604,blue,,,,null,GW/globe.jpg,GW/soldier.jpg,,,,,,,,,,,,
null,,rt_plussign_withcolor,735106,blue,,,,null,GW/globe.jpg,GW/soldier.jpg,,,,,,,,,,,,
1027.1000000238419,,rt_thecrossant_black,736328,black_plus_sign,,,,50,,,0,0.85,,,,,,,,,,
null,,color_black,736429,black_plus_sign,,,,null,,,,,,,,,,,,,,
null,,learn_phase(without_color),738432,black_plus_sign,,,,null,GW/barrel.jpg,GW/paint.jpg,,,,,,,,,,,,
null,,black_cross(without_color),739164,green,,,,null,GW/barrel.jpg,GW/paint.jpg,,,,,,,,,,,,
null,,rt_plussign_withcolor,739666,green,,,,null,GW/barrel.jpg,GW/paint.jpg,,,,,,,,,,,,
1049.9000000357628,,rt_thecrossant_black,740938,black_plus_sign,,,,50,,,1,0.8524590163934426,,,,,,,,,,
null,,color_black,741041,black_plus_sign,,,,null,,,,,,,,,,,,,,
null,,learn_phase(without_color),743044,black_plus_sign,,,,null,GW/basket.jpg,GW/soldier.jpg,,,,,,,,,,,,
null,,black_cross(without_color),743451,blue,,,,null,GW/basket.jpg,GW/soldier.jpg,,,,,,,,,,,,
null,,rt_plussign_withcolor,743953,blue,,,,null,GW/basket.jpg,GW/soldier.jpg,,,,,,,,,,,,
892,,rt_thecrossant_black,745552,black_plus_sign,,,,49,,,1,0.8548387096774194,,,,,,,,,,
null,,color_black,745654,black_plus_sign,,,,null,,,,,,,,,,,,,,
null,,learn_phase(without_color),747656,black_plus_sign,,,,null,GW/barrel.jpg,GW/paint.jpg,,,,,,,,,,,,
null,,black_cross(without_color),748138,blue,,,,null,GW/barrel.jpg,GW/paint.jpg,,,,,,,,,,,,
null,,rt_plussign_withcolor,748640,blue,,,,null,GW/barrel.jpg,GW/paint.jpg,,,,,,,,,,,,
690.4000000357628,,rt_thecrossant_black,750164,black_plus_sign,,,,49,,,1,0.8571428571428571,,,,,,,,,,
null,,color_black,750267,black_plus_sign,,,,null,,,,,,,,,,,,,,
null,,learn_phase(without_color),752271,black_plus_sign,,,,null,GW/basket.jpg,GW/soldier.jpg,,,,,,,,,,,,
null,,black_cross(without_color),753020,blue,,,,null,GW/basket.jpg,GW/soldier.jpg,,,,,,,,,,,,
462.69999998807907,,rt_plussign_withcolor,753523,blue,,,,49,GW/basket.jpg,GW/soldier.jpg,,,,,,,,,,,,
null,,rt_thecrossant_black,754778,black_plus_sign,,,,null,,,1,0.859375,,,,,,,,,,
null,,color_black,754881,black_plus_sign,,,,null,,,,,,,,,,,,,,
null,,learn_phase(without_color),756885,black_plus_sign,,,,null,GW/dustpan.jpg,GW/hat.jpg,,,,,,,,,,,,
null,,black_cross(without_color),757555,blue,,,,null,GW/dustpan.jpg,GW/hat.jpg,,,,,,,,,,,,
null,,rt_plussign_withcolor,758058,blue,,,,null,GW/dustpan.jpg,GW/hat.jpg,,,,,,,,,,,,
869.5,,rt_thecrossant_black,759394,black_plus_sign,,,,49,,,1,0.8615384615384616,,,,,,,,,,
null,,color_black,759496,black_plus_sign,,,,null,,,,,,,,,,,,,,
null,,learn_phase(without_color),761499,black_plus_sign,,,,null,GW/soldier.jpg,GW/camera.jpg,,,,,,,,,,,,
null,,black_cross(without_color),762004,green,,,,null,GW/soldier.jpg,GW/camera.jpg,,,,,,,,,,,,
null,,rt_plussign_withcolor,762506,green,,,,null,GW/soldier.jpg,GW/camera.jpg,,,,,,,,,,,,
908,,rt_thecrossant_black,764007,black_plus_sign,,,,50,,,1,0.8636363636363636,,,,,,,,,,
null,,color_black,764108,black_plus_sign,,,,null,,,,,,,,,,,,,,
null,,learn_phase(without_color),766111,black_plus_sign,,,,null,GW/jukebox.jpg,GW/dustpan.jpg,,,,,,,,,,,,
null,,black_cross(without_color),767194,green,,,,null,GW/jukebox.jpg,GW/dustpan.jpg,,,,,,,,,,,,
null,,rt_plussign_withcolor,767696,green,,,,null,GW/jukebox.jpg,GW/dustpan.jpg,,,,,,,,,,,,
845.8999999761581,,rt_thecrossant_black,768619,black_plus_sign,,,,49,,,0,0.8507462686567164,,,,,,,,,,
null,,color_black,768721,black_plus_sign,,,,null,,,,,,,,,,,,,,
null,,learn_phase(without_color),770724,black_plus_sign,,,,null,GW/barrel.jpg,GW/paint.jpg,,,,,,,,,,,,
null,,black_cross(without_color),771799,blue,,,,null,GW/barrel.jpg,GW/paint.jpg,,,,,,,,,,,,
null,,rt_plussign_withcolor,772301,blue,,,,null,GW/barrel.jpg,GW/paint.jpg,,,,,,,,,,,,
1186.3999999761581,,rt_thecrossant_black,773232,black_plus_sign,,,,49,,,1,0.8529411764705882,,,,,,,,,,
null,,color_black,773335,black_plus_sign,,,,null,,,,,,,,,,,,,,
null,,learn_phase(without_color),775338,black_plus_sign,,,,null,GW/dustpan.jpg,GW/basket.jpg,,,,,,,,,,,,
null,,black_cross(without_color),776205,green,,,,null,GW/dustpan.jpg,GW/basket.jpg,,,,,,,,,,,,
449.5,,rt_plussign_withcolor,776707,green,,,,50,GW/dustpan.jpg,GW/basket.jpg,,,,,,,,,,,,
null,,rt_thecrossant_black,777846,black_plus_sign,,,,null,,,1,0.855072463768116,,,,,,,,,,
null,,color_black,777948,black_plus_sign,,,,null,,,,,,,,,,,,,,
null,,learn_phase(without_color),779950,black_plus_sign,,,,null,GW/gong.jpg,GW/barrel.jpg,,,,,,,,,,,,
null,,black_cross(without_color),780810,blue,,,,null,GW/gong.jpg,GW/barrel.jpg,,,,,,,,,,,,
null,,rt_plussign_withcolor,781313,blue,,,,null,GW/gong.jpg,GW/barrel.jpg,,,,,,,,,,,,
1085.8999999761581,,rt_thecrossant_black,782458,black_plus_sign,,,,49,,,1,0.8571428571428571,,,,,,,,,,
null,,color_black,782561,black_plus_sign,,,,null,,,,,,,,,,,,,,
null,,learn_phase(without_color),784564,black_plus_sign,,,,null,GW/dustpan.jpg,GW/basket.jpg,,,,,,,,,,,,
null,,black_cross(without_color),785638,green,,,,null,GW/dustpan.jpg,GW/basket.jpg,,,,,,,,,,,,
null,,rt_plussign_withcolor,786141,green,,,,null,GW/dustpan.jpg,GW/basket.jpg,,,,,,,,,,,,
1527.5999999642372,,rt_thecrossant_black,787071,black_plus_sign,,,,49,,,0,0.8450704225352113,,,,,,,,,,
null,,color_black,787174,black_plus_sign,,,,null,,,,,,,,,,,,,,
null,,learn_phase(without_color),789177,black_plus_sign,,,,null,GW/barrel.jpg,GW/camera.jpg,,,,,,,,,,,,
null,,black_cross(without_color),789916,green,,,,null,GW/barrel.jpg,GW/camera.jpg,,,,,,,,,,,,
null,,rt_plussign_withcolor,790418,green,,,,null,GW/barrel.jpg,GW/camera.jpg,,,,,,,,,,,,
1199.1000000238419,,rt_thecrossant_black,791685,black_plus_sign,,,,49,,,0,0.8333333333333334,,,,,,,,,,
null,,warning_page,794688,warning,,,,null,,,,,,,,,,,,,,
null,,color_black,794791,black_plus_sign,,,,null,,,,,,,,,,,,,,
null,,learn_phase(without_color),796795,black_plus_sign,,,,null,GW/hat.jpg,GW/basket.jpg,,,,,,,,,,,,
null,,black_cross(without_color),797507,blue,,,,null,GW/hat.jpg,GW/basket.jpg,,,,,,,,,,,,
null,,rt_plussign_withcolor,798009,blue,,,,null,GW/hat.jpg,GW/basket.jpg,,,,,,,,,,,,
1027.7000000476837,,rt_thecrossant_black,799303,black_plus_sign,,,,49,,,1,0.8356164383561644,,,,,,,,,,
null,,color_black,799405,black_plus_sign,,,,null,,,,,,,,,,,,,,
null,,learn_phase(without_color),801408,black_plus_sign,,,,null,GW/dustpan.jpg,GW/snail.jpg,,,,,,,,,,,,
null,,black_cross(without_color),802497,green,,,,null,GW/dustpan.jpg,GW/snail.jpg,,,,,,,,,,,,
null,,rt_plussign_withcolor,803000,green,,,,null,GW/dustpan.jpg,GW/snail.jpg,,,,,,,,,,,,
1144,,rt_thecrossant_black,803917,black_plus_sign,,,,50,,,1,0.8378378378378378,,,,,,,,,,
null,,color_black,804020,black_plus_sign,,,,null,,,,,,,,,,,,,,
null,,learn_phase(without_color),806024,black_plus_sign,,,,null,GW/jukebox.jpg,GW/dustpan.jpg,,,,,,,,,,,,
null,,black_cross(without_color),806885,blue,,,,null,GW/jukebox.jpg,GW/dustpan.jpg,,,,,,,,,,,,
null,,rt_plussign_withcolor,807388,blue,,,,null,GW/jukebox.jpg,GW/dustpan.jpg,,,,,,,,,,,,
1418,,rt_thecrossant_black,808532,black_plus_sign,,,,49,,,1,0.84,,,,,,,,,,
null,,color_black,808635,black_plus_sign,,,,null,,,,,,,,,,,,,,
null,,learn_phase(without_color),810638,black_plus_sign,,,,null,GW/barrel.jpg,GW/camera.jpg,,,,,,,,,,,,
null,,black_cross(without_color),811705,green,,,,null,GW/barrel.jpg,GW/camera.jpg,,,,,,,,,,,,
422.60000002384186,,rt_plussign_withcolor,812208,green,,,,50,GW/barrel.jpg,GW/camera.jpg,,,,,,,,,,,,
null,,rt_thecrossant_black,813146,black_plus_sign,,,,null,,,1,0.8421052631578947,,,,,,,,,,
null,,color_black,813249,black_plus_sign,,,,null,,,,,,,,,,,,,,
null,,learn_phase(without_color),815251,black_plus_sign,,,,null,GW/hat.jpg,GW/wheelchair.jpg,,,,,,,,,,,,
null,,black_cross(without_color),816195,blue,,,,null,GW/hat.jpg,GW/wheelchair.jpg,,,,,,,,,,,,
null,,rt_plussign_withcolor,816697,blue,,,,null,GW/hat.jpg,GW/wheelchair.jpg,,,,,,,,,,,,
1261.5,,rt_thecrossant_black,817759,black_plus_sign,,,,49,,,1,0.8441558441558441,,,,,,,,,,
null,,color_black,817862,black_plus_sign,,,,null,,,,,,,,,,,,,,
null,,learn_phase(without_color),819866,black_plus_sign,,,,null,GW/gong.jpg,GW/globe.jpg,,,,,,,,,,,,
null,,black_cross(without_color),820772,blue,,,,null,GW/gong.jpg,GW/globe.jpg,,,,,,,,,,,,
null,,rt_plussign_withcolor,821274,blue,,,,null,GW/gong.jpg,GW/globe.jpg,,,,,,,,,,,,
1273.8999999761581,,rt_thecrossant_black,822373,black_plus_sign,,,,49,,,1,0.8461538461538461,,,,,,,,,,
null,,color_black,822475,black_plus_sign,,,,null,,,,,,,,,,,,,,
null,,learn_phase(without_color),824479,black_plus_sign,,,,null,GW/hat.jpg,GW/wheelchair.jpg,,,,,,,,,,,,
null,,black_cross(without_color),825209,blue,,,,null,GW/hat.jpg,GW/wheelchair.jpg,,,,,,,,,,,,
null,,rt_plussign_withcolor,825712,blue,,,,null,GW/hat.jpg,GW/wheelchair.jpg,,,,,,,,,,,,
1041.3999999761581,,rt_thecrossant_black,826988,black_plus_sign,,,,49,,,1,0.8481012658227848,,,,,,,,,,
null,,color_black,827091,black_plus_sign,,,,null,,,,,,,,,,,,,,
null,,learn_phase(without_color),829094,black_plus_sign,,,,null,GW/globe.jpg,GW/soldier.jpg,,,,,,,,,,,,
null,,black_cross(without_color),829814,green,,,,null,GW/globe.jpg,GW/soldier.jpg,,,,,,,,,,,,
null,,rt_plussign_withcolor,830316,green,,,,null,GW/globe.jpg,GW/soldier.jpg,,,,,,,,,,,,
1089.300000011921,,rt_thecrossant_black,831602,black_plus_sign,,,,50,,,1,0.85,,,,,,,,,,
null,,color_black,831705,black_plus_sign,,,,null,,,,,,,,,,,,,,
null,,learn_phase(without_color),833709,black_plus_sign,,,,null,GW/hat.jpg,GW/wheelchair.jpg,,,,,,,,,,,,
null,,black_cross(without_color),834735,green,,,,null,GW/hat.jpg,GW/wheelchair.jpg,,,,,,,,,,,,
null,,rt_plussign_withcolor,835238,green,,,,null,GW/hat.jpg,GW/wheelchair.jpg,,,,,,,,,,,,
1326.800000011921,,rt_thecrossant_black,836217,black_plus_sign,,,,49,,,0,0.8395061728395061,,,,,,,,,,
null,,color_black,836320,black_plus_sign,,,,null,,,,,,,,,,,,,,
null,,learn_phase(without_color),838324,black_plus_sign,,,,null,GW/gong.jpg,GW/globe.jpg,,,,,,,,,,,,
null,,black_cross(without_color),838928,green,,,,null,GW/gong.jpg,GW/globe.jpg,,,,,,,,,,,,
null,,rt_plussign_withcolor,839431,green,,,,null,GW/gong.jpg,GW/globe.jpg,,,,,,,,,,,,
1685.5999999642372,,rt_thecrossant_black,840832,black_plus_sign,,,,50,,,1,0.8414634146341463,,,,,,,,,,
null,,color_black,840935,black_plus_sign,,,,null,,,,,,,,,,,,,,
null,,learn_phase(without_color),842939,black_plus_sign,,,,null,GW/globe.jpg,GW/soldier.jpg,,,,,,,,,,,,
null,,black_cross(without_color),843714,green,,,,null,GW/globe.jpg,GW/soldier.jpg,,,,,,,,,,,,
null,,rt_plussign_withcolor,844216,green,,,,null,GW/globe.jpg,GW/soldier.jpg,,,,,,,,,,,,
790.6999999880791,,rt_thecrossant_black,845446,black_plus_sign,,,,50,,,1,0.8433734939759037,,,,,,,,,,
null,,color_black,845548,black_plus_sign,,,,null,,,,,,,,,,,,,,
null,,learn_phase(without_color),847551,black_plus_sign,,,,null,GW/dustpan.jpg,GW/basket.jpg,,,,,,,,,,,,
null,,black_cross(without_color),848451,green,,,,null,GW/dustpan.jpg,GW/basket.jpg,,,,,,,,,,,,
null,,rt_plussign_withcolor,848952,green,,,,null,GW/dustpan.jpg,GW/basket.jpg,,,,,,,,,,,,
875.8000000119209,,rt_thecrossant_black,850058,black_plus_sign,,,,50,,,1,0.8452380952380952,,,,,,,,,,
null,,color_black,850161,black_plus_sign,,,,null,,,,,,,,,,,,,,
null,,learn_phase(without_color),852165,black_plus_sign,,,,null,GW/hat.jpg,GW/basket.jpg,,,,,,,,,,,,
null,,black_cross(without_color),852572,green,,,,null,GW/hat.jpg,GW/basket.jpg,,,,,,,,,,,,
null,,rt_plussign_withcolor,853075,green,,,,null,GW/hat.jpg,GW/basket.jpg,,,,,,,,,,,,
1176.5,,rt_thecrossant_black,854672,black_plus_sign,,,,49,,,0,0.8352941176470589,,,,,,,,,,
null,,color_black,854775,black_plus_sign,,,,null,,,,,,,,,,,,,,
null,,learn_phase(without_color),856779,black_plus_sign,,,,null,GW/hat.jpg,GW/wheelchair.jpg,,,,,,,,,,,,
null,,black_cross(without_color),857398,green,,,,null,GW/hat.jpg,GW/wheelchair.jpg,,,,,,,,,,,,
null,,rt_plussign_withcolor,857901,green,,,,null,GW/hat.jpg,GW/wheelchair.jpg,,,,,,,,,,,,
604.3999999761581,,rt_thecrossant_black,859288,black_plus_sign,,,,50,,,1,0.8372093023255814,,,,,,,,,,
null,,color_black,859392,black_plus_sign,,,,null,,,,,,,,,,,,,,
null,,learn_phase(without_color),861395,black_plus_sign,,,,null,GW/soldier.jpg,GW/camera.jpg,,,,,,,,,,,,
null,,black_cross(without_color),861839,blue,,,,null,GW/soldier.jpg,GW/camera.jpg,,,,,,,,,,,,
null,,rt_plussign_withcolor,862341,blue,,,,null,GW/soldier.jpg,GW/camera.jpg,,,,,,,,,,,,
1213.8999999761581,,rt_thecrossant_black,863901,black_plus_sign,,,,49,,,1,0.8390804597701149,,,,,,,,,,
null,,color_black,864003,black_plus_sign,,,,null,,,,,,,,,,,,,,
null,,learn_phase(without_color),866007,black_plus_sign,,,,null,GW/dustpan.jpg,GW/snail.jpg,,,,,,,,,,,,
null,,black_cross(without_color),866525,blue,,,,null,GW/dustpan.jpg,GW/snail.jpg,,,,,,,,,,,,
null,,rt_plussign_withcolor,867027,blue,,,,null,GW/dustpan.jpg,GW/snail.jpg,,,,,,,,,,,,
701.1999999880791,,rt_thecrossant_black,868516,black_plus_sign,,,,49,,,1,0.8409090909090909,,,,,,,,,,
null,,color_black,868618,black_plus_sign,,,,null,,,,,,,,,,,,,,
null,,learn_phase(without_color),870621,black_plus_sign,,,,null,GW/soldier.jpg,GW/camera.jpg,,,,,,,,,,,,
null,,black_cross(without_color),871468,blue,,,,null,GW/soldier.jpg,GW/camera.jpg,,,,,,,,,,,,
null,,rt_plussign_withcolor,871970,blue,,,,null,GW/soldier.jpg,GW/camera.jpg,,,,,,,,,,,,
799.8000000119209,,rt_thecrossant_black,873128,black_plus_sign,,,,49,,,1,0.8426966292134831,,,,,,,,,,
null,,color_black,873230,black_plus_sign,,,,null,,,,,,,,,,,,,,
null,,learn_phase(without_color),875233,black_plus_sign,,,,null,GW/globe.jpg,GW/jukebox.jpg,,,,,,,,,,,,
null,,black_cross(without_color),876172,green,,,,null,GW/globe.jpg,GW/jukebox.jpg,,,,,,,,,,,,
null,,rt_plussign_withcolor,876674,green,,,,null,GW/globe.jpg,GW/jukebox.jpg,,,,,,,,,,,,
1209.5,,rt_thecrossant_black,877739,black_plus_sign,,,,50,,,1,0.8444444444444444,,,,,,,,,,
null,,color_black,877841,black_plus_sign,,,,null,,,,,,,,,,,,,,
null,,learn_phase(without_color),879844,black_plus_sign,,,,null,GW/gong.jpg,GW/globe.jpg,,,,,,,,,,,,
null,,black_cross(without_color),880543,green,,,,null,GW/gong.jpg,GW/globe.jpg,,,,,,,,,,,,
null,,rt_plussign_withcolor,881045,green,,,,null,GW/gong.jpg,GW/globe.jpg,,,,,,,,,,,,
1102,,rt_thecrossant_black,882353,black_plus_sign,,,,50,,,1,0.8461538461538461,,,,,,,,,,
null,,color_black,882456,black_plus_sign,,,,null,,,,,,,,,,,,,,
null,,learn_phase(without_color),884460,black_plus_sign,,,,null,GW/dustpan.jpg,GW/basket.jpg,,,,,,,,,,,,
null,,black_cross(without_color),885253,green,,,,null,GW/dustpan.jpg,GW/basket.jpg,,,,,,,,,,,,
null,,rt_plussign_withcolor,885755,green,,,,null,GW/dustpan.jpg,GW/basket.jpg,,,,,,,,,,,,
1229.5999999642372,,rt_thecrossant_black,886967,black_plus_sign,,,,50,,,1,0.8478260869565217,,,,,,,,,,
null,,color_black,887069,black_plus_sign,,,,null,,,,,,,,,,,,,,
null,,learn_phase(without_color),889073,black_plus_sign,,,,null,GW/basket.jpg,GW/soldier.jpg,,,,,,,,,,,,
null,,black_cross(without_color),889906,blue,,,,null,GW/basket.jpg,GW/soldier.jpg,,,,,,,,,,,,
null,,rt_plussign_withcolor,890408,blue,,,,null,GW/basket.jpg,GW/soldier.jpg,,,,,,,,,,,,
913.5,,rt_thecrossant_black,891580,black_plus_sign,,,,49,,,1,0.8494623655913979,,,,,,,,,,
null,,color_black,891682,black_plus_sign,,,,null,,,,,,,,,,,,,,
null,,learn_phase(without_color),893684,black_plus_sign,,,,null,GW/soldier.jpg,GW/camera.jpg,,,,,,,,,,,,
null,,black_cross(without_color),894422,green,,,,null,GW/soldier.jpg,GW/camera.jpg,,,,,,,,,,,,
null,,rt_plussign_withcolor,894925,green,,,,null,GW/soldier.jpg,GW/camera.jpg,,,,,,,,,,,,
1122.699999988079,,rt_thecrossant_black,896192,black_plus_sign,,,,50,,,1,0.851063829787234,,,,,,,,,,
null,,color_black,896295,black_plus_sign,,,,null,,,,,,,,,,,,,,
null,,learn_phase(without_color),898298,black_plus_sign,,,,null,GW/dustpan.jpg,GW/hat.jpg,,,,,,,,,,,,
null,,black_cross(without_color),898729,green,,,,null,GW/dustpan.jpg,GW/hat.jpg,,,,,,,,,,,,
null,,rt_plussign_withcolor,899232,green,,,,null,GW/dustpan.jpg,GW/hat.jpg,,,,,,,,,,,,
1278.5999999642372,,rt_thecrossant_black,900806,black_plus_sign,,,,49,,,0,0.8421052631578947,,,,,,,,,,
null,,color_black,900909,black_plus_sign,,,,null,,,,,,,,,,,,,,
null,,learn_phase(without_color),902913,black_plus_sign,,,,null,GW/teeth.jpg,GW/gong.jpg,,,,,,,,,,,,
null,,black_cross(without_color),903376,blue,,,,null,GW/teeth.jpg,GW/gong.jpg,,,,,,,,,,,,
null,,rt_plussign_withcolor,903880,blue,,,,null,GW/teeth.jpg,GW/gong.jpg,,,,,,,,,,,,
848.6000000238419,,rt_thecrossant_black,905422,black_plus_sign,,,,49,,,1,0.84375,,,,,,,,,,
null,,color_black,905525,black_plus_sign,,,,null,,,,,,,,,,,,,,
null,,learn_phase(without_color),907529,black_plus_sign,,,,null,GW/dustpan.jpg,GW/hat.jpg,,,,,,,,,,,,
null,,black_cross(without_color),908015,green,,,,null,GW/dustpan.jpg,GW/hat.jpg,,,,,,,,,,,,
null,,rt_plussign_withcolor,908517,green,,,,null,GW/dustpan.jpg,GW/hat.jpg,,,,,,,,,,,,
841.1999999880791,,rt_thecrossant_black,910037,black_plus_sign,,,,50,,,1,0.845360824742268,,,,,,,,,,
null,,color_black,910139,black_plus_sign,,,,null,,,,,,,,,,,,,,
null,,learn_phase(without_color),912143,black_plus_sign,,,,null,GW/jukebox.jpg,GW/basket.jpg,,,,,,,,,,,,
null,,black_cross(without_color),912773,blue,,,,null,GW/jukebox.jpg,GW/basket.jpg,,,,,,,,,,,,
null,,rt_plussign_withcolor,913276,blue,,,,null,GW/jukebox.jpg,GW/basket.jpg,,,,,,,,,,,,
881.6000000238419,,rt_thecrossant_black,914652,black_plus_sign,,,,49,,,1,0.8469387755102041,,,,,,,,,,
null,,color_black,914755,black_plus_sign,,,,null,,,,,,,,,,,,,,
null,,learn_phase(without_color),916759,black_plus_sign,,,,null,GW/globe.jpg,GW/soldier.jpg,,,,,,,,,,,,
null,,black_cross(without_color),917389,green,,,,null,GW/globe.jpg,GW/soldier.jpg,,,,,,,,,,,,
null,,rt_plussign_withcolor,917891,green,,,,null,GW/globe.jpg,GW/soldier.jpg,,,,,,,,,,,,
951.9000000357628,,rt_thecrossant_black,919267,black_plus_sign,,,,50,,,1,0.8484848484848485,,,,,,,,,,
null,,color_black,919370,black_plus_sign,,,,null,,,,,,,,,,,,,,
null,,learn_phase(without_color),921373,black_plus_sign,,,,null,GW/dustpan.jpg,GW/snail.jpg,,,,,,,,,,,,
null,,black_cross(without_color),922335,green,,,,null,GW/dustpan.jpg,GW/snail.jpg,,,,,,,,,,,,
null,,rt_plussign_withcolor,922838,green,,,,null,GW/dustpan.jpg,GW/snail.jpg,,,,,,,,,,,,
823.3000000119209,,rt_thecrossant_black,923881,black_plus_sign,,,,50,,,1,0.85,,,,,,,,,,
null,,color_black,923984,black_plus_sign,,,,null,,,,,,,,,,,,,,
null,,learn_phase(without_color),925988,black_plus_sign,,,,null,GW/barrel.jpg,GW/paint.jpg,,,,,,,,,,,,
null,,black_cross(without_color),926662,blue,,,,null,GW/barrel.jpg,GW/paint.jpg,,,,,,,,,,,,
null,,rt_plussign_withcolor,927165,blue,,,,null,GW/barrel.jpg,GW/paint.jpg,,,,,,,,,,,,
1545.1000000238419,,rt_thecrossant_black,928497,black_plus_sign,,,,50,,,0,0.8415841584158416,,,,,,,,,,
null,,color_black,928600,black_plus_sign,,,,null,,,,,,,,,,,,,,
null,,learn_phase(without_color),930603,black_plus_sign,,,,null,GW/barrel.jpg,GW/camera.jpg,,,,,,,,,,,,
null,,black_cross(without_color),931220,green,,,,null,GW/barrel.jpg,GW/camera.jpg,,,,,,,,,,,,
null,,rt_plussign_withcolor,931723,green,,,,null,GW/barrel.jpg,GW/camera.jpg,,,,,,,,,,,,
1155.300000011921,,rt_thecrossant_black,933111,black_plus_sign,,,,50,,,1,0.8431372549019608,,,,,,,,,,
null,,color_black,933213,black_plus_sign,,,,null,,,,,,,,,,,,,,
null,,learn_phase(without_color),935216,black_plus_sign,,,,null,GW/globe.jpg,GW/jukebox.jpg,,,,,,,,,,,,
null,,black_cross(without_color),935956,green,,,,null,GW/globe.jpg,GW/jukebox.jpg,,,,,,,,,,,,
null,,rt_plussign_withcolor,936459,green,,,,null,GW/globe.jpg,GW/jukebox.jpg,,,,,,,,,,,,
1282.6000000238419,,rt_thecrossant_black,937725,black_plus_sign,,,,50,,,1,0.8446601941747572,,,,,,,,,,
null,,color_black,937828,black_plus_sign,,,,null,,,,,,,,,,,,,,
null,,learn_phase(without_color),939833,black_plus_sign,,,,null,GW/soldier.jpg,GW/camera.jpg,,,,,,,,,,,,
null,,black_cross(without_color),940360,blue,,,,null,GW/soldier.jpg,GW/camera.jpg,,,,,,,,,,,,
null,,rt_plussign_withcolor,940862,blue,,,,null,GW/soldier.jpg,GW/camera.jpg,,,,,,,,,,,,
933,,rt_thecrossant_black,942341,black_plus_sign,,,,49,,,1,0.8461538461538461,,,,,,,,,,
null,,color_black,942443,black_plus_sign,,,,null,,,,,,,,,,,,,,
null,,learn_phase(without_color),944447,black_plus_sign,,,,null,GW/gong.jpg,GW/barrel.jpg,,,,,,,,,,,,
null,,black_cross(without_color),945026,green,,,,null,GW/gong.jpg,GW/barrel.jpg,,,,,,,,,,,,
null,,rt_plussign_withcolor,945529,green,,,,null,GW/gong.jpg,GW/barrel.jpg,,,,,,,,,,,,
1080.5,,rt_thecrossant_black,946956,black_plus_sign,,,,49,,,0,0.8380952380952381,,,,,,,,,,
null,,color_black,947059,black_plus_sign,,,,null,,,,,,,,,,,,,,
null,,learn_phase(without_color),949062,black_plus_sign,,,,null,GW/hat.jpg,GW/wheelchair.jpg,,,,,,,,,,,,
null,,black_cross(without_color),949750,blue,,,,null,GW/hat.jpg,GW/wheelchair.jpg,,,,,,,,,,,,
null,,rt_plussign_withcolor,950253,blue,,,,null,GW/hat.jpg,GW/wheelchair.jpg,,,,,,,,,,,,
null,,rt_thecrossant_black,951569,black_plus_sign,,,,null,,,,0.8380952380952381,,,,,,,,,,
null,,warning_page,954573,warning,,,,null,,,,,,,,,,,,,,
null,,color_black,954676,black_plus_sign,,,,null,,,,,,,,,,,,,,
null,,learn_phase(without_color),956679,black_plus_sign,,,,null,GW/gong.jpg,GW/barrel.jpg,,,,,,,,,,,,
null,,black_cross(without_color),957695,green,,,,null,GW/gong.jpg,GW/barrel.jpg,,,,,,,,,,,,
null,,rt_plussign_withcolor,958197,green,,,,null,GW/gong.jpg,GW/barrel.jpg,,,,,,,,,,,,
941.1000000238419,,rt_thecrossant_black,959187,black_plus_sign,,,,50,,,1,0.839622641509434,,,,,,,,,,
null,,color_black,959290,black_plus_sign,,,,null,,,,,,,,,,,,,,
null,,learn_phase(without_color),961293,black_plus_sign,,,,null,GW/jukebox.jpg,GW/basket.jpg,,,,,,,,,,,,
null,,black_cross(without_color),962152,blue,,,,null,GW/jukebox.jpg,GW/basket.jpg,,,,,,,,,,,,
null,,rt_plussign_withcolor,962655,blue,,,,null,GW/jukebox.jpg,GW/basket.jpg,,,,,,,,,,,,
1178.0999999642372,,rt_thecrossant_black,963802,black_plus_sign,,,,49,,,1,0.8411214953271028,,,,,,,,,,
null,,color_black,963905,black_plus_sign,,,,null,,,,,,,,,,,,,,
null,,learn_phase(without_color),965909,black_plus_sign,,,,null,GW/dustpan.jpg,GW/hat.jpg,,,,,,,,,,,,
null,,black_cross(without_color),966315,green,,,,null,GW/dustpan.jpg,GW/hat.jpg,,,,,,,,,,,,
null,,rt_plussign_withcolor,966817,green,,,,null,GW/dustpan.jpg,GW/hat.jpg,,,,,,,,,,,,
1250.1000000238419,,rt_thecrossant_black,968418,black_plus_sign,,,,50,,,1,0.8425925925925926,,,,,,,,,,
null,,color_black,968521,black_plus_sign,,,,null,,,,,,,,,,,,,,
null,,learn_phase(without_color),970525,black_plus_sign,,,,null,GW/globe.jpg,GW/jukebox.jpg,,,,,,,,,,,,
null,,black_cross(without_color),971118,blue,,,,null,GW/globe.jpg,GW/jukebox.jpg,,,,,,,,,,,,
null,,rt_plussign_withcolor,971621,blue,,,,null,GW/globe.jpg,GW/jukebox.jpg,,,,,,,,,,,,
717,,rt_thecrossant_black,973034,black_plus_sign,,,,49,,,1,0.8440366972477065,,,,,,,,,,
null,,color_black,973136,black_plus_sign,,,,null,,,,,,,,,,,,,,
null,,learn_phase(without_color),975140,black_plus_sign,,,,null,GW/hat.jpg,GW/basket.jpg,,,,,,,,,,,,
null,,black_cross(without_color),976015,blue,,,,null,GW/hat.jpg,GW/basket.jpg,,,,,,,,,,,,
null,,rt_plussign_withcolor,976517,blue,,,,null,GW/hat.jpg,GW/basket.jpg,,,,,,,,,,,,
1207.2999999523163,,rt_thecrossant_black,977648,black_plus_sign,,,,49,,,1,0.8454545454545455,,,,,,,,,,
null,,color_black,977751,black_plus_sign,,,,null,,,,,,,,,,,,,,
null,,learn_phase(without_color),979755,black_plus_sign,,,,null,GW/barrel.jpg,GW/camera.jpg,,,,,,,,,,,,
null,,black_cross(without_color),980181,green,,,,null,GW/barrel.jpg,GW/camera.jpg,,,,,,,,,,,,
null,,rt_plussign_withcolor,980683,green,,,,null,GW/barrel.jpg,GW/camera.jpg,,,,,,,,,,,,
1192.5,,rt_thecrossant_black,982264,black_plus_sign,,,,50,,,1,0.8468468468468469,,,,,,,,,,
null,,color_black,982367,black_plus_sign,,,,null,,,,,,,,,,,,,,
null,,learn_phase(without_color),984371,black_plus_sign,,,,null,GW/dustpan.jpg,GW/basket.jpg,,,,,,,,,,,,
null,,black_cross(without_color),985381,blue,,,,null,GW/dustpan.jpg,GW/basket.jpg,,,,,,,,,,,,
479.80000001192093,,rt_plussign_withcolor,985884,blue,,,,49,GW/dustpan.jpg,GW/basket.jpg,,,,,,,,,,,,
null,,rt_thecrossant_black,986880,black_plus_sign,,,,null,,,1,0.8482142857142857,,,,,,,,,,
null,,color_black,986983,black_plus_sign,,,,null,,,,,,,,,,,,,,
null,,learn_phase(without_color),988986,black_plus_sign,,,,null,GW/soldier.jpg,GW/camera.jpg,,,,,,,,,,,,
null,,black_cross(without_color),989680,blue,,,,null,GW/soldier.jpg,GW/camera.jpg,,,,,,,,,,,,
null,,rt_plussign_withcolor,990183,blue,,,,null,GW/soldier.jpg,GW/camera.jpg,,,,,,,,,,,,
1422.1000000238419,,rt_thecrossant_black,991494,black_plus_sign,,,,49,,,1,0.8495575221238938,,,,,,,,,,
null,,color_black,991596,black_plus_sign,,,,null,,,,,,,,,,,,,,
null,,learn_phase(without_color),993600,black_plus_sign,,,,null,GW/gong.jpg,GW/barrel.jpg,,,,,,,,,,,,
null,,black_cross(without_color),994573,blue,,,,null,GW/gong.jpg,GW/barrel.jpg,,,,,,,,,,,,
null,,rt_plussign_withcolor,995076,blue,,,,null,GW/gong.jpg,GW/barrel.jpg,,,,,,,,,,,,
964.2999999523163,,rt_thecrossant_black,996107,black_plus_sign,,,,49,,,1,0.8508771929824561,,,,,,,,,,
null,,color_black,996209,black_plus_sign,,,,null,,,,,,,,,,,,,,
null,,learn_phase(without_color),998212,black_plus_sign,,,,null,GW/jukebox.jpg,GW/dustpan.jpg,,,,,,,,,,,,
null,,black_cross(without_color),998976,blue,,,,null,GW/jukebox.jpg,GW/dustpan.jpg,,,,,,,,,,,,
null,,rt_plussign_withcolor,999478,blue,,,,null,GW/jukebox.jpg,GW/dustpan.jpg,,,,,,,,,,,,
1273.4000000357628,,rt_thecrossant_black,1000721,black_plus_sign,,,,49,,,1,0.8521739130434782,,,,,,,,,,
null,,color_black,1000823,black_plus_sign,,,,null,,,,,,,,,,,,,,
null,,learn_phase(without_color),1002826,black_plus_sign,,,,null,GW/dustpan.jpg,GW/hat.jpg,,,,,,,,,,,,
null,,black_cross(without_color),1003836,green,,,,null,GW/dustpan.jpg,GW/hat.jpg,,,,,,,,,,,,
null,,rt_plussign_withcolor,1004339,green,,,,null,GW/dustpan.jpg,GW/hat.jpg,,,,,,,,,,,,
1185,,rt_thecrossant_black,1005335,black_plus_sign,,,,50,,,1,0.853448275862069,,,,,,,,,,
null,,color_black,1005437,black_plus_sign,,,,null,,,,,,,,,,,,,,
null,,learn_phase(without_color),1007440,black_plus_sign,,,,null,GW/hat.jpg,GW/basket.jpg,,,,,,,,,,,,
null,,black_cross(without_color),1008090,green,,,,null,GW/hat.jpg,GW/basket.jpg,,,,,,,,,,,,
null,,rt_plussign_withcolor,1008592,green,,,,null,GW/hat.jpg,GW/basket.jpg,,,,,,,,,,,,
1773.199999988079,,rt_thecrossant_black,1009948,black_plus_sign,,,,50,,,1,0.8547008547008547,,,,,,,,,,
null,,color_black,1010049,black_plus_sign,,,,null,,,,,,,,,,,,,,
null,,learn_phase(without_color),1012053,black_plus_sign,,,,null,GW/gong.jpg,GW/barrel.jpg,,,,,,,,,,,,
null,,black_cross(without_color),1012944,green,,,,null,GW/gong.jpg,GW/barrel.jpg,,,,,,,,,,,,
null,,rt_plussign_withcolor,1013446,green,,,,null,GW/gong.jpg,GW/barrel.jpg,,,,,,,,,,,,
886.8000000119209,,rt_thecrossant_black,1014562,black_plus_sign,,,,50,,,1,0.8559322033898306,,,,,,,,,,
null,,color_black,1014665,black_plus_sign,,,,null,,,,,,,,,,,,,,
null,,learn_phase(without_color),1016668,black_plus_sign,,,,null,GW/barrel.jpg,GW/paint.jpg,,,,,,,,,,,,
null,,black_cross(without_color),1017482,green,,,,null,GW/barrel.jpg,GW/paint.jpg,,,,,,,,,,,,
null,,rt_plussign_withcolor,1017984,green,,,,null,GW/barrel.jpg,GW/paint.jpg,,,,,,,,,,,,
1051.3999999761581,,rt_thecrossant_black,1019176,black_plus_sign,,,,50,,,1,0.8571428571428571,,,,,,,,,,
null,,color_black,1019279,black_plus_sign,,,,null,,,,,,,,,,,,,,
null,,learn_phase(without_color),1021283,black_plus_sign,,,,null,GW/soldier.jpg,GW/camera.jpg,,,,,,,,,,,,
null,,black_cross(without_color),1022245,blue,,,,null,GW/soldier.jpg,GW/camera.jpg,,,,,,,,,,,,
null,,rt_plussign_withcolor,1022747,blue,,,,null,GW/soldier.jpg,GW/camera.jpg,,,,,,,,,,,,
1311.5999999642372,,rt_thecrossant_black,1023791,black_plus_sign,,,,49,,,1,0.8583333333333333,,,,,,,,,,
null,,color_black,1023895,black_plus_sign,,,,null,,,,,,,,,,,,,,
null,,learn_phase(without_color),1025900,black_plus_sign,,,,null,GW/dustpan.jpg,GW/snail.jpg,,,,,,,,,,,,
null,,black_cross(without_color),1026441,green,,,,null,GW/dustpan.jpg,GW/snail.jpg,,,,,,,,,,,,
null,,rt_plussign_withcolor,1026944,green,,,,null,GW/dustpan.jpg,GW/snail.jpg,,,,,,,,,,,,
1285.800000011921,,rt_thecrossant_black,1028407,black_plus_sign,,,,50,,,1,0.859504132231405,,,,,,,,,,
null,,color_black,1028510,black_plus_sign,,,,null,,,,,,,,,,,,,,
null,,learn_phase(without_color),1030514,black_plus_sign,,,,null,GW/barrel.jpg,GW/paint.jpg,,,,,,,,,,,,
null,,black_cross(without_color),1031532,blue,,,,null,GW/barrel.jpg,GW/paint.jpg,,,,,,,,,,,,
null,,rt_plussign_withcolor,1032035,blue,,,,null,GW/barrel.jpg,GW/paint.jpg,,,,,,,,,,,,
1414.8999999761581,,rt_thecrossant_black,1033022,black_plus_sign,,,,49,,,1,0.860655737704918,,,,,,,,,,
null,,color_black,1033125,black_plus_sign,,,,null,,,,,,,,,,,,,,
null,,learn_phase(without_color),1035129,black_plus_sign,,,,null,GW/jukebox.jpg,GW/basket.jpg,,,,,,,,,,,,
null,,black_cross(without_color),1035873,blue,,,,null,GW/jukebox.jpg,GW/basket.jpg,,,,,,,,,,,,
null,,rt_plussign_withcolor,1036375,blue,,,,null,GW/jukebox.jpg,GW/basket.jpg,,,,,,,,,,,,
1373.6000000238419,,rt_thecrossant_black,1037637,black_plus_sign,,,,49,,,1,0.8617886178861789,,,,,,,,,,
null,,color_black,1037740,black_plus_sign,,,,null,,,,,,,,,,,,,,
null,,learn_phase(without_color),1039744,black_plus_sign,,,,null,GW/teeth.jpg,GW/gong.jpg,,,,,,,,,,,,
null,,black_cross(without_color),1040461,green,,,,null,GW/teeth.jpg,GW/gong.jpg,,,,,,,,,,,,
null,,rt_plussign_withcolor,1040964,green,,,,null,GW/teeth.jpg,GW/gong.jpg,,,,,,,,,,,,
1330.699999988079,,rt_thecrossant_black,1042253,black_plus_sign,,,,50,,,1,0.8629032258064516,,,,,,,,,,
null,,color_black,1042357,black_plus_sign,,,,null,,,,,,,,,,,,,,
null,,learn_phase(without_color),1044360,black_plus_sign,,,,null,GW/gong.jpg,GW/barrel.jpg,,,,,,,,,,,,
null,,black_cross(without_color),1044850,green,,,,null,GW/gong.jpg,GW/barrel.jpg,,,,,,,,,,,,
null,,rt_plussign_withcolor,1045352,green,,,,null,GW/gong.jpg,GW/barrel.jpg,,,,,,,,,,,,
869,,rt_thecrossant_black,1046867,black_plus_sign,,,,50,,,1,0.864,,,,,,,,,,
null,,color_black,1046969,black_plus_sign,,,,null,,,,,,,,,,,,,,
null,,learn_phase(without_color),1048971,black_plus_sign,,,,null,GW/gong.jpg,GW/globe.jpg,,,,,,,,,,,,
null,,black_cross(without_color),1049455,blue,,,,null,GW/gong.jpg,GW/globe.jpg,,,,,,,,,,,,
null,,rt_plussign_withcolor,1049957,blue,,,,null,GW/gong.jpg,GW/globe.jpg,,,,,,,,,,,,
806.7999999523163,,rt_thecrossant_black,1051479,black_plus_sign,,,,49,,,1,0.8650793650793651,,,,,,,,,,
null,,color_black,1051582,black_plus_sign,,,,null,,,,,,,,,,,,,,
null,,learn_phase(without_color),1053585,black_plus_sign,,,,null,GW/dustpan.jpg,GW/basket.jpg,,,,,,,,,,,,
null,,black_cross(without_color),1054295,blue,,,,null,GW/dustpan.jpg,GW/basket.jpg,,,,,,,,,,,,
null,,rt_plussign_withcolor,1054798,blue,,,,null,GW/dustpan.jpg,GW/basket.jpg,,,,,,,,,,,,
843,,rt_thecrossant_black,1056093,black_plus_sign,,,,49,,,1,0.8661417322834646,,,,,,,,,,
null,,color_black,1056195,black_plus_sign,,,,null,,,,,,,,,,,,,,
360624.1999999881,,intro_1,1416830,instruct,,0,Start,,,,,,,,,,,,,,,
2040.800000011921,,directmemory_phase,1418872,GW/jukebox.jpg,,,,49,,,0,0,GW/camera.jpg,GW/snail.jpg,GW/globe.jpg,GW/globe.jpg,GW/snail.jpg,GW/camera.jpg,0.5,closer,,
null,,html-keyboard-response,1419875,<p></p>,,,,null,,,,,,,,,,,,,,
2260.399999976158,,directmemory_phase,1422137,GW/teeth.jpg,,,,50,,,0,0,GW/dustpan.jpg,GW/globe.jpg,GW/gong.jpg,GW/gong.jpg,GW/globe.jpg,GW/dustpan.jpg,0.5,closer,,
null,,html-keyboard-response,1423140,<p></p>,,,,null,,,,,,,,,,,,,,
2841,,directmemory_phase,1425982,GW/basket.jpg,,,,51,,,1,0.3333333333333333,GW/barrel.jpg,GW/wheelchair.jpg,GW/dustpan.jpg,GW/dustpan.jpg,GW/wheelchair.jpg,GW/barrel.jpg,1,,,
null,,html-keyboard-response,1426986,<p></p>,,,,null,,,,,,,,,,,,,,
3268.100000023842,,directmemory_phase,1430255,GW/gong.jpg,,,,50,,,0,0.25,GW/snail.jpg,GW/soldier.jpg,GW/barrel.jpg,GW/barrel.jpg,GW/soldier.jpg,GW/snail.jpg,0.5,closer,,
null,,html-keyboard-response,1431258,<p></p>,,,,null,,,,,,,,,,,,,,
5367.5,,directmemory_phase,1436627,GW/hat.jpg,,,,49,,,0,0.2,GW/snail.jpg,GW/wheelchair.jpg,GW/camera.jpg,GW/wheelchair.jpg,GW/snail.jpg,GW/camera.jpg,0.5,closer,,
null,,html-keyboard-response,1437629,<p></p>,,,,null,,,,,,,,,,,,,,
null,,directmemory_phase,1444132,GW/gong.jpg,,,,null,,,0,0.16666666666666666,GW/globe.jpg,GW/dustpan.jpg,GW/jukebox.jpg,GW/globe.jpg,GW/jukebox.jpg,GW/dustpan.jpg,0,,,
null,,html-keyboard-response,1445135,<p></p>,,,,null,,,,,,,,,,,,,,
1345.699999988079,,directmemory_phase,1446482,GW/hat.jpg,,,,49,,,1,0.2857142857142857,GW/dustpan.jpg,GW/globe.jpg,GW/soldier.jpg,GW/dustpan.jpg,GW/soldier.jpg,GW/globe.jpg,1,,,
null,,html-keyboard-response,1447485,<p></p>,,,,null,,,,,,,,,,,,,,
3279.899999976158,,directmemory_phase,1450766,GW/globe.jpg,,,,49,,,0,0.25,GW/paint.jpg,GW/basket.jpg,GW/gong.jpg,GW/gong.jpg,GW/basket.jpg,GW/paint.jpg,0.5,closer,,
null,,html-keyboard-response,1451769,<p></p>,,,,null,,,,,,,,,,,,,,
null,,directmemory_phase,1458272,GW/hat.jpg,,,,null,,,0,0.2222222222222222,GW/basket.jpg,GW/barrel.jpg,GW/jukebox.jpg,GW/basket.jpg,GW/jukebox.jpg,GW/barrel.jpg,0,,,
null,,html-keyboard-response,1459276,<p></p>,,,,null,,,,,,,,,,,,,,
1479.800000011921,,directmemory_phase,1460757,GW/barrel.jpg,,,,49,,,1,0.3,GW/camera.jpg,GW/jukebox.jpg,GW/soldier.jpg,GW/camera.jpg,GW/soldier.jpg,GW/jukebox.jpg,1,,,
null,,html-keyboard-response,1461760,<p></p>,,,,null,,,,,,,,,,,,,,
2377.600000023842,,directmemory_phase,1464139,GW/wheelchair.jpg,,,,51,,,0,0.2727272727272727,GW/hat.jpg,GW/jukebox.jpg,GW/basket.jpg,GW/hat.jpg,GW/basket.jpg,GW/jukebox.jpg,0.5,closer,,
null,,html-keyboard-response,1465142,<p></p>,,,,null,,,,,,,,,,,,,,
3204.900000035763,,directmemory_phase,1468348,GW/soldier.jpg,,,,51,,,0,0.25,GW/jukebox.jpg,GW/basket.jpg,GW/wheelchair.jpg,GW/basket.jpg,GW/jukebox.jpg,GW/wheelchair.jpg,0.5,closer,,
null,,html-keyboard-response,1469351,<p></p>,,,,null,,,,,,,,,,,,,,
3473.699999988079,,directmemory_phase,1472826,GW/dustpan.jpg,,,,51,,,0,0.23076923076923078,GW/wheelchair.jpg,GW/snail.jpg,GW/gong.jpg,GW/snail.jpg,GW/wheelchair.jpg,GW/gong.jpg,0.5,closer,,
null,,html-keyboard-response,1473828,<p></p>,,,,null,,,,,,,,,,,,,,
1769.5,,directmemory_phase,1475599,GW/basket.jpg,,,,49,,,0,0.21428571428571427,GW/camera.jpg,GW/soldier.jpg,GW/barrel.jpg,GW/soldier.jpg,GW/camera.jpg,GW/barrel.jpg,0.5,closer,,
null,,html-keyboard-response,1476602,<p></p>,,,,null,,,,,,,,,,,,,,
2109,,directmemory_phase,1478712,GW/camera.jpg,,,,50,,,1,0.26666666666666666,GW/basket.jpg,GW/barrel.jpg,GW/dustpan.jpg,GW/barrel.jpg,GW/basket.jpg,GW/dustpan.jpg,1,,,
null,,html-keyboard-response,1479715,<p></p>,,,,null,,,,,,,,,,,,,,
2837.699999988079,,directmemory_phase,1482554,GW/snail.jpg,,,,50,,,0,0.25,GW/wheelchair.jpg,GW/basket.jpg,GW/dustpan.jpg,GW/dustpan.jpg,GW/basket.jpg,GW/wheelchair.jpg,0.5,closer,,
null,,html-keyboard-response,1483557,<p></p>,,,,null,,,,,,,,,,,,,,
1536.3999999761581,,directmemory_phase,1485094,GW/camera.jpg,,,,51,,,0,0.23529411764705882,GW/gong.jpg,GW/soldier.jpg,GW/snail.jpg,GW/soldier.jpg,GW/gong.jpg,GW/snail.jpg,0.5,closer,,
null,,html-keyboard-response,1486097,<p></p>,,,,null,,,,,,,,,,,,,,
1322.5999999642372,,directmemory_phase,1487421,GW/jukebox.jpg,,,,51,,,0,0.2222222222222222,GW/dustpan.jpg,GW/camera.jpg,GW/hat.jpg,GW/dustpan.jpg,GW/hat.jpg,GW/camera.jpg,0.5,closer,,
null,,html-keyboard-response,1488424,<p></p>,,,,null,,,,,,,,,,,,,,
1592.800000011921,,directmemory_phase,1490018,GW/barrel.jpg,,,,51,,,1,0.2631578947368421,GW/dustpan.jpg,GW/globe.jpg,GW/gong.jpg,GW/gong.jpg,GW/globe.jpg,GW/dustpan.jpg,1,,,
null,,html-keyboard-response,1491021,<p></p>,,,,null,,,,,,,,,,,,,,
2069.800000011921,,directmemory_phase,1493092,GW/globe.jpg,,,,49,,,0,0.25,GW/paint.jpg,GW/basket.jpg,GW/jukebox.jpg,GW/jukebox.jpg,GW/basket.jpg,GW/paint.jpg,0.5,closer,,
null,,html-keyboard-response,1494094,<p></p>,,,,null,,,,,,,,,,,,,,
1217.6000000238419,,directmemory_phase,1495313,GW/dustpan.jpg,,,,49,,,0,0.23809523809523808,GW/gong.jpg,GW/soldier.jpg,GW/hat.jpg,GW/hat.jpg,GW/soldier.jpg,GW/gong.jpg,0.5,closer,,
null,,html-keyboard-response,1496316,<p></p>,,,,null,,,,,,,,,,,,,,
1905,,directmemory_phase,1498222,GW/paint.jpg,,,,50,,,0,0.22727272727272727,GW/globe.jpg,GW/gong.jpg,GW/barrel.jpg,GW/barrel.jpg,GW/gong.jpg,GW/globe.jpg,0.5,closer,,
null,,html-keyboard-response,1499225,<p></p>,,,,null,,,,,,,,,,,,,,
2360.100000023842,,directmemory_phase,1501587,GW/basket.jpg,,,,51,,,1,0.2608695652173913,GW/teeth.jpg,GW/camera.jpg,GW/hat.jpg,GW/hat.jpg,GW/camera.jpg,GW/teeth.jpg,1,,,
null,,html-keyboard-response,1502589,<p></p>,,,,null,,,,,,,,,,,,,,
1734.300000011921,,directmemory_phase,1504325,GW/barrel.jpg,,,,49,,,0,0.25,GW/soldier.jpg,GW/paint.jpg,GW/basket.jpg,GW/paint.jpg,GW/soldier.jpg,GW/basket.jpg,0.5,closer,,
null,,html-keyboard-response,1505328,<p></p>,,,,null,,,,,,,,,,,,,,
2201.899999976158,,directmemory_phase,1507531,GW/globe.jpg,,,,50,,,0,0.24,GW/paint.jpg,GW/basket.jpg,GW/soldier.jpg,GW/soldier.jpg,GW/basket.jpg,GW/paint.jpg,0.5,closer,,
null,,html-keyboard-response,1508534,<p></p>,,,,null,,,,,,,,,,,,,,
2179.300000011921,,directmemory_phase,1510714,GW/dustpan.jpg,,,,49,,,1,0.2692307692307692,GW/jukebox.jpg,GW/gong.jpg,GW/soldier.jpg,GW/jukebox.jpg,GW/soldier.jpg,GW/gong.jpg,1,,,
null,,html-keyboard-response,1511717,<p></p>,,,,null,,,,,,,,,,,,,,
2033.199999988079,,directmemory_phase,1513751,GW/gong.jpg,,,,50,,,1,0.2962962962962963,GW/soldier.jpg,GW/teeth.jpg,GW/basket.jpg,GW/teeth.jpg,GW/soldier.jpg,GW/basket.jpg,1,,,
null,,html-keyboard-response,1514755,<p></p>,,,,null,,,,,,,,,,,,,,
2497.7000000476837,,directmemory_phase,1517253,GW/soldier.jpg,,,,51,,,1,0.32142857142857145,GW/snail.jpg,GW/gong.jpg,GW/camera.jpg,GW/camera.jpg,GW/gong.jpg,GW/snail.jpg,1,,,
null,,html-keyboard-response,1518257,<p></p>,,,,null,,,,,,,,,,,,,,
2973.800000011921,,directmemory_phase,1521232,GW/dustpan.jpg,,,,49,,,0,0.3103448275862069,GW/globe.jpg,GW/basket.jpg,GW/teeth.jpg,GW/basket.jpg,GW/globe.jpg,GW/teeth.jpg,0.5,closer,,
null,,html-keyboard-response,1522236,<p></p>,,,,null,,,,,,,,,,,,,,
2944.600000023842,,directmemory_phase,1525181,GW/soldier.jpg,,,,49,,,0,0.3,GW/teeth.jpg,GW/dustpan.jpg,GW/globe.jpg,GW/globe.jpg,GW/dustpan.jpg,GW/teeth.jpg,0.5,closer,,
null,,html-keyboard-response,1526185,<p></p>,,,,null,,,,,,,,,,,,,,
1178.300000011921,,directmemory_phase,1527364,GW/jukebox.jpg,,,,50,,,0,0.2903225806451613,GW/barrel.jpg,GW/snail.jpg,GW/basket.jpg,GW/basket.jpg,GW/snail.jpg,GW/barrel.jpg,0.5,closer,,
null,,html-keyboard-response,1528367,<p></p>,,,,null,,,,,,,,,,,,,,
1661.6000000238419,,directmemory_phase,1530030,,,,,49,,,1,0.3125,,,,,,,0.5,closer,,
null,,html-keyboard-response,1531032,<p></p>,,,,null,,,,,,,,,,,,,,
4634.300000011921,,intro_1,1535668,instruct,,0,,,,,,,,,,,,,,,,
2715.899999976158,,intro_2,1538385,instruct,,1,Next,,,,,,,,,,,,,,,
2386.100000023842,,intro_3,1540773,instruct,,1,Next,,,,,,,,,,,,,,,
27837.100000023842,,intro_4,1568613,instruct,,1,Next,,,,,,,,,,,,,,,
6982.400000035763,,intro_5,1575597,instruct,,1,Next,,,,,,,,,,,,,,,
3777.2000000476837,,intro_6,1579376,instruct,,1,Next,,,,,,,,,,,,,,,
4324.600000023842,,intro_7,1583703,instruct,,1,Next,,,,,,,,,,,,,,,
4590.5,,intro_8,1588296,instruct,,1,Next,,,,,,,,,,,,,,,
1933.300000011921,,shortestpath_phase,1590231,GW/paint.jpg,,,,50,GW/jukebox.jpg,GW/globe.jpg,1,1,,,,GW/globe.jpg,,,,,One Edge Diff,Three Edge Four Edge
null,,html-keyboard-response,1591234,<p></p>,,,,null,,,,,,,,,,,,,,
1554.699999988079,,shortestpath_phase,1592789,GW/wheelchair.jpg,,,,50,GW/jukebox.jpg,GW/dustpan.jpg,1,1,,,,GW/dustpan.jpg,,,,,One Edge Diff,Two Edge Three Edge
null,,html-keyboard-response,1593791,<p></p>,,,,null,,,,,,,,,,,,,,
746.8000000119209,,shortestpath_phase,1594539,GW/paint.jpg,,,,49,GW/hat.jpg,GW/camera.jpg,0,0.6666666666666666,,,,GW/camera.jpg,,,,,Three Edge Diff,Three Edge Six Edge
null,,html-keyboard-response,1595542,<p></p>,,,,null,,,,,,,,,,,,,,
1597.7999999523163,,shortestpath_phase,1597141,GW/jukebox.jpg,,,,49,GW/paint.jpg,GW/hat.jpg,0,0.5,,,,GW/hat.jpg,,,,,Two Edge Diff,Two Edge Four Edge
null,,html-keyboard-response,1598145,<p></p>,,,,null,,,,,,,,,,,,,,
1400.9000000357628,,shortestpath_phase,1599547,GW/teeth.jpg,,,,49,GW/hat.jpg,GW/paint.jpg,0,0.4,,,,GW/paint.jpg,,,,,Two Edge Diff,Three Edge Five Edge
null,,html-keyboard-response,1600550,<p></p>,,,,null,,,,,,,,,,,,,,
1064.3999999761581,,shortestpath_phase,1601616,GW/barrel.jpg,,,,49,GW/dustpan.jpg,GW/wheelchair.jpg,1,0.5,,,,GW/dustpan.jpg,,,,,One Edge Diff,Four Edge Five Edge
null,,html-keyboard-response,1602617,<p></p>,,,,null,,,,,,,,,,,,,,
1219.800000011921,,shortestpath_phase,1603838,GW/paint.jpg,,,,50,GW/hat.jpg,GW/snail.jpg,0,0.42857142857142855,,,,GW/hat.jpg,,,,,One Edge Diff,Five Edge Six Edge
null,,html-keyboard-response,1604841,<p></p>,,,,null,,,,,,,,,,,,,,
1400.9000000357628,,shortestpath_phase,1606243,GW/jukebox.jpg,,,,49,GW/paint.jpg,GW/snail.jpg,0,0.375,,,,GW/snail.jpg,,,,,Two Edge Diff,Two Edge Four Edge
null,,html-keyboard-response,1607245,<p></p>,,,,null,,,,,,,,,,,,,,
1088.699999988079,,shortestpath_phase,1608335,GW/soldier.jpg,,,,49,GW/barrel.jpg,GW/snail.jpg,1,0.4444444444444444,,,,GW/barrel.jpg,,,,,One Edge Diff,Two Edge Three Edge
null,,html-keyboard-response,1609338,<p></p>,,,,null,,,,,,,,,,,,,,
1283.699999988079,,shortestpath_phase,1610623,GW/teeth.jpg,,,,50,GW/basket.jpg,GW/paint.jpg,1,0.5,,,,GW/paint.jpg,,,,,One Edge Diff,Three Edge Four Edge
null,,html-keyboard-response,1611626,<p></p>,,,,null,,,,,,,,,,,,,,
1247.5999999642372,,shortestpath_phase,1612874,GW/snail.jpg,,,,49,GW/gong.jpg,GW/paint.jpg,1,0.5454545454545454,,,,GW/gong.jpg,,,,,Two Edge Diff,Four Edge Six Edge
null,,html-keyboard-response,1613877,<p></p>,,,,null,,,,,,,,,,,,,,
1401.8999999761581,,shortestpath_phase,1615280,GW/globe.jpg,,,,50,GW/hat.jpg,GW/dustpan.jpg,1,0.5833333333333334,,,,GW/dustpan.jpg,,,,,One Edge Diff,Two Edge Three Edge
null,,html-keyboard-response,1616282,<p></p>,,,,null,,,,,,,,,,,,,,
1376.699999988079,,shortestpath_phase,1617660,GW/wheelchair.jpg,,,,50,GW/barrel.jpg,GW/snail.jpg,1,0.6153846153846154,,,,GW/snail.jpg,,,,,Two Edge Diff,Three Edge Five Edge
null,,html-keyboard-response,1618664,<p></p>,,,,null,,,,,,,,,,,,,,
1253.2000000476837,,shortestpath_phase,1619918,GW/camera.jpg,,,,49,GW/jukebox.jpg,GW/snail.jpg,1,0.6428571428571429,,,,GW/jukebox.jpg,,,,,One Edge Diff,Three Edge Four Edge
null,,html-keyboard-response,1620921,<p></p>,,,,null,,,,,,,,,,,,,,
2132.600000023842,,shortestpath_phase,1623054,GW/hat.jpg,,,,49,GW/teeth.jpg,GW/snail.jpg,0,0.6,,,,GW/snail.jpg,,,,,Three Edge Diff,Two Edge Five Edge
null,,html-keyboard-response,1624058,<p></p>,,,,null,,,,,,,,,,,,,,
2201.199999988079,,shortestpath_phase,1626260,GW/paint.jpg,,,,49,GW/snail.jpg,GW/jukebox.jpg,0,0.5625,,,,GW/jukebox.jpg,,,,,Two Edge Diff,Four Edge Six Edge
null,,html-keyboard-response,1627262,<p></p>,,,,null,,,,,,,,,,,,,,
1771,,shortestpath_phase,1629034,GW/wheelchair.jpg,,,,49,GW/teeth.jpg,GW/dustpan.jpg,0,0.5294117647058824,,,,GW/dustpan.jpg,,,,,Four Edge Diff,Two Edge Six Edge
null,,html-keyboard-response,1630037,<p></p>,,,,null,,,,,,,,,,,,,,
1500.199999988079,,shortestpath_phase,1631538,GW/teeth.jpg,,,,50,GW/barrel.jpg,GW/wheelchair.jpg,0,0.5,,,,GW/barrel.jpg,,,,,Four Edge Diff,Two Edge Six Edge
null,,html-keyboard-response,1632540,<p></p>,,,,null,,,,,,,,,,,,,,
4016.899999976158,,shortestpath_phase,1636558,GW/wheelchair.jpg,,,,49,GW/soldier.jpg,GW/globe.jpg,1,0.5263157894736842,,,,GW/soldier.jpg,,,,,One Edge Diff,Three Edge Four Edge
null,,html-keyboard-response,1637562,<p></p>,,,,null,,,,,,,,,,,,,,
1500.199999988079,,shortestpath_phase,1639064,GW/paint.jpg,,,,50,GW/wheelchair.jpg,GW/camera.jpg,1,0.55,,,,GW/camera.jpg,,,,,Four Edge Diff,Two Edge Six Edge
null,,html-keyboard-response,1640066,<p></p>,,,,null,,,,,,,,,,,,,,
751.8999999761581,,shortestpath_phase,1640819,GW/wheelchair.jpg,,,,49,GW/paint.jpg,GW/barrel.jpg,0,0.5238095238095238,,,,GW/barrel.jpg,,,,,One Edge Diff,Five Edge Six Edge
null,,html-keyboard-response,1641822,<p></p>,,,,null,,,,,,,,,,,,,,
1340.2000000476837,,shortestpath_phase,1643164,GW/teeth.jpg,,,,49,GW/hat.jpg,GW/camera.jpg,0,0.5,,,,GW/camera.jpg,,,,,Two Edge Diff,Three Edge Five Edge
null,,html-keyboard-response,1644165,<p></p>,,,,null,,,,,,,,,,,,,,
915,,shortestpath_phase,1645081,GW/snail.jpg,,,,50,GW/gong.jpg,GW/wheelchair.jpg,1,0.5217391304347826,,,,GW/wheelchair.jpg,,,,,One Edge Diff,Three Edge Four Edge
null,,html-keyboard-response,1646084,<p></p>,,,,null,,,,,,,,,,,,,,
1121.1000000238419,,shortestpath_phase,1647206,GW/paint.jpg,,,,50,GW/wheelchair.jpg,GW/jukebox.jpg,1,0.5416666666666666,,,,GW/jukebox.jpg,,,,,Two Edge Diff,Four Edge Six Edge
null,,html-keyboard-response,1648209,<p></p>,,,,null,,,,,,,,,,,,,,
703.8000000119209,,shortestpath_phase,1648914,GW/wheelchair.jpg,,,,49,GW/dustpan.jpg,GW/paint.jpg,1,0.56,,,,GW/dustpan.jpg,,,,,Four Edge Diff,Two Edge Six Edge
null,,html-keyboard-response,1649917,<p></p>,,,,null,,,,,,,,,,,,,,
942.4000000357628,,shortestpath_phase,1650861,GW/snail.jpg,,,,50,GW/paint.jpg,GW/basket.jpg,1,0.5769230769230769,,,,GW/basket.jpg,,,,,Four Edge Diff,Two Edge Six Edge
null,,html-keyboard-response,1651863,<p></p>,,,,null,,,,,,,,,,,,,,
979.2999999523163,,shortestpath_phase,1652844,GW/wheelchair.jpg,,,,50,GW/barrel.jpg,GW/teeth.jpg,0,0.5555555555555556,,,,GW/barrel.jpg,,,,,One Edge Diff,Five Edge Six Edge
null,,html-keyboard-response,1653846,<p></p>,,,,null,,,,,,,,,,,,,,
1259,,shortestpath_phase,1655106,GW/hat.jpg,,,,49,GW/paint.jpg,GW/soldier.jpg,0,0.5357142857142857,,,,GW/soldier.jpg,,,,,Three Edge Diff,Two Edge Five Edge
null,,html-keyboard-response,1656109,<p></p>,,,,null,,,,,,,,,,,,,,
1351.8999999761581,,shortestpath_phase,1657462,GW/teeth.jpg,,,,49,GW/wheelchair.jpg,GW/snail.jpg,0,0.5172413793103449,,,,GW/snail.jpg,,,,,One Edge Diff,Five Edge Six Edge
null,,html-keyboard-response,1658466,<p></p>,,,,null,,,,,,,,,,,,,,
1043.5,,shortestpath_phase,1659510,GW/hat.jpg,,,,49,GW/soldier.jpg,GW/paint.jpg,1,0.5333333333333333,,,,GW/soldier.jpg,,,,,Three Edge Diff,Three Edge Six Edge
null,,html-keyboard-response,1660513,<p></p>,,,,null,,,,,,,,,,,,,,
1345.300000011921,,shortestpath_phase,1661859,GW/gong.jpg,,,,50,GW/dustpan.jpg,GW/wheelchair.jpg,0,0.5161290322580645,,,,GW/dustpan.jpg,,,,,Two Edge Diff,Three Edge Five Edge
null,,html-keyboard-response,1662862,<p></p>,,,,null,,,,,,,,,,,,,,
2197.400000035763,,shortestpath_phase,1665060,GW/snail.jpg,,,,50,GW/paint.jpg,GW/camera.jpg,1,0.53125,,,,GW/camera.jpg,,,,,Two Edge Diff,Four Edge Six Edge
null,,html-keyboard-response,1666064,<p></p>,,,,null,,,,,,,,,,,,,,
863,,shortestpath_phase,1666928,GW/paint.jpg,,,,49,GW/wheelchair.jpg,GW/basket.jpg,0,0.5151515151515151,,,,GW/basket.jpg,,,,,Two Edge Diff,Four Edge Six Edge
null,,html-keyboard-response,1667932,<p></p>,,,,null,,,,,,,,,,,,,,
1908.6000000238419,,shortestpath_phase,1669841,GW/snail.jpg,,,,49,GW/paint.jpg,GW/hat.jpg,0,0.5,,,,GW/hat.jpg,,,,,Four Edge Diff,Two Edge Six Edge
null,,html-keyboard-response,1670845,<p></p>,,,,null,,,,,,,,,,,,,,
1227.9000000357628,,shortestpath_phase,1672074,GW/paint.jpg,,,,50,GW/basket.jpg,GW/camera.jpg,1,0.5142857142857142,,,,GW/camera.jpg,,,,,Two Edge Diff,Two Edge Four Edge
null,,html-keyboard-response,1673077,<p></p>,,,,null,,,,,,,,,,,,,,
1335.199999988079,,shortestpath_phase,1674413,GW/jukebox.jpg,,,,49,GW/barrel.jpg,GW/soldier.jpg,0,0.5,,,,GW/soldier.jpg,,,,,One Edge Diff,Two Edge Three Edge
null,,html-keyboard-response,1675416,<p></p>,,,,null,,,,,,,,,,,,,,
1404.7000000476837,,shortestpath_phase,1676822,GW/paint.jpg,,,,49,GW/dustpan.jpg,GW/snail.jpg,1,0.5135135135135135,,,,GW/dustpan.jpg,,,,,One Edge Diff,Five Edge Six Edge
null,,html-keyboard-response,1677826,<p></p>,,,,null,,,,,,,,,,,,,,
1462.9000000357628,,shortestpath_phase,1679290,GW/camera.jpg,,,,50,GW/jukebox.jpg,GW/gong.jpg,1,0.5263157894736842,,,,GW/gong.jpg,,,,,One Edge Diff,Two Edge Three Edge
null,,html-keyboard-response,1680292,<p></p>,,,,null,,,,,,,,,,,,,,
1765.5999999642372,,shortestpath_phase,1682059,GW/teeth.jpg,,,,49,GW/wheelchair.jpg,GW/dustpan.jpg,0,0.5128205128205128,,,,GW/dustpan.jpg,,,,,Two Edge Diff,Four Edge Six Edge
null,,html-keyboard-response,1683062,<p></p>,,,,null,,,,,,,,,,,,,,
1508.8999999761581,,shortestpath_phase,1684572,GW/paint.jpg,,,,49,GW/jukebox.jpg,GW/dustpan.jpg,1,0.525,,,,GW/jukebox.jpg,,,,,One Edge Diff,Four Edge Five Edge
null,,html-keyboard-response,1685575,<p></p>,,,,null,,,,,,,,,,,,,,
2499.2999999523163,,shortestpath_phase,1688075,GW/teeth.jpg,,,,49,GW/dustpan.jpg,GW/snail.jpg,1,0.5365853658536586,,,,GW/dustpan.jpg,,,,,One Edge Diff,Four Edge Five Edge
null,,html-keyboard-response,1689079,<p></p>,,,,null,,,,,,,,,,,,,,
1922,,shortestpath_phase,1691002,GW/snail.jpg,,,,50,GW/paint.jpg,GW/jukebox.jpg,1,0.5476190476190477,,,,GW/jukebox.jpg,,,,,Four Edge Diff,Two Edge Six Edge
null,,html-keyboard-response,1692004,<p></p>,,,,null,,,,,,,,,,,,,,
1707.800000011921,,shortestpath_phase,1693713,GW/dustpan.jpg,,,,50,GW/paint.jpg,GW/barrel.jpg,1,0.5581395348837209,,,,GW/barrel.jpg,,,,,One Edge Diff,Four Edge Five Edge
null,,html-keyboard-response,1694716,<p></p>,,,,null,,,,,,,,,,,,,,
726.4000000357628,,shortestpath_phase,1695443,GW/snail.jpg,,,,49,GW/teeth.jpg,GW/paint.jpg,1,0.5681818181818182,,,,GW/teeth.jpg,,,,,One Edge Diff,Five Edge Six Edge
null,,html-keyboard-response,1696445,<p></p>,,,,null,,,,,,,,,,,,,,
700,,shortestpath_phase,1697146,GW/basket.jpg,,,,49,GW/barrel.jpg,GW/globe.jpg,0,0.5555555555555556,,,,GW/globe.jpg,,,,,One Edge Diff,Two Edge Three Edge
null,,html-keyboard-response,1698149,<p></p>,,,,null,,,,,,,,,,,,,,
812.3999999761581,,shortestpath_phase,1698963,GW/snail.jpg,,,,49,GW/teeth.jpg,GW/wheelchair.jpg,0,0.5434782608695652,,,,GW/wheelchair.jpg,,,,,Two Edge Diff,Three Edge Five Edge
null,,html-keyboard-response,1699966,<p></p>,,,,null,,,,,,,,,,,,,,
661.1000000238419,,shortestpath_phase,1700629,GW/barrel.jpg,,,,50,GW/teeth.jpg,GW/snail.jpg,0,0.5319148936170213,,,,GW/teeth.jpg,,,,,Three Edge Diff,Three Edge Six Edge
null,,html-keyboard-response,1701632,<p></p>,,,,null,,,,,,,,,,,,,,
894.2000000476837,,shortestpath_phase,1702528,GW/hat.jpg,,,,50,GW/snail.jpg,GW/paint.jpg,0,0.5208333333333334,,,,GW/snail.jpg,,,,,Three Edge Diff,Three Edge Six Edge
null,,html-keyboard-response,1703531,<p></p>,,,,null,,,,,,,,,,,,,,
863.6999999880791,,shortestpath_phase,1704396,GW/wheelchair.jpg,,,,50,GW/barrel.jpg,GW/globe.jpg,1,0.5306122448979592,,,,GW/globe.jpg,,,,,One Edge Diff,Four Edge Five Edge
null,,html-keyboard-response,1705400,<p></p>,,,,null,,,,,,,,,,,,,,
1403,,shortestpath_phase,1706804,GW/camera.jpg,,,,49,GW/hat.jpg,GW/snail.jpg,1,0.54,,,,GW/hat.jpg,,,,,One Edge Diff,Three Edge Four Edge
null,,html-keyboard-response,1707806,<p></p>,,,,null,,,,,,,,,,,,,,
2377,,shortestpath_phase,1710185,GW/jukebox.jpg,,,,50,GW/gong.jpg,GW/camera.jpg,0,0.5294117647058824,,,,GW/gong.jpg,,,,,One Edge Diff,Two Edge Three Edge
null,,html-keyboard-response,1711188,<p></p>,,,,null,,,,,,,,,,,,,,
1282.300000011921,,shortestpath_phase,1712472,GW/snail.jpg,,,,49,GW/hat.jpg,GW/barrel.jpg,1,0.5384615384615384,,,,GW/hat.jpg,,,,,Three Edge Diff,Two Edge Five Edge
null,,html-keyboard-response,1713475,<p></p>,,,,null,,,,,,,,,,,,,,
1151.6000000238419,,shortestpath_phase,1714628,GW/basket.jpg,,,,49,GW/paint.jpg,GW/globe.jpg,0,0.5283018867924528,,,,GW/globe.jpg,,,,,Two Edge Diff,Two Edge Four Edge
null,,html-keyboard-response,1715631,<p></p>,,,,null,,,,,,,,,,,,,,
1078.199999988079,,shortestpath_phase,1716711,GW/hat.jpg,,,,49,GW/jukebox.jpg,GW/teeth.jpg,1,0.5370370370370371,,,,GW/jukebox.jpg,,,,,Three Edge Diff,Two Edge Five Edge
null,,html-keyboard-response,1717714,<p></p>,,,,null,,,,,,,,,,,,,,
1475.199999988079,,shortestpath_phase,1719190,GW/wheelchair.jpg,,,,50,GW/teeth.jpg,GW/camera.jpg,1,0.5454545454545454,,,,GW/camera.jpg,,,,,Two Edge Diff,Four Edge Six Edge
null,,html-keyboard-response,1720194,<p></p>,,,,null,,,,,,,,,,,,,,
694.0999999642372,,shortestpath_phase,1720889,GW/hat.jpg,,,,49,GW/barrel.jpg,GW/teeth.jpg,1,0.5535714285714286,,,,GW/barrel.jpg,,,,,One Edge Diff,Four Edge Five Edge
null,,html-keyboard-response,1721892,<p></p>,,,,null,,,,,,,,,,,,,,
2606.100000023842,,shortestpath_phase,1724499,GW/paint.jpg,,,,49,GW/camera.jpg,GW/dustpan.jpg,1,0.5614035087719298,,,,GW/camera.jpg,,,,,Three Edge Diff,Two Edge Five Edge
null,,html-keyboard-response,1725503,<p></p>,,,,null,,,,,,,,,,,,,,
2574.300000011921,,shortestpath_phase,1728079,GW/globe.jpg,,,,49,GW/hat.jpg,GW/wheelchair.jpg,1,0.5689655172413793,,,,GW/hat.jpg,,,,,One Edge Diff,Three Edge Four Edge
null,,html-keyboard-response,1729082,<p></p>,,,,null,,,,,,,,,,,,,,
1846.699999988079,,shortestpath_phase,1730929,GW/paint.jpg,,,,49,GW/jukebox.jpg,GW/soldier.jpg,0,0.559322033898305,,,,GW/soldier.jpg,,,,,One Edge Diff,Three Edge Four Edge
null,,html-keyboard-response,1731932,<p></p>,,,,null,,,,,,,,,,,,,,
1577.199999988079,,shortestpath_phase,1733511,GW/wheelchair.jpg,,,,49,GW/barrel.jpg,GW/basket.jpg,0,0.55,,,,GW/basket.jpg,,,,,Three Edge Diff,Three Edge Six Edge
null,,html-keyboard-response,1734514,<p></p>,,,,null,,,,,,,,,,,,,,
1877.4000000357628,,shortestpath_phase,1736393,GW/paint.jpg,,,,49,GW/wheelchair.jpg,GW/hat.jpg,0,0.5409836065573771,,,,GW/hat.jpg,,,,,One Edge Diff,Five Edge Six Edge
null,,html-keyboard-response,1737397,<p></p>,,,,null,,,,,,,,,,,,,,
883.6999999880791,,shortestpath_phase,1738282,GW/barrel.jpg,,,,50,GW/globe.jpg,GW/snail.jpg,0,0.532258064516129,,,,GW/globe.jpg,,,,,Three Edge Diff,Two Edge Five Edge
null,,html-keyboard-response,1739285,<p></p>,,,,null,,,,,,,,,,,,,,
2323.100000023842,,shortestpath_phase,1741609,GW/camera.jpg,,,,49,GW/basket.jpg,GW/teeth.jpg,1,0.5396825396825397,,,,GW/basket.jpg,,,,,One Edge Diff,Two Edge Three Edge
null,,html-keyboard-response,1742612,<p></p>,,,,null,,,,,,,,,,,,,,
1446.3999999761581,,shortestpath_phase,1744059,GW/dustpan.jpg,,,,50,GW/teeth.jpg,GW/globe.jpg,1,0.546875,,,,GW/globe.jpg,,,,,Two Edge Diff,Two Edge Four Edge
null,,html-keyboard-response,1745063,<p></p>,,,,null,,,,,,,,,,,,,,
1336.3999999761581,,shortestpath_phase,1746400,GW/wheelchair.jpg,,,,49,GW/basket.jpg,GW/teeth.jpg,1,0.5538461538461539,,,,GW/basket.jpg,,,,,Four Edge Diff,Two Edge Six Edge
null,,html-keyboard-response,1747403,<p></p>,,,,null,,,,,,,,,,,,,,
711.3000000119209,,shortestpath_phase,1748115,GW/hat.jpg,,,,49,GW/globe.jpg,GW/snail.jpg,0,0.5454545454545454,,,,GW/snail.jpg,,,,,One Edge Diff,Two Edge Three Edge
null,,html-keyboard-response,1749119,<p></p>,,,,null,,,,,,,,,,,,,,
1766,,shortestpath_phase,1750886,GW/wheelchair.jpg,,,,50,GW/soldier.jpg,GW/barrel.jpg,0,0.5373134328358209,,,,GW/soldier.jpg,,,,,Two Edge Diff,Three Edge Five Edge
null,,html-keyboard-response,1751890,<p></p>,,,,null,,,,,,,,,,,,,,
1344.2000000476837,,shortestpath_phase,1753235,GW/hat.jpg,,,,49,GW/snail.jpg,GW/paint.jpg,1,0.5441176470588235,,,,GW/snail.jpg,,,,,Three Edge Diff,Two Edge Five Edge
null,,html-keyboard-response,1754238,<p></p>,,,,null,,,,,,,,,,,,,,
2761.7000000476837,,shortestpath_phase,1757001,GW/barrel.jpg,,,,49,GW/dustpan.jpg,GW/globe.jpg,0,0.5362318840579711,,,,GW/globe.jpg,,,,,Two Edge Diff,Two Edge Four Edge
null,,html-keyboard-response,1758005,<p></p>,,,,null,,,,,,,,,,,,,,
1228.199999988079,,shortestpath_phase,1759234,GW/hat.jpg,,,,49,GW/barrel.jpg,GW/soldier.jpg,0,0.5285714285714286,,,,GW/soldier.jpg,,,,,Two Edge Diff,Two Edge Four Edge
null,,html-keyboard-response,1760238,<p></p>,,,,null,,,,,,,,,,,,,,
773.8000000119209,,shortestpath_phase,1761013,GW/dustpan.jpg,,,,50,GW/camera.jpg,GW/barrel.jpg,0,0.5211267605633803,,,,GW/camera.jpg,,,,,One Edge Diff,Three Edge Four Edge
null,,html-keyboard-response,1762016,<p></p>,,,,null,,,,,,,,,,,,,,
809.8999999761581,,shortestpath_phase,1762827,GW/teeth.jpg,,,,50,GW/basket.jpg,GW/jukebox.jpg,1,0.5277777777777778,,,,GW/jukebox.jpg,,,,,One Edge Diff,Three Edge Four Edge
null,,html-keyboard-response,1763830,<p></p>,,,,null,,,,,,,,,,,,,,
1064.699999988079,,shortestpath_phase,1764896,GW/gong.jpg,,,,50,GW/wheelchair.jpg,GW/paint.jpg,1,0.5342465753424658,,,,GW/paint.jpg,,,,,Three Edge Diff,Three Edge Six Edge
null,,html-keyboard-response,1765899,<p></p>,,,,null,,,,,,,,,,,,,,
1417.3999999761581,,shortestpath_phase,1767318,GW/teeth.jpg,,,,49,GW/hat.jpg,GW/dustpan.jpg,0,0.527027027027027,,,,GW/dustpan.jpg,,,,,One Edge Diff,Four Edge Five Edge
null,,html-keyboard-response,1768320,<p></p>,,,,null,,,,,,,,,,,,,,
750.8000000119209,,shortestpath_phase,1769072,GW/snail.jpg,,,,49,GW/jukebox.jpg,GW/barrel.jpg,1,0.5333333333333333,,,,GW/jukebox.jpg,,,,,Three Edge Diff,Two Edge Five Edge
null,,html-keyboard-response,1770076,<p></p>,,,,null,,,,,,,,,,,,,,
651.2000000476837,,shortestpath_phase,1770728,GW/gong.jpg,,,,50,GW/camera.jpg,GW/wheelchair.jpg,0,0.5263157894736842,,,,GW/camera.jpg,,,,,Three Edge Diff,Three Edge Six Edge
null,,html-keyboard-response,1771730,<p></p>,,,,null,,,,,,,,,,,,,,
1200.800000011921,,shortestpath_phase,1772932,GW/dustpan.jpg,,,,50,GW/paint.jpg,GW/teeth.jpg,1,0.5324675324675324,,,,GW/teeth.jpg,,,,,One Edge Diff,Four Edge Five Edge
null,,html-keyboard-response,1773935,<p></p>,,,,null,,,,,,,,,,,,,,
549.3999999761581,,shortestpath_phase,1774486,GW/wheelchair.jpg,,,,49,GW/paint.jpg,GW/gong.jpg,0,0.5256410256410257,,,,GW/gong.jpg,,,,,One Edge Diff,Five Edge Six Edge
null,,html-keyboard-response,1775488,<p></p>,,,,null,,,,,,,,,,,,,,
426.89999997615814,,shortestpath_phase,1775916,GW/snail.jpg,,,,49,GW/camera.jpg,GW/jukebox.jpg,0,0.5189873417721519,,,,GW/jukebox.jpg,,,,,Two Edge Diff,Two Edge Four Edge
null,,html-keyboard-response,1776920,<p></p>,,,,null,,,,,,,,,,,,,,
1622.199999988079,,shortestpath_phase,1778543,GW/dustpan.jpg,,,,49,GW/paint.jpg,GW/soldier.jpg,0,0.5125,,,,GW/soldier.jpg,,,,,Three Edge Diff,Two Edge Five Edge
null,,html-keyboard-response,1779546,<p></p>,,,,null,,,,,,,,,,,,,,
2104.199999988079,,shortestpath_phase,1781651,GW/teeth.jpg,,,,49,GW/jukebox.jpg,GW/snail.jpg,1,0.5185185185185185,,,,GW/jukebox.jpg,,,,,Two Edge Diff,Three Edge Five Edge
null,,html-keyboard-response,1782655,<p></p>,,,,null,,,,,,,,,,,,,,
4106,,shortestpath_phase,1786762,GW/wheelchair.jpg,,,,50,GW/gong.jpg,GW/soldier.jpg,1,0.524390243902439,,,,GW/soldier.jpg,,,,,Two Edge Diff,Three Edge Five Edge
null,,html-keyboard-response,1787766,<p></p>,,,,null,,,,,,,,,,,,,,
1352.800000011921,,shortestpath_phase,1789120,GW/camera.jpg,,,,49,GW/globe.jpg,GW/teeth.jpg,1,0.5301204819277109,,,,GW/globe.jpg,,,,,One Edge Diff,Two Edge Three Edge
null,,html-keyboard-response,1790123,<p></p>,,,,null,,,,,,,,,,,,,,
721,,shortestpath_phase,1790845,GW/paint.jpg,,,,50,GW/hat.jpg,GW/gong.jpg,1,0.5357142857142857,,,,GW/gong.jpg,,,,,Three Edge Diff,Three Edge Six Edge
null,,html-keyboard-response,1791849,<p></p>,,,,null,,,,,,,,,,,,,,
1093.199999988079,,shortestpath_phase,1792943,GW/teeth.jpg,,,,49,GW/wheelchair.jpg,GW/globe.jpg,0,0.5294117647058824,,,,GW/globe.jpg,,,,,Four Edge Diff,Two Edge Six Edge
null,,html-keyboard-response,1793945,<p></p>,,,,null,,,,,,,,,,,,,,
3948.599999964237,,shortestpath_phase,1797895,GW/paint.jpg,,,,49,GW/gong.jpg,GW/wheelchair.jpg,1,0.5348837209302325,,,,GW/gong.jpg,,,,,Four Edge Diff,Two Edge Six Edge
null,,html-keyboard-response,1798899,<p></p>,,,,null,,,,,,,,,,,,,,
1137.800000011921,,shortestpath_phase,1800038,GW/barrel.jpg,,,,50,GW/basket.jpg,GW/snail.jpg,0,0.5287356321839081,,,,GW/basket.jpg,,,,,Two Edge Diff,Three Edge Five Edge
null,,html-keyboard-response,1801041,<p></p>,,,,null,,,,,,,,,,,,,,
1295.800000011921,,shortestpath_phase,1802338,GW/snail.jpg,,,,50,GW/soldier.jpg,GW/barrel.jpg,0,0.5227272727272727,,,,GW/soldier.jpg,,,,,Two Edge Diff,Three Edge Five Edge
null,,html-keyboard-response,1803341,<p></p>,,,,null,,,,,,,,,,,,,,
1074.6000000238419,,shortestpath_phase,1804417,GW/wheelchair.jpg,,,,50,GW/teeth.jpg,GW/gong.jpg,1,0.5280898876404494,,,,GW/gong.jpg,,,,,One Edge Diff,Five Edge Six Edge
null,,html-keyboard-response,1805419,<p></p>,,,,null,,,,,,,,,,,,,,
4482.699999988079,,shortestpath_phase,1809903,GW/dustpan.jpg,,,,50,GW/paint.jpg,GW/globe.jpg,1,0.5333333333333333,,,,GW/globe.jpg,,,,,Three Edge Diff,Two Edge Five Edge
null,,html-keyboard-response,1810907,<p></p>,,,,null,,,,,,,,,,,,,,
1587.5,,shortestpath_phase,1812495,GW/basket.jpg,,,,50,GW/paint.jpg,GW/snail.jpg,1,0.5384615384615384,,,,GW/snail.jpg,,,,,Two Edge Diff,Two Edge Four Edge
null,,html-keyboard-response,1813497,<p></p>,,,,null,,,,,,,,,,,,,,
752.8000000119209,,shortestpath_phase,1814251,GW/teeth.jpg,,,,50,GW/hat.jpg,GW/wheelchair.jpg,0,0.532608695652174,,,,GW/hat.jpg,,,,,One Edge Diff,Five Edge Six Edge
null,,html-keyboard-response,1815253,<p></p>,,,,null,,,,,,,,,,,,,,
844.7999999523163,,shortestpath_phase,1816099,GW/basket.jpg,,,,49,GW/barrel.jpg,GW/snail.jpg,0,0.5268817204301075,,,,GW/snail.jpg,,,,,One Edge Diff,Two Edge Three Edge
null,,html-keyboard-response,1817103,<p></p>,,,,null,,,,,,,,,,,,,,
2665.100000023842,,shortestpath_phase,1819770,GW/dustpan.jpg,,,,49,GW/soldier.jpg,GW/paint.jpg,1,0.5319148936170213,,,,GW/soldier.jpg,,,,,Three Edge Diff,Three Edge Six Edge
null,,html-keyboard-response,1820774,<p></p>,,,,null,,,,,,,,,,,,,,
5273.400000035763,,shortestpath_phase,1826049,GW/snail.jpg,,,,49,GW/globe.jpg,GW/teeth.jpg,1,0.5368421052631579,,,,GW/globe.jpg,,,,,Two Edge Diff,Three Edge Five Edge
null,,html-keyboard-response,1827052,<p></p>,,,,null,,,,,,,,,,,,,,
1721,,shortestpath_phase,1828774,GW/teeth.jpg,,,,49,GW/hat.jpg,GW/basket.jpg,0,0.53125,,,,GW/basket.jpg,,,,,One Edge Diff,Four Edge Five Edge
null,,html-keyboard-response,1829777,<p></p>,,,,null,,,,,,,,,,,,,,
1230.300000011921,,shortestpath_phase,1831009,GW/snail.jpg,,,,50,GW/barrel.jpg,GW/gong.jpg,1,0.5360824742268041,,,,GW/gong.jpg,,,,,One Edge Diff,Four Edge Five Edge
null,,html-keyboard-response,1832012,<p></p>,,,,null,,,,,,,,,,,,,,
1265.6000000238419,,shortestpath_phase,1833279,GW/wheelchair.jpg,,,,49,GW/paint.jpg,GW/globe.jpg,0,0.5306122448979592,,,,GW/globe.jpg,,,,,Two Edge Diff,Four Edge Six Edge
null,,html-keyboard-response,1834281,<p></p>,,,,null,,,,,,,,,,,,,,
1317.800000011921,,shortestpath_phase,1835600,GW/snail.jpg,,,,49,GW/barrel.jpg,GW/paint.jpg,1,0.5353535353535354,,,,GW/barrel.jpg,,,,,One Edge Diff,Five Edge Six Edge
null,,html-keyboard-response,1836603,<p></p>,,,,null,,,,,,,,,,,,,,
2213,,shortestpath_phase,1838818,GW/hat.jpg,,,,49,GW/globe.jpg,GW/teeth.jpg,1,0.54,,,,GW/globe.jpg,,,,,Two Edge Diff,Three Edge Five Edge
null,,html-keyboard-response,1839822,<p></p>,,,,null,,,,,,,,,,,,,,
1237.9000000357628,,shortestpath_phase,1841061,GW/paint.jpg,,,,50,GW/snail.jpg,GW/gong.jpg,1,0.5445544554455446,,,,GW/gong.jpg,,,,,Four Edge Diff,Two Edge Six Edge
null,,html-keyboard-response,1842064,<p></p>,,,,null,,,,,,,,,,,,,,
1288.6000000238419,,shortestpath_phase,1843354,GW/globe.jpg,,,,50,GW/basket.jpg,GW/paint.jpg,0,0.5392156862745098,,,,GW/basket.jpg,,,,,One Edge Diff,Two Edge Three Edge
null,,html-keyboard-response,1844357,<p></p>,,,,null,,,,,,,,,,,,,,
1380.6000000238419,,shortestpath_phase,1845739,GW/paint.jpg,,,,49,GW/camera.jpg,GW/snail.jpg,1,0.5436893203883495,,,,GW/camera.jpg,,,,,Four Edge Diff,Two Edge Six Edge
null,,html-keyboard-response,1846742,<p></p>,,,,null,,,,,,,,,,,,,,
2269.899999976158,,shortestpath_phase,1849013,GW/hat.jpg,,,,49,GW/teeth.jpg,GW/soldier.jpg,0,0.5384615384615384,,,,GW/soldier.jpg,,,,,Three Edge Diff,Three Edge Six Edge
null,,html-keyboard-response,1850017,<p></p>,,,,null,,,,,,,,,,,,,,
1227.800000011921,,shortestpath_phase,1851245,GW/camera.jpg,,,,49,GW/dustpan.jpg,GW/wheelchair.jpg,1,0.5428571428571428,,,,GW/dustpan.jpg,,,,,One Edge Diff,Three Edge Four Edge
null,,html-keyboard-response,1852248,<p></p>,,,,null,,,,,,,,,,,,,,
1575.2999999523163,,shortestpath_phase,1853824,GW/paint.jpg,,,,49,GW/jukebox.jpg,GW/hat.jpg,1,0.5471698113207547,,,,GW/jukebox.jpg,,,,,One Edge Diff,Four Edge Five Edge
null,,html-keyboard-response,1854827,<p></p>,,,,null,,,,,,,,,,,,,,
2703,,shortestpath_phase,1857531,GW/barrel.jpg,,,,49,GW/soldier.jpg,GW/snail.jpg,1,0.5514018691588785,,,,GW/soldier.jpg,,,,,Three Edge Diff,Three Edge Six Edge
null,,html-keyboard-response,1858535,<p></p>,,,,null,,,,,,,,,,,,,,
1820.199999988079,,shortestpath_phase,1860356,GW/paint.jpg,,,,49,GW/wheelchair.jpg,GW/dustpan.jpg,0,0.5462962962962963,,,,GW/dustpan.jpg,,,,,One Edge Diff,Five Edge Six Edge
null,,html-keyboard-response,1861360,<p></p>,,,,null,,,,,,,,,,,,,,
1680.699999988079,,shortestpath_phase,1863041,GW/teeth.jpg,,,,50,GW/hat.jpg,GW/barrel.jpg,1,0.5504587155963303,,,,GW/barrel.jpg,,,,,Three Edge Diff,Two Edge Five Edge
null,,html-keyboard-response,1864045,<p></p>,,,,null,,,,,,,,,,,,,,
1384.0999999642372,,shortestpath_phase,1865430,GW/wheelchair.jpg,,,,50,GW/paint.jpg,GW/basket.jpg,1,0.5545454545454546,,,,GW/basket.jpg,,,,,Four Edge Diff,Two Edge Six Edge
null,,html-keyboard-response,1866434,<p></p>,,,,null,,,,,,,,,,,,,,
1053,,shortestpath_phase,1867488,GW/hat.jpg,,,,50,GW/barrel.jpg,GW/paint.jpg,0,0.5495495495495496,,,,GW/barrel.jpg,,,,,One Edge Diff,Four Edge Five Edge
null,,html-keyboard-response,1868492,<p></p>,,,,null,,,,,,,,,,,,,,
1274.5,,shortestpath_phase,1869767,GW/teeth.jpg,,,,50,GW/basket.jpg,GW/wheelchair.jpg,0,0.5446428571428571,,,,GW/basket.jpg,,,,,Two Edge Diff,Four Edge Six Edge
null,,html-keyboard-response,1870770,<p></p>,,,,null,,,,,,,,,,,,,,
900,,shortestpath_phase,1871671,GW/globe.jpg,,,,50,GW/wheelchair.jpg,GW/snail.jpg,1,0.5486725663716814,,,,GW/snail.jpg,,,,,One Edge Diff,Three Edge Four Edge
null,,html-keyboard-response,1872674,<p></p>,,,,null,,,,,,,,,,,,,,
896.5,,shortestpath_phase,1873572,GW/teeth.jpg,,,,50,GW/snail.jpg,GW/barrel.jpg,1,0.5526315789473685,,,,GW/barrel.jpg,,,,,Three Edge Diff,Two Edge Five Edge
null,,html-keyboard-response,1874575,<p></p>,,,,null,,,,,,,,,,,,,,
1427.5,,shortestpath_phase,1876004,GW/camera.jpg,,,,50,GW/globe.jpg,GW/snail.jpg,0,0.5478260869565217,,,,GW/globe.jpg,,,,,Two Edge Diff,Two Edge Four Edge
null,,html-keyboard-response,1877007,<p></p>,,,,null,,,,,,,,,,,,,,
1658,,shortestpath_phase,1878667,GW/snail.jpg,,,,50,GW/hat.jpg,GW/gong.jpg,0,0.5431034482758621,,,,GW/hat.jpg,,,,,Two Edge Diff,Two Edge Four Edge
null,,html-keyboard-response,1879671,<p></p>,,,,null,,,,,,,,,,,,,,
2038.300000011921,,shortestpath_phase,1881710,GW/teeth.jpg,,,,50,GW/barrel.jpg,GW/snail.jpg,0,0.5384615384615384,,,,GW/barrel.jpg,,,,,Three Edge Diff,Three Edge Six Edge
null,,html-keyboard-response,1882714,<p></p>,,,,null,,,,,,,,,,,,,,
2003.0999999642372,,shortestpath_phase,1884718,GW/dustpan.jpg,,,,50,GW/barrel.jpg,GW/soldier.jpg,1,0.5423728813559322,,,,GW/soldier.jpg,,,,,Two Edge Diff,Two Edge Four Edge
null,,html-keyboard-response,1885722,<p></p>,,,,null,,,,,,,,,,,,,,
1367,,shortestpath_phase,1887090,GW/paint.jpg,,,,50,GW/snail.jpg,GW/basket.jpg,1,0.5462184873949579,,,,GW/basket.jpg,,,,,Two Edge Diff,Four Edge Six Edge
null,,html-keyboard-response,1888093,<p></p>,,,,null,,,,,,,,,,,,,,
1426.5,,shortestpath_phase,1889521,GW/wheelchair.jpg,,,,49,GW/teeth.jpg,GW/globe.jpg,0,0.5416666666666666,,,,GW/globe.jpg,,,,,Two Edge Diff,Four Edge Six Edge
null,,html-keyboard-response,1890524,<p></p>,,,,null,,,,,,,,,,,,,,
1698.699999988079,,shortestpath_phase,1892224,,,,,49,,,1,0.5454545454545454,,,,,,,,,Two Edge Diff,Four Edge Six Edge
null,,html-keyboard-response,1893227,<p></p>,,,,null,,,,,,,,,,,,,,
200754.59999996424,,intro_1,2093988,instruct,,0,,,,,,,,,,,,,,,,
28123.399999976158,,intro_2,2122113,instruct,,1,Next,,,,,,,,,,,,,,,
3113.900000035763,,intro_3,2125229,instruct,,1,Next,,,,,,,,,,,,,,,
