rt,responses,trial_type,time_elapsed,stimulus,graphorder,button_pressed,response,key_press,stimulus_left,stimulus_right,accuracy,cumulative_accuracy,stimulus_down_left,stimulus_down_mid,stimulus_down_right,stimulus_correct,stimulus_short,stimulus_far,weighted_accuracy,missedtrial,condition,specific_pairs
8796.199999988079,{worker_id:6526f601bedbae17738408b1},id_enter,8800,id_enter,GW/wheelchair.jpg; GW/snail.jpg; GW/camera.jpg; GW/basket.jpg; GW/gong.jpg; GW/globe.jpg; GW/hat.jpg; GW/teeth.jpg; GW/barrel.jpg; GW/paint.jpg; GW/jukebox.jpg; GW/dustpan.jpg; GW/soldier.jpg,,,,,,,,,,,,,,,,,
20883.399999976158,,fullscreen,29685,fullscreen,,0,,,,,,,,,,,,,,,,
24310.899999976158,,intro_1,53998,instruct,,0,,,,,,,,,,,,,,,,
8456.699999988079,,intro_2,62455,instruct,,1,Next,,,,,,,,,,,,,,,
13178.899999976158,,intro_3,75635,instruct,,1,Next,,,,,,,,,,,,,,,
null,,learn_prac_1,77643,lean_prac_1,,,,null,,,,,,,,,,,,,,
null,,html-keyboard-response,78656,<p></p>,,,,null,,,,,,,,,,,,,,
2958.100000023842,,intro_1,81615,instruct,,0,,,,,,,,,,,,,,,,
4045.899999976158,,intro_2,85662,instruct,,1,Next,,,,,,,,,,,,,,,
null,,learn_prac_2,87663,lean_prac_2,,,,null,,,,,,,,,,,,,,
null,,html-keyboard-response,88665,<p></p>,,,,null,,,,,,,,,,,,,,
2555.100000023842,,intro_1,91221,instruct,,0,,,,,,,,,,,,,,,,
2781.599999964237,,intro_2,94003,instruct,,1,Next,,,,,,,,,,,,,,,
53387.299999952316,,intro_3,147391,instruct,,1,Next,,,,,,,,,,,,,,,
null,,prac_atten_color_black,148105,black_plus_sign,,,,null,,,,,,,,,,,,,,
null,,prac_atten_color,148806,prac_stop_color,,,,null,,,,,,,,,,,,,,
null,,prac_atten_color_black,150807,black_plus_sign,,,,null,,,,,,,,,,,,,,
5254.5,,attentioncheck_help,156064,instruct,,,,32,,,,,,,,,,,,,,
null,,prac_atten_color_black,156768,black_plus_sign,,,,null,,,,,,,,,,,,,,
null,,prac_atten_color,157173,prac_stop_color,,,,null,,,,,,,,,,,,,,
228.19999998807907,,prac_atten_color_black,159176,black_plus_sign,,,,50,,,,,,,,,,,,,,
null,,prac_atten_color_black,160187,black_plus_sign,,,,null,,,,,,,,,,,,,,
null,,prac_atten_color,161114,prac_stop_color,,,,null,,,,,,,,,,,,,,
530.3999999761581,,prac_atten_color_black,163122,black_plus_sign,,,,50,,,,,,,,,,,,,,
null,,prac_atten_color_black,163600,black_plus_sign,,,,null,,,,,,,,,,,,,,
862.7999999523163,,prac_atten_color,164479,prac_stop_color,,,,49,,,,,,,,,,,,,,
null,,prac_atten_color_black,166481,black_plus_sign,,,,null,,,,,,,,,,,,,,
null,,prac_atten_color_black,167012,black_plus_sign,,,,null,,,,,,,,,,,,,,
null,,prac_atten_color,167559,prac_stop_color,,,,null,,,,,,,,,,,,,,
186.19999998807907,,prac_atten_color_black,169560,black_plus_sign,,,,50,,,,,,,,,,,,,,
null,,prac_atten_color_black,170418,black_plus_sign,,,,null,,,,,,,,,,,,,,
726.1999999880791,,prac_atten_color,171245,prac_stop_color,,,,50,,,,,,,,,,,,,,
null,,prac_atten_color_black,173256,black_plus_sign,,,,null,,,,,,,,,,,,,,
null,,prac_atten_color_black,173832,black_plus_sign,,,,null,,,,,,,,,,,,,,
595.9000000357628,,prac_atten_color,174462,prac_stop_color,,,,49,,,,,,,,,,,,,,
null,,prac_atten_color_black,176464,black_plus_sign,,,,null,,,,,,,,,,,,,,
null,,prac_atten_color_black,177240,black_plus_sign,,,,null,,,,,,,,,,,,,,
502.2999999523163,,prac_atten_color,177883,prac_stop_color,,,,50,,,,,,,,,,,,,,
null,,prac_atten_color_black,179885,black_plus_sign,,,,null,,,,,,,,,,,,,,
null,,prac_atten_color_black,180646,black_plus_sign,,,,null,,,,,,,,,,,,,,
621.4000000357628,,prac_atten_color,181632,prac_stop_color,,,,49,,,,,,,,,,,,,,
null,,prac_atten_color_black,183649,black_plus_sign,,,,null,,,,,,,,,,,,,,
null,,prac_atten_color_black,184068,black_plus_sign,,,,null,,,,,,,,,,,,,,
654,,prac_atten_color,185015,prac_stop_color,,,,49,,,,,,,,,,,,,,
null,,prac_atten_color_black,187023,black_plus_sign,,,,null,,,,,,,,,,,,,,
9171.600000023842,,attentioncheck_feedback,196197,cross_check_feedback,,0,,,,,,,,,,,,,,,,
35753.5,,last_instruct,231951,instruct,,,,32,,,,,,,,,,,,,,
null,,learn_phase(without_color),233954,black_plus_sign,,,,null,GW/camera.jpg,GW/globe.jpg,,,,,,,,,,,,
null,,black_cross(without_color),234682,blue,,,,null,GW/camera.jpg,GW/globe.jpg,,,,,,,,,,,,
null,,rt_plussign_withcolor,235185,blue,,,,null,GW/camera.jpg,GW/globe.jpg,,,,,,,,,,,,
1032.800000011921,,rt_thecrossant_black,236462,black_plus_sign,,,,49,,,1,1,,,,,,,,,,
null,,color_black,236564,black_plus_sign,,,,null,,,,,,,,,,,,,,
null,,learn_phase(without_color),238566,black_plus_sign,,,,null,GW/wheelchair.jpg,GW/snail.jpg,,,,,,,,,,,,
null,,black_cross(without_color),239411,green,,,,null,GW/wheelchair.jpg,GW/snail.jpg,,,,,,,,,,,,
null,,rt_plussign_withcolor,239913,green,,,,null,GW/wheelchair.jpg,GW/snail.jpg,,,,,,,,,,,,
648.5,,rt_thecrossant_black,241080,black_plus_sign,,,,50,,,1,1,,,,,,,,,,
null,,color_black,241189,black_plus_sign,,,,null,,,,,,,,,,,,,,
null,,learn_phase(without_color),243200,black_plus_sign,,,,null,GW/hat.jpg,GW/teeth.jpg,,,,,,,,,,,,
null,,black_cross(without_color),243895,green,,,,null,GW/hat.jpg,GW/teeth.jpg,,,,,,,,,,,,
null,,rt_plussign_withcolor,244398,green,,,,null,GW/hat.jpg,GW/teeth.jpg,,,,,,,,,,,,
1311.699999988079,,rt_thecrossant_black,245707,black_plus_sign,,,,50,,,1,1,,,,,,,,,,
null,,color_black,245820,black_plus_sign,,,,null,,,,,,,,,,,,,,
null,,learn_phase(without_color),247827,black_plus_sign,,,,null,GW/hat.jpg,GW/soldier.jpg,,,,,,,,,,,,
null,,black_cross(without_color),248533,blue,,,,null,GW/hat.jpg,GW/soldier.jpg,,,,,,,,,,,,
null,,rt_plussign_withcolor,249051,blue,,,,null,GW/hat.jpg,GW/soldier.jpg,,,,,,,,,,,,
1060.300000011921,,rt_thecrossant_black,250350,black_plus_sign,,,,49,,,1,1,,,,,,,,,,
null,,color_black,250452,black_plus_sign,,,,null,,,,,,,,,,,,,,
null,,learn_phase(without_color),252455,black_plus_sign,,,,null,GW/teeth.jpg,GW/paint.jpg,,,,,,,,,,,,
null,,black_cross(without_color),253476,green,,,,null,GW/teeth.jpg,GW/paint.jpg,,,,,,,,,,,,
null,,rt_plussign_withcolor,253986,green,,,,null,GW/teeth.jpg,GW/paint.jpg,,,,,,,,,,,,
944.9000000357628,,rt_thecrossant_black,254967,black_plus_sign,,,,50,,,1,1,,,,,,,,,,
null,,color_black,255070,black_plus_sign,,,,null,,,,,,,,,,,,,,
null,,learn_phase(without_color),257081,black_plus_sign,,,,null,GW/hat.jpg,GW/soldier.jpg,,,,,,,,,,,,
null,,black_cross(without_color),257981,green,,,,null,GW/hat.jpg,GW/soldier.jpg,,,,,,,,,,,,
null,,rt_plussign_withcolor,258482,green,,,,null,GW/hat.jpg,GW/soldier.jpg,,,,,,,,,,,,
1184.1000000238419,,rt_thecrossant_black,259595,black_plus_sign,,,,50,,,1,1,,,,,,,,,,
null,,color_black,259698,black_plus_sign,,,,null,,,,,,,,,,,,,,
null,,learn_phase(without_color),261700,black_plus_sign,,,,null,GW/teeth.jpg,GW/barrel.jpg,,,,,,,,,,,,
null,,black_cross(without_color),262675,blue,,,,null,GW/teeth.jpg,GW/barrel.jpg,,,,,,,,,,,,
null,,rt_plussign_withcolor,263177,blue,,,,null,GW/teeth.jpg,GW/barrel.jpg,,,,,,,,,,,,
1821.7000000476837,,rt_thecrossant_black,264209,black_plus_sign,,,,49,,,1,1,,,,,,,,,,
null,,color_black,264311,black_plus_sign,,,,null,,,,,,,,,,,,,,
null,,learn_phase(without_color),266317,black_plus_sign,,,,null,GW/basket.jpg,GW/dustpan.jpg,,,,,,,,,,,,
null,,black_cross(without_color),266917,blue,,,,null,GW/basket.jpg,GW/dustpan.jpg,,,,,,,,,,,,
null,,rt_plussign_withcolor,267421,blue,,,,null,GW/basket.jpg,GW/dustpan.jpg,,,,,,,,,,,,
1559.5,,rt_thecrossant_black,268827,black_plus_sign,,,,49,,,1,1,,,,,,,,,,
null,,color_black,268929,black_plus_sign,,,,null,,,,,,,,,,,,,,
null,,learn_phase(without_color),270932,black_plus_sign,,,,null,GW/hat.jpg,GW/barrel.jpg,,,,,,,,,,,,
null,,black_cross(without_color),271933,green,,,,null,GW/hat.jpg,GW/barrel.jpg,,,,,,,,,,,,
null,,rt_plussign_withcolor,272436,green,,,,null,GW/hat.jpg,GW/barrel.jpg,,,,,,,,,,,,
711.3999999761581,,rt_thecrossant_black,273448,black_plus_sign,,,,50,,,1,1,,,,,,,,,,
null,,color_black,273550,black_plus_sign,,,,null,,,,,,,,,,,,,,
null,,learn_phase(without_color),275553,black_plus_sign,,,,null,GW/globe.jpg,GW/hat.jpg,,,,,,,,,,,,
null,,black_cross(without_color),276598,blue,,,,null,GW/globe.jpg,GW/hat.jpg,,,,,,,,,,,,
null,,rt_plussign_withcolor,277100,blue,,,,null,GW/globe.jpg,GW/hat.jpg,,,,,,,,,,,,
1249.199999988079,,rt_thecrossant_black,278073,black_plus_sign,,,,49,,,1,1,,,,,,,,,,
null,,color_black,278175,black_plus_sign,,,,null,,,,,,,,,,,,,,
null,,learn_phase(without_color),280185,black_plus_sign,,,,null,GW/barrel.jpg,GW/jukebox.jpg,,,,,,,,,,,,
null,,black_cross(without_color),281191,blue,,,,null,GW/barrel.jpg,GW/jukebox.jpg,,,,,,,,,,,,
null,,rt_plussign_withcolor,281693,blue,,,,null,GW/barrel.jpg,GW/jukebox.jpg,,,,,,,,,,,,
1432.5999999642372,,rt_thecrossant_black,282691,black_plus_sign,,,,49,,,1,1,,,,,,,,,,
null,,color_black,282794,black_plus_sign,,,,null,,,,,,,,,,,,,,
null,,learn_phase(without_color),284798,black_plus_sign,,,,null,GW/globe.jpg,GW/barrel.jpg,,,,,,,,,,,,
null,,black_cross(without_color),285579,green,,,,null,GW/globe.jpg,GW/barrel.jpg,,,,,,,,,,,,
null,,rt_plussign_withcolor,286081,green,,,,null,GW/globe.jpg,GW/barrel.jpg,,,,,,,,,,,,
1428.699999988079,,rt_thecrossant_black,287310,black_plus_sign,,,,50,,,1,1,,,,,,,,,,
null,,color_black,287412,black_plus_sign,,,,null,,,,,,,,,,,,,,
null,,learn_phase(without_color),289414,black_plus_sign,,,,null,GW/teeth.jpg,GW/paint.jpg,,,,,,,,,,,,
null,,black_cross(without_color),290072,green,,,,null,GW/teeth.jpg,GW/paint.jpg,,,,,,,,,,,,
null,,rt_plussign_withcolor,290575,green,,,,null,GW/teeth.jpg,GW/paint.jpg,,,,,,,,,,,,
1035.5999999642372,,rt_thecrossant_black,291921,black_plus_sign,,,,50,,,1,1,,,,,,,,,,
null,,color_black,292024,black_plus_sign,,,,null,,,,,,,,,,,,,,
null,,learn_phase(without_color),294026,black_plus_sign,,,,null,GW/camera.jpg,GW/jukebox.jpg,,,,,,,,,,,,
null,,black_cross(without_color),294635,blue,,,,null,GW/camera.jpg,GW/jukebox.jpg,,,,,,,,,,,,
null,,rt_plussign_withcolor,295137,blue,,,,null,GW/camera.jpg,GW/jukebox.jpg,,,,,,,,,,,,
1230,,rt_thecrossant_black,296540,black_plus_sign,,,,49,,,1,1,,,,,,,,,,
null,,color_black,296649,black_plus_sign,,,,null,,,,,,,,,,,,,,
null,,learn_phase(without_color),298661,black_plus_sign,,,,null,GW/globe.jpg,GW/barrel.jpg,,,,,,,,,,,,
null,,black_cross(without_color),299525,green,,,,null,GW/globe.jpg,GW/barrel.jpg,,,,,,,,,,,,
null,,rt_plussign_withcolor,300027,green,,,,null,GW/globe.jpg,GW/barrel.jpg,,,,,,,,,,,,
988,,rt_thecrossant_black,301168,black_plus_sign,,,,50,,,1,1,,,,,,,,,,
null,,color_black,301269,black_plus_sign,,,,null,,,,,,,,,,,,,,
null,,learn_phase(without_color),303277,black_plus_sign,,,,null,GW/globe.jpg,GW/hat.jpg,,,,,,,,,,,,
null,,black_cross(without_color),304145,blue,,,,null,GW/globe.jpg,GW/hat.jpg,,,,,,,,,,,,
null,,rt_plussign_withcolor,304647,blue,,,,null,GW/globe.jpg,GW/hat.jpg,,,,,,,,,,,,
987.2999999523163,,rt_thecrossant_black,305783,black_plus_sign,,,,49,,,1,1,,,,,,,,,,
null,,color_black,305886,black_plus_sign,,,,null,,,,,,,,,,,,,,
null,,learn_phase(without_color),307898,black_plus_sign,,,,null,GW/basket.jpg,GW/gong.jpg,,,,,,,,,,,,
null,,black_cross(without_color),308595,green,,,,null,GW/basket.jpg,GW/gong.jpg,,,,,,,,,,,,
null,,rt_plussign_withcolor,309097,green,,,,null,GW/basket.jpg,GW/gong.jpg,,,,,,,,,,,,
1267.199999988079,,rt_thecrossant_black,310406,black_plus_sign,,,,50,,,1,1,,,,,,,,,,
null,,color_black,310519,black_plus_sign,,,,null,,,,,,,,,,,,,,
null,,learn_phase(without_color),312534,black_plus_sign,,,,null,GW/teeth.jpg,GW/paint.jpg,,,,,,,,,,,,
null,,black_cross(without_color),313046,green,,,,null,GW/teeth.jpg,GW/paint.jpg,,,,,,,,,,,,
null,,rt_plussign_withcolor,313548,green,,,,null,GW/teeth.jpg,GW/paint.jpg,,,,,,,,,,,,
1102.0999999642372,,rt_thecrossant_black,315040,black_plus_sign,,,,50,,,1,1,,,,,,,,,,
null,,color_black,315143,black_plus_sign,,,,null,,,,,,,,,,,,,,
null,,learn_phase(without_color),317145,black_plus_sign,,,,null,GW/basket.jpg,GW/gong.jpg,,,,,,,,,,,,
null,,black_cross(without_color),318136,blue,,,,null,GW/basket.jpg,GW/gong.jpg,,,,,,,,,,,,
null,,rt_plussign_withcolor,318637,blue,,,,null,GW/basket.jpg,GW/gong.jpg,,,,,,,,,,,,
1297.2000000476837,,rt_thecrossant_black,319655,black_plus_sign,,,,49,,,1,1,,,,,,,,,,
null,,color_black,319757,black_plus_sign,,,,null,,,,,,,,,,,,,,
null,,learn_phase(without_color),321768,black_plus_sign,,,,null,GW/hat.jpg,GW/teeth.jpg,,,,,,,,,,,,
null,,black_cross(without_color),322755,green,,,,null,GW/hat.jpg,GW/teeth.jpg,,,,,,,,,,,,
null,,rt_plussign_withcolor,323256,green,,,,null,GW/hat.jpg,GW/teeth.jpg,,,,,,,,,,,,
1253.5999999642372,,rt_thecrossant_black,324274,black_plus_sign,,,,50,,,1,1,,,,,,,,,,
null,,color_black,324377,black_plus_sign,,,,null,,,,,,,,,,,,,,
null,,learn_phase(without_color),326379,black_plus_sign,,,,null,GW/teeth.jpg,GW/barrel.jpg,,,,,,,,,,,,
null,,black_cross(without_color),327476,green,,,,null,GW/teeth.jpg,GW/barrel.jpg,,,,,,,,,,,,
null,,rt_plussign_withcolor,327978,green,,,,null,GW/teeth.jpg,GW/barrel.jpg,,,,,,,,,,,,
1717.699999988079,,rt_thecrossant_black,328886,black_plus_sign,,,,50,,,1,1,,,,,,,,,,
null,,color_black,328990,black_plus_sign,,,,null,,,,,,,,,,,,,,
null,,learn_phase(without_color),330994,black_plus_sign,,,,null,GW/globe.jpg,GW/barrel.jpg,,,,,,,,,,,,
null,,black_cross(without_color),331527,green,,,,null,GW/globe.jpg,GW/barrel.jpg,,,,,,,,,,,,
null,,rt_plussign_withcolor,332028,green,,,,null,GW/globe.jpg,GW/barrel.jpg,,,,,,,,,,,,
1582.3999999761581,,rt_thecrossant_black,333504,black_plus_sign,,,,50,,,1,1,,,,,,,,,,
null,,color_black,333607,black_plus_sign,,,,null,,,,,,,,,,,,,,
null,,learn_phase(without_color),335609,black_plus_sign,,,,null,GW/wheelchair.jpg,GW/snail.jpg,,,,,,,,,,,,
null,,black_cross(without_color),336583,blue,,,,null,GW/wheelchair.jpg,GW/snail.jpg,,,,,,,,,,,,
null,,rt_plussign_withcolor,337085,blue,,,,null,GW/wheelchair.jpg,GW/snail.jpg,,,,,,,,,,,,
1201.3999999761581,,rt_thecrossant_black,338123,black_plus_sign,,,,49,,,1,1,,,,,,,,,,
null,,color_black,338225,black_plus_sign,,,,null,,,,,,,,,,,,,,
null,,learn_phase(without_color),340232,black_plus_sign,,,,null,GW/globe.jpg,GW/barrel.jpg,,,,,,,,,,,,
null,,black_cross(without_color),341202,green,,,,null,GW/globe.jpg,GW/barrel.jpg,,,,,,,,,,,,
null,,rt_plussign_withcolor,341704,green,,,,null,GW/globe.jpg,GW/barrel.jpg,,,,,,,,,,,,
1353.9000000357628,,rt_thecrossant_black,342744,black_plus_sign,,,,50,,,1,1,,,,,,,,,,
null,,color_black,342846,black_plus_sign,,,,null,,,,,,,,,,,,,,
null,,learn_phase(without_color),344848,black_plus_sign,,,,null,GW/teeth.jpg,GW/barrel.jpg,,,,,,,,,,,,
null,,black_cross(without_color),345685,green,,,,null,GW/teeth.jpg,GW/barrel.jpg,,,,,,,,,,,,
null,,rt_plussign_withcolor,346188,green,,,,null,GW/teeth.jpg,GW/barrel.jpg,,,,,,,,,,,,
1356.5,,rt_thecrossant_black,347355,black_plus_sign,,,,50,,,1,1,,,,,,,,,,
null,,color_black,347457,black_plus_sign,,,,null,,,,,,,,,,,,,,
null,,learn_phase(without_color),349463,black_plus_sign,,,,null,GW/basket.jpg,GW/dustpan.jpg,,,,,,,,,,,,
null,,black_cross(without_color),350354,blue,,,,null,GW/basket.jpg,GW/dustpan.jpg,,,,,,,,,,,,
null,,rt_plussign_withcolor,350858,blue,,,,null,GW/basket.jpg,GW/dustpan.jpg,,,,,,,,,,,,
1386.3999999761581,,rt_thecrossant_black,351986,black_plus_sign,,,,49,,,1,1,,,,,,,,,,
null,,color_black,352089,black_plus_sign,,,,null,,,,,,,,,,,,,,
null,,learn_phase(without_color),354096,black_plus_sign,,,,null,GW/hat.jpg,GW/teeth.jpg,,,,,,,,,,,,
null,,black_cross(without_color),354828,green,,,,null,GW/hat.jpg,GW/teeth.jpg,,,,,,,,,,,,
null,,rt_plussign_withcolor,355329,green,,,,null,GW/hat.jpg,GW/teeth.jpg,,,,,,,,,,,,
1182.5,,rt_thecrossant_black,356601,black_plus_sign,,,,50,,,1,1,,,,,,,,,,
null,,color_black,356703,black_plus_sign,,,,null,,,,,,,,,,,,,,
null,,learn_phase(without_color),358706,black_plus_sign,,,,null,GW/globe.jpg,GW/hat.jpg,,,,,,,,,,,,
null,,black_cross(without_color),359231,green,,,,null,GW/globe.jpg,GW/hat.jpg,,,,,,,,,,,,
null,,rt_plussign_withcolor,359733,green,,,,null,GW/globe.jpg,GW/hat.jpg,,,,,,,,,,,,
1277.9000000357628,,rt_thecrossant_black,361213,black_plus_sign,,,,50,,,1,1,,,,,,,,,,
null,,color_black,361315,black_plus_sign,,,,null,,,,,,,,,,,,,,
null,,learn_phase(without_color),363317,black_plus_sign,,,,null,GW/teeth.jpg,GW/barrel.jpg,,,,,,,,,,,,
null,,black_cross(without_color),364039,blue,,,,null,GW/teeth.jpg,GW/barrel.jpg,,,,,,,,,,,,
null,,rt_plussign_withcolor,364542,blue,,,,null,GW/teeth.jpg,GW/barrel.jpg,,,,,,,,,,,,
794.8999999761581,,rt_thecrossant_black,365833,black_plus_sign,,,,49,,,1,1,,,,,,,,,,
null,,color_black,365935,black_plus_sign,,,,null,,,,,,,,,,,,,,
null,,learn_phase(without_color),367938,black_plus_sign,,,,null,GW/wheelchair.jpg,GW/snail.jpg,,,,,,,,,,,,
null,,black_cross(without_color),368762,blue,,,,null,GW/wheelchair.jpg,GW/snail.jpg,,,,,,,,,,,,
null,,rt_plussign_withcolor,369274,blue,,,,null,GW/wheelchair.jpg,GW/snail.jpg,,,,,,,,,,,,
1222.300000011921,,rt_thecrossant_black,370476,black_plus_sign,,,,49,,,1,1,,,,,,,,,,
null,,color_black,370579,black_plus_sign,,,,null,,,,,,,,,,,,,,
null,,learn_phase(without_color),372582,black_plus_sign,,,,null,GW/globe.jpg,GW/hat.jpg,,,,,,,,,,,,
null,,black_cross(without_color),373569,blue,,,,null,GW/globe.jpg,GW/hat.jpg,,,,,,,,,,,,
null,,rt_plussign_withcolor,374071,blue,,,,null,GW/globe.jpg,GW/hat.jpg,,,,,,,,,,,,
1059.6000000238419,,rt_thecrossant_black,375088,black_plus_sign,,,,49,,,1,1,,,,,,,,,,
null,,color_black,375190,black_plus_sign,,,,null,,,,,,,,,,,,,,
null,,learn_phase(without_color),377194,black_plus_sign,,,,null,GW/snail.jpg,GW/camera.jpg,,,,,,,,,,,,
null,,black_cross(without_color),378052,green,,,,null,GW/snail.jpg,GW/camera.jpg,,,,,,,,,,,,
null,,rt_plussign_withcolor,378555,green,,,,null,GW/snail.jpg,GW/camera.jpg,,,,,,,,,,,,
1640.5999999642372,,rt_thecrossant_black,379705,black_plus_sign,,,,50,,,1,1,,,,,,,,,,
null,,color_black,379807,black_plus_sign,,,,null,,,,,,,,,,,,,,
null,,learn_phase(without_color),381810,black_plus_sign,,,,null,GW/snail.jpg,GW/basket.jpg,,,,,,,,,,,,
null,,black_cross(without_color),382357,green,,,,null,GW/snail.jpg,GW/basket.jpg,,,,,,,,,,,,
null,,rt_plussign_withcolor,382859,green,,,,null,GW/snail.jpg,GW/basket.jpg,,,,,,,,,,,,
1452.8999999761581,,rt_thecrossant_black,384316,black_plus_sign,,,,50,,,1,1,,,,,,,,,,
null,,color_black,384419,black_plus_sign,,,,null,,,,,,,,,,,,,,
null,,learn_phase(without_color),386436,black_plus_sign,,,,null,GW/basket.jpg,GW/dustpan.jpg,,,,,,,,,,,,
null,,black_cross(without_color),386842,blue,,,,null,GW/basket.jpg,GW/dustpan.jpg,,,,,,,,,,,,
null,,rt_plussign_withcolor,387343,blue,,,,null,GW/basket.jpg,GW/dustpan.jpg,,,,,,,,,,,,
968.3000000119209,,rt_thecrossant_black,388942,black_plus_sign,,,,49,,,1,1,,,,,,,,,,
null,,color_black,389044,black_plus_sign,,,,null,,,,,,,,,,,,,,
null,,learn_phase(without_color),391046,black_plus_sign,,,,null,GW/hat.jpg,GW/teeth.jpg,,,,,,,,,,,,
null,,black_cross(without_color),391676,green,,,,null,GW/hat.jpg,GW/teeth.jpg,,,,,,,,,,,,
null,,rt_plussign_withcolor,392178,green,,,,null,GW/hat.jpg,GW/teeth.jpg,,,,,,,,,,,,
696.3999999761581,,rt_thecrossant_black,393554,black_plus_sign,,,,50,,,1,1,,,,,,,,,,
null,,color_black,393657,black_plus_sign,,,,null,,,,,,,,,,,,,,
null,,learn_phase(without_color),395660,black_plus_sign,,,,null,GW/globe.jpg,GW/hat.jpg,,,,,,,,,,,,
null,,black_cross(without_color),396144,blue,,,,null,GW/globe.jpg,GW/hat.jpg,,,,,,,,,,,,
null,,rt_plussign_withcolor,396647,blue,,,,null,GW/globe.jpg,GW/hat.jpg,,,,,,,,,,,,
1257.199999988079,,rt_thecrossant_black,398167,black_plus_sign,,,,49,,,1,1,,,,,,,,,,
null,,color_black,398269,black_plus_sign,,,,null,,,,,,,,,,,,,,
null,,learn_phase(without_color),400272,black_plus_sign,,,,null,GW/basket.jpg,GW/dustpan.jpg,,,,,,,,,,,,
null,,black_cross(without_color),401357,blue,,,,null,GW/basket.jpg,GW/dustpan.jpg,,,,,,,,,,,,
null,,rt_plussign_withcolor,401859,blue,,,,null,GW/basket.jpg,GW/dustpan.jpg,,,,,,,,,,,,
851.3000000119209,,rt_thecrossant_black,402783,black_plus_sign,,,,49,,,1,1,,,,,,,,,,
null,,color_black,402885,black_plus_sign,,,,null,,,,,,,,,,,,,,
null,,learn_phase(without_color),404899,black_plus_sign,,,,null,GW/teeth.jpg,GW/paint.jpg,,,,,,,,,,,,
null,,black_cross(without_color),405729,green,,,,null,GW/teeth.jpg,GW/paint.jpg,,,,,,,,,,,,
null,,rt_plussign_withcolor,406231,green,,,,null,GW/teeth.jpg,GW/paint.jpg,,,,,,,,,,,,
1589,,rt_thecrossant_black,407407,black_plus_sign,,,,50,,,1,1,,,,,,,,,,
null,,color_black,407519,black_plus_sign,,,,null,,,,,,,,,,,,,,
null,,learn_phase(without_color),409521,black_plus_sign,,,,null,GW/camera.jpg,GW/globe.jpg,,,,,,,,,,,,
null,,black_cross(without_color),410551,blue,,,,null,GW/camera.jpg,GW/globe.jpg,,,,,,,,,,,,
null,,rt_plussign_withcolor,411052,blue,,,,null,GW/camera.jpg,GW/globe.jpg,,,,,,,,,,,,
1217.300000011921,,rt_thecrossant_black,412028,black_plus_sign,,,,49,,,1,1,,,,,,,,,,
null,,color_black,412131,black_plus_sign,,,,null,,,,,,,,,,,,,,
null,,learn_phase(without_color),414143,black_plus_sign,,,,null,GW/basket.jpg,GW/dustpan.jpg,,,,,,,,,,,,
null,,black_cross(without_color),414709,green,,,,null,GW/basket.jpg,GW/dustpan.jpg,,,,,,,,,,,,
null,,rt_plussign_withcolor,415211,green,,,,null,GW/basket.jpg,GW/dustpan.jpg,,,,,,,,,,,,
1286.0999999642372,,rt_thecrossant_black,416656,black_plus_sign,,,,50,,,1,1,,,,,,,,,,
null,,color_black,416758,black_plus_sign,,,,null,,,,,,,,,,,,,,
null,,learn_phase(without_color),418764,black_plus_sign,,,,null,GW/basket.jpg,GW/gong.jpg,,,,,,,,,,,,
null,,black_cross(without_color),419852,blue,,,,null,GW/basket.jpg,GW/gong.jpg,,,,,,,,,,,,
null,,rt_plussign_withcolor,420355,blue,,,,null,GW/basket.jpg,GW/gong.jpg,,,,,,,,,,,,
1514.300000011921,,rt_thecrossant_black,421272,black_plus_sign,,,,49,,,1,1,,,,,,,,,,
null,,color_black,421374,black_plus_sign,,,,null,,,,,,,,,,,,,,
null,,learn_phase(without_color),423391,black_plus_sign,,,,null,GW/snail.jpg,GW/camera.jpg,,,,,,,,,,,,
null,,black_cross(without_color),424219,green,,,,null,GW/snail.jpg,GW/camera.jpg,,,,,,,,,,,,
null,,rt_plussign_withcolor,424721,green,,,,null,GW/snail.jpg,GW/camera.jpg,,,,,,,,,,,,
1517.5,,rt_thecrossant_black,425913,black_plus_sign,,,,50,,,1,1,,,,,,,,,,
null,,color_black,426015,black_plus_sign,,,,null,,,,,,,,,,,,,,
null,,learn_phase(without_color),428018,black_plus_sign,,,,null,GW/camera.jpg,GW/jukebox.jpg,,,,,,,,,,,,
null,,black_cross(without_color),428971,blue,,,,null,GW/camera.jpg,GW/jukebox.jpg,,,,,,,,,,,,
null,,rt_plussign_withcolor,429478,blue,,,,null,GW/camera.jpg,GW/jukebox.jpg,,,,,,,,,,,,
1743.5,,rt_thecrossant_black,430530,black_plus_sign,,,,49,,,1,1,,,,,,,,,,
null,,color_black,430633,black_plus_sign,,,,null,,,,,,,,,,,,,,
null,,learn_phase(without_color),432635,black_plus_sign,,,,null,GW/basket.jpg,GW/gong.jpg,,,,,,,,,,,,
null,,black_cross(without_color),433328,green,,,,null,GW/basket.jpg,GW/gong.jpg,,,,,,,,,,,,
null,,rt_plussign_withcolor,433830,green,,,,null,GW/basket.jpg,GW/gong.jpg,,,,,,,,,,,,
1452.2000000476837,,rt_thecrossant_black,435155,black_plus_sign,,,,50,,,1,1,,,,,,,,,,
null,,color_black,435257,black_plus_sign,,,,null,,,,,,,,,,,,,,
null,,learn_phase(without_color),437263,black_plus_sign,,,,null,GW/globe.jpg,GW/hat.jpg,,,,,,,,,,,,
null,,black_cross(without_color),437684,blue,,,,null,GW/globe.jpg,GW/hat.jpg,,,,,,,,,,,,
null,,rt_plussign_withcolor,438186,blue,,,,null,GW/globe.jpg,GW/hat.jpg,,,,,,,,,,,,
1058.800000011921,,rt_thecrossant_black,439779,black_plus_sign,,,,49,,,1,1,,,,,,,,,,
null,,color_black,439888,black_plus_sign,,,,null,,,,,,,,,,,,,,
null,,learn_phase(without_color),441891,black_plus_sign,,,,null,GW/basket.jpg,GW/dustpan.jpg,,,,,,,,,,,,
null,,black_cross(without_color),442548,blue,,,,null,GW/basket.jpg,GW/dustpan.jpg,,,,,,,,,,,,
null,,rt_plussign_withcolor,443063,blue,,,,null,GW/basket.jpg,GW/dustpan.jpg,,,,,,,,,,,,
575,,rt_thecrossant_black,444416,black_plus_sign,,,,49,,,1,1,,,,,,,,,,
null,,color_black,444517,black_plus_sign,,,,null,,,,,,,,,,,,,,
null,,learn_phase(without_color),446519,black_plus_sign,,,,null,GW/hat.jpg,GW/soldier.jpg,,,,,,,,,,,,
null,,black_cross(without_color),447491,blue,,,,null,GW/hat.jpg,GW/soldier.jpg,,,,,,,,,,,,
null,,rt_plussign_withcolor,447998,blue,,,,null,GW/hat.jpg,GW/soldier.jpg,,,,,,,,,,,,
1015.5999999642372,,rt_thecrossant_black,449031,black_plus_sign,,,,49,,,1,1,,,,,,,,,,
null,,color_black,449133,black_plus_sign,,,,null,,,,,,,,,,,,,,
null,,learn_phase(without_color),451146,black_plus_sign,,,,null,GW/hat.jpg,GW/barrel.jpg,,,,,,,,,,,,
null,,black_cross(without_color),451937,green,,,,null,GW/hat.jpg,GW/barrel.jpg,,,,,,,,,,,,
null,,rt_plussign_withcolor,452439,green,,,,null,GW/hat.jpg,GW/barrel.jpg,,,,,,,,,,,,
1394.3999999761581,,rt_thecrossant_black,453654,black_plus_sign,,,,50,,,1,1,,,,,,,,,,
null,,color_black,453757,black_plus_sign,,,,null,,,,,,,,,,,,,,
null,,learn_phase(without_color),455764,black_plus_sign,,,,null,GW/camera.jpg,GW/globe.jpg,,,,,,,,,,,,
null,,black_cross(without_color),456822,green,,,,null,GW/camera.jpg,GW/globe.jpg,,,,,,,,,,,,
null,,rt_plussign_withcolor,457324,green,,,,null,GW/camera.jpg,GW/globe.jpg,,,,,,,,,,,,
1202.8999999761581,,rt_thecrossant_black,458280,black_plus_sign,,,,50,,,1,1,,,,,,,,,,
null,,color_black,458382,black_plus_sign,,,,null,,,,,,,,,,,,,,
null,,learn_phase(without_color),460395,black_plus_sign,,,,null,GW/basket.jpg,GW/gong.jpg,,,,,,,,,,,,
null,,black_cross(without_color),461425,blue,,,,null,GW/basket.jpg,GW/gong.jpg,,,,,,,,,,,,
null,,rt_plussign_withcolor,461926,blue,,,,null,GW/basket.jpg,GW/gong.jpg,,,,,,,,,,,,
1441.5,,rt_thecrossant_black,462902,black_plus_sign,,,,49,,,1,1,,,,,,,,,,
null,,color_black,463004,black_plus_sign,,,,null,,,,,,,,,,,,,,
null,,learn_phase(without_color),465007,black_plus_sign,,,,null,GW/camera.jpg,GW/jukebox.jpg,,,,,,,,,,,,
null,,black_cross(without_color),465678,green,,,,null,GW/camera.jpg,GW/jukebox.jpg,,,,,,,,,,,,
null,,rt_plussign_withcolor,466179,green,,,,null,GW/camera.jpg,GW/jukebox.jpg,,,,,,,,,,,,
1382.1000000238419,,rt_thecrossant_black,467521,black_plus_sign,,,,50,,,1,1,,,,,,,,,,
null,,color_black,467623,black_plus_sign,,,,null,,,,,,,,,,,,,,
null,,learn_phase(without_color),469640,black_plus_sign,,,,null,GW/wheelchair.jpg,GW/snail.jpg,,,,,,,,,,,,
null,,black_cross(without_color),470579,green,,,,null,GW/wheelchair.jpg,GW/snail.jpg,,,,,,,,,,,,
null,,rt_plussign_withcolor,471081,green,,,,null,GW/wheelchair.jpg,GW/snail.jpg,,,,,,,,,,,,
989,,rt_thecrossant_black,472151,black_plus_sign,,,,50,,,1,1,,,,,,,,,,
null,,color_black,472255,black_plus_sign,,,,null,,,,,,,,,,,,,,
null,,learn_phase(without_color),474257,black_plus_sign,,,,null,GW/snail.jpg,GW/basket.jpg,,,,,,,,,,,,
null,,black_cross(without_color),475061,blue,,,,null,GW/snail.jpg,GW/basket.jpg,,,,,,,,,,,,
null,,rt_plussign_withcolor,475563,blue,,,,null,GW/snail.jpg,GW/basket.jpg,,,,,,,,,,,,
1090.5999999642372,,rt_thecrossant_black,476772,black_plus_sign,,,,49,,,1,1,,,,,,,,,,
null,,color_black,476875,black_plus_sign,,,,null,,,,,,,,,,,,,,
null,,learn_phase(without_color),478880,black_plus_sign,,,,null,GW/camera.jpg,GW/jukebox.jpg,,,,,,,,,,,,
null,,black_cross(without_color),479749,green,,,,null,GW/camera.jpg,GW/jukebox.jpg,,,,,,,,,,,,
null,,rt_plussign_withcolor,480251,green,,,,null,GW/camera.jpg,GW/jukebox.jpg,,,,,,,,,,,,
1043.7999999523163,,rt_thecrossant_black,481386,black_plus_sign,,,,50,,,1,1,,,,,,,,,,
null,,color_black,481488,black_plus_sign,,,,null,,,,,,,,,,,,,,
null,,learn_phase(without_color),483491,black_plus_sign,,,,null,GW/hat.jpg,GW/teeth.jpg,,,,,,,,,,,,
null,,black_cross(without_color),484405,blue,,,,null,GW/hat.jpg,GW/teeth.jpg,,,,,,,,,,,,
null,,rt_plussign_withcolor,484908,blue,,,,null,GW/hat.jpg,GW/teeth.jpg,,,,,,,,,,,,
1089.800000011921,,rt_thecrossant_black,485998,black_plus_sign,,,,49,,,1,1,,,,,,,,,,
null,,color_black,486101,black_plus_sign,,,,null,,,,,,,,,,,,,,
null,,learn_phase(without_color),488116,black_plus_sign,,,,null,GW/camera.jpg,GW/jukebox.jpg,,,,,,,,,,,,
null,,black_cross(without_color),488639,green,,,,null,GW/camera.jpg,GW/jukebox.jpg,,,,,,,,,,,,
null,,rt_plussign_withcolor,489141,green,,,,null,GW/camera.jpg,GW/jukebox.jpg,,,,,,,,,,,,
1171.800000011921,,rt_thecrossant_black,490629,black_plus_sign,,,,50,,,1,1,,,,,,,,,,
null,,color_black,490738,black_plus_sign,,,,null,,,,,,,,,,,,,,
null,,learn_phase(without_color),492754,black_plus_sign,,,,null,GW/hat.jpg,GW/barrel.jpg,,,,,,,,,,,,
null,,black_cross(without_color),493458,green,,,,null,GW/hat.jpg,GW/barrel.jpg,,,,,,,,,,,,
null,,rt_plussign_withcolor,493959,green,,,,null,GW/hat.jpg,GW/barrel.jpg,,,,,,,,,,,,
866.3999999761581,,rt_thecrossant_black,495260,black_plus_sign,,,,50,,,1,1,,,,,,,,,,
null,,color_black,495363,black_plus_sign,,,,null,,,,,,,,,,,,,,
null,,learn_phase(without_color),497366,black_plus_sign,,,,null,GW/hat.jpg,GW/teeth.jpg,,,,,,,,,,,,
null,,black_cross(without_color),498457,green,,,,null,GW/hat.jpg,GW/teeth.jpg,,,,,,,,,,,,
null,,rt_plussign_withcolor,498958,green,,,,null,GW/hat.jpg,GW/teeth.jpg,,,,,,,,,,,,
1147.3999999761581,,rt_thecrossant_black,499887,black_plus_sign,,,,50,,,1,1,,,,,,,,,,
null,,color_black,499998,black_plus_sign,,,,null,,,,,,,,,,,,,,
null,,learn_phase(without_color),502000,black_plus_sign,,,,null,GW/camera.jpg,GW/globe.jpg,,,,,,,,,,,,
null,,black_cross(without_color),502930,green,,,,null,GW/camera.jpg,GW/globe.jpg,,,,,,,,,,,,
null,,rt_plussign_withcolor,503432,green,,,,null,GW/camera.jpg,GW/globe.jpg,,,,,,,,,,,,
1444.8999999761581,,rt_thecrossant_black,504507,black_plus_sign,,,,50,,,1,1,,,,,,,,,,
null,,color_black,504609,black_plus_sign,,,,null,,,,,,,,,,,,,,
null,,learn_phase(without_color),506612,black_plus_sign,,,,null,GW/globe.jpg,GW/hat.jpg,,,,,,,,,,,,
null,,black_cross(without_color),507493,green,,,,null,GW/globe.jpg,GW/hat.jpg,,,,,,,,,,,,
null,,rt_plussign_withcolor,508009,green,,,,null,GW/globe.jpg,GW/hat.jpg,,,,,,,,,,,,
1237.8999999761581,,rt_thecrossant_black,509145,black_plus_sign,,,,50,,,1,1,,,,,,,,,,
null,,color_black,509248,black_plus_sign,,,,null,,,,,,,,,,,,,,
null,,learn_phase(without_color),511251,black_plus_sign,,,,null,GW/snail.jpg,GW/basket.jpg,,,,,,,,,,,,
null,,black_cross(without_color),512178,green,,,,null,GW/snail.jpg,GW/basket.jpg,,,,,,,,,,,,
null,,rt_plussign_withcolor,512681,green,,,,null,GW/snail.jpg,GW/basket.jpg,,,,,,,,,,,,
1158.699999988079,,rt_thecrossant_black,513777,black_plus_sign,,,,50,,,1,1,,,,,,,,,,
null,,color_black,513880,black_plus_sign,,,,null,,,,,,,,,,,,,,
null,,learn_phase(without_color),515889,black_plus_sign,,,,null,GW/hat.jpg,GW/soldier.jpg,,,,,,,,,,,,
null,,black_cross(without_color),516962,blue,,,,null,GW/hat.jpg,GW/soldier.jpg,,,,,,,,,,,,
null,,rt_plussign_withcolor,517463,blue,,,,null,GW/hat.jpg,GW/soldier.jpg,,,,,,,,,,,,
1051.800000011921,,rt_thecrossant_black,518394,black_plus_sign,,,,49,,,1,1,,,,,,,,,,
null,,color_black,518502,black_plus_sign,,,,null,,,,,,,,,,,,,,
null,,learn_phase(without_color),520505,black_plus_sign,,,,null,GW/jukebox.jpg,GW/dustpan.jpg,,,,,,,,,,,,
null,,black_cross(without_color),521320,green,,,,null,GW/jukebox.jpg,GW/dustpan.jpg,,,,,,,,,,,,
null,,rt_plussign_withcolor,521821,green,,,,null,GW/jukebox.jpg,GW/dustpan.jpg,,,,,,,,,,,,
1284.199999988079,,rt_thecrossant_black,523011,black_plus_sign,,,,50,,,1,1,,,,,,,,,,
null,,color_black,523113,black_plus_sign,,,,null,,,,,,,,,,,,,,
null,,learn_phase(without_color),525115,black_plus_sign,,,,null,GW/snail.jpg,GW/basket.jpg,,,,,,,,,,,,
null,,black_cross(without_color),525957,green,,,,null,GW/snail.jpg,GW/basket.jpg,,,,,,,,,,,,
null,,rt_plussign_withcolor,526459,green,,,,null,GW/snail.jpg,GW/basket.jpg,,,,,,,,,,,,
1127.7999999523163,,rt_thecrossant_black,527626,black_plus_sign,,,,50,,,1,1,,,,,,,,,,
null,,color_black,527728,black_plus_sign,,,,null,,,,,,,,,,,,,,
null,,learn_phase(without_color),529730,black_plus_sign,,,,null,GW/camera.jpg,GW/globe.jpg,,,,,,,,,,,,
null,,black_cross(without_color),530171,blue,,,,null,GW/camera.jpg,GW/globe.jpg,,,,,,,,,,,,
null,,rt_plussign_withcolor,530673,blue,,,,null,GW/camera.jpg,GW/globe.jpg,,,,,,,,,,,,
1120.2999999523163,,rt_thecrossant_black,532251,black_plus_sign,,,,50,,,0,0.9846153846153847,,,,,,,,,,
null,,color_black,532354,black_plus_sign,,,,null,,,,,,,,,,,,,,
null,,learn_phase(without_color),534357,black_plus_sign,,,,null,GW/globe.jpg,GW/barrel.jpg,,,,,,,,,,,,
null,,black_cross(without_color),534773,blue,,,,null,GW/globe.jpg,GW/barrel.jpg,,,,,,,,,,,,
null,,rt_plussign_withcolor,535275,blue,,,,null,GW/globe.jpg,GW/barrel.jpg,,,,,,,,,,,,
761.2000000476837,,rt_thecrossant_black,536864,black_plus_sign,,,,49,,,1,0.9848484848484849,,,,,,,,,,
null,,color_black,536966,black_plus_sign,,,,null,,,,,,,,,,,,,,
null,,learn_phase(without_color),538969,black_plus_sign,,,,null,GW/basket.jpg,GW/dustpan.jpg,,,,,,,,,,,,
null,,black_cross(without_color),539472,blue,,,,null,GW/basket.jpg,GW/dustpan.jpg,,,,,,,,,,,,
null,,rt_plussign_withcolor,539973,blue,,,,null,GW/basket.jpg,GW/dustpan.jpg,,,,,,,,,,,,
691.3000000119209,,rt_thecrossant_black,541475,black_plus_sign,,,,49,,,1,0.9850746268656716,,,,,,,,,,
null,,color_black,541578,black_plus_sign,,,,null,,,,,,,,,,,,,,
null,,learn_phase(without_color),543596,black_plus_sign,,,,null,GW/teeth.jpg,GW/barrel.jpg,,,,,,,,,,,,
null,,black_cross(without_color),544236,blue,,,,null,GW/teeth.jpg,GW/barrel.jpg,,,,,,,,,,,,
null,,rt_plussign_withcolor,544740,blue,,,,null,GW/teeth.jpg,GW/barrel.jpg,,,,,,,,,,,,
899.5,,rt_thecrossant_black,546104,black_plus_sign,,,,49,,,1,0.9852941176470589,,,,,,,,,,
null,,color_black,546206,black_plus_sign,,,,null,,,,,,,,,,,,,,
null,,learn_phase(without_color),548212,black_plus_sign,,,,null,GW/hat.jpg,GW/soldier.jpg,,,,,,,,,,,,
null,,black_cross(without_color),548842,green,,,,null,GW/hat.jpg,GW/soldier.jpg,,,,,,,,,,,,
null,,rt_plussign_withcolor,549343,green,,,,null,GW/hat.jpg,GW/soldier.jpg,,,,,,,,,,,,
872.8999999761581,,rt_thecrossant_black,550719,black_plus_sign,,,,50,,,1,0.9855072463768116,,,,,,,,,,
null,,color_black,550821,black_plus_sign,,,,null,,,,,,,,,,,,,,
null,,learn_phase(without_color),552824,black_plus_sign,,,,null,GW/basket.jpg,GW/gong.jpg,,,,,,,,,,,,
null,,black_cross(without_color),553707,green,,,,null,GW/basket.jpg,GW/gong.jpg,,,,,,,,,,,,
null,,rt_plussign_withcolor,554209,green,,,,null,GW/basket.jpg,GW/gong.jpg,,,,,,,,,,,,
1012.6999999880791,,rt_thecrossant_black,555331,black_plus_sign,,,,50,,,1,0.9857142857142858,,,,,,,,,,
null,,color_black,555433,black_plus_sign,,,,null,,,,,,,,,,,,,,
null,,learn_phase(without_color),557436,black_plus_sign,,,,null,GW/teeth.jpg,GW/paint.jpg,,,,,,,,,,,,
null,,black_cross(without_color),558243,blue,,,,null,GW/teeth.jpg,GW/paint.jpg,,,,,,,,,,,,
null,,rt_plussign_withcolor,558745,blue,,,,null,GW/teeth.jpg,GW/paint.jpg,,,,,,,,,,,,
1306,,rt_thecrossant_black,559942,black_plus_sign,,,,49,,,1,0.9859154929577465,,,,,,,,,,
null,,color_black,560044,black_plus_sign,,,,null,,,,,,,,,,,,,,
null,,learn_phase(without_color),562047,black_plus_sign,,,,null,GW/hat.jpg,GW/barrel.jpg,,,,,,,,,,,,
null,,black_cross(without_color),562546,green,,,,null,GW/hat.jpg,GW/barrel.jpg,,,,,,,,,,,,
null,,rt_plussign_withcolor,563048,green,,,,null,GW/hat.jpg,GW/barrel.jpg,,,,,,,,,,,,
1231.1000000238419,,rt_thecrossant_black,564553,black_plus_sign,,,,50,,,1,0.9861111111111112,,,,,,,,,,
null,,color_black,564656,black_plus_sign,,,,null,,,,,,,,,,,,,,
null,,learn_phase(without_color),566658,black_plus_sign,,,,null,GW/camera.jpg,GW/globe.jpg,,,,,,,,,,,,
null,,black_cross(without_color),567105,blue,,,,null,GW/camera.jpg,GW/globe.jpg,,,,,,,,,,,,
null,,rt_plussign_withcolor,567607,blue,,,,null,GW/camera.jpg,GW/globe.jpg,,,,,,,,,,,,
624.4000000357628,,rt_thecrossant_black,569173,black_plus_sign,,,,49,,,1,0.9863013698630136,,,,,,,,,,
null,,color_black,569275,black_plus_sign,,,,null,,,,,,,,,,,,,,
null,,learn_phase(without_color),571278,black_plus_sign,,,,null,GW/hat.jpg,GW/barrel.jpg,,,,,,,,,,,,
null,,black_cross(without_color),571911,blue,,,,null,GW/hat.jpg,GW/barrel.jpg,,,,,,,,,,,,
null,,rt_plussign_withcolor,572413,blue,,,,null,GW/hat.jpg,GW/barrel.jpg,,,,,,,,,,,,
889.4000000357628,,rt_thecrossant_black,573785,black_plus_sign,,,,49,,,1,0.9864864864864865,,,,,,,,,,
null,,color_black,573887,black_plus_sign,,,,null,,,,,,,,,,,,,,
null,,learn_phase(without_color),575898,black_plus_sign,,,,null,GW/snail.jpg,GW/camera.jpg,,,,,,,,,,,,
null,,black_cross(without_color),576615,green,,,,null,GW/snail.jpg,GW/camera.jpg,,,,,,,,,,,,
null,,rt_plussign_withcolor,577117,green,,,,null,GW/snail.jpg,GW/camera.jpg,,,,,,,,,,,,
868.6999999880791,,rt_thecrossant_black,578422,black_plus_sign,,,,50,,,1,0.9866666666666667,,,,,,,,,,
null,,color_black,578524,black_plus_sign,,,,null,,,,,,,,,,,,,,
null,,learn_phase(without_color),580528,black_plus_sign,,,,null,GW/hat.jpg,GW/barrel.jpg,,,,,,,,,,,,
null,,black_cross(without_color),581274,blue,,,,null,GW/hat.jpg,GW/barrel.jpg,,,,,,,,,,,,
498.5,,rt_plussign_withcolor,581775,blue,,,,49,GW/hat.jpg,GW/barrel.jpg,,,,,,,,,,,,
null,,rt_thecrossant_black,583033,black_plus_sign,,,,null,,,1,0.9868421052631579,,,,,,,,,,
null,,color_black,583135,black_plus_sign,,,,null,,,,,,,,,,,,,,
null,,learn_phase(without_color),585138,black_plus_sign,,,,null,GW/barrel.jpg,GW/jukebox.jpg,,,,,,,,,,,,
null,,black_cross(without_color),586019,green,,,,null,GW/barrel.jpg,GW/jukebox.jpg,,,,,,,,,,,,
null,,rt_plussign_withcolor,586533,green,,,,null,GW/barrel.jpg,GW/jukebox.jpg,,,,,,,,,,,,
852.3999999761581,,rt_thecrossant_black,587672,black_plus_sign,,,,50,,,1,0.987012987012987,,,,,,,,,,
null,,color_black,587775,black_plus_sign,,,,null,,,,,,,,,,,,,,
null,,learn_phase(without_color),589778,black_plus_sign,,,,null,GW/jukebox.jpg,GW/dustpan.jpg,,,,,,,,,,,,
null,,black_cross(without_color),590653,green,,,,null,GW/jukebox.jpg,GW/dustpan.jpg,,,,,,,,,,,,
null,,rt_plussign_withcolor,591155,green,,,,null,GW/jukebox.jpg,GW/dustpan.jpg,,,,,,,,,,,,
1255.300000011921,,rt_thecrossant_black,592298,black_plus_sign,,,,50,,,1,0.9871794871794872,,,,,,,,,,
null,,color_black,592402,black_plus_sign,,,,null,,,,,,,,,,,,,,
null,,learn_phase(without_color),594404,black_plus_sign,,,,null,GW/hat.jpg,GW/barrel.jpg,,,,,,,,,,,,
null,,black_cross(without_color),595088,blue,,,,null,GW/hat.jpg,GW/barrel.jpg,,,,,,,,,,,,
null,,rt_plussign_withcolor,595590,blue,,,,null,GW/hat.jpg,GW/barrel.jpg,,,,,,,,,,,,
1285.199999988079,,rt_thecrossant_black,596910,black_plus_sign,,,,49,,,1,0.9873417721518988,,,,,,,,,,
null,,color_black,597013,black_plus_sign,,,,null,,,,,,,,,,,,,,
null,,learn_phase(without_color),599016,black_plus_sign,,,,null,GW/hat.jpg,GW/soldier.jpg,,,,,,,,,,,,
null,,black_cross(without_color),600082,blue,,,,null,GW/hat.jpg,GW/soldier.jpg,,,,,,,,,,,,
null,,rt_plussign_withcolor,600585,blue,,,,null,GW/hat.jpg,GW/soldier.jpg,,,,,,,,,,,,
1157,,rt_thecrossant_black,601524,black_plus_sign,,,,49,,,1,0.9875,,,,,,,,,,
null,,color_black,601627,black_plus_sign,,,,null,,,,,,,,,,,,,,
null,,learn_phase(without_color),603629,black_plus_sign,,,,null,GW/wheelchair.jpg,GW/snail.jpg,,,,,,,,,,,,
null,,black_cross(without_color),604270,blue,,,,null,GW/wheelchair.jpg,GW/snail.jpg,,,,,,,,,,,,
null,,rt_plussign_withcolor,604773,blue,,,,null,GW/wheelchair.jpg,GW/snail.jpg,,,,,,,,,,,,
1548.1000000238419,,rt_thecrossant_black,606136,black_plus_sign,,,,49,,,1,0.9876543209876543,,,,,,,,,,
null,,color_black,606239,black_plus_sign,,,,null,,,,,,,,,,,,,,
null,,learn_phase(without_color),608242,black_plus_sign,,,,null,GW/globe.jpg,GW/hat.jpg,,,,,,,,,,,,
null,,black_cross(without_color),609037,blue,,,,null,GW/globe.jpg,GW/hat.jpg,,,,,,,,,,,,
null,,rt_plussign_withcolor,609539,blue,,,,null,GW/globe.jpg,GW/hat.jpg,,,,,,,,,,,,
878.3999999761581,,rt_thecrossant_black,610757,black_plus_sign,,,,49,,,1,0.9878048780487805,,,,,,,,,,
null,,color_black,610859,black_plus_sign,,,,null,,,,,,,,,,,,,,
null,,learn_phase(without_color),612872,black_plus_sign,,,,null,GW/hat.jpg,GW/teeth.jpg,,,,,,,,,,,,
null,,black_cross(without_color),613529,blue,,,,null,GW/hat.jpg,GW/teeth.jpg,,,,,,,,,,,,
null,,rt_plussign_withcolor,614031,blue,,,,null,GW/hat.jpg,GW/teeth.jpg,,,,,,,,,,,,
1265.8999999761581,,rt_thecrossant_black,615387,black_plus_sign,,,,49,,,1,0.9879518072289156,,,,,,,,,,
null,,color_black,615489,black_plus_sign,,,,null,,,,,,,,,,,,,,
null,,learn_phase(without_color),617505,black_plus_sign,,,,null,GW/barrel.jpg,GW/jukebox.jpg,,,,,,,,,,,,
null,,black_cross(without_color),618449,green,,,,null,GW/barrel.jpg,GW/jukebox.jpg,,,,,,,,,,,,
null,,rt_plussign_withcolor,618953,green,,,,null,GW/barrel.jpg,GW/jukebox.jpg,,,,,,,,,,,,
759.6000000238419,,rt_thecrossant_black,620017,black_plus_sign,,,,50,,,1,0.9880952380952381,,,,,,,,,,
null,,color_black,620120,black_plus_sign,,,,null,,,,,,,,,,,,,,
null,,learn_phase(without_color),622123,black_plus_sign,,,,null,GW/hat.jpg,GW/barrel.jpg,,,,,,,,,,,,
null,,black_cross(without_color),622891,blue,,,,null,GW/hat.jpg,GW/barrel.jpg,,,,,,,,,,,,
null,,rt_plussign_withcolor,623394,blue,,,,null,GW/hat.jpg,GW/barrel.jpg,,,,,,,,,,,,
1199.0999999642372,,rt_thecrossant_black,624631,black_plus_sign,,,,49,,,1,0.9882352941176471,,,,,,,,,,
null,,color_black,624733,black_plus_sign,,,,null,,,,,,,,,,,,,,
null,,learn_phase(without_color),626737,black_plus_sign,,,,null,GW/snail.jpg,GW/basket.jpg,,,,,,,,,,,,
null,,black_cross(without_color),627182,blue,,,,null,GW/snail.jpg,GW/basket.jpg,,,,,,,,,,,,
null,,rt_plussign_withcolor,627683,blue,,,,null,GW/snail.jpg,GW/basket.jpg,,,,,,,,,,,,
1250.2000000476837,,rt_thecrossant_black,629256,black_plus_sign,,,,49,,,1,0.9883720930232558,,,,,,,,,,
null,,color_black,629359,black_plus_sign,,,,null,,,,,,,,,,,,,,
null,,learn_phase(without_color),631362,black_plus_sign,,,,null,GW/teeth.jpg,GW/barrel.jpg,,,,,,,,,,,,
null,,black_cross(without_color),632432,blue,,,,null,GW/teeth.jpg,GW/barrel.jpg,,,,,,,,,,,,
null,,rt_plussign_withcolor,632934,blue,,,,null,GW/teeth.jpg,GW/barrel.jpg,,,,,,,,,,,,
880.4000000357628,,rt_thecrossant_black,633868,black_plus_sign,,,,49,,,1,0.9885057471264368,,,,,,,,,,
null,,color_black,633974,black_plus_sign,,,,null,,,,,,,,,,,,,,
null,,learn_phase(without_color),635977,black_plus_sign,,,,null,GW/jukebox.jpg,GW/dustpan.jpg,,,,,,,,,,,,
null,,black_cross(without_color),636507,green,,,,null,GW/jukebox.jpg,GW/dustpan.jpg,,,,,,,,,,,,
null,,rt_plussign_withcolor,637012,green,,,,null,GW/jukebox.jpg,GW/dustpan.jpg,,,,,,,,,,,,
1451.5,,rt_thecrossant_black,638493,black_plus_sign,,,,50,,,1,0.9886363636363636,,,,,,,,,,
null,,color_black,638595,black_plus_sign,,,,null,,,,,,,,,,,,,,
null,,learn_phase(without_color),640597,black_plus_sign,,,,null,GW/snail.jpg,GW/basket.jpg,,,,,,,,,,,,
null,,black_cross(without_color),641480,green,,,,null,GW/snail.jpg,GW/basket.jpg,,,,,,,,,,,,
null,,rt_plussign_withcolor,641983,green,,,,null,GW/snail.jpg,GW/basket.jpg,,,,,,,,,,,,
1162.7000000476837,,rt_thecrossant_black,643111,black_plus_sign,,,,50,,,1,0.9887640449438202,,,,,,,,,,
null,,color_black,643214,black_plus_sign,,,,null,,,,,,,,,,,,,,
null,,learn_phase(without_color),645216,black_plus_sign,,,,null,GW/teeth.jpg,GW/barrel.jpg,,,,,,,,,,,,
null,,black_cross(without_color),646179,green,,,,null,GW/teeth.jpg,GW/barrel.jpg,,,,,,,,,,,,
null,,rt_plussign_withcolor,646680,green,,,,null,GW/teeth.jpg,GW/barrel.jpg,,,,,,,,,,,,
1362.8999999761581,,rt_thecrossant_black,647729,black_plus_sign,,,,50,,,1,0.9888888888888889,,,,,,,,,,
null,,color_black,647831,black_plus_sign,,,,null,,,,,,,,,,,,,,
null,,learn_phase(without_color),649834,black_plus_sign,,,,null,GW/globe.jpg,GW/barrel.jpg,,,,,,,,,,,,
null,,black_cross(without_color),650479,green,,,,null,GW/globe.jpg,GW/barrel.jpg,,,,,,,,,,,,
null,,rt_plussign_withcolor,650981,green,,,,null,GW/globe.jpg,GW/barrel.jpg,,,,,,,,,,,,
1439.7000000476837,,rt_thecrossant_black,652354,black_plus_sign,,,,50,,,1,0.989010989010989,,,,,,,,,,
null,,color_black,652457,black_plus_sign,,,,null,,,,,,,,,,,,,,
null,,learn_phase(without_color),654460,black_plus_sign,,,,null,GW/snail.jpg,GW/basket.jpg,,,,,,,,,,,,
null,,black_cross(without_color),655367,blue,,,,null,GW/snail.jpg,GW/basket.jpg,,,,,,,,,,,,
null,,rt_plussign_withcolor,655868,blue,,,,null,GW/snail.jpg,GW/basket.jpg,,,,,,,,,,,,
955.6000000238419,,rt_thecrossant_black,656979,black_plus_sign,,,,49,,,1,0.9891304347826086,,,,,,,,,,
null,,color_black,657081,black_plus_sign,,,,null,,,,,,,,,,,,,,
null,,learn_phase(without_color),659085,black_plus_sign,,,,null,GW/wheelchair.jpg,GW/snail.jpg,,,,,,,,,,,,
null,,black_cross(without_color),659984,blue,,,,null,GW/wheelchair.jpg,GW/snail.jpg,,,,,,,,,,,,
null,,rt_plussign_withcolor,660500,blue,,,,null,GW/wheelchair.jpg,GW/snail.jpg,,,,,,,,,,,,
1289.800000011921,,rt_thecrossant_black,661609,black_plus_sign,,,,49,,,1,0.989247311827957,,,,,,,,,,
null,,color_black,661719,black_plus_sign,,,,null,,,,,,,,,,,,,,
null,,learn_phase(without_color),663722,black_plus_sign,,,,null,GW/hat.jpg,GW/teeth.jpg,,,,,,,,,,,,
null,,black_cross(without_color),664237,green,,,,null,GW/hat.jpg,GW/teeth.jpg,,,,,,,,,,,,
null,,rt_plussign_withcolor,664739,green,,,,null,GW/hat.jpg,GW/teeth.jpg,,,,,,,,,,,,
1284.3999999761581,,rt_thecrossant_black,666228,black_plus_sign,,,,50,,,1,0.9893617021276596,,,,,,,,,,
null,,color_black,666331,black_plus_sign,,,,null,,,,,,,,,,,,,,
null,,learn_phase(without_color),668334,black_plus_sign,,,,null,GW/snail.jpg,GW/camera.jpg,,,,,,,,,,,,
null,,black_cross(without_color),669228,blue,,,,null,GW/snail.jpg,GW/camera.jpg,,,,,,,,,,,,
null,,rt_plussign_withcolor,669730,blue,,,,null,GW/snail.jpg,GW/camera.jpg,,,,,,,,,,,,
827,,rt_thecrossant_black,670840,black_plus_sign,,,,49,,,1,0.9894736842105263,,,,,,,,,,
null,,color_black,670942,black_plus_sign,,,,null,,,,,,,,,,,,,,
null,,learn_phase(without_color),672945,black_plus_sign,,,,null,GW/jukebox.jpg,GW/dustpan.jpg,,,,,,,,,,,,
null,,black_cross(without_color),673489,green,,,,null,GW/jukebox.jpg,GW/dustpan.jpg,,,,,,,,,,,,
null,,rt_plussign_withcolor,673990,green,,,,null,GW/jukebox.jpg,GW/dustpan.jpg,,,,,,,,,,,,
1323.0999999642372,,rt_thecrossant_black,675462,black_plus_sign,,,,50,,,1,0.9895833333333334,,,,,,,,,,
null,,color_black,675565,black_plus_sign,,,,null,,,,,,,,,,,,,,
null,,learn_phase(without_color),677568,black_plus_sign,,,,null,GW/snail.jpg,GW/camera.jpg,,,,,,,,,,,,
null,,black_cross(without_color),678468,blue,,,,null,GW/snail.jpg,GW/camera.jpg,,,,,,,,,,,,
null,,rt_plussign_withcolor,678971,blue,,,,null,GW/snail.jpg,GW/camera.jpg,,,,,,,,,,,,
820,,rt_thecrossant_black,680081,black_plus_sign,,,,49,,,1,0.9896907216494846,,,,,,,,,,
null,,color_black,680184,black_plus_sign,,,,null,,,,,,,,,,,,,,
null,,learn_phase(without_color),682195,black_plus_sign,,,,null,GW/camera.jpg,GW/globe.jpg,,,,,,,,,,,,
null,,black_cross(without_color),683009,green,,,,null,GW/camera.jpg,GW/globe.jpg,,,,,,,,,,,,
null,,rt_plussign_withcolor,683511,green,,,,null,GW/camera.jpg,GW/globe.jpg,,,,,,,,,,,,
1271.8999999761581,,rt_thecrossant_black,684704,black_plus_sign,,,,50,,,1,0.9897959183673469,,,,,,,,,,
null,,color_black,684807,black_plus_sign,,,,null,,,,,,,,,,,,,,
null,,learn_phase(without_color),686824,black_plus_sign,,,,null,GW/globe.jpg,GW/barrel.jpg,,,,,,,,,,,,
null,,black_cross(without_color),687252,blue,,,,null,GW/globe.jpg,GW/barrel.jpg,,,,,,,,,,,,
null,,rt_plussign_withcolor,687754,blue,,,,null,GW/globe.jpg,GW/barrel.jpg,,,,,,,,,,,,
1252.699999988079,,rt_thecrossant_black,689333,black_plus_sign,,,,49,,,1,0.98989898989899,,,,,,,,,,
null,,color_black,689436,black_plus_sign,,,,null,,,,,,,,,,,,,,
null,,learn_phase(without_color),691438,black_plus_sign,,,,null,GW/snail.jpg,GW/basket.jpg,,,,,,,,,,,,
null,,black_cross(without_color),691919,green,,,,null,GW/snail.jpg,GW/basket.jpg,,,,,,,,,,,,
null,,rt_plussign_withcolor,692421,green,,,,null,GW/snail.jpg,GW/basket.jpg,,,,,,,,,,,,
531.1000000238419,,rt_thecrossant_black,693954,black_plus_sign,,,,50,,,1,0.99,,,,,,,,,,
null,,color_black,694057,black_plus_sign,,,,null,,,,,,,,,,,,,,
null,,learn_phase(without_color),696061,black_plus_sign,,,,null,GW/teeth.jpg,GW/barrel.jpg,,,,,,,,,,,,
null,,black_cross(without_color),696681,blue,,,,null,GW/teeth.jpg,GW/barrel.jpg,,,,,,,,,,,,
null,,rt_plussign_withcolor,697183,blue,,,,null,GW/teeth.jpg,GW/barrel.jpg,,,,,,,,,,,,
887.3000000119209,,rt_thecrossant_black,698568,black_plus_sign,,,,49,,,1,0.9900990099009901,,,,,,,,,,
null,,color_black,698676,black_plus_sign,,,,null,,,,,,,,,,,,,,
null,,learn_phase(without_color),700685,black_plus_sign,,,,null,GW/basket.jpg,GW/gong.jpg,,,,,,,,,,,,
null,,black_cross(without_color),701144,blue,,,,null,GW/basket.jpg,GW/gong.jpg,,,,,,,,,,,,
null,,rt_plussign_withcolor,701646,blue,,,,null,GW/basket.jpg,GW/gong.jpg,,,,,,,,,,,,
1183.3999999761581,,rt_thecrossant_black,703192,black_plus_sign,,,,49,,,1,0.9901960784313726,,,,,,,,,,
null,,color_black,703295,black_plus_sign,,,,null,,,,,,,,,,,,,,
null,,learn_phase(without_color),705298,black_plus_sign,,,,null,GW/hat.jpg,GW/soldier.jpg,,,,,,,,,,,,
null,,black_cross(without_color),705946,green,,,,null,GW/hat.jpg,GW/soldier.jpg,,,,,,,,,,,,
null,,rt_plussign_withcolor,706447,green,,,,null,GW/hat.jpg,GW/soldier.jpg,,,,,,,,,,,,
823.8000000119209,,rt_thecrossant_black,707804,black_plus_sign,,,,50,,,1,0.9902912621359223,,,,,,,,,,
null,,color_black,707907,black_plus_sign,,,,null,,,,,,,,,,,,,,
null,,learn_phase(without_color),709910,black_plus_sign,,,,null,GW/snail.jpg,GW/camera.jpg,,,,,,,,,,,,
null,,black_cross(without_color),710485,blue,,,,null,GW/snail.jpg,GW/camera.jpg,,,,,,,,,,,,
null,,rt_plussign_withcolor,710988,blue,,,,null,GW/snail.jpg,GW/camera.jpg,,,,,,,,,,,,
1045.199999988079,,rt_thecrossant_black,712435,black_plus_sign,,,,49,,,1,0.9903846153846154,,,,,,,,,,
null,,color_black,712537,black_plus_sign,,,,null,,,,,,,,,,,,,,
null,,learn_phase(without_color),714539,black_plus_sign,,,,null,GW/jukebox.jpg,GW/dustpan.jpg,,,,,,,,,,,,
null,,black_cross(without_color),715088,blue,,,,null,GW/jukebox.jpg,GW/dustpan.jpg,,,,,,,,,,,,
null,,rt_plussign_withcolor,715590,blue,,,,null,GW/jukebox.jpg,GW/dustpan.jpg,,,,,,,,,,,,
894,,rt_thecrossant_black,717046,black_plus_sign,,,,49,,,1,0.9904761904761905,,,,,,,,,,
null,,color_black,717149,black_plus_sign,,,,null,,,,,,,,,,,,,,
null,,learn_phase(without_color),719152,black_plus_sign,,,,null,GW/teeth.jpg,GW/paint.jpg,,,,,,,,,,,,
null,,black_cross(without_color),720214,green,,,,null,GW/teeth.jpg,GW/paint.jpg,,,,,,,,,,,,
null,,rt_plussign_withcolor,720716,green,,,,null,GW/teeth.jpg,GW/paint.jpg,,,,,,,,,,,,
742.2999999523163,,rt_thecrossant_black,721660,black_plus_sign,,,,50,,,1,0.9905660377358491,,,,,,,,,,
null,,color_black,721762,black_plus_sign,,,,null,,,,,,,,,,,,,,
null,,learn_phase(without_color),723764,black_plus_sign,,,,null,GW/barrel.jpg,GW/jukebox.jpg,,,,,,,,,,,,
null,,black_cross(without_color),724620,green,,,,null,GW/barrel.jpg,GW/jukebox.jpg,,,,,,,,,,,,
null,,rt_plussign_withcolor,725123,green,,,,null,GW/barrel.jpg,GW/jukebox.jpg,,,,,,,,,,,,
1432.3999999761581,,rt_thecrossant_black,726277,black_plus_sign,,,,50,,,1,0.9906542056074766,,,,,,,,,,
null,,color_black,726379,black_plus_sign,,,,null,,,,,,,,,,,,,,
null,,learn_phase(without_color),728382,black_plus_sign,,,,null,GW/teeth.jpg,GW/paint.jpg,,,,,,,,,,,,
null,,black_cross(without_color),729432,blue,,,,null,GW/teeth.jpg,GW/paint.jpg,,,,,,,,,,,,
null,,rt_plussign_withcolor,729934,blue,,,,null,GW/teeth.jpg,GW/paint.jpg,,,,,,,,,,,,
1023.0999999642372,,rt_thecrossant_black,730895,black_plus_sign,,,,49,,,1,0.9907407407407407,,,,,,,,,,
null,,color_black,730998,black_plus_sign,,,,null,,,,,,,,,,,,,,
null,,learn_phase(without_color),733001,black_plus_sign,,,,null,GW/basket.jpg,GW/dustpan.jpg,,,,,,,,,,,,
null,,black_cross(without_color),733425,blue,,,,null,GW/basket.jpg,GW/dustpan.jpg,,,,,,,,,,,,
null,,rt_plussign_withcolor,733927,blue,,,,null,GW/basket.jpg,GW/dustpan.jpg,,,,,,,,,,,,
1470.300000011921,,rt_thecrossant_black,735516,black_plus_sign,,,,49,,,1,0.9908256880733946,,,,,,,,,,
null,,color_black,735618,black_plus_sign,,,,null,,,,,,,,,,,,,,
null,,learn_phase(without_color),737620,black_plus_sign,,,,null,GW/snail.jpg,GW/camera.jpg,,,,,,,,,,,,
null,,black_cross(without_color),738660,blue,,,,null,GW/snail.jpg,GW/camera.jpg,,,,,,,,,,,,
null,,rt_plussign_withcolor,739163,blue,,,,null,GW/snail.jpg,GW/camera.jpg,,,,,,,,,,,,
858.9000000357628,,rt_thecrossant_black,740142,black_plus_sign,,,,49,,,1,0.990909090909091,,,,,,,,,,
null,,color_black,740244,black_plus_sign,,,,null,,,,,,,,,,,,,,
null,,learn_phase(without_color),742262,black_plus_sign,,,,null,GW/barrel.jpg,GW/jukebox.jpg,,,,,,,,,,,,
null,,black_cross(without_color),743073,green,,,,null,GW/barrel.jpg,GW/jukebox.jpg,,,,,,,,,,,,
null,,rt_plussign_withcolor,743588,green,,,,null,GW/barrel.jpg,GW/jukebox.jpg,,,,,,,,,,,,
1514.5,,rt_thecrossant_black,744783,black_plus_sign,,,,50,,,1,0.990990990990991,,,,,,,,,,
null,,color_black,744885,black_plus_sign,,,,null,,,,,,,,,,,,,,
null,,learn_phase(without_color),746888,black_plus_sign,,,,null,GW/jukebox.jpg,GW/dustpan.jpg,,,,,,,,,,,,
null,,black_cross(without_color),747492,green,,,,null,GW/jukebox.jpg,GW/dustpan.jpg,,,,,,,,,,,,
null,,rt_plussign_withcolor,747995,green,,,,null,GW/jukebox.jpg,GW/dustpan.jpg,,,,,,,,,,,,
1272.300000011921,,rt_thecrossant_black,749400,black_plus_sign,,,,50,,,1,0.9910714285714286,,,,,,,,,,
null,,color_black,749502,black_plus_sign,,,,null,,,,,,,,,,,,,,
null,,learn_phase(without_color),751506,black_plus_sign,,,,null,GW/snail.jpg,GW/camera.jpg,,,,,,,,,,,,
null,,black_cross(without_color),751922,blue,,,,null,GW/snail.jpg,GW/camera.jpg,,,,,,,,,,,,
null,,rt_plussign_withcolor,752424,blue,,,,null,GW/snail.jpg,GW/camera.jpg,,,,,,,,,,,,
967.6000000238419,,rt_thecrossant_black,754030,black_plus_sign,,,,49,,,1,0.9911504424778761,,,,,,,,,,
null,,color_black,754133,black_plus_sign,,,,null,,,,,,,,,,,,,,
null,,learn_phase(without_color),756136,black_plus_sign,,,,null,GW/barrel.jpg,GW/jukebox.jpg,,,,,,,,,,,,
null,,black_cross(without_color),757014,green,,,,null,GW/barrel.jpg,GW/jukebox.jpg,,,,,,,,,,,,
null,,rt_plussign_withcolor,757516,green,,,,null,GW/barrel.jpg,GW/jukebox.jpg,,,,,,,,,,,,
749,,rt_thecrossant_black,758643,black_plus_sign,,,,49,,,0,0.9824561403508771,,,,,,,,,,
null,,color_black,758745,black_plus_sign,,,,null,,,,,,,,,,,,,,
null,,learn_phase(without_color),760760,black_plus_sign,,,,null,GW/teeth.jpg,GW/paint.jpg,,,,,,,,,,,,
null,,black_cross(without_color),761197,green,,,,null,GW/teeth.jpg,GW/paint.jpg,,,,,,,,,,,,
null,,rt_plussign_withcolor,761700,green,,,,null,GW/teeth.jpg,GW/paint.jpg,,,,,,,,,,,,
1246.699999988079,,rt_thecrossant_black,763268,black_plus_sign,,,,50,,,1,0.9826086956521739,,,,,,,,,,
null,,color_black,763377,black_plus_sign,,,,null,,,,,,,,,,,,,,
null,,learn_phase(without_color),765382,black_plus_sign,,,,null,GW/wheelchair.jpg,GW/snail.jpg,,,,,,,,,,,,
null,,black_cross(without_color),766257,green,,,,null,GW/wheelchair.jpg,GW/snail.jpg,,,,,,,,,,,,
null,,rt_plussign_withcolor,766759,green,,,,null,GW/wheelchair.jpg,GW/snail.jpg,,,,,,,,,,,,
832.6999999880791,,rt_thecrossant_black,767888,black_plus_sign,,,,50,,,1,0.9827586206896551,,,,,,,,,,
null,,color_black,767990,black_plus_sign,,,,null,,,,,,,,,,,,,,
null,,learn_phase(without_color),769993,black_plus_sign,,,,null,GW/camera.jpg,GW/jukebox.jpg,,,,,,,,,,,,
null,,black_cross(without_color),770411,green,,,,null,GW/camera.jpg,GW/jukebox.jpg,,,,,,,,,,,,
null,,rt_plussign_withcolor,770914,green,,,,null,GW/camera.jpg,GW/jukebox.jpg,,,,,,,,,,,,
1396.8999999761581,,rt_thecrossant_black,772502,black_plus_sign,,,,50,,,1,0.9829059829059829,,,,,,,,,,
null,,color_black,772604,black_plus_sign,,,,null,,,,,,,,,,,,,,
null,,learn_phase(without_color),774608,black_plus_sign,,,,null,GW/barrel.jpg,GW/jukebox.jpg,,,,,,,,,,,,
null,,black_cross(without_color),775264,green,,,,null,GW/barrel.jpg,GW/jukebox.jpg,,,,,,,,,,,,
null,,rt_plussign_withcolor,775765,green,,,,null,GW/barrel.jpg,GW/jukebox.jpg,,,,,,,,,,,,
646.9000000357628,,rt_thecrossant_black,777119,black_plus_sign,,,,50,,,1,0.9830508474576272,,,,,,,,,,
null,,color_black,777226,black_plus_sign,,,,null,,,,,,,,,,,,,,
null,,learn_phase(without_color),779228,black_plus_sign,,,,null,GW/camera.jpg,GW/jukebox.jpg,,,,,,,,,,,,
null,,black_cross(without_color),780151,green,,,,null,GW/camera.jpg,GW/jukebox.jpg,,,,,,,,,,,,
null,,rt_plussign_withcolor,780653,green,,,,null,GW/camera.jpg,GW/jukebox.jpg,,,,,,,,,,,,
1075.699999988079,,rt_thecrossant_black,781736,black_plus_sign,,,,50,,,1,0.9831932773109243,,,,,,,,,,
null,,color_black,781838,black_plus_sign,,,,null,,,,,,,,,,,,,,
null,,learn_phase(without_color),783851,black_plus_sign,,,,null,GW/globe.jpg,GW/barrel.jpg,,,,,,,,,,,,
null,,black_cross(without_color),784673,green,,,,null,GW/globe.jpg,GW/barrel.jpg,,,,,,,,,,,,
null,,rt_plussign_withcolor,785176,green,,,,null,GW/globe.jpg,GW/barrel.jpg,,,,,,,,,,,,
1440.800000011921,,rt_thecrossant_black,786358,black_plus_sign,,,,50,,,1,0.9833333333333333,,,,,,,,,,
null,,color_black,786461,black_plus_sign,,,,null,,,,,,,,,,,,,,
null,,learn_phase(without_color),788463,black_plus_sign,,,,null,GW/barrel.jpg,GW/jukebox.jpg,,,,,,,,,,,,
null,,black_cross(without_color),789530,green,,,,null,GW/barrel.jpg,GW/jukebox.jpg,,,,,,,,,,,,
null,,rt_plussign_withcolor,790032,green,,,,null,GW/barrel.jpg,GW/jukebox.jpg,,,,,,,,,,,,
1021.1999999880791,,rt_thecrossant_black,790970,black_plus_sign,,,,50,,,1,0.9834710743801653,,,,,,,,,,
null,,color_black,791073,black_plus_sign,,,,null,,,,,,,,,,,,,,
null,,learn_phase(without_color),793077,black_plus_sign,,,,null,GW/camera.jpg,GW/jukebox.jpg,,,,,,,,,,,,
null,,black_cross(without_color),793720,blue,,,,null,GW/camera.jpg,GW/jukebox.jpg,,,,,,,,,,,,
null,,rt_plussign_withcolor,794223,blue,,,,null,GW/camera.jpg,GW/jukebox.jpg,,,,,,,,,,,,
1517,,rt_thecrossant_black,795597,black_plus_sign,,,,49,,,1,0.9836065573770492,,,,,,,,,,
null,,color_black,795700,black_plus_sign,,,,null,,,,,,,,,,,,,,
null,,learn_phase(without_color),797705,black_plus_sign,,,,null,GW/hat.jpg,GW/soldier.jpg,,,,,,,,,,,,
null,,black_cross(without_color),798711,blue,,,,null,GW/hat.jpg,GW/soldier.jpg,,,,,,,,,,,,
null,,rt_plussign_withcolor,799214,blue,,,,null,GW/hat.jpg,GW/soldier.jpg,,,,,,,,,,,,
1209.800000011921,,rt_thecrossant_black,800213,black_plus_sign,,,,49,,,1,0.983739837398374,,,,,,,,,,
null,,color_black,800316,black_plus_sign,,,,null,,,,,,,,,,,,,,
null,,learn_phase(without_color),802331,black_plus_sign,,,,null,GW/basket.jpg,GW/gong.jpg,,,,,,,,,,,,
null,,black_cross(without_color),802807,blue,,,,null,GW/basket.jpg,GW/gong.jpg,,,,,,,,,,,,
null,,rt_plussign_withcolor,803310,blue,,,,null,GW/basket.jpg,GW/gong.jpg,,,,,,,,,,,,
1416,,rt_thecrossant_black,804840,black_plus_sign,,,,49,,,1,0.9838709677419355,,,,,,,,,,
null,,color_black,804944,black_plus_sign,,,,null,,,,,,,,,,,,,,
null,,learn_phase(without_color),806946,black_plus_sign,,,,null,GW/wheelchair.jpg,GW/snail.jpg,,,,,,,,,,,,
null,,black_cross(without_color),807372,green,,,,null,GW/wheelchair.jpg,GW/snail.jpg,,,,,,,,,,,,
null,,rt_plussign_withcolor,807874,green,,,,null,GW/wheelchair.jpg,GW/snail.jpg,,,,,,,,,,,,
999,,rt_thecrossant_black,809453,black_plus_sign,,,,50,,,1,0.984,,,,,,,,,,
null,,color_black,809556,black_plus_sign,,,,null,,,,,,,,,,,,,,
null,,learn_phase(without_color),811573,black_plus_sign,,,,null,GW/jukebox.jpg,GW/dustpan.jpg,,,,,,,,,,,,
null,,black_cross(without_color),812254,green,,,,null,GW/jukebox.jpg,GW/dustpan.jpg,,,,,,,,,,,,
null,,rt_plussign_withcolor,812757,green,,,,null,GW/jukebox.jpg,GW/dustpan.jpg,,,,,,,,,,,,
846.1999999880791,,rt_thecrossant_black,814080,black_plus_sign,,,,50,,,1,0.9841269841269841,,,,,,,,,,
null,,color_black,814182,black_plus_sign,,,,null,,,,,,,,,,,,,,
null,,learn_phase(without_color),816200,black_plus_sign,,,,null,GW/jukebox.jpg,GW/dustpan.jpg,,,,,,,,,,,,
null,,black_cross(without_color),816826,blue,,,,null,GW/jukebox.jpg,GW/dustpan.jpg,,,,,,,,,,,,
null,,rt_plussign_withcolor,817328,blue,,,,null,GW/jukebox.jpg,GW/dustpan.jpg,,,,,,,,,,,,
803.7000000476837,,rt_thecrossant_black,818715,black_plus_sign,,,,49,,,1,0.984251968503937,,,,,,,,,,
null,,color_black,818818,black_plus_sign,,,,null,,,,,,,,,,,,,,
null,,learn_phase(without_color),820820,black_plus_sign,,,,null,GW/camera.jpg,GW/globe.jpg,,,,,,,,,,,,
null,,black_cross(without_color),821838,green,,,,null,GW/camera.jpg,GW/globe.jpg,,,,,,,,,,,,
null,,rt_plussign_withcolor,822340,green,,,,null,GW/camera.jpg,GW/globe.jpg,,,,,,,,,,,,
892.1999999880791,,rt_thecrossant_black,823328,black_plus_sign,,,,50,,,1,0.984375,,,,,,,,,,
null,,color_black,823429,black_plus_sign,,,,null,,,,,,,,,,,,,,
18532,,intro_1,841964,instruct,,0,Start,,,,,,,,,,,,,,,
2279,,directmemory_phase,844245,GW/camera.jpg,,,,51,,,1,1,GW/soldier.jpg,GW/dustpan.jpg,GW/globe.jpg,GW/globe.jpg,GW/dustpan.jpg,GW/soldier.jpg,1,,,
null,,html-keyboard-response,845248,<p></p>,,,,null,,,,,,,,,,,,,,
1594.199999988079,,directmemory_phase,846844,GW/teeth.jpg,,,,51,,,1,1,GW/camera.jpg,GW/jukebox.jpg,GW/hat.jpg,GW/hat.jpg,GW/jukebox.jpg,GW/camera.jpg,1,,,
null,,html-keyboard-response,847846,<p></p>,,,,null,,,,,,,,,,,,,,
2074.5,,directmemory_phase,849922,GW/barrel.jpg,,,,50,,,1,1,GW/camera.jpg,GW/globe.jpg,GW/wheelchair.jpg,GW/globe.jpg,GW/camera.jpg,GW/wheelchair.jpg,1,,,
null,,html-keyboard-response,850924,<p></p>,,,,null,,,,,,,,,,,,,,
1088,,directmemory_phase,852014,GW/soldier.jpg,,,,51,,,1,1,GW/camera.jpg,GW/barrel.jpg,GW/hat.jpg,GW/hat.jpg,GW/barrel.jpg,GW/camera.jpg,1,,,
null,,html-keyboard-response,853022,<p></p>,,,,null,,,,,,,,,,,,,,
2446.400000035763,,directmemory_phase,855470,GW/globe.jpg,,,,50,,,1,1,GW/jukebox.jpg,GW/barrel.jpg,GW/paint.jpg,GW/barrel.jpg,GW/jukebox.jpg,GW/paint.jpg,1,,,
null,,html-keyboard-response,856472,<p></p>,,,,null,,,,,,,,,,,,,,
1411.1000000238419,,directmemory_phase,857884,GW/basket.jpg,,,,50,,,1,1,GW/camera.jpg,GW/dustpan.jpg,GW/teeth.jpg,GW/dustpan.jpg,GW/camera.jpg,GW/teeth.jpg,1,,,
null,,html-keyboard-response,858888,<p></p>,,,,null,,,,,,,,,,,,,,
2113.199999988079,,directmemory_phase,861002,GW/camera.jpg,,,,51,,,0,0.8571428571428571,GW/jukebox.jpg,GW/teeth.jpg,GW/hat.jpg,GW/jukebox.jpg,GW/hat.jpg,GW/teeth.jpg,0.5,closer,,
null,,html-keyboard-response,862017,<p></p>,,,,null,,,,,,,,,,,,,,
1062.1000000238419,,directmemory_phase,863080,GW/dustpan.jpg,,,,51,,,1,0.875,GW/wheelchair.jpg,GW/camera.jpg,GW/basket.jpg,GW/basket.jpg,GW/camera.jpg,GW/wheelchair.jpg,1,,,
null,,html-keyboard-response,864083,<p></p>,,,,null,,,,,,,,,,,,,,
2147.399999976158,,directmemory_phase,866231,GW/teeth.jpg,,,,51,,,1,0.8888888888888888,GW/dustpan.jpg,GW/jukebox.jpg,GW/barrel.jpg,GW/barrel.jpg,GW/jukebox.jpg,GW/dustpan.jpg,1,,,
null,,html-keyboard-response,867233,<p></p>,,,,null,,,,,,,,,,,,,,
1772.199999988079,,directmemory_phase,869007,GW/basket.jpg,,,,51,,,1,0.9,GW/barrel.jpg,GW/camera.jpg,GW/snail.jpg,GW/snail.jpg,GW/camera.jpg,GW/barrel.jpg,1,,,
null,,html-keyboard-response,870009,<p></p>,,,,null,,,,,,,,,,,,,,
2140.699999988079,,directmemory_phase,872151,GW/jukebox.jpg,,,,51,,,0,0.8181818181818182,GW/dustpan.jpg,GW/gong.jpg,GW/teeth.jpg,GW/dustpan.jpg,GW/teeth.jpg,GW/gong.jpg,0.5,closer,,
null,,html-keyboard-response,873153,<p></p>,,,,null,,,,,,,,,,,,,,
1094.5,,directmemory_phase,874249,GW/snail.jpg,,,,51,,,1,0.8333333333333334,GW/teeth.jpg,GW/globe.jpg,GW/basket.jpg,GW/basket.jpg,GW/globe.jpg,GW/teeth.jpg,1,,,
null,,html-keyboard-response,875251,<p></p>,,,,null,,,,,,,,,,,,,,
1810.3999999761581,,directmemory_phase,877063,GW/globe.jpg,,,,51,,,1,0.8461538461538461,GW/basket.jpg,GW/snail.jpg,GW/hat.jpg,GW/hat.jpg,GW/snail.jpg,GW/basket.jpg,1,,,
null,,html-keyboard-response,878079,<p></p>,,,,null,,,,,,,,,,,,,,
1230.8999999761581,,directmemory_phase,879311,GW/snail.jpg,,,,49,,,1,0.8571428571428571,GW/wheelchair.jpg,GW/soldier.jpg,GW/gong.jpg,GW/wheelchair.jpg,GW/gong.jpg,GW/soldier.jpg,1,,,
null,,html-keyboard-response,880313,<p></p>,,,,null,,,,,,,,,,,,,,
2430.399999976158,,directmemory_phase,882745,GW/globe.jpg,,,,49,,,0,0.8,GW/soldier.jpg,GW/camera.jpg,GW/dustpan.jpg,GW/camera.jpg,GW/soldier.jpg,GW/dustpan.jpg,0.5,closer,,
null,,html-keyboard-response,883747,<p></p>,,,,null,,,,,,,,,,,,,,
1831.199999988079,,directmemory_phase,885580,GW/hat.jpg,,,,50,,,1,0.8125,GW/jukebox.jpg,GW/soldier.jpg,GW/wheelchair.jpg,GW/soldier.jpg,GW/jukebox.jpg,GW/wheelchair.jpg,1,,,
null,,html-keyboard-response,886583,<p></p>,,,,null,,,,,,,,,,,,,,
1352.8999999761581,,directmemory_phase,887937,GW/barrel.jpg,,,,50,,,1,0.8235294117647058,GW/dustpan.jpg,GW/jukebox.jpg,GW/wheelchair.jpg,GW/jukebox.jpg,GW/dustpan.jpg,GW/wheelchair.jpg,1,,,
null,,html-keyboard-response,888939,<p></p>,,,,null,,,,,,,,,,,,,,
1220,,directmemory_phase,890161,GW/teeth.jpg,,,,51,,,1,0.8333333333333334,GW/dustpan.jpg,GW/soldier.jpg,GW/paint.jpg,GW/paint.jpg,GW/soldier.jpg,GW/dustpan.jpg,1,,,
null,,html-keyboard-response,891162,<p></p>,,,,null,,,,,,,,,,,,,,
1180.8999999761581,,directmemory_phase,892344,GW/wheelchair.jpg,,,,50,,,1,0.8421052631578947,GW/camera.jpg,GW/snail.jpg,GW/gong.jpg,GW/snail.jpg,GW/camera.jpg,GW/gong.jpg,1,,,
null,,html-keyboard-response,893347,<p></p>,,,,null,,,,,,,,,,,,,,
937.2000000476837,,directmemory_phase,894285,GW/paint.jpg,,,,51,,,1,0.85,GW/dustpan.jpg,GW/barrel.jpg,GW/teeth.jpg,GW/teeth.jpg,GW/barrel.jpg,GW/dustpan.jpg,1,,,
null,,html-keyboard-response,895295,<p></p>,,,,null,,,,,,,,,,,,,,
2261.400000035763,,directmemory_phase,897558,GW/camera.jpg,,,,51,,,1,0.8571428571428571,GW/gong.jpg,GW/wheelchair.jpg,GW/snail.jpg,GW/snail.jpg,GW/wheelchair.jpg,GW/gong.jpg,1,,,
null,,html-keyboard-response,898561,<p></p>,,,,null,,,,,,,,,,,,,,
2274.899999976158,,directmemory_phase,900837,GW/hat.jpg,,,,50,,,1,0.8636363636363636,GW/jukebox.jpg,GW/teeth.jpg,GW/snail.jpg,GW/teeth.jpg,GW/jukebox.jpg,GW/snail.jpg,1,,,
null,,html-keyboard-response,901840,<p></p>,,,,null,,,,,,,,,,,,,,
1131.3999999761581,,directmemory_phase,902973,GW/snail.jpg,,,,51,,,1,0.8695652173913043,GW/barrel.jpg,GW/gong.jpg,GW/camera.jpg,GW/camera.jpg,GW/gong.jpg,GW/barrel.jpg,1,,,
null,,html-keyboard-response,903976,<p></p>,,,,null,,,,,,,,,,,,,,
1022.6999999880791,,directmemory_phase,904999,GW/jukebox.jpg,,,,49,,,1,0.875,GW/barrel.jpg,GW/soldier.jpg,GW/basket.jpg,GW/barrel.jpg,GW/basket.jpg,GW/soldier.jpg,1,,,
null,,html-keyboard-response,906002,<p></p>,,,,null,,,,,,,,,,,,,,
1806,,directmemory_phase,907809,GW/basket.jpg,,,,51,,,1,0.88,GW/globe.jpg,GW/wheelchair.jpg,GW/gong.jpg,GW/gong.jpg,GW/wheelchair.jpg,GW/globe.jpg,1,,,
null,,html-keyboard-response,908814,<p></p>,,,,null,,,,,,,,,,,,,,
3302.599999964237,,directmemory_phase,912118,GW/barrel.jpg,,,,49,,,0,0.8461538461538461,GW/snail.jpg,GW/camera.jpg,GW/teeth.jpg,GW/teeth.jpg,GW/camera.jpg,GW/snail.jpg,0.5,closer,,
null,,html-keyboard-response,913122,<p></p>,,,,null,,,,,,,,,,,,,,
1091.9000000357628,,directmemory_phase,914215,GW/gong.jpg,,,,51,,,1,0.8518518518518519,GW/jukebox.jpg,GW/dustpan.jpg,GW/basket.jpg,GW/basket.jpg,GW/dustpan.jpg,GW/jukebox.jpg,1,,,
null,,html-keyboard-response,915217,<p></p>,,,,null,,,,,,,,,,,,,,
1959.300000011921,,directmemory_phase,917177,GW/hat.jpg,,,,49,,,1,0.8571428571428571,GW/globe.jpg,GW/wheelchair.jpg,GW/paint.jpg,GW/globe.jpg,GW/paint.jpg,GW/wheelchair.jpg,1,,,
null,,html-keyboard-response,918180,<p></p>,,,,null,,,,,,,,,,,,,,
2830.800000011921,,directmemory_phase,921012,GW/jukebox.jpg,,,,51,,,1,0.8620689655172413,GW/soldier.jpg,GW/globe.jpg,GW/camera.jpg,GW/camera.jpg,GW/globe.jpg,GW/soldier.jpg,1,,,
null,,html-keyboard-response,922025,<p></p>,,,,null,,,,,,,,,,,,,,
3770.100000023842,,directmemory_phase,925797,GW/hat.jpg,,,,51,,,1,0.8666666666666667,GW/dustpan.jpg,GW/paint.jpg,GW/barrel.jpg,GW/barrel.jpg,GW/paint.jpg,GW/dustpan.jpg,1,,,
null,,html-keyboard-response,926800,<p></p>,,,,null,,,,,,,,,,,,,,
2197,,directmemory_phase,928998,GW/dustpan.jpg,,,,50,,,1,0.8709677419354839,GW/snail.jpg,GW/jukebox.jpg,GW/paint.jpg,GW/jukebox.jpg,GW/snail.jpg,GW/paint.jpg,1,,,
null,,html-keyboard-response,930001,<p></p>,,,,null,,,,,,,,,,,,,,
2681.899999976158,,directmemory_phase,932685,GW/barrel.jpg,,,,50,,,0,0.84375,GW/basket.jpg,GW/dustpan.jpg,GW/hat.jpg,GW/hat.jpg,GW/dustpan.jpg,GW/basket.jpg,0.5,closer,,
null,,html-keyboard-response,933688,<p></p>,,,,null,,,,,,,,,,,,,,
41364.39999997616,,intro_1,975053,instruct,,0,,,,,,,,,,,,,,,,
13893.199999988079,,intro_2,988948,instruct,,1,Next,,,,,,,,,,,,,,,
13401.800000011921,,intro_3,1002352,instruct,,1,Next,,,,,,,,,,,,,,,
8696.300000011921,,intro_4,1011049,instruct,,1,Next,,,,,,,,,,,,,,,
15251.899999976158,,intro_5,1026303,instruct,,0,Previous,,,,,,,,,,,,,,,
791,,intro_4,1027096,instruct,,0,Previous,,,,,,,,,,,,,,,
1018.1999999880791,,intro_3,1028116,instruct,,0,Previous,,,,,,,,,,,,,,,
1745.5,,intro_2,1029864,instruct,,0,Previous,,,,,,,,,,,,,,,
11906.899999976158,,intro_1,1041773,instruct,,0,,,,,,,,,,,,,,,,
14444.299999952316,,intro_2,1056219,instruct,,1,Next,,,,,,,,,,,,,,,
9247.900000035763,,intro_3,1065469,instruct,,1,Next,,,,,,,,,,,,,,,
9529.300000011921,,intro_4,1075001,instruct,,1,Next,,,,,,,,,,,,,,,
34059.59999996424,,intro_5,1109062,instruct,,1,Next,,,,,,,,,,,,,,,
62516.799999952316,,intro_6,1171581,instruct,,1,Next,,,,,,,,,,,,,,,
36919.90000003576,,intro_7,1208503,instruct,,1,Next,,,,,,,,,,,,,,,
10950.199999988079,,intro_8,1219456,instruct,,1,Next,,,,,,,,,,,,,,,
1723.300000011921,,shortestpath_phase,1221181,GW/basket.jpg,,,,49,GW/soldier.jpg,GW/camera.jpg,0,0,,,,GW/camera.jpg,,,,,Three Edge Diff,Three Edge Six Edge
null,,html-keyboard-response,1222183,<p></p>,,,,null,,,,,,,,,,,,,,
1415,,shortestpath_phase,1223600,GW/paint.jpg,,,,49,GW/hat.jpg,GW/wheelchair.jpg,1,0.5,,,,GW/hat.jpg,,,,,Four Edge Diff,Two Edge Six Edge
null,,html-keyboard-response,1224607,<p></p>,,,,null,,,,,,,,,,,,,,
2335.699999988079,,shortestpath_phase,1226944,GW/soldier.jpg,,,,50,GW/camera.jpg,GW/globe.jpg,1,0.6666666666666666,,,,GW/globe.jpg,,,,,One Edge Diff,Two Edge Three Edge
null,,html-keyboard-response,1227947,<p></p>,,,,null,,,,,,,,,,,,,,
3143.5,,shortestpath_phase,1231092,GW/teeth.jpg,,,,50,GW/wheelchair.jpg,GW/basket.jpg,1,0.75,,,,GW/basket.jpg,,,,,One Edge Diff,Four Edge Five Edge
null,,html-keyboard-response,1232094,<p></p>,,,,null,,,,,,,,,,,,,,
2554.5,,shortestpath_phase,1234649,GW/snail.jpg,,,,49,GW/jukebox.jpg,GW/barrel.jpg,1,0.8,,,,GW/jukebox.jpg,,,,,One Edge Diff,Two Edge Three Edge
null,,html-keyboard-response,1235667,<p></p>,,,,null,,,,,,,,,,,,,,
3119.099999964237,,shortestpath_phase,1238788,GW/basket.jpg,,,,50,GW/paint.jpg,GW/globe.jpg,1,0.8333333333333334,,,,GW/globe.jpg,,,,,Two Edge Diff,Three Edge Five Edge
null,,html-keyboard-response,1239802,<p></p>,,,,null,,,,,,,,,,,,,,
2413.400000035763,,shortestpath_phase,1242217,GW/soldier.jpg,,,,50,GW/wheelchair.jpg,GW/teeth.jpg,1,0.8571428571428571,,,,GW/teeth.jpg,,,,,Three Edge Diff,Two Edge Five Edge
null,,html-keyboard-response,1243219,<p></p>,,,,null,,,,,,,,,,,,,,
3515.5,,shortestpath_phase,1246736,GW/paint.jpg,,,,50,GW/gong.jpg,GW/basket.jpg,1,0.875,,,,GW/basket.jpg,,,,,One Edge Diff,Five Edge Six Edge
null,,html-keyboard-response,1247738,<p></p>,,,,null,,,,,,,,,,,,,,
3220.699999988079,,shortestpath_phase,1250960,GW/soldier.jpg,,,,49,GW/wheelchair.jpg,GW/gong.jpg,1,0.8888888888888888,,,,GW/wheelchair.jpg,,,,,One Edge Diff,Five Edge Six Edge
null,,html-keyboard-response,1251963,<p></p>,,,,null,,,,,,,,,,,,,,
2928.600000023842,,shortestpath_phase,1254893,GW/paint.jpg,,,,50,GW/jukebox.jpg,GW/snail.jpg,0,0.8,,,,GW/jukebox.jpg,,,,,Two Edge Diff,Three Edge Five Edge
null,,html-keyboard-response,1255896,<p></p>,,,,null,,,,,,,,,,,,,,
3193.400000035763,,shortestpath_phase,1259091,GW/wheelchair.jpg,,,,50,GW/paint.jpg,GW/soldier.jpg,1,0.8181818181818182,,,,GW/soldier.jpg,,,,,One Edge Diff,Five Edge Six Edge
null,,html-keyboard-response,1260106,<p></p>,,,,null,,,,,,,,,,,,,,
3223.899999976158,,shortestpath_phase,1263331,GW/paint.jpg,,,,50,GW/camera.jpg,GW/gong.jpg,0,0.75,,,,GW/camera.jpg,,,,,Two Edge Diff,Four Edge Six Edge
null,,html-keyboard-response,1264334,<p></p>,,,,null,,,,,,,,,,,,,,
3526,,shortestpath_phase,1267862,GW/gong.jpg,,,,50,GW/teeth.jpg,GW/snail.jpg,1,0.7692307692307693,,,,GW/snail.jpg,,,,,Three Edge Diff,Two Edge Five Edge
null,,html-keyboard-response,1268865,<p></p>,,,,null,,,,,,,,,,,,,,
2620.899999976158,,shortestpath_phase,1271487,GW/paint.jpg,,,,50,GW/barrel.jpg,GW/gong.jpg,0,0.7142857142857143,,,,GW/barrel.jpg,,,,,Four Edge Diff,Two Edge Six Edge
null,,html-keyboard-response,1272490,<p></p>,,,,null,,,,,,,,,,,,,,
3414.099999964237,,shortestpath_phase,1275905,GW/basket.jpg,,,,49,GW/hat.jpg,GW/soldier.jpg,1,0.7333333333333333,,,,GW/hat.jpg,,,,,One Edge Diff,Four Edge Five Edge
null,,html-keyboard-response,1276910,<p></p>,,,,null,,,,,,,,,,,,,,
3962.900000035763,,shortestpath_phase,1280874,GW/paint.jpg,,,,49,GW/wheelchair.jpg,GW/snail.jpg,0,0.6875,,,,GW/snail.jpg,,,,,One Edge Diff,Five Edge Six Edge
null,,html-keyboard-response,1281890,<p></p>,,,,null,,,,,,,,,,,,,,
4136.399999976158,,shortestpath_phase,1286028,GW/soldier.jpg,,,,50,GW/gong.jpg,GW/basket.jpg,1,0.7058823529411765,,,,GW/basket.jpg,,,,,One Edge Diff,Five Edge Six Edge
null,,html-keyboard-response,1287030,<p></p>,,,,null,,,,,,,,,,,,,,
3930.600000023842,,shortestpath_phase,1290962,GW/paint.jpg,,,,50,GW/basket.jpg,GW/hat.jpg,1,0.7222222222222222,,,,GW/hat.jpg,,,,,Three Edge Diff,Two Edge Five Edge
null,,html-keyboard-response,1291968,<p></p>,,,,null,,,,,,,,,,,,,,
3568.2000000476837,,shortestpath_phase,1295538,GW/teeth.jpg,,,,49,GW/wheelchair.jpg,GW/dustpan.jpg,0,0.6842105263157895,,,,GW/dustpan.jpg,,,,,Two Edge Diff,Three Edge Five Edge
null,,html-keyboard-response,1296546,<p></p>,,,,null,,,,,,,,,,,,,,
3493.699999988079,,shortestpath_phase,1300041,GW/paint.jpg,,,,50,GW/gong.jpg,GW/snail.jpg,1,0.7,,,,GW/snail.jpg,,,,,One Edge Diff,Five Edge Six Edge
null,,html-keyboard-response,1301045,<p></p>,,,,null,,,,,,,,,,,,,,
null,,shortestpath_phase,1308550,GW/camera.jpg,,,,null,GW/teeth.jpg,GW/paint.jpg,0,0.6666666666666666,,,,GW/teeth.jpg,,,,,One Edge Diff,Three Edge Four Edge
null,,html-keyboard-response,1309552,<p></p>,,,,null,,,,,,,,,,,,,,
null,,shortestpath_phase,1317054,GW/paint.jpg,,,,null,GW/snail.jpg,GW/hat.jpg,0,0.6363636363636364,,,,GW/hat.jpg,,,,,Three Edge Diff,Three Edge Six Edge
null,,html-keyboard-response,1318061,<p></p>,,,,null,,,,,,,,,,,,,,
null,,shortestpath_phase,1325568,GW/gong.jpg,,,,null,GW/soldier.jpg,GW/barrel.jpg,0,0.6086956521739131,,,,GW/barrel.jpg,,,,,Two Edge Diff,Four Edge Six Edge
null,,html-keyboard-response,1326569,<p></p>,,,,null,,,,,,,,,,,,,,
null,,shortestpath_phase,1334081,GW/dustpan.jpg,,,,null,GW/hat.jpg,GW/paint.jpg,0,0.5833333333333334,,,,GW/hat.jpg,,,,,One Edge Diff,Three Edge Four Edge
null,,html-keyboard-response,1335082,<p></p>,,,,null,,,,,,,,,,,,,,
3012.900000035763,,shortestpath_phase,1338096,GW/paint.jpg,,,,50,GW/basket.jpg,GW/barrel.jpg,1,0.6,,,,GW/barrel.jpg,,,,,Three Edge Diff,Three Edge Six Edge
null,,html-keyboard-response,1339097,<p></p>,,,,null,,,,,,,,,,,,,,
3798.800000011921,,shortestpath_phase,1342896,GW/gong.jpg,,,,50,GW/dustpan.jpg,GW/jukebox.jpg,0,0.5769230769230769,,,,GW/dustpan.jpg,,,,,One Edge Diff,Two Edge Three Edge
null,,html-keyboard-response,1343904,<p></p>,,,,null,,,,,,,,,,,,,,
1891.5,,shortestpath_phase,1345796,GW/basket.jpg,,,,49,GW/wheelchair.jpg,GW/soldier.jpg,1,0.5925925925925926,,,,GW/wheelchair.jpg,,,,,Three Edge Diff,Two Edge Five Edge
null,,html-keyboard-response,1346798,<p></p>,,,,null,,,,,,,,,,,,,,
2726.100000023842,,shortestpath_phase,1349525,GW/hat.jpg,,,,49,GW/snail.jpg,GW/wheelchair.jpg,1,0.6071428571428571,,,,GW/snail.jpg,,,,,One Edge Diff,Three Edge Four Edge
null,,html-keyboard-response,1350525,<p></p>,,,,null,,,,,,,,,,,,,,
2947.5,,shortestpath_phase,1353474,GW/basket.jpg,,,,49,GW/wheelchair.jpg,GW/hat.jpg,1,0.6206896551724138,,,,GW/wheelchair.jpg,,,,,Two Edge Diff,Two Edge Four Edge
null,,html-keyboard-response,1354475,<p></p>,,,,null,,,,,,,,,,,,,,
2604,,shortestpath_phase,1357080,GW/soldier.jpg,,,,50,GW/gong.jpg,GW/snail.jpg,1,0.6333333333333333,,,,GW/snail.jpg,,,,,Two Edge Diff,Four Edge Six Edge
null,,html-keyboard-response,1358096,<p></p>,,,,null,,,,,,,,,,,,,,
2655.300000011921,,shortestpath_phase,1360753,GW/wheelchair.jpg,,,,49,GW/barrel.jpg,GW/camera.jpg,0,0.6129032258064516,,,,GW/camera.jpg,,,,,Two Edge Diff,Two Edge Four Edge
null,,html-keyboard-response,1361755,<p></p>,,,,null,,,,,,,,,,,,,,
2771.099999964237,,shortestpath_phase,1364527,GW/basket.jpg,,,,50,GW/teeth.jpg,GW/paint.jpg,0,0.59375,,,,GW/teeth.jpg,,,,,One Edge Diff,Four Edge Five Edge
null,,html-keyboard-response,1365530,<p></p>,,,,null,,,,,,,,,,,,,,
2970.699999988079,,shortestpath_phase,1368502,GW/wheelchair.jpg,,,,50,GW/barrel.jpg,GW/teeth.jpg,0,0.5757575757575758,,,,GW/barrel.jpg,,,,,One Edge Diff,Four Edge Five Edge
null,,html-keyboard-response,1369503,<p></p>,,,,null,,,,,,,,,,,,,,
3214.5,,shortestpath_phase,1372718,GW/basket.jpg,,,,50,GW/soldier.jpg,GW/jukebox.jpg,1,0.5882352941176471,,,,GW/jukebox.jpg,,,,,Three Edge Diff,Three Edge Six Edge
null,,html-keyboard-response,1373721,<p></p>,,,,null,,,,,,,,,,,,,,
3779.399999976158,,shortestpath_phase,1377501,GW/wheelchair.jpg,,,,49,GW/gong.jpg,GW/camera.jpg,0,0.5714285714285714,,,,GW/camera.jpg,,,,,One Edge Diff,Two Edge Three Edge
null,,html-keyboard-response,1378503,<p></p>,,,,null,,,,,,,,,,,,,,
4093,,shortestpath_phase,1382597,GW/teeth.jpg,,,,50,GW/snail.jpg,GW/gong.jpg,0,0.5555555555555556,,,,GW/snail.jpg,,,,,One Edge Diff,Four Edge Five Edge
null,,html-keyboard-response,1383598,<p></p>,,,,null,,,,,,,,,,,,,,
3318.5,,shortestpath_phase,1386917,GW/gong.jpg,,,,50,GW/paint.jpg,GW/hat.jpg,1,0.5675675675675675,,,,GW/hat.jpg,,,,,One Edge Diff,Five Edge Six Edge
null,,html-keyboard-response,1387919,<p></p>,,,,null,,,,,,,,,,,,,,
3258.600000023842,,shortestpath_phase,1391178,GW/basket.jpg,,,,49,GW/globe.jpg,GW/hat.jpg,1,0.5789473684210527,,,,GW/globe.jpg,,,,,One Edge Diff,Three Edge Four Edge
null,,html-keyboard-response,1392180,<p></p>,,,,null,,,,,,,,,,,,,,
2940.599999964237,,shortestpath_phase,1395121,GW/gong.jpg,,,,50,GW/paint.jpg,GW/snail.jpg,1,0.5897435897435898,,,,GW/snail.jpg,,,,,Four Edge Diff,Two Edge Six Edge
null,,html-keyboard-response,1396135,<p></p>,,,,null,,,,,,,,,,,,,,
1990.2000000476837,,shortestpath_phase,1398126,GW/camera.jpg,,,,49,GW/soldier.jpg,GW/paint.jpg,1,0.6,,,,GW/soldier.jpg,,,,,One Edge Diff,Three Edge Four Edge
null,,html-keyboard-response,1399127,<p></p>,,,,null,,,,,,,,,,,,,,
2305.699999988079,,shortestpath_phase,1401434,GW/wheelchair.jpg,,,,49,GW/gong.jpg,GW/teeth.jpg,1,0.6097560975609756,,,,GW/gong.jpg,,,,,Two Edge Diff,Three Edge Five Edge
null,,html-keyboard-response,1402436,<p></p>,,,,null,,,,,,,,,,,,,,
1742.1000000238419,,shortestpath_phase,1404179,GW/camera.jpg,,,,50,GW/barrel.jpg,GW/soldier.jpg,0,0.5952380952380952,,,,GW/barrel.jpg,,,,,One Edge Diff,Two Edge Three Edge
null,,html-keyboard-response,1405180,<p></p>,,,,null,,,,,,,,,,,,,,
4773.199999988079,,shortestpath_phase,1409954,GW/gong.jpg,,,,49,GW/globe.jpg,GW/soldier.jpg,1,0.6046511627906976,,,,GW/globe.jpg,,,,,Two Edge Diff,Four Edge Six Edge
null,,html-keyboard-response,1410955,<p></p>,,,,null,,,,,,,,,,,,,,
3205.699999988079,,shortestpath_phase,1414162,GW/soldier.jpg,,,,50,GW/gong.jpg,GW/barrel.jpg,1,0.6136363636363636,,,,GW/barrel.jpg,,,,,Four Edge Diff,Two Edge Six Edge
null,,html-keyboard-response,1415163,<p></p>,,,,null,,,,,,,,,,,,,,
2416.300000011921,,shortestpath_phase,1417580,GW/teeth.jpg,,,,49,GW/camera.jpg,GW/wheelchair.jpg,1,0.6222222222222222,,,,GW/camera.jpg,,,,,Two Edge Diff,Three Edge Five Edge
null,,html-keyboard-response,1418582,<p></p>,,,,null,,,,,,,,,,,,,,
2121.800000011921,,shortestpath_phase,1420704,GW/barrel.jpg,,,,49,GW/paint.jpg,GW/gong.jpg,1,0.6304347826086957,,,,GW/paint.jpg,,,,,Two Edge Diff,Two Edge Four Edge
null,,html-keyboard-response,1421706,<p></p>,,,,null,,,,,,,,,,,,,,
1387.6000000238419,,shortestpath_phase,1423094,GW/wheelchair.jpg,,,,50,GW/paint.jpg,GW/camera.jpg,1,0.6382978723404256,,,,GW/camera.jpg,,,,,Four Edge Diff,Two Edge Six Edge
null,,html-keyboard-response,1424096,<p></p>,,,,null,,,,,,,,,,,,,,
2602.100000023842,,shortestpath_phase,1426699,GW/snail.jpg,,,,49,GW/barrel.jpg,GW/paint.jpg,1,0.6458333333333334,,,,GW/barrel.jpg,,,,,Two Edge Diff,Three Edge Five Edge
null,,html-keyboard-response,1427702,<p></p>,,,,null,,,,,,,,,,,,,,
3707.699999988079,,shortestpath_phase,1431410,GW/paint.jpg,,,,49,GW/wheelchair.jpg,GW/camera.jpg,0,0.6326530612244898,,,,GW/camera.jpg,,,,,Two Edge Diff,Four Edge Six Edge
null,,html-keyboard-response,1432427,<p></p>,,,,null,,,,,,,,,,,,,,
2174.400000035763,,shortestpath_phase,1434602,GW/snail.jpg,,,,49,GW/jukebox.jpg,GW/teeth.jpg,1,0.64,,,,GW/jukebox.jpg,,,,,Two Edge Diff,Two Edge Four Edge
null,,html-keyboard-response,1435608,<p></p>,,,,null,,,,,,,,,,,,,,
3787.5,,shortestpath_phase,1439396,GW/globe.jpg,,,,49,GW/soldier.jpg,GW/gong.jpg,1,0.6470588235294118,,,,GW/soldier.jpg,,,,,Two Edge Diff,Two Edge Four Edge
null,,html-keyboard-response,1440399,<p></p>,,,,null,,,,,,,,,,,,,,
3398.300000011921,,shortestpath_phase,1443798,GW/jukebox.jpg,,,,49,GW/snail.jpg,GW/gong.jpg,1,0.6538461538461539,,,,GW/snail.jpg,,,,,One Edge Diff,Two Edge Three Edge
null,,html-keyboard-response,1444800,<p></p>,,,,null,,,,,,,,,,,,,,
2853.900000035763,,shortestpath_phase,1447655,GW/wheelchair.jpg,,,,49,GW/camera.jpg,GW/soldier.jpg,1,0.660377358490566,,,,GW/camera.jpg,,,,,Three Edge Diff,Three Edge Six Edge
null,,html-keyboard-response,1448664,<p></p>,,,,null,,,,,,,,,,,,,,
2802.7999999523163,,shortestpath_phase,1451467,GW/gong.jpg,,,,50,GW/jukebox.jpg,GW/teeth.jpg,0,0.6481481481481481,,,,GW/jukebox.jpg,,,,,Two Edge Diff,Three Edge Five Edge
null,,html-keyboard-response,1452469,<p></p>,,,,null,,,,,,,,,,,,,,
2214.7999999523163,,shortestpath_phase,1454684,GW/wheelchair.jpg,,,,49,GW/basket.jpg,GW/hat.jpg,1,0.6545454545454545,,,,GW/basket.jpg,,,,,Two Edge Diff,Two Edge Four Edge
null,,html-keyboard-response,1455696,<p></p>,,,,null,,,,,,,,,,,,,,
1540.699999988079,,shortestpath_phase,1457238,GW/snail.jpg,,,,50,GW/paint.jpg,GW/gong.jpg,1,0.6607142857142857,,,,GW/gong.jpg,,,,,Three Edge Diff,Two Edge Five Edge
null,,html-keyboard-response,1458245,<p></p>,,,,null,,,,,,,,,,,,,,
3443.5,,shortestpath_phase,1461689,GW/teeth.jpg,,,,49,GW/globe.jpg,GW/gong.jpg,1,0.6666666666666666,,,,GW/globe.jpg,,,,,Three Edge Diff,Two Edge Five Edge
null,,html-keyboard-response,1462699,<p></p>,,,,null,,,,,,,,,,,,,,
2386.400000035763,,shortestpath_phase,1465086,GW/hat.jpg,,,,50,GW/gong.jpg,GW/paint.jpg,1,0.6724137931034483,,,,GW/paint.jpg,,,,,Three Edge Diff,Two Edge Five Edge
null,,html-keyboard-response,1466088,<p></p>,,,,null,,,,,,,,,,,,,,
2508.100000023842,,shortestpath_phase,1468597,GW/barrel.jpg,,,,49,GW/wheelchair.jpg,GW/camera.jpg,0,0.6610169491525424,,,,GW/camera.jpg,,,,,Two Edge Diff,Two Edge Four Edge
null,,html-keyboard-response,1469599,<p></p>,,,,null,,,,,,,,,,,,,,
4224.200000047684,,shortestpath_phase,1473824,GW/teeth.jpg,,,,49,GW/snail.jpg,GW/wheelchair.jpg,1,0.6666666666666666,,,,GW/snail.jpg,,,,,One Edge Diff,Four Edge Five Edge
null,,html-keyboard-response,1474839,<p></p>,,,,null,,,,,,,,,,,,,,
2429.600000023842,,shortestpath_phase,1477269,GW/gong.jpg,,,,49,GW/wheelchair.jpg,GW/teeth.jpg,1,0.6721311475409836,,,,GW/wheelchair.jpg,,,,,Two Edge Diff,Three Edge Five Edge
null,,html-keyboard-response,1478282,<p></p>,,,,null,,,,,,,,,,,,,,
4361.5,,shortestpath_phase,1482644,GW/teeth.jpg,,,,49,GW/gong.jpg,GW/basket.jpg,0,0.6612903225806451,,,,GW/basket.jpg,,,,,One Edge Diff,Four Edge Five Edge
null,,html-keyboard-response,1483646,<p></p>,,,,null,,,,,,,,,,,,,,
1343.800000011921,,shortestpath_phase,1484991,GW/gong.jpg,,,,50,GW/teeth.jpg,GW/snail.jpg,1,0.6666666666666666,,,,GW/snail.jpg,,,,,Three Edge Diff,Three Edge Six Edge
null,,html-keyboard-response,1485993,<p></p>,,,,null,,,,,,,,,,,,,,
1662.9000000357628,,shortestpath_phase,1487656,GW/soldier.jpg,,,,50,GW/gong.jpg,GW/globe.jpg,1,0.671875,,,,GW/globe.jpg,,,,,Four Edge Diff,Two Edge Six Edge
null,,html-keyboard-response,1488660,<p></p>,,,,null,,,,,,,,,,,,,,
4254,,shortestpath_phase,1492915,GW/wheelchair.jpg,,,,50,GW/basket.jpg,GW/paint.jpg,0,0.6615384615384615,,,,GW/basket.jpg,,,,,Four Edge Diff,Two Edge Six Edge
null,,html-keyboard-response,1493927,<p></p>,,,,null,,,,,,,,,,,,,,
4155.300000011921,,shortestpath_phase,1498083,GW/dustpan.jpg,,,,49,GW/hat.jpg,GW/soldier.jpg,1,0.6666666666666666,,,,GW/hat.jpg,,,,,One Edge Diff,Three Edge Four Edge
null,,html-keyboard-response,1499085,<p></p>,,,,null,,,,,,,,,,,,,,
1072.0999999642372,,shortestpath_phase,1500158,GW/basket.jpg,,,,50,GW/hat.jpg,GW/camera.jpg,1,0.6716417910447762,,,,GW/camera.jpg,,,,,Two Edge Diff,Two Edge Four Edge
null,,html-keyboard-response,1501160,<p></p>,,,,null,,,,,,,,,,,,,,
3111.400000035763,,shortestpath_phase,1504272,GW/gong.jpg,,,,49,GW/globe.jpg,GW/paint.jpg,1,0.6764705882352942,,,,GW/globe.jpg,,,,,Two Edge Diff,Four Edge Six Edge
null,,html-keyboard-response,1505274,<p></p>,,,,null,,,,,,,,,,,,,,
3513,,shortestpath_phase,1508787,GW/hat.jpg,,,,50,GW/gong.jpg,GW/jukebox.jpg,1,0.6811594202898551,,,,GW/jukebox.jpg,,,,,Three Edge Diff,Three Edge Six Edge
null,,html-keyboard-response,1509789,<p></p>,,,,null,,,,,,,,,,,,,,
2106.800000011921,,shortestpath_phase,1511896,GW/gong.jpg,,,,49,GW/snail.jpg,GW/soldier.jpg,1,0.6857142857142857,,,,GW/snail.jpg,,,,,Four Edge Diff,Two Edge Six Edge
null,,html-keyboard-response,1512907,<p></p>,,,,null,,,,,,,,,,,,,,
4380.400000035763,,shortestpath_phase,1517289,GW/soldier.jpg,,,,49,GW/dustpan.jpg,GW/gong.jpg,1,0.6901408450704225,,,,GW/dustpan.jpg,,,,,Two Edge Diff,Four Edge Six Edge
null,,html-keyboard-response,1518290,<p></p>,,,,null,,,,,,,,,,,,,,
3791.100000023842,,shortestpath_phase,1522082,GW/hat.jpg,,,,49,GW/gong.jpg,GW/jukebox.jpg,0,0.6805555555555556,,,,GW/jukebox.jpg,,,,,Three Edge Diff,Two Edge Five Edge
null,,html-keyboard-response,1523095,<p></p>,,,,null,,,,,,,,,,,,,,
3581.7000000476837,,shortestpath_phase,1526678,GW/snail.jpg,,,,50,GW/globe.jpg,GW/hat.jpg,0,0.6712328767123288,,,,GW/globe.jpg,,,,,One Edge Diff,Two Edge Three Edge
null,,html-keyboard-response,1527679,<p></p>,,,,null,,,,,,,,,,,,,,
3590.5,,shortestpath_phase,1531270,GW/soldier.jpg,,,,50,GW/dustpan.jpg,GW/jukebox.jpg,1,0.6756756756756757,,,,GW/jukebox.jpg,,,,,One Edge Diff,Three Edge Four Edge
null,,html-keyboard-response,1532272,<p></p>,,,,null,,,,,,,,,,,,,,
2248.400000035763,,shortestpath_phase,1534521,GW/wheelchair.jpg,,,,50,GW/hat.jpg,GW/paint.jpg,0,0.6666666666666666,,,,GW/hat.jpg,,,,,Two Edge Diff,Four Edge Six Edge
null,,html-keyboard-response,1535522,<p></p>,,,,null,,,,,,,,,,,,,,
4789.300000011921,,shortestpath_phase,1540312,GW/paint.jpg,,,,50,GW/barrel.jpg,GW/wheelchair.jpg,0,0.6578947368421053,,,,GW/barrel.jpg,,,,,Four Edge Diff,Two Edge Six Edge
null,,html-keyboard-response,1541313,<p></p>,,,,null,,,,,,,,,,,,,,
4306.799999952316,,shortestpath_phase,1545621,GW/teeth.jpg,,,,50,GW/wheelchair.jpg,GW/jukebox.jpg,1,0.6623376623376623,,,,GW/jukebox.jpg,,,,,Three Edge Diff,Three Edge Six Edge
null,,html-keyboard-response,1546624,<p></p>,,,,null,,,,,,,,,,,,,,
3768.599999964237,,shortestpath_phase,1550393,GW/hat.jpg,,,,49,GW/basket.jpg,GW/gong.jpg,1,0.6666666666666666,,,,GW/basket.jpg,,,,,One Edge Diff,Four Edge Five Edge
null,,html-keyboard-response,1551395,<p></p>,,,,null,,,,,,,,,,,,,,
2877.7000000476837,,shortestpath_phase,1554274,GW/paint.jpg,,,,49,GW/globe.jpg,GW/dustpan.jpg,1,0.6708860759493671,,,,GW/globe.jpg,,,,,One Edge Diff,Three Edge Four Edge
null,,html-keyboard-response,1555275,<p></p>,,,,null,,,,,,,,,,,,,,
4510.899999976158,,shortestpath_phase,1559786,GW/hat.jpg,,,,50,GW/gong.jpg,GW/camera.jpg,1,0.675,,,,GW/camera.jpg,,,,,Three Edge Diff,Three Edge Six Edge
null,,html-keyboard-response,1560796,<p></p>,,,,null,,,,,,,,,,,,,,
4847.800000011921,,shortestpath_phase,1565644,GW/wheelchair.jpg,,,,49,GW/gong.jpg,GW/barrel.jpg,1,0.6790123456790124,,,,GW/gong.jpg,,,,,One Edge Diff,Three Edge Four Edge
null,,html-keyboard-response,1566649,<p></p>,,,,null,,,,,,,,,,,,,,
4512.099999964237,,shortestpath_phase,1571162,GW/camera.jpg,,,,50,GW/gong.jpg,GW/barrel.jpg,1,0.6829268292682927,,,,GW/barrel.jpg,,,,,One Edge Diff,Two Edge Three Edge
null,,html-keyboard-response,1572176,<p></p>,,,,null,,,,,,,,,,,,,,
2879,,shortestpath_phase,1575056,GW/snail.jpg,,,,49,GW/paint.jpg,GW/jukebox.jpg,0,0.6746987951807228,,,,GW/jukebox.jpg,,,,,Three Edge Diff,Three Edge Six Edge
null,,html-keyboard-response,1576062,<p></p>,,,,null,,,,,,,,,,,,,,
3540.099999964237,,shortestpath_phase,1579603,GW/gong.jpg,,,,49,GW/hat.jpg,GW/camera.jpg,0,0.6666666666666666,,,,GW/camera.jpg,,,,,Two Edge Diff,Three Edge Five Edge
null,,html-keyboard-response,1580605,<p></p>,,,,null,,,,,,,,,,,,,,
5745.5,,shortestpath_phase,1586351,GW/wheelchair.jpg,,,,49,GW/paint.jpg,GW/barrel.jpg,0,0.6588235294117647,,,,GW/barrel.jpg,,,,,Two Edge Diff,Four Edge Six Edge
null,,html-keyboard-response,1587353,<p></p>,,,,null,,,,,,,,,,,,,,
3898,,shortestpath_phase,1591252,GW/dustpan.jpg,,,,50,GW/snail.jpg,GW/soldier.jpg,0,0.6511627906976745,,,,GW/snail.jpg,,,,,Two Edge Diff,Two Edge Four Edge
null,,html-keyboard-response,1592254,<p></p>,,,,null,,,,,,,,,,,,,,
4380.5,,shortestpath_phase,1596636,GW/gong.jpg,,,,50,GW/teeth.jpg,GW/soldier.jpg,0,0.6436781609195402,,,,GW/teeth.jpg,,,,,One Edge Diff,Five Edge Six Edge
null,,html-keyboard-response,1597638,<p></p>,,,,null,,,,,,,,,,,,,,
4086.599999964237,,shortestpath_phase,1601725,GW/soldier.jpg,,,,49,GW/snail.jpg,GW/wheelchair.jpg,1,0.6477272727272727,,,,GW/snail.jpg,,,,,One Edge Diff,Four Edge Five Edge
null,,html-keyboard-response,1602727,<p></p>,,,,null,,,,,,,,,,,,,,
3007.800000011921,,shortestpath_phase,1605736,GW/teeth.jpg,,,,49,GW/gong.jpg,GW/globe.jpg,0,0.6404494382022472,,,,GW/globe.jpg,,,,,Three Edge Diff,Three Edge Six Edge
null,,html-keyboard-response,1606738,<p></p>,,,,null,,,,,,,,,,,,,,
4621.5,,shortestpath_phase,1611360,GW/barrel.jpg,,,,50,GW/snail.jpg,GW/wheelchair.jpg,0,0.6333333333333333,,,,GW/snail.jpg,,,,,One Edge Diff,Three Edge Four Edge
null,,html-keyboard-response,1612362,<p></p>,,,,null,,,,,,,,,,,,,,
3400.600000023842,,shortestpath_phase,1615764,GW/paint.jpg,,,,50,GW/gong.jpg,GW/hat.jpg,1,0.6373626373626373,,,,GW/hat.jpg,,,,,Four Edge Diff,Two Edge Six Edge
null,,html-keyboard-response,1616775,<p></p>,,,,null,,,,,,,,,,,,,,
3348.699999988079,,shortestpath_phase,1620124,GW/soldier.jpg,,,,50,GW/gong.jpg,GW/teeth.jpg,1,0.6413043478260869,,,,GW/teeth.jpg,,,,,Four Edge Diff,Two Edge Six Edge
null,,html-keyboard-response,1621140,<p></p>,,,,null,,,,,,,,,,,,,,
2520.599999964237,,shortestpath_phase,1623661,GW/dustpan.jpg,,,,50,GW/teeth.jpg,GW/barrel.jpg,1,0.6451612903225806,,,,GW/barrel.jpg,,,,,One Edge Diff,Two Edge Three Edge
null,,html-keyboard-response,1624663,<p></p>,,,,null,,,,,,,,,,,,,,
4472.200000047684,,shortestpath_phase,1629136,GW/jukebox.jpg,,,,49,GW/gong.jpg,GW/basket.jpg,0,0.6382978723404256,,,,GW/basket.jpg,,,,,One Edge Diff,Two Edge Three Edge
null,,html-keyboard-response,1630143,<p></p>,,,,null,,,,,,,,,,,,,,
3712.800000011921,,shortestpath_phase,1633856,GW/paint.jpg,,,,49,GW/gong.jpg,GW/dustpan.jpg,0,0.631578947368421,,,,GW/dustpan.jpg,,,,,Two Edge Diff,Four Edge Six Edge
null,,html-keyboard-response,1634859,<p></p>,,,,null,,,,,,,,,,,,,,
2354.400000035763,,shortestpath_phase,1637214,GW/wheelchair.jpg,,,,49,GW/basket.jpg,GW/teeth.jpg,1,0.6354166666666666,,,,GW/basket.jpg,,,,,Three Edge Diff,Two Edge Five Edge
null,,html-keyboard-response,1638215,<p></p>,,,,null,,,,,,,,,,,,,,
4389,,shortestpath_phase,1642605,GW/paint.jpg,,,,50,GW/basket.jpg,GW/globe.jpg,1,0.6391752577319587,,,,GW/globe.jpg,,,,,Two Edge Diff,Three Edge Five Edge
null,,html-keyboard-response,1643607,<p></p>,,,,null,,,,,,,,,,,,,,
4149.899999976158,,shortestpath_phase,1647757,GW/gong.jpg,,,,50,GW/barrel.jpg,GW/paint.jpg,0,0.6326530612244898,,,,GW/barrel.jpg,,,,,Two Edge Diff,Four Edge Six Edge
null,,html-keyboard-response,1648773,<p></p>,,,,null,,,,,,,,,,,,,,
2231.900000035763,,shortestpath_phase,1651006,GW/wheelchair.jpg,,,,49,GW/basket.jpg,GW/barrel.jpg,1,0.6363636363636364,,,,GW/basket.jpg,,,,,Two Edge Diff,Two Edge Four Edge
null,,html-keyboard-response,1652007,<p></p>,,,,null,,,,,,,,,,,,,,
3929.599999964237,,shortestpath_phase,1655938,GW/gong.jpg,,,,50,GW/barrel.jpg,GW/hat.jpg,0,0.63,,,,GW/barrel.jpg,,,,,One Edge Diff,Four Edge Five Edge
null,,html-keyboard-response,1656940,<p></p>,,,,null,,,,,,,,,,,,,,
2332.100000023842,,shortestpath_phase,1659273,GW/wheelchair.jpg,,,,50,GW/teeth.jpg,GW/paint.jpg,0,0.6237623762376238,,,,GW/teeth.jpg,,,,,One Edge Diff,Five Edge Six Edge
null,,html-keyboard-response,1660288,<p></p>,,,,null,,,,,,,,,,,,,,
4589.800000011921,,shortestpath_phase,1664879,GW/soldier.jpg,,,,50,GW/barrel.jpg,GW/basket.jpg,0,0.6176470588235294,,,,GW/barrel.jpg,,,,,Three Edge Diff,Two Edge Five Edge
null,,html-keyboard-response,1665881,<p></p>,,,,null,,,,,,,,,,,,,,
3931.899999976158,,shortestpath_phase,1669813,GW/gong.jpg,,,,50,GW/soldier.jpg,GW/hat.jpg,1,0.6213592233009708,,,,GW/hat.jpg,,,,,One Edge Diff,Five Edge Six Edge
null,,html-keyboard-response,1670815,<p></p>,,,,null,,,,,,,,,,,,,,
4659.699999988079,,shortestpath_phase,1675475,GW/paint.jpg,,,,50,GW/camera.jpg,GW/barrel.jpg,1,0.625,,,,GW/barrel.jpg,,,,,Two Edge Diff,Two Edge Four Edge
null,,html-keyboard-response,1676478,<p></p>,,,,null,,,,,,,,,,,,,,
6352.199999988079,,shortestpath_phase,1682832,GW/wheelchair.jpg,,,,49,GW/globe.jpg,GW/soldier.jpg,1,0.6285714285714286,,,,GW/globe.jpg,,,,,Two Edge Diff,Three Edge Five Edge
null,,html-keyboard-response,1683834,<p></p>,,,,null,,,,,,,,,,,,,,
1704.699999988079,,shortestpath_phase,1685539,GW/dustpan.jpg,,,,49,GW/barrel.jpg,GW/hat.jpg,1,0.6320754716981132,,,,GW/barrel.jpg,,,,,One Edge Diff,Two Edge Three Edge
null,,html-keyboard-response,1686540,<p></p>,,,,null,,,,,,,,,,,,,,
3526.599999964237,,shortestpath_phase,1690068,GW/soldier.jpg,,,,49,GW/globe.jpg,GW/wheelchair.jpg,1,0.6355140186915887,,,,GW/globe.jpg,,,,,Three Edge Diff,Three Edge Six Edge
null,,html-keyboard-response,1691070,<p></p>,,,,null,,,,,,,,,,,,,,
3016.699999988079,,shortestpath_phase,1694088,GW/snail.jpg,,,,49,GW/paint.jpg,GW/hat.jpg,0,0.6296296296296297,,,,GW/hat.jpg,,,,,Two Edge Diff,Three Edge Five Edge
null,,html-keyboard-response,1695090,<p></p>,,,,null,,,,,,,,,,,,,,
3090.300000011921,,shortestpath_phase,1698181,GW/gong.jpg,,,,49,GW/wheelchair.jpg,GW/barrel.jpg,1,0.6330275229357798,,,,GW/wheelchair.jpg,,,,,One Edge Diff,Three Edge Four Edge
null,,html-keyboard-response,1699182,<p></p>,,,,null,,,,,,,,,,,,,,
null,,shortestpath_phase,1706684,GW/soldier.jpg,,,,null,GW/basket.jpg,GW/teeth.jpg,0,0.6272727272727273,,,,GW/teeth.jpg,,,,,Three Edge Diff,Two Edge Five Edge
null,,html-keyboard-response,1707686,<p></p>,,,,null,,,,,,,,,,,,,,
4599.800000011921,,shortestpath_phase,1712286,GW/gong.jpg,,,,49,GW/barrel.jpg,GW/jukebox.jpg,0,0.6216216216216216,,,,GW/jukebox.jpg,,,,,One Edge Diff,Three Edge Four Edge
null,,html-keyboard-response,1713300,<p></p>,,,,null,,,,,,,,,,,,,,
4143.399999976158,,shortestpath_phase,1717444,GW/soldier.jpg,,,,49,GW/dustpan.jpg,GW/wheelchair.jpg,1,0.625,,,,GW/dustpan.jpg,,,,,One Edge Diff,Four Edge Five Edge
null,,html-keyboard-response,1718446,<p></p>,,,,null,,,,,,,,,,,,,,
3630.399999976158,,shortestpath_phase,1722077,GW/paint.jpg,,,,50,GW/hat.jpg,GW/snail.jpg,0,0.6194690265486725,,,,GW/hat.jpg,,,,,Three Edge Diff,Two Edge Five Edge
null,,html-keyboard-response,1723078,<p></p>,,,,null,,,,,,,,,,,,,,
2322.400000035763,,shortestpath_phase,1725402,GW/gong.jpg,,,,50,GW/soldier.jpg,GW/dustpan.jpg,1,0.6228070175438597,,,,GW/dustpan.jpg,,,,,Four Edge Diff,Two Edge Six Edge
null,,html-keyboard-response,1726404,<p></p>,,,,null,,,,,,,,,,,,,,
1871.4000000357628,,shortestpath_phase,1728276,GW/paint.jpg,,,,50,GW/basket.jpg,GW/wheelchair.jpg,0,0.6173913043478261,,,,GW/basket.jpg,,,,,One Edge Diff,Five Edge Six Edge
null,,html-keyboard-response,1729283,<p></p>,,,,null,,,,,,,,,,,,,,
2218.800000011921,,shortestpath_phase,1731503,GW/wheelchair.jpg,,,,50,GW/teeth.jpg,GW/hat.jpg,1,0.6206896551724138,,,,GW/hat.jpg,,,,,One Edge Diff,Four Edge Five Edge
null,,html-keyboard-response,1732505,<p></p>,,,,null,,,,,,,,,,,,,,
2768.899999976158,,shortestpath_phase,1735275,GW/paint.jpg,,,,50,GW/dustpan.jpg,GW/wheelchair.jpg,0,0.6153846153846154,,,,GW/dustpan.jpg,,,,,Two Edge Diff,Four Edge Six Edge
null,,html-keyboard-response,1736276,<p></p>,,,,null,,,,,,,,,,,,,,
2359.199999988079,,shortestpath_phase,1738636,GW/teeth.jpg,,,,49,GW/jukebox.jpg,GW/dustpan.jpg,1,0.6186440677966102,,,,GW/jukebox.jpg,,,,,One Edge Diff,Two Edge Three Edge
null,,html-keyboard-response,1739638,<p></p>,,,,null,,,,,,,,,,,,,,
1314.199999988079,,shortestpath_phase,1740953,GW/gong.jpg,,,,49,GW/dustpan.jpg,GW/paint.jpg,1,0.6218487394957983,,,,GW/dustpan.jpg,,,,,Four Edge Diff,Two Edge Six Edge
null,,html-keyboard-response,1741955,<p></p>,,,,null,,,,,,,,,,,,,,
null,,shortestpath_phase,1749456,,,,,null,,,0,0.6166666666666667,,,,,,,,,Two Edge Diff,Two Edge Four Edge
null,,html-keyboard-response,1750458,<p></p>,,,,null,,,,,,,,,,,,,,
null,,shortestpath_phase,1758241,,,,,null,,,0,0.6115702479338843,,,,,,,,,One Edge Diff,Five Edge Six Edge
null,,html-keyboard-response,1760243,<p></p>,,,,null,,,,,,,,,,,,,,
31172.5,,intro_1,1791417,instruct,,0,,,,,,,,,,,,,,,,
15487.699999988079,,intro_2,1806906,instruct,,1,Next,,,,,,,,,,,,,,,
2383.699999988079,,intro_3,1809290,instruct,,1,Next,,,,,,,,,,,,,,,
