rt,responses,trial_type,time_elapsed,stimulus,graphorder,button_pressed,response,key_press,stimulus_left,stimulus_right,accuracy,cumulative_accuracy,stimulus_down_left,stimulus_down_mid,stimulus_down_right,stimulus_correct,stimulus_short,stimulus_far,weighted_accuracy,missedtrial,condition,specific_pairs
5677.5,{worker_id:654d0bd1f4ba143e0503a02f},id_enter,5682,id_enter,GW/camera.jpg; GW/barrel.jpg; GW/snail.jpg; GW/globe.jpg; GW/basket.jpg; GW/jukebox.jpg; GW/wheelchair.jpg; GW/hat.jpg; GW/gong.jpg; GW/paint.jpg; GW/teeth.jpg; GW/dustpan.jpg; GW/soldier.jpg,,,,,,,,,,,,,,,,,
13014.899999976158,,fullscreen,18706,fullscreen,,0,,,,,,,,,,,,,,,,
19141.600000023842,,intro_1,37856,instruct,,0,,,,,,,,,,,,,,,,
19037.399999976158,,intro_2,56899,instruct,,1,Next,,,,,,,,,,,,,,,
24043.299999952316,,intro_3,80946,instruct,,1,Next,,,,,,,,,,,,,,,
null,,learn_prac_1,82951,lean_prac_1,,,,null,,,,,,,,,,,,,,
null,,html-keyboard-response,83954,<p></p>,,,,null,,,,,,,,,,,,,,
13548.699999988079,,intro_1,97504,instruct,,0,,,,,,,,,,,,,,,,
7234.699999988079,,intro_2,104745,instruct,,1,Next,,,,,,,,,,,,,,,
null,,learn_prac_2,106749,lean_prac_2,,,,null,,,,,,,,,,,,,,
null,,html-keyboard-response,107754,<p></p>,,,,null,,,,,,,,,,,,,,
14043.099999964237,,intro_1,121799,instruct,,0,,,,,,,,,,,,,,,,
5125.100000023842,,intro_2,126926,instruct,,1,Next,,,,,,,,,,,,,,,
33198.60000002384,,intro_3,160128,instruct,,1,Next,,,,,,,,,,,,,,,
null,,prac_atten_color_black,160549,black_plus_sign,,,,null,,,,,,,,,,,,,,
null,,prac_atten_color,161538,prac_stop_color,,,,null,,,,,,,,,,,,,,
null,,prac_atten_color_black,163542,black_plus_sign,,,,null,,,,,,,,,,,,,,
9350.800000011921,,attentioncheck_help,172898,instruct,,,,32,,,,,,,,,,,,,,
null,,prac_atten_color_black,173317,black_plus_sign,,,,null,,,,,,,,,,,,,,
null,,prac_atten_color,173829,prac_stop_color,,,,null,,,,,,,,,,,,,,
null,,prac_atten_color_black,175834,black_plus_sign,,,,null,,,,,,,,,,,,,,
20419.5,,attentioncheck_help,196257,instruct,,,,32,,,,,,,,,,,,,,
null,,prac_atten_color_black,197151,black_plus_sign,,,,null,,,,,,,,,,,,,,
null,,prac_atten_color,197624,prac_stop_color,,,,null,,,,,,,,,,,,,,
null,,prac_atten_color_black,199626,black_plus_sign,,,,null,,,,,,,,,,,,,,
10086,,attentioncheck_help,209717,instruct,,,,32,,,,,,,,,,,,,,
null,,prac_atten_color_black,210650,black_plus_sign,,,,null,,,,,,,,,,,,,,
null,,prac_atten_color,211138,prac_stop_color,,,,null,,,,,,,,,,,,,,
592.1000000238419,,prac_atten_color_black,213149,black_plus_sign,,,,49,,,,,,,,,,,,,,
null,,prac_atten_color_black,214069,black_plus_sign,,,,null,,,,,,,,,,,,,,
null,,prac_atten_color,214747,prac_stop_color,,,,null,,,,,,,,,,,,,,
510.30000001192093,,prac_atten_color_black,216749,black_plus_sign,,,,50,,,,,,,,,,,,,,
null,,prac_atten_color_black,217480,black_plus_sign,,,,null,,,,,,,,,,,,,,
null,,prac_atten_color,218068,prac_stop_color,,,,null,,,,,,,,,,,,,,
61,,prac_atten_color_black,220071,black_plus_sign,,,,50,,,,,,,,,,,,,,
null,,prac_atten_color_black,220901,black_plus_sign,,,,null,,,,,,,,,,,,,,
null,,prac_atten_color,221398,prac_stop_color,,,,null,,,,,,,,,,,,,,
298.0999999642372,,prac_atten_color_black,223401,black_plus_sign,,,,49,,,,,,,,,,,,,,
null,,prac_atten_color_black,224309,black_plus_sign,,,,null,,,,,,,,,,,,,,
null,,prac_atten_color,225133,prac_stop_color,,,,null,,,,,,,,,,,,,,
19.400000035762787,,prac_atten_color_black,227135,black_plus_sign,,,,50,,,,,,,,,,,,,,
null,,prac_atten_color_black,227718,black_plus_sign,,,,null,,,,,,,,,,,,,,
null,,prac_atten_color,228311,prac_stop_color,,,,null,,,,,,,,,,,,,,
51.799999952316284,,prac_atten_color_black,230314,black_plus_sign,,,,49,,,,,,,,,,,,,,
null,,prac_atten_color_black,231128,black_plus_sign,,,,null,,,,,,,,,,,,,,
714.2000000476837,,prac_atten_color,232113,prac_stop_color,,,,49,,,,,,,,,,,,,,
null,,prac_atten_color_black,234117,black_plus_sign,,,,null,,,,,,,,,,,,,,
10849.799999952316,,attentioncheck_feedback,244973,cross_check_feedback,,0,,,,,,,,,,,,,,,,
19741.399999976158,,last_instruct,264716,instruct,,,,32,,,,,,,,,,,,,,
null,,learn_phase(without_color),266721,black_plus_sign,,,,null,GW/snail.jpg,GW/jukebox.jpg,,,,,,,,,,,,
null,,black_cross(without_color),267161,green,,,,null,GW/snail.jpg,GW/jukebox.jpg,,,,,,,,,,,,
null,,rt_plussign_withcolor,267665,green,,,,null,GW/snail.jpg,GW/jukebox.jpg,,,,,,,,,,,,
1353.800000011921,,rt_thecrossant_black,269231,black_plus_sign,,,,50,,,1,1,,,,,,,,,,
null,,color_black,269335,black_plus_sign,,,,null,,,,,,,,,,,,,,
null,,learn_phase(without_color),271343,black_plus_sign,,,,null,GW/wheelchair.jpg,GW/hat.jpg,,,,,,,,,,,,
null,,black_cross(without_color),272369,green,,,,null,GW/wheelchair.jpg,GW/hat.jpg,,,,,,,,,,,,
null,,rt_plussign_withcolor,272871,green,,,,null,GW/wheelchair.jpg,GW/hat.jpg,,,,,,,,,,,,
695,,rt_thecrossant_black,273854,black_plus_sign,,,,50,,,1,1,,,,,,,,,,
null,,color_black,273957,black_plus_sign,,,,null,,,,,,,,,,,,,,
null,,learn_phase(without_color),275963,black_plus_sign,,,,null,GW/wheelchair.jpg,GW/soldier.jpg,,,,,,,,,,,,
null,,black_cross(without_color),276983,green,,,,null,GW/wheelchair.jpg,GW/soldier.jpg,,,,,,,,,,,,
491.80000001192093,,rt_plussign_withcolor,277485,green,,,,50,GW/wheelchair.jpg,GW/soldier.jpg,,,,,,,,,,,,
null,,rt_thecrossant_black,278471,black_plus_sign,,,,null,,,1,1,,,,,,,,,,
null,,color_black,278576,black_plus_sign,,,,null,,,,,,,,,,,,,,
null,,learn_phase(without_color),280582,black_plus_sign,,,,null,GW/barrel.jpg,GW/globe.jpg,,,,,,,,,,,,
null,,black_cross(without_color),281303,blue,,,,null,GW/barrel.jpg,GW/globe.jpg,,,,,,,,,,,,
null,,rt_plussign_withcolor,281807,blue,,,,null,GW/barrel.jpg,GW/globe.jpg,,,,,,,,,,,,
1291.2000000476837,,rt_thecrossant_black,283091,black_plus_sign,,,,49,,,1,1,,,,,,,,,,
null,,color_black,283195,black_plus_sign,,,,null,,,,,,,,,,,,,,
null,,learn_phase(without_color),285201,black_plus_sign,,,,null,GW/gong.jpg,GW/teeth.jpg,,,,,,,,,,,,
null,,black_cross(without_color),286247,green,,,,null,GW/gong.jpg,GW/teeth.jpg,,,,,,,,,,,,
null,,rt_plussign_withcolor,286750,green,,,,null,GW/gong.jpg,GW/teeth.jpg,,,,,,,,,,,,
884.6000000238419,,rt_thecrossant_black,287710,black_plus_sign,,,,50,,,1,1,,,,,,,,,,
null,,color_black,287813,black_plus_sign,,,,null,,,,,,,,,,,,,,
null,,learn_phase(without_color),289818,black_plus_sign,,,,null,GW/jukebox.jpg,GW/wheelchair.jpg,,,,,,,,,,,,
null,,black_cross(without_color),290280,green,,,,null,GW/jukebox.jpg,GW/wheelchair.jpg,,,,,,,,,,,,
null,,rt_plussign_withcolor,290783,green,,,,null,GW/jukebox.jpg,GW/wheelchair.jpg,,,,,,,,,,,,
1231.3999999761581,,rt_thecrossant_black,292329,black_plus_sign,,,,50,,,1,1,,,,,,,,,,
null,,color_black,292433,black_plus_sign,,,,null,,,,,,,,,,,,,,
null,,learn_phase(without_color),294437,black_plus_sign,,,,null,GW/wheelchair.jpg,GW/soldier.jpg,,,,,,,,,,,,
null,,black_cross(without_color),295156,green,,,,null,GW/wheelchair.jpg,GW/soldier.jpg,,,,,,,,,,,,
null,,rt_plussign_withcolor,295659,green,,,,null,GW/wheelchair.jpg,GW/soldier.jpg,,,,,,,,,,,,
900.6999999880791,,rt_thecrossant_black,296947,black_plus_sign,,,,50,,,1,1,,,,,,,,,,
null,,color_black,297052,black_plus_sign,,,,null,,,,,,,,,,,,,,
null,,learn_phase(without_color),299057,black_plus_sign,,,,null,GW/globe.jpg,GW/basket.jpg,,,,,,,,,,,,
null,,black_cross(without_color),299656,green,,,,null,GW/globe.jpg,GW/basket.jpg,,,,,,,,,,,,
null,,rt_plussign_withcolor,300159,green,,,,null,GW/globe.jpg,GW/basket.jpg,,,,,,,,,,,,
936.7999999523163,,rt_thecrossant_black,301567,black_plus_sign,,,,50,,,1,1,,,,,,,,,,
null,,color_black,301669,black_plus_sign,,,,null,,,,,,,,,,,,,,
null,,learn_phase(without_color),303671,black_plus_sign,,,,null,GW/hat.jpg,GW/gong.jpg,,,,,,,,,,,,
null,,black_cross(without_color),304344,blue,,,,null,GW/hat.jpg,GW/gong.jpg,,,,,,,,,,,,
null,,rt_plussign_withcolor,304847,blue,,,,null,GW/hat.jpg,GW/gong.jpg,,,,,,,,,,,,
913.7000000476837,,rt_thecrossant_black,306192,black_plus_sign,,,,49,,,1,1,,,,,,,,,,
null,,color_black,306296,black_plus_sign,,,,null,,,,,,,,,,,,,,
null,,learn_phase(without_color),308302,black_plus_sign,,,,null,GW/wheelchair.jpg,GW/soldier.jpg,,,,,,,,,,,,
null,,black_cross(without_color),308972,blue,,,,null,GW/wheelchair.jpg,GW/soldier.jpg,,,,,,,,,,,,
null,,rt_plussign_withcolor,309475,blue,,,,null,GW/wheelchair.jpg,GW/soldier.jpg,,,,,,,,,,,,
999.4000000357628,,rt_thecrossant_black,310812,black_plus_sign,,,,49,,,1,1,,,,,,,,,,
null,,color_black,310916,black_plus_sign,,,,null,,,,,,,,,,,,,,
null,,learn_phase(without_color),312920,black_plus_sign,,,,null,GW/wheelchair.jpg,GW/gong.jpg,,,,,,,,,,,,
null,,black_cross(without_color),313850,green,,,,null,GW/wheelchair.jpg,GW/gong.jpg,,,,,,,,,,,,
null,,rt_plussign_withcolor,314352,green,,,,null,GW/wheelchair.jpg,GW/gong.jpg,,,,,,,,,,,,
926.8999999761581,,rt_thecrossant_black,315429,black_plus_sign,,,,50,,,1,1,,,,,,,,,,
null,,color_black,315534,black_plus_sign,,,,null,,,,,,,,,,,,,,
null,,learn_phase(without_color),317537,black_plus_sign,,,,null,GW/gong.jpg,GW/teeth.jpg,,,,,,,,,,,,
null,,black_cross(without_color),318448,green,,,,null,GW/gong.jpg,GW/teeth.jpg,,,,,,,,,,,,
null,,rt_plussign_withcolor,318951,green,,,,null,GW/gong.jpg,GW/teeth.jpg,,,,,,,,,,,,
1044.199999988079,,rt_thecrossant_black,320047,black_plus_sign,,,,50,,,1,1,,,,,,,,,,
null,,color_black,320157,black_plus_sign,,,,null,,,,,,,,,,,,,,
null,,learn_phase(without_color),322161,black_plus_sign,,,,null,GW/barrel.jpg,GW/globe.jpg,,,,,,,,,,,,
null,,black_cross(without_color),322741,green,,,,null,GW/barrel.jpg,GW/globe.jpg,,,,,,,,,,,,
null,,rt_plussign_withcolor,323243,green,,,,null,GW/barrel.jpg,GW/globe.jpg,,,,,,,,,,,,
1267.4000000357628,,rt_thecrossant_black,324672,black_plus_sign,,,,50,,,1,1,,,,,,,,,,
null,,color_black,324776,black_plus_sign,,,,null,,,,,,,,,,,,,,
null,,learn_phase(without_color),326783,black_plus_sign,,,,null,GW/camera.jpg,GW/barrel.jpg,,,,,,,,,,,,
null,,black_cross(without_color),327593,blue,,,,null,GW/camera.jpg,GW/barrel.jpg,,,,,,,,,,,,
null,,rt_plussign_withcolor,328095,blue,,,,null,GW/camera.jpg,GW/barrel.jpg,,,,,,,,,,,,
1140.4000000357628,,rt_thecrossant_black,329294,black_plus_sign,,,,49,,,1,1,,,,,,,,,,
null,,color_black,329398,black_plus_sign,,,,null,,,,,,,,,,,,,,
null,,learn_phase(without_color),331403,black_plus_sign,,,,null,GW/gong.jpg,GW/teeth.jpg,,,,,,,,,,,,
null,,black_cross(without_color),332313,green,,,,null,GW/gong.jpg,GW/teeth.jpg,,,,,,,,,,,,
null,,rt_plussign_withcolor,332815,green,,,,null,GW/gong.jpg,GW/teeth.jpg,,,,,,,,,,,,
1061.800000011921,,rt_thecrossant_black,333911,black_plus_sign,,,,50,,,1,1,,,,,,,,,,
null,,color_black,334015,black_plus_sign,,,,null,,,,,,,,,,,,,,
null,,learn_phase(without_color),336020,black_plus_sign,,,,null,GW/hat.jpg,GW/paint.jpg,,,,,,,,,,,,
null,,black_cross(without_color),337118,green,,,,null,GW/hat.jpg,GW/paint.jpg,,,,,,,,,,,,
null,,rt_plussign_withcolor,337621,green,,,,null,GW/hat.jpg,GW/paint.jpg,,,,,,,,,,,,
1372.1000000238419,,rt_thecrossant_black,338529,black_plus_sign,,,,50,,,1,1,,,,,,,,,,
null,,color_black,338632,black_plus_sign,,,,null,,,,,,,,,,,,,,
null,,learn_phase(without_color),340636,black_plus_sign,,,,null,GW/jukebox.jpg,GW/wheelchair.jpg,,,,,,,,,,,,
null,,black_cross(without_color),341595,green,,,,null,GW/jukebox.jpg,GW/wheelchair.jpg,,,,,,,,,,,,
null,,rt_plussign_withcolor,342097,green,,,,null,GW/jukebox.jpg,GW/wheelchair.jpg,,,,,,,,,,,,
1346.3999999761581,,rt_thecrossant_black,343150,black_plus_sign,,,,50,,,1,1,,,,,,,,,,
null,,color_black,343254,black_plus_sign,,,,null,,,,,,,,,,,,,,
null,,learn_phase(without_color),345260,black_plus_sign,,,,null,GW/globe.jpg,GW/dustpan.jpg,,,,,,,,,,,,
null,,black_cross(without_color),346169,green,,,,null,GW/globe.jpg,GW/dustpan.jpg,,,,,,,,,,,,
null,,rt_plussign_withcolor,346671,green,,,,null,GW/globe.jpg,GW/dustpan.jpg,,,,,,,,,,,,
1101.3999999761581,,rt_thecrossant_black,347770,black_plus_sign,,,,50,,,1,1,,,,,,,,,,
null,,color_black,347875,black_plus_sign,,,,null,,,,,,,,,,,,,,
null,,learn_phase(without_color),349880,black_plus_sign,,,,null,GW/barrel.jpg,GW/snail.jpg,,,,,,,,,,,,
null,,black_cross(without_color),350698,blue,,,,null,GW/barrel.jpg,GW/snail.jpg,,,,,,,,,,,,
null,,rt_plussign_withcolor,351200,blue,,,,null,GW/barrel.jpg,GW/snail.jpg,,,,,,,,,,,,
1229.300000011921,,rt_thecrossant_black,352389,black_plus_sign,,,,49,,,1,1,,,,,,,,,,
null,,color_black,352493,black_plus_sign,,,,null,,,,,,,,,,,,,,
null,,learn_phase(without_color),354500,black_plus_sign,,,,null,GW/hat.jpg,GW/gong.jpg,,,,,,,,,,,,
null,,black_cross(without_color),355542,blue,,,,null,GW/hat.jpg,GW/gong.jpg,,,,,,,,,,,,
null,,rt_plussign_withcolor,356059,blue,,,,null,GW/hat.jpg,GW/gong.jpg,,,,,,,,,,,,
977.6999999880791,,rt_thecrossant_black,357023,black_plus_sign,,,,49,,,1,1,,,,,,,,,,
null,,color_black,357128,black_plus_sign,,,,null,,,,,,,,,,,,,,
null,,learn_phase(without_color),359133,black_plus_sign,,,,null,GW/barrel.jpg,GW/globe.jpg,,,,,,,,,,,,
null,,black_cross(without_color),359778,blue,,,,null,GW/barrel.jpg,GW/globe.jpg,,,,,,,,,,,,
496.69999998807907,,rt_plussign_withcolor,360280,blue,,,,49,GW/barrel.jpg,GW/globe.jpg,,,,,,,,,,,,
null,,rt_thecrossant_black,361642,black_plus_sign,,,,null,,,1,1,,,,,,,,,,
null,,color_black,361746,black_plus_sign,,,,null,,,,,,,,,,,,,,
null,,learn_phase(without_color),363751,black_plus_sign,,,,null,GW/jukebox.jpg,GW/gong.jpg,,,,,,,,,,,,
null,,black_cross(without_color),364315,blue,,,,null,GW/jukebox.jpg,GW/gong.jpg,,,,,,,,,,,,
493.9000000357628,,rt_plussign_withcolor,364817,blue,,,,49,GW/jukebox.jpg,GW/gong.jpg,,,,,,,,,,,,
null,,rt_thecrossant_black,366259,black_plus_sign,,,,null,,,1,1,,,,,,,,,,
null,,color_black,366364,black_plus_sign,,,,null,,,,,,,,,,,,,,
null,,learn_phase(without_color),368367,black_plus_sign,,,,null,GW/globe.jpg,GW/dustpan.jpg,,,,,,,,,,,,
null,,black_cross(without_color),369153,green,,,,null,GW/globe.jpg,GW/dustpan.jpg,,,,,,,,,,,,
null,,rt_plussign_withcolor,369655,green,,,,null,GW/globe.jpg,GW/dustpan.jpg,,,,,,,,,,,,
854.2999999523163,,rt_thecrossant_black,370877,black_plus_sign,,,,50,,,1,1,,,,,,,,,,
null,,color_black,370981,black_plus_sign,,,,null,,,,,,,,,,,,,,
null,,learn_phase(without_color),372986,black_plus_sign,,,,null,GW/wheelchair.jpg,GW/gong.jpg,,,,,,,,,,,,
null,,black_cross(without_color),373835,blue,,,,null,GW/wheelchair.jpg,GW/gong.jpg,,,,,,,,,,,,
null,,rt_plussign_withcolor,374338,blue,,,,null,GW/wheelchair.jpg,GW/gong.jpg,,,,,,,,,,,,
1241.300000011921,,rt_thecrossant_black,375495,black_plus_sign,,,,49,,,1,1,,,,,,,,,,
null,,color_black,375611,black_plus_sign,,,,null,,,,,,,,,,,,,,
null,,learn_phase(without_color),377613,black_plus_sign,,,,null,GW/wheelchair.jpg,GW/hat.jpg,,,,,,,,,,,,
null,,black_cross(without_color),378710,green,,,,null,GW/wheelchair.jpg,GW/hat.jpg,,,,,,,,,,,,
null,,rt_plussign_withcolor,379213,green,,,,null,GW/wheelchair.jpg,GW/hat.jpg,,,,,,,,,,,,
1123.300000011921,,rt_thecrossant_black,380123,black_plus_sign,,,,50,,,1,1,,,,,,,,,,
null,,color_black,380228,black_plus_sign,,,,null,,,,,,,,,,,,,,
null,,learn_phase(without_color),382231,black_plus_sign,,,,null,GW/globe.jpg,GW/dustpan.jpg,,,,,,,,,,,,
null,,black_cross(without_color),382951,blue,,,,null,GW/globe.jpg,GW/dustpan.jpg,,,,,,,,,,,,
null,,rt_plussign_withcolor,383454,blue,,,,null,GW/globe.jpg,GW/dustpan.jpg,,,,,,,,,,,,
1751.1000000238419,,rt_thecrossant_black,384740,black_plus_sign,,,,49,,,1,1,,,,,,,,,,
null,,color_black,384843,black_plus_sign,,,,null,,,,,,,,,,,,,,
null,,learn_phase(without_color),386846,black_plus_sign,,,,null,GW/wheelchair.jpg,GW/gong.jpg,,,,,,,,,,,,
null,,black_cross(without_color),387887,green,,,,null,GW/wheelchair.jpg,GW/gong.jpg,,,,,,,,,,,,
484.10000002384186,,rt_plussign_withcolor,388389,green,,,,50,GW/wheelchair.jpg,GW/gong.jpg,,,,,,,,,,,,
null,,rt_thecrossant_black,389357,black_plus_sign,,,,null,,,1,1,,,,,,,,,,
null,,color_black,389461,black_plus_sign,,,,null,,,,,,,,,,,,,,
null,,learn_phase(without_color),391467,black_plus_sign,,,,null,GW/camera.jpg,GW/barrel.jpg,,,,,,,,,,,,
null,,black_cross(without_color),392302,green,,,,null,GW/camera.jpg,GW/barrel.jpg,,,,,,,,,,,,
null,,rt_plussign_withcolor,392805,green,,,,null,GW/camera.jpg,GW/barrel.jpg,,,,,,,,,,,,
1253.800000011921,,rt_thecrossant_black,393973,black_plus_sign,,,,50,,,1,1,,,,,,,,,,
null,,color_black,394075,black_plus_sign,,,,null,,,,,,,,,,,,,,
null,,learn_phase(without_color),396080,black_plus_sign,,,,null,GW/wheelchair.jpg,GW/hat.jpg,,,,,,,,,,,,
null,,black_cross(without_color),396782,blue,,,,null,GW/wheelchair.jpg,GW/hat.jpg,,,,,,,,,,,,
null,,rt_plussign_withcolor,397284,blue,,,,null,GW/wheelchair.jpg,GW/hat.jpg,,,,,,,,,,,,
1042.699999988079,,rt_thecrossant_black,398588,black_plus_sign,,,,49,,,1,1,,,,,,,,,,
null,,color_black,398693,black_plus_sign,,,,null,,,,,,,,,,,,,,
null,,learn_phase(without_color),400698,black_plus_sign,,,,null,GW/gong.jpg,GW/teeth.jpg,,,,,,,,,,,,
null,,black_cross(without_color),401327,green,,,,null,GW/gong.jpg,GW/teeth.jpg,,,,,,,,,,,,
null,,rt_plussign_withcolor,401834,green,,,,null,GW/gong.jpg,GW/teeth.jpg,,,,,,,,,,,,
1062.699999988079,,rt_thecrossant_black,403211,black_plus_sign,,,,50,,,1,1,,,,,,,,,,
null,,color_black,403315,black_plus_sign,,,,null,,,,,,,,,,,,,,
null,,learn_phase(without_color),405320,black_plus_sign,,,,null,GW/wheelchair.jpg,GW/hat.jpg,,,,,,,,,,,,
null,,black_cross(without_color),406225,green,,,,null,GW/wheelchair.jpg,GW/hat.jpg,,,,,,,,,,,,
null,,rt_plussign_withcolor,406728,green,,,,null,GW/wheelchair.jpg,GW/hat.jpg,,,,,,,,,,,,
784.1000000238419,,rt_thecrossant_black,407829,black_plus_sign,,,,50,,,1,1,,,,,,,,,,
null,,color_black,407933,black_plus_sign,,,,null,,,,,,,,,,,,,,
null,,learn_phase(without_color),409935,black_plus_sign,,,,null,GW/jukebox.jpg,GW/wheelchair.jpg,,,,,,,,,,,,
null,,black_cross(without_color),410895,green,,,,null,GW/jukebox.jpg,GW/wheelchair.jpg,,,,,,,,,,,,
null,,rt_plussign_withcolor,411398,green,,,,null,GW/jukebox.jpg,GW/wheelchair.jpg,,,,,,,,,,,,
1170.699999988079,,rt_thecrossant_black,412450,black_plus_sign,,,,50,,,1,1,,,,,,,,,,
null,,color_black,412554,black_plus_sign,,,,null,,,,,,,,,,,,,,
null,,learn_phase(without_color),414561,black_plus_sign,,,,null,GW/snail.jpg,GW/jukebox.jpg,,,,,,,,,,,,
null,,black_cross(without_color),415626,green,,,,null,GW/snail.jpg,GW/jukebox.jpg,,,,,,,,,,,,
null,,rt_plussign_withcolor,416129,green,,,,null,GW/snail.jpg,GW/jukebox.jpg,,,,,,,,,,,,
1448.5999999642372,,rt_thecrossant_black,417071,black_plus_sign,,,,50,,,1,1,,,,,,,,,,
null,,color_black,417176,black_plus_sign,,,,null,,,,,,,,,,,,,,
null,,learn_phase(without_color),419182,black_plus_sign,,,,null,GW/wheelchair.jpg,GW/hat.jpg,,,,,,,,,,,,
null,,black_cross(without_color),420209,blue,,,,null,GW/wheelchair.jpg,GW/hat.jpg,,,,,,,,,,,,
null,,rt_plussign_withcolor,420711,blue,,,,null,GW/wheelchair.jpg,GW/hat.jpg,,,,,,,,,,,,
1612.5,,rt_thecrossant_black,421689,black_plus_sign,,,,49,,,1,1,,,,,,,,,,
null,,color_black,421793,black_plus_sign,,,,null,,,,,,,,,,,,,,
null,,learn_phase(without_color),423797,black_plus_sign,,,,null,GW/jukebox.jpg,GW/wheelchair.jpg,,,,,,,,,,,,
null,,black_cross(without_color),424670,green,,,,null,GW/jukebox.jpg,GW/wheelchair.jpg,,,,,,,,,,,,
null,,rt_plussign_withcolor,425173,green,,,,null,GW/jukebox.jpg,GW/wheelchair.jpg,,,,,,,,,,,,
1535.300000011921,,rt_thecrossant_black,426306,black_plus_sign,,,,50,,,1,1,,,,,,,,,,
null,,color_black,426410,black_plus_sign,,,,null,,,,,,,,,,,,,,
null,,learn_phase(without_color),428417,black_plus_sign,,,,null,GW/barrel.jpg,GW/snail.jpg,,,,,,,,,,,,
null,,black_cross(without_color),429052,blue,,,,null,GW/barrel.jpg,GW/snail.jpg,,,,,,,,,,,,
null,,rt_plussign_withcolor,429555,blue,,,,null,GW/barrel.jpg,GW/snail.jpg,,,,,,,,,,,,
1625.300000011921,,rt_thecrossant_black,430928,black_plus_sign,,,,49,,,1,1,,,,,,,,,,
null,,color_black,431031,black_plus_sign,,,,null,,,,,,,,,,,,,,
null,,learn_phase(without_color),433034,black_plus_sign,,,,null,GW/jukebox.jpg,GW/gong.jpg,,,,,,,,,,,,
null,,black_cross(without_color),434128,blue,,,,null,GW/jukebox.jpg,GW/gong.jpg,,,,,,,,,,,,
null,,rt_plussign_withcolor,434630,blue,,,,null,GW/jukebox.jpg,GW/gong.jpg,,,,,,,,,,,,
1189.800000011921,,rt_thecrossant_black,435545,black_plus_sign,,,,49,,,1,1,,,,,,,,,,
null,,color_black,435649,black_plus_sign,,,,null,,,,,,,,,,,,,,
null,,learn_phase(without_color),437655,black_plus_sign,,,,null,GW/barrel.jpg,GW/snail.jpg,,,,,,,,,,,,
null,,black_cross(without_color),438222,blue,,,,null,GW/barrel.jpg,GW/snail.jpg,,,,,,,,,,,,
null,,rt_plussign_withcolor,438725,blue,,,,null,GW/barrel.jpg,GW/snail.jpg,,,,,,,,,,,,
1201.6000000238419,,rt_thecrossant_black,440164,black_plus_sign,,,,49,,,1,1,,,,,,,,,,
null,,color_black,440267,black_plus_sign,,,,null,,,,,,,,,,,,,,
null,,learn_phase(without_color),442272,black_plus_sign,,,,null,GW/globe.jpg,GW/basket.jpg,,,,,,,,,,,,
null,,black_cross(without_color),443195,green,,,,null,GW/globe.jpg,GW/basket.jpg,,,,,,,,,,,,
null,,rt_plussign_withcolor,443699,green,,,,null,GW/globe.jpg,GW/basket.jpg,,,,,,,,,,,,
1021.6999999880791,,rt_thecrossant_black,444785,black_plus_sign,,,,50,,,1,1,,,,,,,,,,
null,,color_black,444897,black_plus_sign,,,,null,,,,,,,,,,,,,,
null,,learn_phase(without_color),446901,black_plus_sign,,,,null,GW/hat.jpg,GW/paint.jpg,,,,,,,,,,,,
null,,black_cross(without_color),447514,green,,,,null,GW/hat.jpg,GW/paint.jpg,,,,,,,,,,,,
null,,rt_plussign_withcolor,448018,green,,,,null,GW/hat.jpg,GW/paint.jpg,,,,,,,,,,,,
1225.699999988079,,rt_thecrossant_black,449409,black_plus_sign,,,,50,,,1,1,,,,,,,,,,
null,,color_black,449511,black_plus_sign,,,,null,,,,,,,,,,,,,,
null,,learn_phase(without_color),451517,black_plus_sign,,,,null,GW/snail.jpg,GW/jukebox.jpg,,,,,,,,,,,,
null,,black_cross(without_color),452388,blue,,,,null,GW/snail.jpg,GW/jukebox.jpg,,,,,,,,,,,,
null,,rt_plussign_withcolor,452890,blue,,,,null,GW/snail.jpg,GW/jukebox.jpg,,,,,,,,,,,,
1181.699999988079,,rt_thecrossant_black,454027,black_plus_sign,,,,49,,,1,1,,,,,,,,,,
null,,color_black,454130,black_plus_sign,,,,null,,,,,,,,,,,,,,
null,,learn_phase(without_color),456135,black_plus_sign,,,,null,GW/hat.jpg,GW/gong.jpg,,,,,,,,,,,,
null,,black_cross(without_color),457071,green,,,,null,GW/hat.jpg,GW/gong.jpg,,,,,,,,,,,,
null,,rt_plussign_withcolor,457574,green,,,,null,GW/hat.jpg,GW/gong.jpg,,,,,,,,,,,,
1579.300000011921,,rt_thecrossant_black,458648,black_plus_sign,,,,50,,,1,1,,,,,,,,,,
null,,color_black,458753,black_plus_sign,,,,null,,,,,,,,,,,,,,
null,,learn_phase(without_color),460759,black_plus_sign,,,,null,GW/teeth.jpg,GW/dustpan.jpg,,,,,,,,,,,,
null,,black_cross(without_color),461638,blue,,,,null,GW/teeth.jpg,GW/dustpan.jpg,,,,,,,,,,,,
null,,rt_plussign_withcolor,462141,blue,,,,null,GW/teeth.jpg,GW/dustpan.jpg,,,,,,,,,,,,
1614.5,,rt_thecrossant_black,463270,black_plus_sign,,,,49,,,1,1,,,,,,,,,,
null,,color_black,463373,black_plus_sign,,,,null,,,,,,,,,,,,,,
null,,learn_phase(without_color),465376,black_plus_sign,,,,null,GW/globe.jpg,GW/dustpan.jpg,,,,,,,,,,,,
null,,black_cross(without_color),465795,blue,,,,null,GW/globe.jpg,GW/dustpan.jpg,,,,,,,,,,,,
null,,rt_plussign_withcolor,466297,blue,,,,null,GW/globe.jpg,GW/dustpan.jpg,,,,,,,,,,,,
1248.1000000238419,,rt_thecrossant_black,467882,black_plus_sign,,,,49,,,1,1,,,,,,,,,,
null,,color_black,467984,black_plus_sign,,,,null,,,,,,,,,,,,,,
null,,learn_phase(without_color),469988,black_plus_sign,,,,null,GW/globe.jpg,GW/basket.jpg,,,,,,,,,,,,
null,,black_cross(without_color),471034,blue,,,,null,GW/globe.jpg,GW/basket.jpg,,,,,,,,,,,,
438.69999998807907,,rt_plussign_withcolor,471536,blue,,,,49,GW/globe.jpg,GW/basket.jpg,,,,,,,,,,,,
null,,rt_thecrossant_black,472509,black_plus_sign,,,,null,,,1,1,,,,,,,,,,
null,,color_black,472614,black_plus_sign,,,,null,,,,,,,,,,,,,,
null,,learn_phase(without_color),474618,black_plus_sign,,,,null,GW/hat.jpg,GW/gong.jpg,,,,,,,,,,,,
null,,black_cross(without_color),475616,green,,,,null,GW/hat.jpg,GW/gong.jpg,,,,,,,,,,,,
null,,rt_plussign_withcolor,476118,green,,,,null,GW/hat.jpg,GW/gong.jpg,,,,,,,,,,,,
1706.699999988079,,rt_thecrossant_black,477126,black_plus_sign,,,,50,,,1,1,,,,,,,,,,
null,,color_black,477230,black_plus_sign,,,,null,,,,,,,,,,,,,,
null,,learn_phase(without_color),479235,black_plus_sign,,,,null,GW/barrel.jpg,GW/globe.jpg,,,,,,,,,,,,
null,,black_cross(without_color),480098,green,,,,null,GW/barrel.jpg,GW/globe.jpg,,,,,,,,,,,,
null,,rt_plussign_withcolor,480601,green,,,,null,GW/barrel.jpg,GW/globe.jpg,,,,,,,,,,,,
1312.5,,rt_thecrossant_black,481744,black_plus_sign,,,,50,,,1,1,,,,,,,,,,
null,,color_black,481847,black_plus_sign,,,,null,,,,,,,,,,,,,,
null,,learn_phase(without_color),483854,black_plus_sign,,,,null,GW/snail.jpg,GW/teeth.jpg,,,,,,,,,,,,
null,,black_cross(without_color),484720,green,,,,null,GW/snail.jpg,GW/teeth.jpg,,,,,,,,,,,,
null,,rt_plussign_withcolor,485223,green,,,,null,GW/snail.jpg,GW/teeth.jpg,,,,,,,,,,,,
1024.199999988079,,rt_thecrossant_black,486366,black_plus_sign,,,,50,,,1,1,,,,,,,,,,
null,,color_black,486472,black_plus_sign,,,,null,,,,,,,,,,,,,,
null,,learn_phase(without_color),488479,black_plus_sign,,,,null,GW/globe.jpg,GW/basket.jpg,,,,,,,,,,,,
null,,black_cross(without_color),489308,blue,,,,null,GW/globe.jpg,GW/basket.jpg,,,,,,,,,,,,
500.9000000357628,,rt_plussign_withcolor,489811,blue,,,,49,GW/globe.jpg,GW/basket.jpg,,,,,,,,,,,,
null,,rt_thecrossant_black,490988,black_plus_sign,,,,null,,,1,1,,,,,,,,,,
null,,color_black,491093,black_plus_sign,,,,null,,,,,,,,,,,,,,
null,,learn_phase(without_color),493100,black_plus_sign,,,,null,GW/barrel.jpg,GW/globe.jpg,,,,,,,,,,,,
null,,black_cross(without_color),494147,green,,,,null,GW/barrel.jpg,GW/globe.jpg,,,,,,,,,,,,
null,,rt_plussign_withcolor,494650,green,,,,null,GW/barrel.jpg,GW/globe.jpg,,,,,,,,,,,,
1258.1000000238419,,rt_thecrossant_black,495628,black_plus_sign,,,,50,,,1,1,,,,,,,,,,
null,,color_black,495732,black_plus_sign,,,,null,,,,,,,,,,,,,,
null,,learn_phase(without_color),497736,black_plus_sign,,,,null,GW/gong.jpg,GW/teeth.jpg,,,,,,,,,,,,
null,,black_cross(without_color),498485,blue,,,,null,GW/gong.jpg,GW/teeth.jpg,,,,,,,,,,,,
null,,rt_plussign_withcolor,498987,blue,,,,null,GW/gong.jpg,GW/teeth.jpg,,,,,,,,,,,,
1714.800000011921,,rt_thecrossant_black,500251,black_plus_sign,,,,49,,,1,1,,,,,,,,,,
null,,color_black,500356,black_plus_sign,,,,null,,,,,,,,,,,,,,
null,,learn_phase(without_color),502362,black_plus_sign,,,,null,GW/wheelchair.jpg,GW/soldier.jpg,,,,,,,,,,,,
null,,black_cross(without_color),502949,green,,,,null,GW/wheelchair.jpg,GW/soldier.jpg,,,,,,,,,,,,
null,,rt_plussign_withcolor,503452,green,,,,null,GW/wheelchair.jpg,GW/soldier.jpg,,,,,,,,,,,,
1185.5999999642372,,rt_thecrossant_black,504873,black_plus_sign,,,,50,,,1,1,,,,,,,,,,
null,,color_black,504976,black_plus_sign,,,,null,,,,,,,,,,,,,,
null,,learn_phase(without_color),506979,black_plus_sign,,,,null,GW/teeth.jpg,GW/dustpan.jpg,,,,,,,,,,,,
null,,black_cross(without_color),507676,blue,,,,null,GW/teeth.jpg,GW/dustpan.jpg,,,,,,,,,,,,
494.39999997615814,,rt_plussign_withcolor,508178,blue,,,,49,GW/teeth.jpg,GW/dustpan.jpg,,,,,,,,,,,,
null,,rt_thecrossant_black,509489,black_plus_sign,,,,null,,,1,1,,,,,,,,,,
null,,color_black,509597,black_plus_sign,,,,null,,,,,,,,,,,,,,
null,,learn_phase(without_color),511600,black_plus_sign,,,,null,GW/gong.jpg,GW/teeth.jpg,,,,,,,,,,,,
null,,black_cross(without_color),512101,green,,,,null,GW/gong.jpg,GW/teeth.jpg,,,,,,,,,,,,
null,,rt_plussign_withcolor,512605,green,,,,null,GW/gong.jpg,GW/teeth.jpg,,,,,,,,,,,,
997.5,,rt_thecrossant_black,514113,black_plus_sign,,,,50,,,1,1,,,,,,,,,,
null,,color_black,514218,black_plus_sign,,,,null,,,,,,,,,,,,,,
null,,learn_phase(without_color),516221,black_plus_sign,,,,null,GW/wheelchair.jpg,GW/gong.jpg,,,,,,,,,,,,
null,,black_cross(without_color),516881,green,,,,null,GW/wheelchair.jpg,GW/gong.jpg,,,,,,,,,,,,
481.60000002384186,,rt_plussign_withcolor,517384,green,,,,50,GW/wheelchair.jpg,GW/gong.jpg,,,,,,,,,,,,
null,,rt_thecrossant_black,518733,black_plus_sign,,,,null,,,1,1,,,,,,,,,,
null,,color_black,518837,black_plus_sign,,,,null,,,,,,,,,,,,,,
null,,learn_phase(without_color),520844,black_plus_sign,,,,null,GW/hat.jpg,GW/paint.jpg,,,,,,,,,,,,
null,,black_cross(without_color),521617,green,,,,null,GW/hat.jpg,GW/paint.jpg,,,,,,,,,,,,
null,,rt_plussign_withcolor,522120,green,,,,null,GW/hat.jpg,GW/paint.jpg,,,,,,,,,,,,
987.8000000119209,,rt_thecrossant_black,523357,black_plus_sign,,,,50,,,1,1,,,,,,,,,,
null,,color_black,523471,black_plus_sign,,,,null,,,,,,,,,,,,,,
null,,learn_phase(without_color),525477,black_plus_sign,,,,null,GW/wheelchair.jpg,GW/hat.jpg,,,,,,,,,,,,
null,,black_cross(without_color),526045,green,,,,null,GW/wheelchair.jpg,GW/hat.jpg,,,,,,,,,,,,
null,,rt_plussign_withcolor,526547,green,,,,null,GW/wheelchair.jpg,GW/hat.jpg,,,,,,,,,,,,
977,,rt_thecrossant_black,527986,black_plus_sign,,,,50,,,1,1,,,,,,,,,,
null,,color_black,528091,black_plus_sign,,,,null,,,,,,,,,,,,,,
null,,learn_phase(without_color),530098,black_plus_sign,,,,null,GW/snail.jpg,GW/jukebox.jpg,,,,,,,,,,,,
null,,black_cross(without_color),531089,blue,,,,null,GW/snail.jpg,GW/jukebox.jpg,,,,,,,,,,,,
null,,rt_plussign_withcolor,531592,blue,,,,null,GW/snail.jpg,GW/jukebox.jpg,,,,,,,,,,,,
856.3999999761581,,rt_thecrossant_black,532610,black_plus_sign,,,,49,,,1,1,,,,,,,,,,
null,,color_black,532713,black_plus_sign,,,,null,,,,,,,,,,,,,,
null,,learn_phase(without_color),534716,black_plus_sign,,,,null,GW/gong.jpg,GW/teeth.jpg,,,,,,,,,,,,
null,,black_cross(without_color),535474,blue,,,,null,GW/gong.jpg,GW/teeth.jpg,,,,,,,,,,,,
null,,rt_plussign_withcolor,535977,blue,,,,null,GW/gong.jpg,GW/teeth.jpg,,,,,,,,,,,,
1660.6000000238419,,rt_thecrossant_black,537227,black_plus_sign,,,,49,,,1,1,,,,,,,,,,
null,,color_black,537329,black_plus_sign,,,,null,,,,,,,,,,,,,,
null,,learn_phase(without_color),539333,black_plus_sign,,,,null,GW/barrel.jpg,GW/snail.jpg,,,,,,,,,,,,
null,,black_cross(without_color),539964,blue,,,,null,GW/barrel.jpg,GW/snail.jpg,,,,,,,,,,,,
null,,rt_plussign_withcolor,540467,blue,,,,null,GW/barrel.jpg,GW/snail.jpg,,,,,,,,,,,,
956.0999999642372,,rt_thecrossant_black,541843,black_plus_sign,,,,49,,,1,1,,,,,,,,,,
null,,color_black,541949,black_plus_sign,,,,null,,,,,,,,,,,,,,
null,,learn_phase(without_color),543954,black_plus_sign,,,,null,GW/jukebox.jpg,GW/gong.jpg,,,,,,,,,,,,
null,,black_cross(without_color),544515,blue,,,,null,GW/jukebox.jpg,GW/gong.jpg,,,,,,,,,,,,
null,,rt_plussign_withcolor,545017,blue,,,,null,GW/jukebox.jpg,GW/gong.jpg,,,,,,,,,,,,
855.3000000119209,,rt_thecrossant_black,546461,black_plus_sign,,,,49,,,1,1,,,,,,,,,,
null,,color_black,546566,black_plus_sign,,,,null,,,,,,,,,,,,,,
null,,learn_phase(without_color),548573,black_plus_sign,,,,null,GW/wheelchair.jpg,GW/soldier.jpg,,,,,,,,,,,,
null,,black_cross(without_color),549564,blue,,,,null,GW/wheelchair.jpg,GW/soldier.jpg,,,,,,,,,,,,
460.10000002384186,,rt_plussign_withcolor,550067,blue,,,,49,GW/wheelchair.jpg,GW/soldier.jpg,,,,,,,,,,,,
null,,rt_thecrossant_black,551081,black_plus_sign,,,,null,,,1,1,,,,,,,,,,
null,,color_black,551185,black_plus_sign,,,,null,,,,,,,,,,,,,,
null,,learn_phase(without_color),553190,black_plus_sign,,,,null,GW/hat.jpg,GW/gong.jpg,,,,,,,,,,,,
null,,black_cross(without_color),554080,green,,,,null,GW/hat.jpg,GW/gong.jpg,,,,,,,,,,,,
null,,rt_plussign_withcolor,554583,green,,,,null,GW/hat.jpg,GW/gong.jpg,,,,,,,,,,,,
1251.5999999642372,,rt_thecrossant_black,555700,black_plus_sign,,,,50,,,1,1,,,,,,,,,,
null,,color_black,555803,black_plus_sign,,,,null,,,,,,,,,,,,,,
null,,learn_phase(without_color),557809,black_plus_sign,,,,null,GW/globe.jpg,GW/dustpan.jpg,,,,,,,,,,,,
null,,black_cross(without_color),558473,green,,,,null,GW/globe.jpg,GW/dustpan.jpg,,,,,,,,,,,,
null,,rt_plussign_withcolor,558976,green,,,,null,GW/globe.jpg,GW/dustpan.jpg,,,,,,,,,,,,
1281,,rt_thecrossant_black,560321,black_plus_sign,,,,50,,,1,1,,,,,,,,,,
null,,color_black,560424,black_plus_sign,,,,null,,,,,,,,,,,,,,
null,,learn_phase(without_color),562429,black_plus_sign,,,,null,GW/snail.jpg,GW/teeth.jpg,,,,,,,,,,,,
null,,black_cross(without_color),563064,blue,,,,null,GW/snail.jpg,GW/teeth.jpg,,,,,,,,,,,,
null,,rt_plussign_withcolor,563567,blue,,,,null,GW/snail.jpg,GW/teeth.jpg,,,,,,,,,,,,
1194.199999988079,,rt_thecrossant_black,564939,black_plus_sign,,,,49,,,1,1,,,,,,,,,,
null,,color_black,565044,black_plus_sign,,,,null,,,,,,,,,,,,,,
null,,learn_phase(without_color),567050,black_plus_sign,,,,null,GW/hat.jpg,GW/gong.jpg,,,,,,,,,,,,
null,,black_cross(without_color),567790,blue,,,,null,GW/hat.jpg,GW/gong.jpg,,,,,,,,,,,,
null,,rt_plussign_withcolor,568293,blue,,,,null,GW/hat.jpg,GW/gong.jpg,,,,,,,,,,,,
888.8000000119209,,rt_thecrossant_black,569562,black_plus_sign,,,,49,,,1,1,,,,,,,,,,
null,,color_black,569666,black_plus_sign,,,,null,,,,,,,,,,,,,,
null,,learn_phase(without_color),571673,black_plus_sign,,,,null,GW/barrel.jpg,GW/globe.jpg,,,,,,,,,,,,
null,,black_cross(without_color),572194,green,,,,null,GW/barrel.jpg,GW/globe.jpg,,,,,,,,,,,,
null,,rt_plussign_withcolor,572697,green,,,,null,GW/barrel.jpg,GW/globe.jpg,,,,,,,,,,,,
1299.8999999761581,,rt_thecrossant_black,574182,black_plus_sign,,,,50,,,1,1,,,,,,,,,,
null,,color_black,574286,black_plus_sign,,,,null,,,,,,,,,,,,,,
null,,learn_phase(without_color),576292,black_plus_sign,,,,null,GW/globe.jpg,GW/dustpan.jpg,,,,,,,,,,,,
null,,black_cross(without_color),577194,green,,,,null,GW/globe.jpg,GW/dustpan.jpg,,,,,,,,,,,,
480.19999998807907,,rt_plussign_withcolor,577696,green,,,,50,GW/globe.jpg,GW/dustpan.jpg,,,,,,,,,,,,
null,,rt_thecrossant_black,578805,black_plus_sign,,,,null,,,1,1,,,,,,,,,,
null,,color_black,578909,black_plus_sign,,,,null,,,,,,,,,,,,,,
null,,learn_phase(without_color),580914,black_plus_sign,,,,null,GW/wheelchair.jpg,GW/gong.jpg,,,,,,,,,,,,
null,,black_cross(without_color),581650,blue,,,,null,GW/wheelchair.jpg,GW/gong.jpg,,,,,,,,,,,,
null,,rt_plussign_withcolor,582154,blue,,,,null,GW/wheelchair.jpg,GW/gong.jpg,,,,,,,,,,,,
1980.9000000357628,,rt_thecrossant_black,583426,black_plus_sign,,,,49,,,1,1,,,,,,,,,,
null,,color_black,583528,black_plus_sign,,,,null,,,,,,,,,,,,,,
null,,learn_phase(without_color),585531,black_plus_sign,,,,null,GW/wheelchair.jpg,GW/soldier.jpg,,,,,,,,,,,,
null,,black_cross(without_color),586415,blue,,,,null,GW/wheelchair.jpg,GW/soldier.jpg,,,,,,,,,,,,
null,,rt_plussign_withcolor,586919,blue,,,,null,GW/wheelchair.jpg,GW/soldier.jpg,,,,,,,,,,,,
1386.5,,rt_thecrossant_black,588041,black_plus_sign,,,,49,,,1,1,,,,,,,,,,
null,,color_black,588151,black_plus_sign,,,,null,,,,,,,,,,,,,,
null,,learn_phase(without_color),590157,black_plus_sign,,,,null,GW/globe.jpg,GW/basket.jpg,,,,,,,,,,,,
null,,black_cross(without_color),590743,green,,,,null,GW/globe.jpg,GW/basket.jpg,,,,,,,,,,,,
null,,rt_plussign_withcolor,591246,green,,,,null,GW/globe.jpg,GW/basket.jpg,,,,,,,,,,,,
1982.300000011921,,rt_thecrossant_black,592669,black_plus_sign,,,,50,,,1,1,,,,,,,,,,
null,,color_black,592771,black_plus_sign,,,,null,,,,,,,,,,,,,,
null,,learn_phase(without_color),594774,black_plus_sign,,,,null,GW/jukebox.jpg,GW/gong.jpg,,,,,,,,,,,,
null,,black_cross(without_color),595296,blue,,,,null,GW/jukebox.jpg,GW/gong.jpg,,,,,,,,,,,,
null,,rt_plussign_withcolor,595798,blue,,,,null,GW/jukebox.jpg,GW/gong.jpg,,,,,,,,,,,,
1190.699999988079,,rt_thecrossant_black,597280,black_plus_sign,,,,49,,,1,1,,,,,,,,,,
null,,color_black,597384,black_plus_sign,,,,null,,,,,,,,,,,,,,
null,,learn_phase(without_color),599387,black_plus_sign,,,,null,GW/hat.jpg,GW/paint.jpg,,,,,,,,,,,,
null,,black_cross(without_color),599811,green,,,,null,GW/hat.jpg,GW/paint.jpg,,,,,,,,,,,,
null,,rt_plussign_withcolor,600315,green,,,,null,GW/hat.jpg,GW/paint.jpg,,,,,,,,,,,,
929.1999999880791,,rt_thecrossant_black,601900,black_plus_sign,,,,50,,,1,1,,,,,,,,,,
null,,color_black,602004,black_plus_sign,,,,null,,,,,,,,,,,,,,
null,,learn_phase(without_color),604010,black_plus_sign,,,,null,GW/camera.jpg,GW/barrel.jpg,,,,,,,,,,,,
null,,black_cross(without_color),604871,green,,,,null,GW/camera.jpg,GW/barrel.jpg,,,,,,,,,,,,
null,,rt_plussign_withcolor,605385,green,,,,null,GW/camera.jpg,GW/barrel.jpg,,,,,,,,,,,,
1143.2000000476837,,rt_thecrossant_black,606531,black_plus_sign,,,,50,,,1,1,,,,,,,,,,
null,,color_black,606634,black_plus_sign,,,,null,,,,,,,,,,,,,,
null,,learn_phase(without_color),608639,black_plus_sign,,,,null,GW/wheelchair.jpg,GW/hat.jpg,,,,,,,,,,,,
null,,black_cross(without_color),609419,blue,,,,null,GW/wheelchair.jpg,GW/hat.jpg,,,,,,,,,,,,
null,,rt_plussign_withcolor,609922,blue,,,,null,GW/wheelchair.jpg,GW/hat.jpg,,,,,,,,,,,,
1236.4000000357628,,rt_thecrossant_black,611151,black_plus_sign,,,,49,,,1,1,,,,,,,,,,
null,,color_black,611253,black_plus_sign,,,,null,,,,,,,,,,,,,,
null,,learn_phase(without_color),613256,black_plus_sign,,,,null,GW/teeth.jpg,GW/dustpan.jpg,,,,,,,,,,,,
null,,black_cross(without_color),614019,blue,,,,null,GW/teeth.jpg,GW/dustpan.jpg,,,,,,,,,,,,
null,,rt_plussign_withcolor,614522,blue,,,,null,GW/teeth.jpg,GW/dustpan.jpg,,,,,,,,,,,,
null,,rt_thecrossant_black,615769,black_plus_sign,,,,null,,,,1,,,,,,,,,,
null,,color_black,615872,black_plus_sign,,,,null,,,,,,,,,,,,,,
null,,learn_phase(without_color),617875,black_plus_sign,,,,null,GW/jukebox.jpg,GW/gong.jpg,,,,,,,,,,,,
null,,black_cross(without_color),618372,blue,,,,null,GW/jukebox.jpg,GW/gong.jpg,,,,,,,,,,,,
500.69999998807907,,rt_plussign_withcolor,618875,blue,,,,49,GW/jukebox.jpg,GW/gong.jpg,,,,,,,,,,,,
null,,rt_thecrossant_black,620385,black_plus_sign,,,,null,,,1,1,,,,,,,,,,
null,,color_black,620502,black_plus_sign,,,,null,,,,,,,,,,,,,,
null,,learn_phase(without_color),622507,black_plus_sign,,,,null,GW/globe.jpg,GW/basket.jpg,,,,,,,,,,,,
null,,black_cross(without_color),622972,green,,,,null,GW/globe.jpg,GW/basket.jpg,,,,,,,,,,,,
495.0999999642372,,rt_plussign_withcolor,623477,green,,,,49,GW/globe.jpg,GW/basket.jpg,,,,,,,,,,,,
null,,rt_thecrossant_black,625022,black_plus_sign,,,,null,,,0,0.987012987012987,,,,,,,,,,
null,,color_black,625126,black_plus_sign,,,,null,,,,,,,,,,,,,,
null,,learn_phase(without_color),627133,black_plus_sign,,,,null,GW/barrel.jpg,GW/globe.jpg,,,,,,,,,,,,
null,,black_cross(without_color),627587,blue,,,,null,GW/barrel.jpg,GW/globe.jpg,,,,,,,,,,,,
null,,rt_plussign_withcolor,628089,blue,,,,null,GW/barrel.jpg,GW/globe.jpg,,,,,,,,,,,,
961.4000000357628,,rt_thecrossant_black,629640,black_plus_sign,,,,49,,,1,0.9871794871794872,,,,,,,,,,
null,,color_black,629743,black_plus_sign,,,,null,,,,,,,,,,,,,,
null,,learn_phase(without_color),631749,black_plus_sign,,,,null,GW/snail.jpg,GW/teeth.jpg,,,,,,,,,,,,
null,,black_cross(without_color),632358,green,,,,null,GW/snail.jpg,GW/teeth.jpg,,,,,,,,,,,,
null,,rt_plussign_withcolor,632861,green,,,,null,GW/snail.jpg,GW/teeth.jpg,,,,,,,,,,,,
1042.7999999523163,,rt_thecrossant_black,634258,black_plus_sign,,,,50,,,1,0.9873417721518988,,,,,,,,,,
null,,color_black,634363,black_plus_sign,,,,null,,,,,,,,,,,,,,
null,,learn_phase(without_color),636370,black_plus_sign,,,,null,GW/camera.jpg,GW/barrel.jpg,,,,,,,,,,,,
null,,black_cross(without_color),636810,blue,,,,null,GW/camera.jpg,GW/barrel.jpg,,,,,,,,,,,,
null,,rt_plussign_withcolor,637314,blue,,,,null,GW/camera.jpg,GW/barrel.jpg,,,,,,,,,,,,
882.8000000119209,,rt_thecrossant_black,638882,black_plus_sign,,,,49,,,1,0.9875,,,,,,,,,,
null,,color_black,638987,black_plus_sign,,,,null,,,,,,,,,,,,,,
null,,learn_phase(without_color),640993,black_plus_sign,,,,null,GW/gong.jpg,GW/teeth.jpg,,,,,,,,,,,,
null,,black_cross(without_color),642001,green,,,,null,GW/gong.jpg,GW/teeth.jpg,,,,,,,,,,,,
464.2000000476837,,rt_plussign_withcolor,642504,green,,,,50,GW/gong.jpg,GW/teeth.jpg,,,,,,,,,,,,
null,,rt_thecrossant_black,643507,black_plus_sign,,,,null,,,1,0.9876543209876543,,,,,,,,,,
null,,color_black,643611,black_plus_sign,,,,null,,,,,,,,,,,,,,
null,,learn_phase(without_color),645617,black_plus_sign,,,,null,GW/snail.jpg,GW/teeth.jpg,,,,,,,,,,,,
null,,black_cross(without_color),646275,blue,,,,null,GW/snail.jpg,GW/teeth.jpg,,,,,,,,,,,,
null,,rt_plussign_withcolor,646779,blue,,,,null,GW/snail.jpg,GW/teeth.jpg,,,,,,,,,,,,
null,,rt_thecrossant_black,648129,black_plus_sign,,,,null,,,,0.9876543209876543,,,,,,,,,,
null,,color_black,648232,black_plus_sign,,,,null,,,,,,,,,,,,,,
null,,learn_phase(without_color),650236,black_plus_sign,,,,null,GW/globe.jpg,GW/dustpan.jpg,,,,,,,,,,,,
null,,black_cross(without_color),650830,green,,,,null,GW/globe.jpg,GW/dustpan.jpg,,,,,,,,,,,,
null,,rt_plussign_withcolor,651334,green,,,,null,GW/globe.jpg,GW/dustpan.jpg,,,,,,,,,,,,
908.6999999880791,,rt_thecrossant_black,652748,black_plus_sign,,,,50,,,1,0.9878048780487805,,,,,,,,,,
null,,color_black,652852,black_plus_sign,,,,null,,,,,,,,,,,,,,
null,,learn_phase(without_color),654856,black_plus_sign,,,,null,GW/barrel.jpg,GW/snail.jpg,,,,,,,,,,,,
null,,black_cross(without_color),655661,green,,,,null,GW/barrel.jpg,GW/snail.jpg,,,,,,,,,,,,
null,,rt_plussign_withcolor,656165,green,,,,null,GW/barrel.jpg,GW/snail.jpg,,,,,,,,,,,,
1053.5999999642372,,rt_thecrossant_black,657368,black_plus_sign,,,,50,,,1,0.9879518072289156,,,,,,,,,,
null,,color_black,657475,black_plus_sign,,,,null,,,,,,,,,,,,,,
null,,learn_phase(without_color),659478,black_plus_sign,,,,null,GW/camera.jpg,GW/barrel.jpg,,,,,,,,,,,,
null,,black_cross(without_color),659964,blue,,,,null,GW/camera.jpg,GW/barrel.jpg,,,,,,,,,,,,
null,,rt_plussign_withcolor,660468,blue,,,,null,GW/camera.jpg,GW/barrel.jpg,,,,,,,,,,,,
1313.4000000357628,,rt_thecrossant_black,662002,black_plus_sign,,,,49,,,1,0.9880952380952381,,,,,,,,,,
null,,color_black,662105,black_plus_sign,,,,null,,,,,,,,,,,,,,
null,,learn_phase(without_color),664112,black_plus_sign,,,,null,GW/wheelchair.jpg,GW/hat.jpg,,,,,,,,,,,,
null,,black_cross(without_color),664900,green,,,,null,GW/wheelchair.jpg,GW/hat.jpg,,,,,,,,,,,,
null,,rt_plussign_withcolor,665417,green,,,,null,GW/wheelchair.jpg,GW/hat.jpg,,,,,,,,,,,,
685.3000000119209,,rt_thecrossant_black,666636,black_plus_sign,,,,50,,,1,0.9882352941176471,,,,,,,,,,
null,,color_black,666740,black_plus_sign,,,,null,,,,,,,,,,,,,,
null,,learn_phase(without_color),668747,black_plus_sign,,,,null,GW/jukebox.jpg,GW/wheelchair.jpg,,,,,,,,,,,,
null,,black_cross(without_color),669342,green,,,,null,GW/jukebox.jpg,GW/wheelchair.jpg,,,,,,,,,,,,
null,,rt_plussign_withcolor,669844,green,,,,null,GW/jukebox.jpg,GW/wheelchair.jpg,,,,,,,,,,,,
1249.6000000238419,,rt_thecrossant_black,671255,black_plus_sign,,,,50,,,1,0.9883720930232558,,,,,,,,,,
null,,color_black,671360,black_plus_sign,,,,null,,,,,,,,,,,,,,
null,,learn_phase(without_color),673366,black_plus_sign,,,,null,GW/wheelchair.jpg,GW/gong.jpg,,,,,,,,,,,,
null,,black_cross(without_color),674154,green,,,,null,GW/wheelchair.jpg,GW/gong.jpg,,,,,,,,,,,,
478.39999997615814,,rt_plussign_withcolor,674657,green,,,,50,GW/wheelchair.jpg,GW/gong.jpg,,,,,,,,,,,,
null,,rt_thecrossant_black,675876,black_plus_sign,,,,null,,,1,0.9885057471264368,,,,,,,,,,
null,,color_black,675980,black_plus_sign,,,,null,,,,,,,,,,,,,,
null,,learn_phase(without_color),677983,black_plus_sign,,,,null,GW/barrel.jpg,GW/snail.jpg,,,,,,,,,,,,
null,,black_cross(without_color),678672,green,,,,null,GW/barrel.jpg,GW/snail.jpg,,,,,,,,,,,,
null,,rt_plussign_withcolor,679175,green,,,,null,GW/barrel.jpg,GW/snail.jpg,,,,,,,,,,,,
1022.6000000238419,,rt_thecrossant_black,680510,black_plus_sign,,,,50,,,1,0.9886363636363636,,,,,,,,,,
null,,color_black,680614,black_plus_sign,,,,null,,,,,,,,,,,,,,
null,,learn_phase(without_color),682627,black_plus_sign,,,,null,GW/teeth.jpg,GW/dustpan.jpg,,,,,,,,,,,,
null,,black_cross(without_color),683257,blue,,,,null,GW/teeth.jpg,GW/dustpan.jpg,,,,,,,,,,,,
null,,rt_plussign_withcolor,683760,blue,,,,null,GW/teeth.jpg,GW/dustpan.jpg,,,,,,,,,,,,
849.7000000476837,,rt_thecrossant_black,685140,black_plus_sign,,,,49,,,1,0.9887640449438202,,,,,,,,,,
null,,color_black,685242,black_plus_sign,,,,null,,,,,,,,,,,,,,
null,,learn_phase(without_color),687245,black_plus_sign,,,,null,GW/barrel.jpg,GW/globe.jpg,,,,,,,,,,,,
null,,black_cross(without_color),687724,blue,,,,null,GW/barrel.jpg,GW/globe.jpg,,,,,,,,,,,,
null,,rt_plussign_withcolor,688226,blue,,,,null,GW/barrel.jpg,GW/globe.jpg,,,,,,,,,,,,
987.4000000357628,,rt_thecrossant_black,689756,black_plus_sign,,,,49,,,1,0.9888888888888889,,,,,,,,,,
null,,color_black,689861,black_plus_sign,,,,null,,,,,,,,,,,,,,
null,,learn_phase(without_color),691868,black_plus_sign,,,,null,GW/hat.jpg,GW/paint.jpg,,,,,,,,,,,,
null,,black_cross(without_color),692967,green,,,,null,GW/hat.jpg,GW/paint.jpg,,,,,,,,,,,,
null,,rt_plussign_withcolor,693471,green,,,,null,GW/hat.jpg,GW/paint.jpg,,,,,,,,,,,,
697.3000000119209,,rt_thecrossant_black,694381,black_plus_sign,,,,50,,,1,0.989010989010989,,,,,,,,,,
null,,color_black,694486,black_plus_sign,,,,null,,,,,,,,,,,,,,
null,,learn_phase(without_color),696492,black_plus_sign,,,,null,GW/barrel.jpg,GW/snail.jpg,,,,,,,,,,,,
null,,black_cross(without_color),696975,green,,,,null,GW/barrel.jpg,GW/snail.jpg,,,,,,,,,,,,
null,,rt_plussign_withcolor,697478,green,,,,null,GW/barrel.jpg,GW/snail.jpg,,,,,,,,,,,,
1453.699999988079,,rt_thecrossant_black,698999,black_plus_sign,,,,50,,,1,0.9891304347826086,,,,,,,,,,
null,,color_black,699102,black_plus_sign,,,,null,,,,,,,,,,,,,,
null,,learn_phase(without_color),701105,black_plus_sign,,,,null,GW/snail.jpg,GW/teeth.jpg,,,,,,,,,,,,
null,,black_cross(without_color),701700,blue,,,,null,GW/snail.jpg,GW/teeth.jpg,,,,,,,,,,,,
null,,rt_plussign_withcolor,702202,blue,,,,null,GW/snail.jpg,GW/teeth.jpg,,,,,,,,,,,,
1115.800000011921,,rt_thecrossant_black,703613,black_plus_sign,,,,49,,,1,0.989247311827957,,,,,,,,,,
null,,color_black,703716,black_plus_sign,,,,null,,,,,,,,,,,,,,
null,,learn_phase(without_color),705719,black_plus_sign,,,,null,GW/teeth.jpg,GW/dustpan.jpg,,,,,,,,,,,,
null,,black_cross(without_color),706290,blue,,,,null,GW/teeth.jpg,GW/dustpan.jpg,,,,,,,,,,,,
null,,rt_plussign_withcolor,706793,blue,,,,null,GW/teeth.jpg,GW/dustpan.jpg,,,,,,,,,,,,
1201.5,,rt_thecrossant_black,708230,black_plus_sign,,,,49,,,1,0.9893617021276596,,,,,,,,,,
null,,color_black,708334,black_plus_sign,,,,null,,,,,,,,,,,,,,
null,,learn_phase(without_color),710339,black_plus_sign,,,,null,GW/wheelchair.jpg,GW/soldier.jpg,,,,,,,,,,,,
null,,black_cross(without_color),710866,blue,,,,null,GW/wheelchair.jpg,GW/soldier.jpg,,,,,,,,,,,,
null,,rt_plussign_withcolor,711368,blue,,,,null,GW/wheelchair.jpg,GW/soldier.jpg,,,,,,,,,,,,
699.8000000119209,,rt_thecrossant_black,712862,black_plus_sign,,,,49,,,1,0.9894736842105263,,,,,,,,,,
null,,color_black,712965,black_plus_sign,,,,null,,,,,,,,,,,,,,
null,,learn_phase(without_color),714970,black_plus_sign,,,,null,GW/hat.jpg,GW/paint.jpg,,,,,,,,,,,,
null,,black_cross(without_color),715889,blue,,,,null,GW/hat.jpg,GW/paint.jpg,,,,,,,,,,,,
465.39999997615814,,rt_plussign_withcolor,716393,blue,,,,49,GW/hat.jpg,GW/paint.jpg,,,,,,,,,,,,
null,,rt_thecrossant_black,717480,black_plus_sign,,,,null,,,1,0.9895833333333334,,,,,,,,,,
null,,color_black,717583,black_plus_sign,,,,null,,,,,,,,,,,,,,
null,,learn_phase(without_color),719589,black_plus_sign,,,,null,GW/teeth.jpg,GW/dustpan.jpg,,,,,,,,,,,,
null,,black_cross(without_color),720205,blue,,,,null,GW/teeth.jpg,GW/dustpan.jpg,,,,,,,,,,,,
null,,rt_plussign_withcolor,720708,blue,,,,null,GW/teeth.jpg,GW/dustpan.jpg,,,,,,,,,,,,
null,,rt_thecrossant_black,722099,black_plus_sign,,,,null,,,,0.9895833333333334,,,,,,,,,,
null,,color_black,722204,black_plus_sign,,,,null,,,,,,,,,,,,,,
null,,learn_phase(without_color),724210,black_plus_sign,,,,null,GW/wheelchair.jpg,GW/gong.jpg,,,,,,,,,,,,
null,,black_cross(without_color),724784,green,,,,null,GW/wheelchair.jpg,GW/gong.jpg,,,,,,,,,,,,
null,,rt_plussign_withcolor,725287,green,,,,null,GW/wheelchair.jpg,GW/gong.jpg,,,,,,,,,,,,
1196.0999999642372,,rt_thecrossant_black,726720,black_plus_sign,,,,50,,,1,0.9896907216494846,,,,,,,,,,
null,,color_black,726824,black_plus_sign,,,,null,,,,,,,,,,,,,,
null,,learn_phase(without_color),728828,black_plus_sign,,,,null,GW/jukebox.jpg,GW/wheelchair.jpg,,,,,,,,,,,,
null,,black_cross(without_color),729436,blue,,,,null,GW/jukebox.jpg,GW/wheelchair.jpg,,,,,,,,,,,,
null,,rt_plussign_withcolor,729939,blue,,,,null,GW/jukebox.jpg,GW/wheelchair.jpg,,,,,,,,,,,,
701.1000000238419,,rt_thecrossant_black,731341,black_plus_sign,,,,50,,,0,0.9795918367346939,,,,,,,,,,
null,,color_black,731446,black_plus_sign,,,,null,,,,,,,,,,,,,,
null,,learn_phase(without_color),733465,black_plus_sign,,,,null,GW/jukebox.jpg,GW/gong.jpg,,,,,,,,,,,,
null,,black_cross(without_color),734274,green,,,,null,GW/jukebox.jpg,GW/gong.jpg,,,,,,,,,,,,
430.19999998807907,,rt_plussign_withcolor,734794,green,,,,49,GW/jukebox.jpg,GW/gong.jpg,,,,,,,,,,,,
null,,rt_thecrossant_black,735995,black_plus_sign,,,,null,,,0,0.9696969696969697,,,,,,,,,,
null,,warning_page,738999,warning,,,,null,,,,,,,,,,,,,,
null,,color_black,739102,black_plus_sign,,,,null,,,,,,,,,,,,,,
null,,learn_phase(without_color),741109,black_plus_sign,,,,null,GW/snail.jpg,GW/jukebox.jpg,,,,,,,,,,,,
null,,black_cross(without_color),741538,blue,,,,null,GW/snail.jpg,GW/jukebox.jpg,,,,,,,,,,,,
null,,rt_plussign_withcolor,742042,blue,,,,null,GW/snail.jpg,GW/jukebox.jpg,,,,,,,,,,,,
1152,,rt_thecrossant_black,743621,black_plus_sign,,,,49,,,1,0.97,,,,,,,,,,
null,,color_black,743724,black_plus_sign,,,,null,,,,,,,,,,,,,,
null,,learn_phase(without_color),745727,black_plus_sign,,,,null,GW/jukebox.jpg,GW/wheelchair.jpg,,,,,,,,,,,,
null,,black_cross(without_color),746329,green,,,,null,GW/jukebox.jpg,GW/wheelchair.jpg,,,,,,,,,,,,
473.30000001192093,,rt_plussign_withcolor,746831,green,,,,50,GW/jukebox.jpg,GW/wheelchair.jpg,,,,,,,,,,,,
null,,rt_thecrossant_black,748238,black_plus_sign,,,,null,,,1,0.9702970297029703,,,,,,,,,,
null,,color_black,748345,black_plus_sign,,,,null,,,,,,,,,,,,,,
null,,learn_phase(without_color),750351,black_plus_sign,,,,null,GW/teeth.jpg,GW/dustpan.jpg,,,,,,,,,,,,
null,,black_cross(without_color),750871,green,,,,null,GW/teeth.jpg,GW/dustpan.jpg,,,,,,,,,,,,
null,,rt_plussign_withcolor,751375,green,,,,null,GW/teeth.jpg,GW/dustpan.jpg,,,,,,,,,,,,
732.5,,rt_thecrossant_black,752865,black_plus_sign,,,,50,,,1,0.9705882352941176,,,,,,,,,,
null,,color_black,752968,black_plus_sign,,,,null,,,,,,,,,,,,,,
null,,learn_phase(without_color),754975,black_plus_sign,,,,null,GW/jukebox.jpg,GW/gong.jpg,,,,,,,,,,,,
null,,black_cross(without_color),755798,green,,,,null,GW/jukebox.jpg,GW/gong.jpg,,,,,,,,,,,,
null,,rt_plussign_withcolor,756301,green,,,,null,GW/jukebox.jpg,GW/gong.jpg,,,,,,,,,,,,
660.7999999523163,,rt_thecrossant_black,757486,black_plus_sign,,,,50,,,1,0.970873786407767,,,,,,,,,,
null,,color_black,757591,black_plus_sign,,,,null,,,,,,,,,,,,,,
null,,learn_phase(without_color),759598,black_plus_sign,,,,null,GW/wheelchair.jpg,GW/soldier.jpg,,,,,,,,,,,,
null,,black_cross(without_color),760538,blue,,,,null,GW/wheelchair.jpg,GW/soldier.jpg,,,,,,,,,,,,
null,,rt_plussign_withcolor,761041,blue,,,,null,GW/wheelchair.jpg,GW/soldier.jpg,,,,,,,,,,,,
1279.3999999761581,,rt_thecrossant_black,762107,black_plus_sign,,,,49,,,1,0.9711538461538461,,,,,,,,,,
null,,color_black,762220,black_plus_sign,,,,null,,,,,,,,,,,,,,
null,,learn_phase(without_color),764225,black_plus_sign,,,,null,GW/globe.jpg,GW/dustpan.jpg,,,,,,,,,,,,
null,,black_cross(without_color),764773,green,,,,null,GW/globe.jpg,GW/dustpan.jpg,,,,,,,,,,,,
null,,rt_plussign_withcolor,765277,green,,,,null,GW/globe.jpg,GW/dustpan.jpg,,,,,,,,,,,,
1190.5,,rt_thecrossant_black,766739,black_plus_sign,,,,50,,,1,0.9714285714285714,,,,,,,,,,
null,,color_black,766845,black_plus_sign,,,,null,,,,,,,,,,,,,,
null,,learn_phase(without_color),768853,black_plus_sign,,,,null,GW/wheelchair.jpg,GW/gong.jpg,,,,,,,,,,,,
null,,black_cross(without_color),769740,green,,,,null,GW/wheelchair.jpg,GW/gong.jpg,,,,,,,,,,,,
null,,rt_plussign_withcolor,770243,green,,,,null,GW/wheelchair.jpg,GW/gong.jpg,,,,,,,,,,,,
834.3000000119209,,rt_thecrossant_black,771361,black_plus_sign,,,,50,,,1,0.9716981132075472,,,,,,,,,,
null,,color_black,771464,black_plus_sign,,,,null,,,,,,,,,,,,,,
null,,learn_phase(without_color),773469,black_plus_sign,,,,null,GW/camera.jpg,GW/barrel.jpg,,,,,,,,,,,,
null,,black_cross(without_color),773927,green,,,,null,GW/camera.jpg,GW/barrel.jpg,,,,,,,,,,,,
null,,rt_plussign_withcolor,774430,green,,,,null,GW/camera.jpg,GW/barrel.jpg,,,,,,,,,,,,
1036,,rt_thecrossant_black,775987,black_plus_sign,,,,50,,,1,0.9719626168224299,,,,,,,,,,
null,,color_black,776094,black_plus_sign,,,,null,,,,,,,,,,,,,,
null,,learn_phase(without_color),778104,black_plus_sign,,,,null,GW/snail.jpg,GW/teeth.jpg,,,,,,,,,,,,
null,,black_cross(without_color),778975,green,,,,null,GW/snail.jpg,GW/teeth.jpg,,,,,,,,,,,,
null,,rt_plussign_withcolor,779478,green,,,,null,GW/snail.jpg,GW/teeth.jpg,,,,,,,,,,,,
712.6999999880791,,rt_thecrossant_black,780618,black_plus_sign,,,,50,,,1,0.9722222222222222,,,,,,,,,,
null,,color_black,780725,black_plus_sign,,,,null,,,,,,,,,,,,,,
null,,learn_phase(without_color),782734,black_plus_sign,,,,null,GW/hat.jpg,GW/gong.jpg,,,,,,,,,,,,
null,,black_cross(without_color),783659,green,,,,null,GW/hat.jpg,GW/gong.jpg,,,,,,,,,,,,
null,,rt_plussign_withcolor,784161,green,,,,null,GW/hat.jpg,GW/gong.jpg,,,,,,,,,,,,
1004.8999999761581,,rt_thecrossant_black,785244,black_plus_sign,,,,50,,,1,0.9724770642201835,,,,,,,,,,
null,,color_black,785349,black_plus_sign,,,,null,,,,,,,,,,,,,,
null,,learn_phase(without_color),787356,black_plus_sign,,,,null,GW/camera.jpg,GW/barrel.jpg,,,,,,,,,,,,
null,,black_cross(without_color),787872,blue,,,,null,GW/camera.jpg,GW/barrel.jpg,,,,,,,,,,,,
null,,rt_plussign_withcolor,788376,blue,,,,null,GW/camera.jpg,GW/barrel.jpg,,,,,,,,,,,,
1044.4000000357628,,rt_thecrossant_black,789868,black_plus_sign,,,,49,,,1,0.9727272727272728,,,,,,,,,,
null,,color_black,789970,black_plus_sign,,,,null,,,,,,,,,,,,,,
null,,learn_phase(without_color),791974,black_plus_sign,,,,null,GW/teeth.jpg,GW/dustpan.jpg,,,,,,,,,,,,
null,,black_cross(without_color),792608,blue,,,,null,GW/teeth.jpg,GW/dustpan.jpg,,,,,,,,,,,,
null,,rt_plussign_withcolor,793111,blue,,,,null,GW/teeth.jpg,GW/dustpan.jpg,,,,,,,,,,,,
629.1000000238419,,rt_thecrossant_black,794492,black_plus_sign,,,,49,,,1,0.972972972972973,,,,,,,,,,
null,,color_black,794597,black_plus_sign,,,,null,,,,,,,,,,,,,,
null,,learn_phase(without_color),796602,black_plus_sign,,,,null,GW/jukebox.jpg,GW/wheelchair.jpg,,,,,,,,,,,,
null,,black_cross(without_color),797026,blue,,,,null,GW/jukebox.jpg,GW/wheelchair.jpg,,,,,,,,,,,,
null,,rt_plussign_withcolor,797530,blue,,,,null,GW/jukebox.jpg,GW/wheelchair.jpg,,,,,,,,,,,,
1080.6000000238419,,rt_thecrossant_black,799115,black_plus_sign,,,,49,,,1,0.9732142857142857,,,,,,,,,,
null,,color_black,799218,black_plus_sign,,,,null,,,,,,,,,,,,,,
null,,learn_phase(without_color),801223,black_plus_sign,,,,null,GW/hat.jpg,GW/paint.jpg,,,,,,,,,,,,
null,,black_cross(without_color),802060,green,,,,null,GW/hat.jpg,GW/paint.jpg,,,,,,,,,,,,
null,,rt_plussign_withcolor,802563,green,,,,null,GW/hat.jpg,GW/paint.jpg,,,,,,,,,,,,
662.5,,rt_thecrossant_black,803733,black_plus_sign,,,,50,,,1,0.9734513274336283,,,,,,,,,,
null,,color_black,803836,black_plus_sign,,,,null,,,,,,,,,,,,,,
null,,learn_phase(without_color),805843,black_plus_sign,,,,null,GW/camera.jpg,GW/barrel.jpg,,,,,,,,,,,,
null,,black_cross(without_color),806267,blue,,,,null,GW/camera.jpg,GW/barrel.jpg,,,,,,,,,,,,
null,,rt_plussign_withcolor,806770,blue,,,,null,GW/camera.jpg,GW/barrel.jpg,,,,,,,,,,,,
1267,,rt_thecrossant_black,808356,black_plus_sign,,,,49,,,1,0.9736842105263158,,,,,,,,,,
null,,color_black,808460,black_plus_sign,,,,null,,,,,,,,,,,,,,
null,,learn_phase(without_color),810464,black_plus_sign,,,,null,GW/globe.jpg,GW/basket.jpg,,,,,,,,,,,,
null,,black_cross(without_color),811424,green,,,,null,GW/globe.jpg,GW/basket.jpg,,,,,,,,,,,,
480.30000001192093,,rt_plussign_withcolor,811928,green,,,,50,GW/globe.jpg,GW/basket.jpg,,,,,,,,,,,,
null,,rt_thecrossant_black,812974,black_plus_sign,,,,null,,,1,0.9739130434782609,,,,,,,,,,
null,,color_black,813078,black_plus_sign,,,,null,,,,,,,,,,,,,,
null,,learn_phase(without_color),815082,black_plus_sign,,,,null,GW/snail.jpg,GW/jukebox.jpg,,,,,,,,,,,,
null,,black_cross(without_color),815520,blue,,,,null,GW/snail.jpg,GW/jukebox.jpg,,,,,,,,,,,,
497,,rt_plussign_withcolor,816022,blue,,,,49,GW/snail.jpg,GW/jukebox.jpg,,,,,,,,,,,,
null,,rt_thecrossant_black,817590,black_plus_sign,,,,null,,,1,0.9741379310344828,,,,,,,,,,
null,,color_black,817693,black_plus_sign,,,,null,,,,,,,,,,,,,,
null,,learn_phase(without_color),819699,black_plus_sign,,,,null,GW/hat.jpg,GW/paint.jpg,,,,,,,,,,,,
null,,black_cross(without_color),820142,green,,,,null,GW/hat.jpg,GW/paint.jpg,,,,,,,,,,,,
null,,rt_plussign_withcolor,820644,green,,,,null,GW/hat.jpg,GW/paint.jpg,,,,,,,,,,,,
776.6000000238419,,rt_thecrossant_black,822208,black_plus_sign,,,,50,,,1,0.9743589743589743,,,,,,,,,,
null,,color_black,822311,black_plus_sign,,,,null,,,,,,,,,,,,,,
null,,learn_phase(without_color),824314,black_plus_sign,,,,null,GW/jukebox.jpg,GW/gong.jpg,,,,,,,,,,,,
null,,black_cross(without_color),825015,green,,,,null,GW/jukebox.jpg,GW/gong.jpg,,,,,,,,,,,,
null,,rt_plussign_withcolor,825517,green,,,,null,GW/jukebox.jpg,GW/gong.jpg,,,,,,,,,,,,
831,,rt_thecrossant_black,826825,black_plus_sign,,,,50,,,1,0.9745762711864406,,,,,,,,,,
null,,color_black,826930,black_plus_sign,,,,null,,,,,,,,,,,,,,
null,,learn_phase(without_color),828937,black_plus_sign,,,,null,GW/snail.jpg,GW/teeth.jpg,,,,,,,,,,,,
null,,black_cross(without_color),829374,blue,,,,null,GW/snail.jpg,GW/teeth.jpg,,,,,,,,,,,,
null,,rt_plussign_withcolor,829878,blue,,,,null,GW/snail.jpg,GW/teeth.jpg,,,,,,,,,,,,
1260.6000000238419,,rt_thecrossant_black,831465,black_plus_sign,,,,49,,,1,0.9747899159663865,,,,,,,,,,
null,,color_black,831574,black_plus_sign,,,,null,,,,,,,,,,,,,,
null,,learn_phase(without_color),833577,black_plus_sign,,,,null,GW/barrel.jpg,GW/snail.jpg,,,,,,,,,,,,
null,,black_cross(without_color),833982,blue,,,,null,GW/barrel.jpg,GW/snail.jpg,,,,,,,,,,,,
null,,rt_plussign_withcolor,834491,blue,,,,null,GW/barrel.jpg,GW/snail.jpg,,,,,,,,,,,,
680.6000000238419,,rt_thecrossant_black,836092,black_plus_sign,,,,49,,,1,0.975,,,,,,,,,,
null,,color_black,836194,black_plus_sign,,,,null,,,,,,,,,,,,,,
null,,learn_phase(without_color),838197,black_plus_sign,,,,null,GW/globe.jpg,GW/basket.jpg,,,,,,,,,,,,
null,,black_cross(without_color),838661,green,,,,null,GW/globe.jpg,GW/basket.jpg,,,,,,,,,,,,
null,,rt_plussign_withcolor,839164,green,,,,null,GW/globe.jpg,GW/basket.jpg,,,,,,,,,,,,
906.4000000357628,,rt_thecrossant_black,840711,black_plus_sign,,,,50,,,1,0.9752066115702479,,,,,,,,,,
null,,color_black,840816,black_plus_sign,,,,null,,,,,,,,,,,,,,
null,,learn_phase(without_color),842820,black_plus_sign,,,,null,GW/snail.jpg,GW/teeth.jpg,,,,,,,,,,,,
null,,black_cross(without_color),843851,green,,,,null,GW/snail.jpg,GW/teeth.jpg,,,,,,,,,,,,
null,,rt_plussign_withcolor,844354,green,,,,null,GW/snail.jpg,GW/teeth.jpg,,,,,,,,,,,,
679.5999999642372,,rt_thecrossant_black,845329,black_plus_sign,,,,50,,,1,0.9754098360655737,,,,,,,,,,
null,,color_black,845431,black_plus_sign,,,,null,,,,,,,,,,,,,,
null,,learn_phase(without_color),847434,black_plus_sign,,,,null,GW/snail.jpg,GW/jukebox.jpg,,,,,,,,,,,,
null,,black_cross(without_color),848074,blue,,,,null,GW/snail.jpg,GW/jukebox.jpg,,,,,,,,,,,,
null,,rt_plussign_withcolor,848582,blue,,,,null,GW/snail.jpg,GW/jukebox.jpg,,,,,,,,,,,,
1608.1000000238419,,rt_thecrossant_black,849950,black_plus_sign,,,,49,,,1,0.975609756097561,,,,,,,,,,
null,,color_black,850054,black_plus_sign,,,,null,,,,,,,,,,,,,,
null,,learn_phase(without_color),852061,black_plus_sign,,,,null,GW/snail.jpg,GW/jukebox.jpg,,,,,,,,,,,,
null,,black_cross(without_color),852665,blue,,,,null,GW/snail.jpg,GW/jukebox.jpg,,,,,,,,,,,,
null,,rt_plussign_withcolor,853168,blue,,,,null,GW/snail.jpg,GW/jukebox.jpg,,,,,,,,,,,,
835.1999999880791,,rt_thecrossant_black,854573,black_plus_sign,,,,49,,,1,0.9758064516129032,,,,,,,,,,
null,,color_black,854677,black_plus_sign,,,,null,,,,,,,,,,,,,,
null,,learn_phase(without_color),856683,black_plus_sign,,,,null,GW/hat.jpg,GW/gong.jpg,,,,,,,,,,,,
null,,black_cross(without_color),857367,blue,,,,null,GW/hat.jpg,GW/gong.jpg,,,,,,,,,,,,
null,,rt_plussign_withcolor,857871,blue,,,,null,GW/hat.jpg,GW/gong.jpg,,,,,,,,,,,,
866.5,,rt_thecrossant_black,859194,black_plus_sign,,,,49,,,1,0.976,,,,,,,,,,
null,,color_black,859297,black_plus_sign,,,,null,,,,,,,,,,,,,,
29132.69999998808,,intro_1,888432,instruct,,0,Start,,,,,,,,,,,,,,,
6422.399999976158,,directmemory_phase,894858,GW/wheelchair.jpg,,,,49,,,0,0,GW/barrel.jpg,GW/teeth.jpg,GW/hat.jpg,GW/hat.jpg,GW/teeth.jpg,GW/barrel.jpg,0.5,closer,,
null,,html-keyboard-response,895863,<p></p>,,,,null,,,,,,,,,,,,,,
1872.8999999761581,,directmemory_phase,897740,GW/snail.jpg,,,,49,,,1,0.5,GW/jukebox.jpg,GW/soldier.jpg,GW/camera.jpg,GW/jukebox.jpg,GW/camera.jpg,GW/soldier.jpg,1,,,
null,,html-keyboard-response,898746,<p></p>,,,,null,,,,,,,,,,,,,,
3845.899999976158,,directmemory_phase,902595,GW/hat.jpg,,,,50,,,1,0.6666666666666666,GW/jukebox.jpg,GW/gong.jpg,GW/dustpan.jpg,GW/gong.jpg,GW/jukebox.jpg,GW/dustpan.jpg,1,,,
null,,html-keyboard-response,903598,<p></p>,,,,null,,,,,,,,,,,,,,
2459.100000023842,,directmemory_phase,906061,GW/barrel.jpg,,,,49,,,0,0.5,GW/wheelchair.jpg,GW/dustpan.jpg,GW/camera.jpg,GW/camera.jpg,GW/dustpan.jpg,GW/wheelchair.jpg,0.5,closer,,
null,,html-keyboard-response,907067,<p></p>,,,,null,,,,,,,,,,,,,,
4199.699999988079,,directmemory_phase,911269,GW/jukebox.jpg,,,,50,,,0,0.4,GW/basket.jpg,GW/barrel.jpg,GW/gong.jpg,GW/gong.jpg,GW/barrel.jpg,GW/basket.jpg,0.5,closer,,
null,,html-keyboard-response,912275,<p></p>,,,,null,,,,,,,,,,,,,,
3428.199999988079,,directmemory_phase,915707,GW/hat.jpg,,,,51,,,1,0.5,GW/globe.jpg,GW/jukebox.jpg,GW/paint.jpg,GW/paint.jpg,GW/jukebox.jpg,GW/globe.jpg,1,,,
null,,html-keyboard-response,916713,<p></p>,,,,null,,,,,,,,,,,,,,
3913.400000035763,,directmemory_phase,920629,GW/camera.jpg,,,,51,,,1,0.5714285714285714,GW/dustpan.jpg,GW/globe.jpg,GW/barrel.jpg,GW/barrel.jpg,GW/globe.jpg,GW/dustpan.jpg,1,,,
null,,html-keyboard-response,921633,<p></p>,,,,null,,,,,,,,,,,,,,
2849.199999988079,,directmemory_phase,924484,GW/paint.jpg,,,,51,,,1,0.625,GW/jukebox.jpg,GW/gong.jpg,GW/hat.jpg,GW/hat.jpg,GW/gong.jpg,GW/jukebox.jpg,1,,,
null,,html-keyboard-response,925490,<p></p>,,,,null,,,,,,,,,,,,,,
3013.699999988079,,directmemory_phase,928507,GW/wheelchair.jpg,,,,50,,,1,0.6666666666666666,GW/paint.jpg,GW/soldier.jpg,GW/globe.jpg,GW/soldier.jpg,GW/paint.jpg,GW/globe.jpg,1,,,
null,,html-keyboard-response,929510,<p></p>,,,,null,,,,,,,,,,,,,,
3594.600000023842,,directmemory_phase,933108,GW/gong.jpg,,,,51,,,1,0.7,GW/globe.jpg,GW/paint.jpg,GW/jukebox.jpg,GW/jukebox.jpg,GW/paint.jpg,GW/globe.jpg,1,,,
null,,html-keyboard-response,934115,<p></p>,,,,null,,,,,,,,,,,,,,
2814.599999964237,,directmemory_phase,936933,GW/basket.jpg,,,,51,,,1,0.7272727272727273,GW/snail.jpg,GW/dustpan.jpg,GW/globe.jpg,GW/globe.jpg,GW/dustpan.jpg,GW/snail.jpg,1,,,
null,,html-keyboard-response,937939,<p></p>,,,,null,,,,,,,,,,,,,,
4302.100000023842,,directmemory_phase,942243,GW/gong.jpg,,,,50,,,0,0.6666666666666666,GW/wheelchair.jpg,GW/globe.jpg,GW/paint.jpg,GW/wheelchair.jpg,GW/paint.jpg,GW/globe.jpg,0.5,closer,,
null,,html-keyboard-response,943247,<p></p>,,,,null,,,,,,,,,,,,,,
3873.800000011921,,directmemory_phase,947125,GW/dustpan.jpg,,,,51,,,1,0.6923076923076923,GW/hat.jpg,GW/basket.jpg,GW/teeth.jpg,GW/teeth.jpg,GW/basket.jpg,GW/hat.jpg,1,,,
null,,html-keyboard-response,948130,<p></p>,,,,null,,,,,,,,,,,,,,
3198.899999976158,,directmemory_phase,951333,GW/jukebox.jpg,,,,51,,,1,0.7142857142857143,GW/paint.jpg,GW/hat.jpg,GW/wheelchair.jpg,GW/wheelchair.jpg,GW/hat.jpg,GW/paint.jpg,1,,,
null,,html-keyboard-response,952340,<p></p>,,,,null,,,,,,,,,,,,,,
5499.399999976158,,directmemory_phase,957843,GW/globe.jpg,,,,50,,,1,0.7333333333333333,GW/snail.jpg,GW/barrel.jpg,GW/wheelchair.jpg,GW/barrel.jpg,GW/snail.jpg,GW/wheelchair.jpg,1,,,
null,,html-keyboard-response,958847,<p></p>,,,,null,,,,,,,,,,,,,,
3314.800000011921,,directmemory_phase,962165,GW/wheelchair.jpg,,,,51,,,1,0.75,GW/barrel.jpg,GW/teeth.jpg,GW/gong.jpg,GW/gong.jpg,GW/teeth.jpg,GW/barrel.jpg,1,,,
null,,html-keyboard-response,963171,<p></p>,,,,null,,,,,,,,,,,,,,
4910.900000035763,,directmemory_phase,968086,GW/dustpan.jpg,,,,49,,,1,0.7647058823529411,GW/globe.jpg,GW/wheelchair.jpg,GW/basket.jpg,GW/globe.jpg,GW/basket.jpg,GW/wheelchair.jpg,1,,,
null,,html-keyboard-response,969092,<p></p>,,,,null,,,,,,,,,,,,,,
3164.900000035763,,directmemory_phase,972260,GW/gong.jpg,,,,51,,,0,0.7222222222222222,GW/paint.jpg,GW/hat.jpg,GW/globe.jpg,GW/hat.jpg,GW/paint.jpg,GW/globe.jpg,0.5,closer,,
null,,html-keyboard-response,973266,<p></p>,,,,null,,,,,,,,,,,,,,
4405.699999988079,,directmemory_phase,977674,GW/barrel.jpg,,,,50,,,0,0.6842105263157895,GW/globe.jpg,GW/wheelchair.jpg,GW/dustpan.jpg,GW/globe.jpg,GW/dustpan.jpg,GW/wheelchair.jpg,0.5,closer,,
null,,html-keyboard-response,978677,<p></p>,,,,null,,,,,,,,,,,,,,
3037.800000011921,,directmemory_phase,981717,GW/soldier.jpg,,,,49,,,1,0.7,GW/wheelchair.jpg,GW/barrel.jpg,GW/gong.jpg,GW/wheelchair.jpg,GW/gong.jpg,GW/barrel.jpg,1,,,
null,,html-keyboard-response,982722,<p></p>,,,,null,,,,,,,,,,,,,,
3948.900000035763,,directmemory_phase,986674,GW/snail.jpg,,,,49,,,1,0.7142857142857143,GW/barrel.jpg,GW/soldier.jpg,GW/dustpan.jpg,GW/barrel.jpg,GW/dustpan.jpg,GW/soldier.jpg,1,,,
null,,html-keyboard-response,987678,<p></p>,,,,null,,,,,,,,,,,,,,
4026,,directmemory_phase,991708,GW/globe.jpg,,,,50,,,1,0.7272727272727273,GW/teeth.jpg,GW/basket.jpg,GW/gong.jpg,GW/basket.jpg,GW/teeth.jpg,GW/gong.jpg,1,,,
null,,html-keyboard-response,992712,<p></p>,,,,null,,,,,,,,,,,,,,
5010.900000035763,,directmemory_phase,997726,GW/jukebox.jpg,,,,51,,,0,0.6956521739130435,GW/snail.jpg,GW/basket.jpg,GW/soldier.jpg,GW/snail.jpg,GW/soldier.jpg,GW/basket.jpg,0.5,closer,,
null,,html-keyboard-response,998734,<p></p>,,,,null,,,,,,,,,,,,,,
4090.600000023842,,directmemory_phase,1002828,GW/hat.jpg,,,,51,,,0,0.6666666666666666,GW/wheelchair.jpg,GW/globe.jpg,GW/soldier.jpg,GW/wheelchair.jpg,GW/soldier.jpg,GW/globe.jpg,0.5,closer,,
null,,html-keyboard-response,1003833,<p></p>,,,,null,,,,,,,,,,,,,,
3370.699999988079,,directmemory_phase,1007206,GW/teeth.jpg,,,,49,,,1,0.68,GW/snail.jpg,GW/camera.jpg,GW/jukebox.jpg,GW/snail.jpg,GW/jukebox.jpg,GW/camera.jpg,1,,,
null,,html-keyboard-response,1008212,<p></p>,,,,null,,,,,,,,,,,,,,
4479.399999976158,,directmemory_phase,1012694,GW/globe.jpg,,,,49,,,0,0.6538461538461539,GW/jukebox.jpg,GW/snail.jpg,GW/dustpan.jpg,GW/dustpan.jpg,GW/snail.jpg,GW/jukebox.jpg,0.5,closer,,
null,,html-keyboard-response,1013701,<p></p>,,,,null,,,,,,,,,,,,,,
2853.199999988079,,directmemory_phase,1016557,GW/wheelchair.jpg,,,,50,,,0,0.6296296296296297,GW/dustpan.jpg,GW/teeth.jpg,GW/jukebox.jpg,GW/jukebox.jpg,GW/teeth.jpg,GW/dustpan.jpg,0.5,closer,,
null,,html-keyboard-response,1017561,<p></p>,,,,null,,,,,,,,,,,,,,
2681.599999964237,,directmemory_phase,1020246,GW/teeth.jpg,,,,50,,,0,0.6071428571428571,GW/paint.jpg,GW/wheelchair.jpg,GW/dustpan.jpg,GW/dustpan.jpg,GW/wheelchair.jpg,GW/paint.jpg,0.5,closer,,
null,,html-keyboard-response,1021251,<p></p>,,,,null,,,,,,,,,,,,,,
3716.400000035763,,directmemory_phase,1024971,GW/barrel.jpg,,,,51,,,1,0.6206896551724138,GW/hat.jpg,GW/jukebox.jpg,GW/snail.jpg,GW/snail.jpg,GW/jukebox.jpg,GW/hat.jpg,1,,,
null,,html-keyboard-response,1025976,<p></p>,,,,null,,,,,,,,,,,,,,
3497.400000035763,,directmemory_phase,1029477,GW/gong.jpg,,,,50,,,0,0.6,GW/teeth.jpg,GW/globe.jpg,GW/paint.jpg,GW/teeth.jpg,GW/paint.jpg,GW/globe.jpg,0.5,closer,,
null,,html-keyboard-response,1030484,<p></p>,,,,null,,,,,,,,,,,,,,
null,,directmemory_phase,1036990,,,,,null,,,0,0.5806451612903226,,,,,,,0,,,
null,,html-keyboard-response,1037996,<p></p>,,,,null,,,,,,,,,,,,,,
null,,directmemory_phase,1044498,,,,,null,,,0,0.5625,,,,,,,0,,,
null,,html-keyboard-response,1045504,<p></p>,,,,null,,,,,,,,,,,,,,
21718.19999998808,,intro_1,1067227,instruct,,0,,,,,,,,,,,,,,,,
10881,,intro_2,1078116,instruct,,1,Next,,,,,,,,,,,,,,,
12339.699999988079,,intro_3,1090460,instruct,,1,Next,,,,,,,,,,,,,,,
13183.800000011921,,intro_4,1103648,instruct,,1,Next,,,,,,,,,,,,,,,
16081.099999964237,,intro_5,1119734,instruct,,1,Next,,,,,,,,,,,,,,,
27468,,intro_6,1147209,instruct,,1,Next,,,,,,,,,,,,,,,
20528.099999964237,,intro_7,1167743,instruct,,1,Next,,,,,,,,,,,,,,,
17205.299999952316,,intro_8,1184952,instruct,,1,Next,,,,,,,,,,,,,,,
5224.800000011921,,shortestpath_phase,1190181,GW/barrel.jpg,,,,49,GW/gong.jpg,GW/soldier.jpg,1,1,,,,GW/gong.jpg,,,,,One Edge Diff,Three Edge Four Edge
null,,html-keyboard-response,1191185,<p></p>,,,,null,,,,,,,,,,,,,,
4312.099999964237,,shortestpath_phase,1195499,GW/soldier.jpg,,,,49,GW/basket.jpg,GW/hat.jpg,0,0.5,,,,GW/hat.jpg,,,,,Four Edge Diff,Two Edge Six Edge
null,,html-keyboard-response,1196517,<p></p>,,,,null,,,,,,,,,,,,,,
3932.300000011921,,shortestpath_phase,1200454,GW/paint.jpg,,,,49,GW/snail.jpg,GW/basket.jpg,1,0.6666666666666666,,,,GW/snail.jpg,,,,,Two Edge Diff,Four Edge Six Edge
null,,html-keyboard-response,1201460,<p></p>,,,,null,,,,,,,,,,,,,,
2773.5,,shortestpath_phase,1204235,GW/soldier.jpg,,,,50,GW/camera.jpg,GW/teeth.jpg,1,0.75,,,,GW/teeth.jpg,,,,,Two Edge Diff,Three Edge Five Edge
null,,html-keyboard-response,1205240,<p></p>,,,,null,,,,,,,,,,,,,,
2609.600000023842,,shortestpath_phase,1207854,GW/paint.jpg,,,,49,GW/wheelchair.jpg,GW/barrel.jpg,1,0.8,,,,GW/wheelchair.jpg,,,,,Three Edge Diff,Three Edge Six Edge
null,,html-keyboard-response,1208859,<p></p>,,,,null,,,,,,,,,,,,,,
2485.899999976158,,shortestpath_phase,1211346,GW/basket.jpg,,,,49,GW/paint.jpg,GW/gong.jpg,0,0.6666666666666666,,,,GW/gong.jpg,,,,,Two Edge Diff,Four Edge Six Edge
null,,html-keyboard-response,1212349,<p></p>,,,,null,,,,,,,,,,,,,,
2631.7999999523163,,shortestpath_phase,1214984,GW/soldier.jpg,,,,50,GW/basket.jpg,GW/camera.jpg,1,0.7142857142857143,,,,GW/camera.jpg,,,,,One Edge Diff,Five Edge Six Edge
null,,html-keyboard-response,1215988,<p></p>,,,,null,,,,,,,,,,,,,,
5340.100000023842,,shortestpath_phase,1221331,GW/hat.jpg,,,,49,GW/camera.jpg,GW/barrel.jpg,0,0.625,,,,GW/barrel.jpg,,,,,One Edge Diff,Four Edge Five Edge
null,,html-keyboard-response,1222334,<p></p>,,,,null,,,,,,,,,,,,,,
4107.800000011921,,shortestpath_phase,1226446,GW/camera.jpg,,,,50,GW/gong.jpg,GW/dustpan.jpg,1,0.6666666666666666,,,,GW/dustpan.jpg,,,,,One Edge Diff,Three Edge Four Edge
null,,html-keyboard-response,1227452,<p></p>,,,,null,,,,,,,,,,,,,,
2917.2000000476837,,shortestpath_phase,1230373,GW/teeth.jpg,,,,49,GW/wheelchair.jpg,GW/paint.jpg,1,0.7,,,,GW/wheelchair.jpg,,,,,One Edge Diff,Two Edge Three Edge
null,,html-keyboard-response,1231379,<p></p>,,,,null,,,,,,,,,,,,,,
3663.300000011921,,shortestpath_phase,1235046,GW/soldier.jpg,,,,49,GW/basket.jpg,GW/jukebox.jpg,0,0.6363636363636364,,,,GW/jukebox.jpg,,,,,Four Edge Diff,Two Edge Six Edge
null,,html-keyboard-response,1236051,<p></p>,,,,null,,,,,,,,,,,,,,
4608.5,,shortestpath_phase,1240662,GW/camera.jpg,,,,50,GW/wheelchair.jpg,GW/soldier.jpg,0,0.5833333333333334,,,,GW/wheelchair.jpg,,,,,One Edge Diff,Four Edge Five Edge
null,,html-keyboard-response,1241667,<p></p>,,,,null,,,,,,,,,,,,,,
4694.5,,shortestpath_phase,1246365,GW/basket.jpg,,,,49,GW/snail.jpg,GW/hat.jpg,1,0.6153846153846154,,,,GW/snail.jpg,,,,,Two Edge Diff,Three Edge Five Edge
null,,html-keyboard-response,1247371,<p></p>,,,,null,,,,,,,,,,,,,,
4023.5,,shortestpath_phase,1251398,GW/hat.jpg,,,,50,GW/soldier.jpg,GW/basket.jpg,0,0.5714285714285714,,,,GW/soldier.jpg,,,,,Three Edge Diff,Two Edge Five Edge
null,,html-keyboard-response,1252404,<p></p>,,,,null,,,,,,,,,,,,,,
2805.300000011921,,shortestpath_phase,1255214,GW/basket.jpg,,,,49,GW/wheelchair.jpg,GW/camera.jpg,0,0.5333333333333333,,,,GW/camera.jpg,,,,,Two Edge Diff,Three Edge Five Edge
null,,html-keyboard-response,1256219,<p></p>,,,,null,,,,,,,,,,,,,,
2732,,shortestpath_phase,1258954,GW/hat.jpg,,,,49,GW/barrel.jpg,GW/basket.jpg,1,0.5625,,,,GW/barrel.jpg,,,,,One Edge Diff,Four Edge Five Edge
null,,html-keyboard-response,1259958,<p></p>,,,,null,,,,,,,,,,,,,,
3670,,shortestpath_phase,1263631,GW/camera.jpg,,,,49,GW/globe.jpg,GW/gong.jpg,1,0.5882352941176471,,,,GW/globe.jpg,,,,,Two Edge Diff,Two Edge Four Edge
null,,html-keyboard-response,1264636,<p></p>,,,,null,,,,,,,,,,,,,,
3726.5,,shortestpath_phase,1268365,GW/teeth.jpg,,,,49,GW/hat.jpg,GW/camera.jpg,1,0.6111111111111112,,,,GW/hat.jpg,,,,,One Edge Diff,Two Edge Three Edge
null,,html-keyboard-response,1269372,<p></p>,,,,null,,,,,,,,,,,,,,
2445.100000023842,,shortestpath_phase,1271820,GW/paint.jpg,,,,50,GW/camera.jpg,GW/wheelchair.jpg,1,0.631578947368421,,,,GW/wheelchair.jpg,,,,,Four Edge Diff,Two Edge Six Edge
null,,html-keyboard-response,1272825,<p></p>,,,,null,,,,,,,,,,,,,,
3954.2000000476837,,shortestpath_phase,1276782,GW/camera.jpg,,,,49,GW/paint.jpg,GW/gong.jpg,0,0.6,,,,GW/gong.jpg,,,,,Two Edge Diff,Four Edge Six Edge
null,,html-keyboard-response,1277787,<p></p>,,,,null,,,,,,,,,,,,,,
2743.300000011921,,shortestpath_phase,1280533,GW/jukebox.jpg,,,,49,GW/basket.jpg,GW/hat.jpg,0,0.5714285714285714,,,,GW/hat.jpg,,,,,Two Edge Diff,Two Edge Four Edge
null,,html-keyboard-response,1281538,<p></p>,,,,null,,,,,,,,,,,,,,
3030.900000035763,,shortestpath_phase,1284573,GW/paint.jpg,,,,50,GW/gong.jpg,GW/basket.jpg,0,0.5454545454545454,,,,GW/gong.jpg,,,,,Four Edge Diff,Two Edge Six Edge
null,,html-keyboard-response,1285578,<p></p>,,,,null,,,,,,,,,,,,,,
3928.900000035763,,shortestpath_phase,1289510,GW/soldier.jpg,,,,50,GW/globe.jpg,GW/hat.jpg,1,0.5652173913043478,,,,GW/hat.jpg,,,,,Three Edge Diff,Two Edge Five Edge
null,,html-keyboard-response,1290515,<p></p>,,,,null,,,,,,,,,,,,,,
4589.800000011921,,shortestpath_phase,1295107,GW/paint.jpg,,,,49,GW/camera.jpg,GW/snail.jpg,0,0.5416666666666666,,,,GW/snail.jpg,,,,,Two Edge Diff,Four Edge Six Edge
null,,html-keyboard-response,1296112,<p></p>,,,,null,,,,,,,,,,,,,,
4291.100000023842,,shortestpath_phase,1300407,GW/gong.jpg,,,,49,GW/soldier.jpg,GW/basket.jpg,1,0.56,,,,GW/soldier.jpg,,,,,Two Edge Diff,Two Edge Four Edge
null,,html-keyboard-response,1301412,<p></p>,,,,null,,,,,,,,,,,,,,
3917.699999988079,,shortestpath_phase,1305333,GW/camera.jpg,,,,50,GW/paint.jpg,GW/hat.jpg,1,0.5769230769230769,,,,GW/hat.jpg,,,,,One Edge Diff,Five Edge Six Edge
null,,html-keyboard-response,1306343,<p></p>,,,,null,,,,,,,,,,,,,,
3815.5,,shortestpath_phase,1310162,GW/paint.jpg,,,,50,GW/camera.jpg,GW/dustpan.jpg,1,0.5925925925925926,,,,GW/dustpan.jpg,,,,,Two Edge Diff,Four Edge Six Edge
null,,html-keyboard-response,1311166,<p></p>,,,,null,,,,,,,,,,,,,,
2801.5,,shortestpath_phase,1313971,GW/globe.jpg,,,,49,GW/soldier.jpg,GW/hat.jpg,0,0.5714285714285714,,,,GW/hat.jpg,,,,,One Edge Diff,Four Edge Five Edge
null,,html-keyboard-response,1314973,<p></p>,,,,null,,,,,,,,,,,,,,
2373.400000035763,,shortestpath_phase,1317349,GW/paint.jpg,,,,50,GW/basket.jpg,GW/barrel.jpg,1,0.5862068965517241,,,,GW/barrel.jpg,,,,,One Edge Diff,Five Edge Six Edge
null,,html-keyboard-response,1318355,<p></p>,,,,null,,,,,,,,,,,,,,
2647.600000023842,,shortestpath_phase,1321005,GW/soldier.jpg,,,,49,GW/gong.jpg,GW/globe.jpg,1,0.6,,,,GW/gong.jpg,,,,,Three Edge Diff,Two Edge Five Edge
null,,html-keyboard-response,1322012,<p></p>,,,,null,,,,,,,,,,,,,,
2667.899999976158,,shortestpath_phase,1324683,GW/basket.jpg,,,,49,GW/dustpan.jpg,GW/soldier.jpg,1,0.6129032258064516,,,,GW/dustpan.jpg,,,,,Four Edge Diff,Two Edge Six Edge
null,,html-keyboard-response,1325688,<p></p>,,,,null,,,,,,,,,,,,,,
2495.300000011921,,shortestpath_phase,1328187,GW/jukebox.jpg,,,,49,GW/basket.jpg,GW/camera.jpg,0,0.59375,,,,GW/camera.jpg,,,,,One Edge Diff,Three Edge Four Edge
null,,html-keyboard-response,1329190,<p></p>,,,,null,,,,,,,,,,,,,,
2188.2000000476837,,shortestpath_phase,1331381,GW/basket.jpg,,,,50,GW/hat.jpg,GW/paint.jpg,0,0.5757575757575758,,,,GW/hat.jpg,,,,,One Edge Diff,Five Edge Six Edge
null,,html-keyboard-response,1332387,<p></p>,,,,null,,,,,,,,,,,,,,
2998.400000035763,,shortestpath_phase,1335389,GW/soldier.jpg,,,,50,GW/camera.jpg,GW/jukebox.jpg,1,0.5882352941176471,,,,GW/jukebox.jpg,,,,,Three Edge Diff,Two Edge Five Edge
null,,html-keyboard-response,1336395,<p></p>,,,,null,,,,,,,,,,,,,,
3309.699999988079,,shortestpath_phase,1339710,GW/barrel.jpg,,,,49,GW/paint.jpg,GW/teeth.jpg,0,0.5714285714285714,,,,GW/teeth.jpg,,,,,Three Edge Diff,Two Edge Five Edge
null,,html-keyboard-response,1340716,<p></p>,,,,null,,,,,,,,,,,,,,
2869.600000023842,,shortestpath_phase,1343590,GW/paint.jpg,,,,49,GW/globe.jpg,GW/jukebox.jpg,0,0.5555555555555556,,,,GW/jukebox.jpg,,,,,Two Edge Diff,Three Edge Five Edge
null,,html-keyboard-response,1344596,<p></p>,,,,null,,,,,,,,,,,,,,
2949.900000035763,,shortestpath_phase,1347550,GW/soldier.jpg,,,,49,GW/gong.jpg,GW/basket.jpg,1,0.5675675675675675,,,,GW/gong.jpg,,,,,Four Edge Diff,Two Edge Six Edge
null,,html-keyboard-response,1348557,<p></p>,,,,null,,,,,,,,,,,,,,
2348.100000023842,,shortestpath_phase,1350909,GW/wheelchair.jpg,,,,50,GW/snail.jpg,GW/basket.jpg,0,0.5526315789473685,,,,GW/snail.jpg,,,,,Three Edge Diff,Three Edge Six Edge
null,,html-keyboard-response,1351915,<p></p>,,,,null,,,,,,,,,,,,,,
2549.600000023842,,shortestpath_phase,1354466,GW/camera.jpg,,,,50,GW/wheelchair.jpg,GW/globe.jpg,1,0.5641025641025641,,,,GW/globe.jpg,,,,,Two Edge Diff,Two Edge Four Edge
null,,html-keyboard-response,1355469,<p></p>,,,,null,,,,,,,,,,,,,,
2809.300000011921,,shortestpath_phase,1358283,GW/basket.jpg,,,,50,GW/hat.jpg,GW/jukebox.jpg,1,0.575,,,,GW/jukebox.jpg,,,,,One Edge Diff,Four Edge Five Edge
null,,html-keyboard-response,1359290,<p></p>,,,,null,,,,,,,,,,,,,,
1656.6000000238419,,shortestpath_phase,1360950,GW/barrel.jpg,,,,50,GW/teeth.jpg,GW/soldier.jpg,0,0.5609756097560976,,,,GW/teeth.jpg,,,,,Two Edge Diff,Two Edge Four Edge
null,,html-keyboard-response,1361972,<p></p>,,,,null,,,,,,,,,,,,,,
690.8000000119209,,shortestpath_phase,1362667,GW/basket.jpg,,,,50,GW/soldier.jpg,GW/jukebox.jpg,1,0.5714285714285714,,,,GW/jukebox.jpg,,,,,Two Edge Diff,Four Edge Six Edge
null,,html-keyboard-response,1363671,<p></p>,,,,null,,,,,,,,,,,,,,
2354.199999988079,,shortestpath_phase,1366029,GW/snail.jpg,,,,50,GW/gong.jpg,GW/basket.jpg,0,0.5581395348837209,,,,GW/gong.jpg,,,,,One Edge Diff,Two Edge Three Edge
null,,html-keyboard-response,1367035,<p></p>,,,,null,,,,,,,,,,,,,,
2576,,shortestpath_phase,1369614,GW/paint.jpg,,,,49,GW/barrel.jpg,GW/jukebox.jpg,0,0.5454545454545454,,,,GW/jukebox.jpg,,,,,Two Edge Diff,Three Edge Five Edge
null,,html-keyboard-response,1370622,<p></p>,,,,null,,,,,,,,,,,,,,
1962.800000011921,,shortestpath_phase,1372589,GW/camera.jpg,,,,49,GW/basket.jpg,GW/hat.jpg,1,0.5555555555555556,,,,GW/basket.jpg,,,,,Two Edge Diff,Three Edge Five Edge
null,,html-keyboard-response,1373596,<p></p>,,,,null,,,,,,,,,,,,,,
2677.300000011921,,shortestpath_phase,1376278,GW/soldier.jpg,,,,50,GW/gong.jpg,GW/globe.jpg,0,0.5434782608695652,,,,GW/gong.jpg,,,,,Three Edge Diff,Three Edge Six Edge
null,,html-keyboard-response,1377283,<p></p>,,,,null,,,,,,,,,,,,,,
1320.199999988079,,shortestpath_phase,1378606,GW/globe.jpg,,,,49,GW/soldier.jpg,GW/camera.jpg,0,0.5319148936170213,,,,GW/camera.jpg,,,,,Three Edge Diff,Two Edge Five Edge
null,,html-keyboard-response,1379614,<p></p>,,,,null,,,,,,,,,,,,,,
2427,,shortestpath_phase,1382045,GW/soldier.jpg,,,,49,GW/basket.jpg,GW/dustpan.jpg,0,0.5208333333333334,,,,GW/dustpan.jpg,,,,,Two Edge Diff,Four Edge Six Edge
null,,html-keyboard-response,1383051,<p></p>,,,,null,,,,,,,,,,,,,,
3685,,shortestpath_phase,1386741,GW/paint.jpg,,,,50,GW/camera.jpg,GW/gong.jpg,1,0.5306122448979592,,,,GW/gong.jpg,,,,,Four Edge Diff,Two Edge Six Edge
null,,html-keyboard-response,1387748,<p></p>,,,,null,,,,,,,,,,,,,,
2053.399999976158,,shortestpath_phase,1389806,GW/soldier.jpg,,,,49,GW/barrel.jpg,GW/camera.jpg,1,0.54,,,,GW/barrel.jpg,,,,,One Edge Diff,Four Edge Five Edge
null,,html-keyboard-response,1390813,<p></p>,,,,null,,,,,,,,,,,,,,
3100.800000011921,,shortestpath_phase,1393918,GW/hat.jpg,,,,49,GW/dustpan.jpg,GW/globe.jpg,1,0.5490196078431373,,,,GW/dustpan.jpg,,,,,One Edge Diff,Three Edge Four Edge
null,,html-keyboard-response,1394932,<p></p>,,,,null,,,,,,,,,,,,,,
3948.699999988079,,shortestpath_phase,1398882,GW/globe.jpg,,,,50,GW/camera.jpg,GW/paint.jpg,0,0.5384615384615384,,,,GW/camera.jpg,,,,,Three Edge Diff,Three Edge Six Edge
null,,html-keyboard-response,1399885,<p></p>,,,,null,,,,,,,,,,,,,,
2198,,shortestpath_phase,1402086,GW/soldier.jpg,,,,49,GW/globe.jpg,GW/snail.jpg,0,0.5283018867924528,,,,GW/snail.jpg,,,,,Two Edge Diff,Three Edge Five Edge
null,,html-keyboard-response,1403093,<p></p>,,,,null,,,,,,,,,,,,,,
3116.599999964237,,shortestpath_phase,1406213,GW/jukebox.jpg,,,,50,GW/hat.jpg,GW/dustpan.jpg,0,0.5185185185185185,,,,GW/hat.jpg,,,,,One Edge Diff,Two Edge Three Edge
null,,html-keyboard-response,1407219,<p></p>,,,,null,,,,,,,,,,,,,,
4199.100000023842,,shortestpath_phase,1411421,GW/basket.jpg,,,,50,GW/dustpan.jpg,GW/paint.jpg,0,0.509090909090909,,,,GW/dustpan.jpg,,,,,Four Edge Diff,Two Edge Six Edge
null,,html-keyboard-response,1412427,<p></p>,,,,null,,,,,,,,,,,,,,
1966.300000011921,,shortestpath_phase,1414395,GW/barrel.jpg,,,,49,GW/hat.jpg,GW/wheelchair.jpg,0,0.5,,,,GW/wheelchair.jpg,,,,,One Edge Diff,Three Edge Four Edge
null,,html-keyboard-response,1415398,<p></p>,,,,null,,,,,,,,,,,,,,
2715.599999964237,,shortestpath_phase,1418115,GW/gong.jpg,,,,49,GW/globe.jpg,GW/basket.jpg,1,0.5087719298245614,,,,GW/globe.jpg,,,,,One Edge Diff,Three Edge Four Edge
null,,html-keyboard-response,1419119,<p></p>,,,,null,,,,,,,,,,,,,,
2395.800000011921,,shortestpath_phase,1421517,GW/basket.jpg,,,,49,GW/dustpan.jpg,GW/hat.jpg,1,0.5172413793103449,,,,GW/dustpan.jpg,,,,,Three Edge Diff,Two Edge Five Edge
null,,html-keyboard-response,1422523,<p></p>,,,,null,,,,,,,,,,,,,,
2912.400000035763,,shortestpath_phase,1425437,GW/globe.jpg,,,,49,GW/wheelchair.jpg,GW/paint.jpg,1,0.5254237288135594,,,,GW/wheelchair.jpg,,,,,One Edge Diff,Four Edge Five Edge
null,,html-keyboard-response,1426441,<p></p>,,,,null,,,,,,,,,,,,,,
2230.400000035763,,shortestpath_phase,1428675,GW/hat.jpg,,,,50,GW/jukebox.jpg,GW/basket.jpg,0,0.5166666666666667,,,,GW/jukebox.jpg,,,,,Three Edge Diff,Three Edge Six Edge
null,,html-keyboard-response,1429680,<p></p>,,,,null,,,,,,,,,,,,,,
2840.899999976158,,shortestpath_phase,1432525,GW/basket.jpg,,,,50,GW/wheelchair.jpg,GW/soldier.jpg,0,0.5081967213114754,,,,GW/wheelchair.jpg,,,,,One Edge Diff,Five Edge Six Edge
null,,html-keyboard-response,1433530,<p></p>,,,,null,,,,,,,,,,,,,,
1631.699999988079,,shortestpath_phase,1435164,GW/barrel.jpg,,,,49,GW/paint.jpg,GW/dustpan.jpg,0,0.5,,,,GW/dustpan.jpg,,,,,Three Edge Diff,Three Edge Six Edge
null,,html-keyboard-response,1436170,<p></p>,,,,null,,,,,,,,,,,,,,
2048.7000000476837,,shortestpath_phase,1438221,GW/camera.jpg,,,,49,GW/globe.jpg,GW/hat.jpg,1,0.5079365079365079,,,,GW/globe.jpg,,,,,Three Edge Diff,Three Edge Six Edge
null,,html-keyboard-response,1439227,<p></p>,,,,null,,,,,,,,,,,,,,
2959.400000035763,,shortestpath_phase,1442191,GW/basket.jpg,,,,49,GW/barrel.jpg,GW/paint.jpg,1,0.515625,,,,GW/barrel.jpg,,,,,Four Edge Diff,Two Edge Six Edge
null,,html-keyboard-response,1443199,<p></p>,,,,null,,,,,,,,,,,,,,
2408,,shortestpath_phase,1445610,GW/camera.jpg,,,,49,GW/soldier.jpg,GW/paint.jpg,1,0.5230769230769231,,,,GW/soldier.jpg,,,,,One Edge Diff,Five Edge Six Edge
null,,html-keyboard-response,1446615,<p></p>,,,,null,,,,,,,,,,,,,,
2228.099999964237,,shortestpath_phase,1448846,GW/barrel.jpg,,,,49,GW/basket.jpg,GW/paint.jpg,1,0.5303030303030303,,,,GW/basket.jpg,,,,,Three Edge Diff,Two Edge Five Edge
null,,html-keyboard-response,1449862,<p></p>,,,,null,,,,,,,,,,,,,,
2791.900000035763,,shortestpath_phase,1452663,GW/soldier.jpg,,,,50,GW/globe.jpg,GW/basket.jpg,0,0.5223880597014925,,,,GW/globe.jpg,,,,,One Edge Diff,Five Edge Six Edge
null,,html-keyboard-response,1453671,<p></p>,,,,null,,,,,,,,,,,,,,
1929.800000011921,,shortestpath_phase,1455605,GW/paint.jpg,,,,50,GW/wheelchair.jpg,GW/globe.jpg,0,0.5147058823529411,,,,GW/wheelchair.jpg,,,,,Three Edge Diff,Two Edge Five Edge
null,,html-keyboard-response,1456612,<p></p>,,,,null,,,,,,,,,,,,,,
4308.899999976158,,shortestpath_phase,1460925,GW/globe.jpg,,,,49,GW/wheelchair.jpg,GW/snail.jpg,0,0.5072463768115942,,,,GW/snail.jpg,,,,,Two Edge Diff,Two Edge Four Edge
null,,html-keyboard-response,1461932,<p></p>,,,,null,,,,,,,,,,,,,,
3012.600000023842,,shortestpath_phase,1464948,GW/basket.jpg,,,,50,GW/barrel.jpg,GW/wheelchair.jpg,0,0.5,,,,GW/barrel.jpg,,,,,Three Edge Diff,Three Edge Six Edge
null,,html-keyboard-response,1465952,<p></p>,,,,null,,,,,,,,,,,,,,
3152,,shortestpath_phase,1469107,GW/globe.jpg,,,,49,GW/gong.jpg,GW/hat.jpg,1,0.5070422535211268,,,,GW/gong.jpg,,,,,One Edge Diff,Three Edge Four Edge
null,,html-keyboard-response,1470111,<p></p>,,,,null,,,,,,,,,,,,,,
3690.300000011921,,shortestpath_phase,1473806,GW/basket.jpg,,,,50,GW/snail.jpg,GW/wheelchair.jpg,0,0.5,,,,GW/snail.jpg,,,,,Two Edge Diff,Three Edge Five Edge
null,,html-keyboard-response,1474812,<p></p>,,,,null,,,,,,,,,,,,,,
7407.900000035763,,shortestpath_phase,1482222,GW/paint.jpg,,,,49,GW/camera.jpg,GW/globe.jpg,0,0.4931506849315068,,,,GW/globe.jpg,,,,,One Edge Diff,Five Edge Six Edge
null,,html-keyboard-response,1483229,<p></p>,,,,null,,,,,,,,,,,,,,
4451.900000035763,,shortestpath_phase,1487685,GW/hat.jpg,,,,49,GW/barrel.jpg,GW/soldier.jpg,0,0.4864864864864865,,,,GW/soldier.jpg,,,,,Two Edge Diff,Two Edge Four Edge
null,,html-keyboard-response,1488692,<p></p>,,,,null,,,,,,,,,,,,,,
1603.5,,shortestpath_phase,1490299,GW/camera.jpg,,,,49,GW/globe.jpg,GW/paint.jpg,1,0.49333333333333335,,,,GW/globe.jpg,,,,,Four Edge Diff,Two Edge Six Edge
null,,html-keyboard-response,1491304,<p></p>,,,,null,,,,,,,,,,,,,,
3217.2000000476837,,shortestpath_phase,1494525,GW/basket.jpg,,,,49,GW/wheelchair.jpg,GW/dustpan.jpg,0,0.4868421052631579,,,,GW/dustpan.jpg,,,,,Three Edge Diff,Two Edge Five Edge
null,,html-keyboard-response,1495532,<p></p>,,,,null,,,,,,,,,,,,,,
2189.800000011921,,shortestpath_phase,1497726,GW/hat.jpg,,,,50,GW/snail.jpg,GW/teeth.jpg,1,0.4935064935064935,,,,GW/teeth.jpg,,,,,One Edge Diff,Two Edge Three Edge
null,,html-keyboard-response,1498735,<p></p>,,,,null,,,,,,,,,,,,,,
2098.2999999523163,,shortestpath_phase,1500838,GW/paint.jpg,,,,49,GW/gong.jpg,GW/globe.jpg,1,0.5,,,,GW/gong.jpg,,,,,Three Edge Diff,Two Edge Five Edge
null,,html-keyboard-response,1501845,<p></p>,,,,null,,,,,,,,,,,,,,
4006.2000000476837,,shortestpath_phase,1505854,GW/teeth.jpg,,,,50,GW/hat.jpg,GW/soldier.jpg,0,0.4936708860759494,,,,GW/hat.jpg,,,,,One Edge Diff,Two Edge Three Edge
null,,html-keyboard-response,1506863,<p></p>,,,,null,,,,,,,,,,,,,,
1817.300000011921,,shortestpath_phase,1508686,GW/paint.jpg,,,,50,GW/camera.jpg,GW/barrel.jpg,1,0.5,,,,GW/barrel.jpg,,,,,One Edge Diff,Five Edge Six Edge
null,,html-keyboard-response,1509693,<p></p>,,,,null,,,,,,,,,,,,,,
4402.699999988079,,shortestpath_phase,1514099,GW/soldier.jpg,,,,50,GW/camera.jpg,GW/gong.jpg,1,0.5061728395061729,,,,GW/gong.jpg,,,,,Three Edge Diff,Two Edge Five Edge
null,,html-keyboard-response,1515104,<p></p>,,,,null,,,,,,,,,,,,,,
1385.3999999761581,,shortestpath_phase,1516494,GW/dustpan.jpg,,,,50,GW/barrel.jpg,GW/wheelchair.jpg,0,0.5,,,,GW/barrel.jpg,,,,,One Edge Diff,Two Edge Three Edge
null,,html-keyboard-response,1517500,<p></p>,,,,null,,,,,,,,,,,,,,
4811.600000023842,,shortestpath_phase,1522315,GW/paint.jpg,,,,50,GW/globe.jpg,GW/basket.jpg,0,0.4939759036144578,,,,GW/globe.jpg,,,,,One Edge Diff,Five Edge Six Edge
null,,html-keyboard-response,1523318,<p></p>,,,,null,,,,,,,,,,,,,,
5302,,shortestpath_phase,1528623,GW/hat.jpg,,,,50,GW/jukebox.jpg,GW/globe.jpg,0,0.4880952380952381,,,,GW/jukebox.jpg,,,,,Two Edge Diff,Two Edge Four Edge
null,,html-keyboard-response,1529630,<p></p>,,,,null,,,,,,,,,,,,,,
2484.399999976158,,shortestpath_phase,1532118,GW/basket.jpg,,,,50,GW/gong.jpg,GW/hat.jpg,0,0.4823529411764706,,,,GW/gong.jpg,,,,,One Edge Diff,Four Edge Five Edge
null,,html-keyboard-response,1533126,<p></p>,,,,null,,,,,,,,,,,,,,
2826,,shortestpath_phase,1535955,GW/camera.jpg,,,,50,GW/hat.jpg,GW/jukebox.jpg,1,0.4883720930232558,,,,GW/jukebox.jpg,,,,,Two Edge Diff,Three Edge Five Edge
null,,html-keyboard-response,1536959,<p></p>,,,,null,,,,,,,,,,,,,,
2856.599999964237,,shortestpath_phase,1539820,GW/paint.jpg,,,,50,GW/barrel.jpg,GW/gong.jpg,1,0.4942528735632184,,,,GW/gong.jpg,,,,,Three Edge Diff,Three Edge Six Edge
null,,html-keyboard-response,1540824,<p></p>,,,,null,,,,,,,,,,,,,,
2185.2999999523163,,shortestpath_phase,1543014,GW/wheelchair.jpg,,,,50,GW/barrel.jpg,GW/camera.jpg,0,0.48863636363636365,,,,GW/barrel.jpg,,,,,One Edge Diff,Three Edge Four Edge
null,,html-keyboard-response,1544021,<p></p>,,,,null,,,,,,,,,,,,,,
2786.5,,shortestpath_phase,1546811,GW/soldier.jpg,,,,50,GW/camera.jpg,GW/jukebox.jpg,1,0.4943820224719101,,,,GW/jukebox.jpg,,,,,Three Edge Diff,Three Edge Six Edge
null,,html-keyboard-response,1547814,<p></p>,,,,null,,,,,,,,,,,,,,
2485.2000000476837,,shortestpath_phase,1550302,GW/basket.jpg,,,,49,GW/soldier.jpg,GW/hat.jpg,0,0.4888888888888889,,,,GW/hat.jpg,,,,,One Edge Diff,Five Edge Six Edge
null,,html-keyboard-response,1551309,<p></p>,,,,null,,,,,,,,,,,,,,
1924,,shortestpath_phase,1553237,GW/soldier.jpg,,,,50,GW/barrel.jpg,GW/basket.jpg,0,0.4835164835164835,,,,GW/barrel.jpg,,,,,Two Edge Diff,Four Edge Six Edge
null,,html-keyboard-response,1554245,<p></p>,,,,null,,,,,,,,,,,,,,
2356.300000011921,,shortestpath_phase,1556605,GW/camera.jpg,,,,50,GW/wheelchair.jpg,GW/paint.jpg,0,0.4782608695652174,,,,GW/wheelchair.jpg,,,,,Two Edge Diff,Four Edge Six Edge
null,,html-keyboard-response,1557613,<p></p>,,,,null,,,,,,,,,,,,,,
1981.5,,shortestpath_phase,1559599,GW/basket.jpg,,,,50,GW/hat.jpg,GW/barrel.jpg,1,0.4838709677419355,,,,GW/barrel.jpg,,,,,Three Edge Diff,Three Edge Six Edge
null,,html-keyboard-response,1560605,<p></p>,,,,null,,,,,,,,,,,,,,
3939.900000035763,,shortestpath_phase,1564547,GW/jukebox.jpg,,,,50,GW/paint.jpg,GW/teeth.jpg,1,0.48936170212765956,,,,GW/teeth.jpg,,,,,One Edge Diff,Two Edge Three Edge
null,,html-keyboard-response,1565553,<p></p>,,,,null,,,,,,,,,,,,,,
734.8000000119209,,shortestpath_phase,1566291,GW/basket.jpg,,,,50,GW/wheelchair.jpg,GW/paint.jpg,0,0.4842105263157895,,,,GW/wheelchair.jpg,,,,,One Edge Diff,Five Edge Six Edge
null,,html-keyboard-response,1567296,<p></p>,,,,null,,,,,,,,,,,,,,
2041.0999999642372,,shortestpath_phase,1569341,GW/camera.jpg,,,,49,GW/jukebox.jpg,GW/soldier.jpg,1,0.4895833333333333,,,,GW/jukebox.jpg,,,,,Two Edge Diff,Three Edge Five Edge
null,,html-keyboard-response,1570347,<p></p>,,,,null,,,,,,,,,,,,,,
2311.800000011921,,shortestpath_phase,1572662,GW/globe.jpg,,,,50,GW/soldier.jpg,GW/gong.jpg,1,0.4948453608247423,,,,GW/gong.jpg,,,,,Two Edge Diff,Three Edge Five Edge
null,,html-keyboard-response,1573668,<p></p>,,,,null,,,,,,,,,,,,,,
2182.600000023842,,shortestpath_phase,1575854,GW/teeth.jpg,,,,50,GW/camera.jpg,GW/jukebox.jpg,1,0.5,,,,GW/jukebox.jpg,,,,,One Edge Diff,Two Edge Three Edge
null,,html-keyboard-response,1576862,<p></p>,,,,null,,,,,,,,,,,,,,
3026.699999988079,,shortestpath_phase,1579893,GW/camera.jpg,,,,49,GW/snail.jpg,GW/paint.jpg,1,0.5050505050505051,,,,GW/snail.jpg,,,,,Four Edge Diff,Two Edge Six Edge
null,,html-keyboard-response,1580900,<p></p>,,,,null,,,,,,,,,,,,,,
1965.3999999761581,,shortestpath_phase,1582870,GW/jukebox.jpg,,,,49,GW/barrel.jpg,GW/basket.jpg,1,0.51,,,,GW/barrel.jpg,,,,,Two Edge Diff,Two Edge Four Edge
null,,html-keyboard-response,1583877,<p></p>,,,,null,,,,,,,,,,,,,,
2166.600000023842,,shortestpath_phase,1586046,GW/dustpan.jpg,,,,49,GW/paint.jpg,GW/basket.jpg,0,0.504950495049505,,,,GW/basket.jpg,,,,,Two Edge Diff,Two Edge Four Edge
null,,html-keyboard-response,1587052,<p></p>,,,,null,,,,,,,,,,,,,,
1950.300000011921,,shortestpath_phase,1589005,GW/soldier.jpg,,,,49,GW/dustpan.jpg,GW/hat.jpg,0,0.5,,,,GW/hat.jpg,,,,,Two Edge Diff,Two Edge Four Edge
null,,html-keyboard-response,1590012,<p></p>,,,,null,,,,,,,,,,,,,,
3357.300000011921,,shortestpath_phase,1593374,GW/basket.jpg,,,,49,GW/barrel.jpg,GW/soldier.jpg,1,0.5048543689320388,,,,GW/barrel.jpg,,,,,Four Edge Diff,Two Edge Six Edge
null,,html-keyboard-response,1594381,<p></p>,,,,null,,,,,,,,,,,,,,
1860.5,,shortestpath_phase,1596246,GW/dustpan.jpg,,,,50,GW/paint.jpg,GW/snail.jpg,1,0.5096153846153846,,,,GW/snail.jpg,,,,,Two Edge Diff,Two Edge Four Edge
null,,html-keyboard-response,1597251,<p></p>,,,,null,,,,,,,,,,,,,,
2118.800000011921,,shortestpath_phase,1599373,GW/basket.jpg,,,,50,GW/jukebox.jpg,GW/paint.jpg,0,0.5047619047619047,,,,GW/jukebox.jpg,,,,,Two Edge Diff,Four Edge Six Edge
null,,html-keyboard-response,1600378,<p></p>,,,,null,,,,,,,,,,,,,,
1408.5,,shortestpath_phase,1601790,GW/paint.jpg,,,,50,GW/dustpan.jpg,GW/basket.jpg,0,0.5,,,,GW/dustpan.jpg,,,,,Two Edge Diff,Four Edge Six Edge
null,,html-keyboard-response,1602796,<p></p>,,,,null,,,,,,,,,,,,,,
2884.699999988079,,shortestpath_phase,1605683,GW/snail.jpg,,,,49,GW/hat.jpg,GW/globe.jpg,0,0.4953271028037383,,,,GW/globe.jpg,,,,,One Edge Diff,Two Edge Three Edge
null,,html-keyboard-response,1606686,<p></p>,,,,null,,,,,,,,,,,,,,
1810.8999999761581,,shortestpath_phase,1608499,GW/soldier.jpg,,,,49,GW/globe.jpg,GW/dustpan.jpg,0,0.49074074074074076,,,,GW/dustpan.jpg,,,,,One Edge Diff,Four Edge Five Edge
null,,html-keyboard-response,1609503,<p></p>,,,,null,,,,,,,,,,,,,,
2250.899999976158,,shortestpath_phase,1611758,GW/paint.jpg,,,,50,GW/wheelchair.jpg,GW/basket.jpg,0,0.48623853211009177,,,,GW/wheelchair.jpg,,,,,Four Edge Diff,Two Edge Six Edge
null,,html-keyboard-response,1612764,<p></p>,,,,null,,,,,,,,,,,,,,
2285,,shortestpath_phase,1615053,GW/globe.jpg,,,,50,GW/hat.jpg,GW/paint.jpg,0,0.4818181818181818,,,,GW/hat.jpg,,,,,One Edge Diff,Four Edge Five Edge
null,,html-keyboard-response,1616060,<p></p>,,,,null,,,,,,,,,,,,,,
2663.5,,shortestpath_phase,1618727,GW/barrel.jpg,,,,50,GW/wheelchair.jpg,GW/paint.jpg,0,0.4774774774774775,,,,GW/wheelchair.jpg,,,,,Two Edge Diff,Three Edge Five Edge
null,,html-keyboard-response,1619734,<p></p>,,,,null,,,,,,,,,,,,,,
2060.699999988079,,shortestpath_phase,1621799,GW/camera.jpg,,,,50,GW/wheelchair.jpg,GW/dustpan.jpg,1,0.48214285714285715,,,,GW/dustpan.jpg,,,,,One Edge Diff,Three Edge Four Edge
null,,html-keyboard-response,1622807,<p></p>,,,,null,,,,,,,,,,,,,,
2001.5,,shortestpath_phase,1624813,GW/globe.jpg,,,,49,GW/soldier.jpg,GW/wheelchair.jpg,0,0.4778761061946903,,,,GW/wheelchair.jpg,,,,,One Edge Diff,Four Edge Five Edge
null,,html-keyboard-response,1625820,<p></p>,,,,null,,,,,,,,,,,,,,
2318.399999976158,,shortestpath_phase,1628141,GW/basket.jpg,,,,49,GW/gong.jpg,GW/soldier.jpg,1,0.4824561403508772,,,,GW/gong.jpg,,,,,Two Edge Diff,Four Edge Six Edge
null,,html-keyboard-response,1629148,<p></p>,,,,null,,,,,,,,,,,,,,
1645.5999999642372,,shortestpath_phase,1630798,GW/globe.jpg,,,,49,GW/paint.jpg,GW/snail.jpg,0,0.4782608695652174,,,,GW/snail.jpg,,,,,Three Edge Diff,Three Edge Six Edge
null,,html-keyboard-response,1631804,<p></p>,,,,null,,,,,,,,,,,,,,
2934.099999964237,,shortestpath_phase,1634741,GW/basket.jpg,,,,50,GW/gong.jpg,GW/wheelchair.jpg,0,0.47413793103448276,,,,GW/gong.jpg,,,,,One Edge Diff,Four Edge Five Edge
null,,html-keyboard-response,1635747,<p></p>,,,,null,,,,,,,,,,,,,,
2198.5,,shortestpath_phase,1637950,GW/camera.jpg,,,,50,GW/gong.jpg,GW/teeth.jpg,1,0.47863247863247865,,,,GW/teeth.jpg,,,,,One Edge Diff,Three Edge Four Edge
null,,html-keyboard-response,1638958,<p></p>,,,,null,,,,,,,,,,,,,,
2044.0999999642372,,shortestpath_phase,1641006,GW/hat.jpg,,,,50,GW/dustpan.jpg,GW/barrel.jpg,0,0.4745762711864407,,,,GW/dustpan.jpg,,,,,One Edge Diff,Three Edge Four Edge
null,,html-keyboard-response,1642012,<p></p>,,,,null,,,,,,,,,,,,,,
2461.699999988079,,shortestpath_phase,1644478,GW/teeth.jpg,,,,50,GW/paint.jpg,GW/barrel.jpg,1,0.4789915966386555,,,,GW/barrel.jpg,,,,,One Edge Diff,Two Edge Three Edge
null,,html-keyboard-response,1645485,<p></p>,,,,null,,,,,,,,,,,,,,
2044.9000000357628,,shortestpath_phase,1647534,GW/camera.jpg,,,,50,GW/basket.jpg,GW/wheelchair.jpg,0,0.475,,,,GW/basket.jpg,,,,,One Edge Diff,Three Edge Four Edge
null,,html-keyboard-response,1648541,<p></p>,,,,null,,,,,,,,,,,,,,
2333.7000000476837,,shortestpath_phase,1650877,GW/teeth.jpg,,,,50,GW/paint.jpg,GW/globe.jpg,1,0.4793388429752066,,,,GW/globe.jpg,,,,,One Edge Diff,Two Edge Three Edge
null,,html-keyboard-response,1651884,<p></p>,,,,null,,,,,,,,,,,,,,
24563.80000001192,,intro_1,1676453,instruct,,0,,,,,,,,,,,,,,,,
26831.5,,intro_2,1703288,instruct,,1,Next,,,,,,,,,,,,,,,
5188.899999976158,,intro_3,1708483,instruct,,1,Next,,,,,,,,,,,,,,,
