rt,responses,trial_type,time_elapsed,stimulus,graphorder,button_pressed,response,key_press,stimulus_left,stimulus_right,accuracy,cumulative_accuracy,stimulus_down_left,stimulus_down_mid,stimulus_down_right,stimulus_correct,stimulus_short,stimulus_far,weighted_accuracy,missedtrial,condition,specific_pairs
3509.7999999523163,{worker_id:6550de88683355a74699844c},id_enter,3516,id_enter,GW/camera.jpg; GW/basket.jpg; GW/paint.jpg; GW/wheelchair.jpg; GW/soldier.jpg; GW/teeth.jpg; GW/gong.jpg; GW/dustpan.jpg; GW/hat.jpg; GW/globe.jpg; GW/barrel.jpg; GW/snail.jpg; GW/jukebox.jpg,,,,,,,,,,,,,,,,,
32349.300000071526,,fullscreen,35893,fullscreen,,0,,,,,,,,,,,,,,,,
25677,,intro_1,61576,instruct,,0,,,,,,,,,,,,,,,,
12458.199999928474,,intro_2,74040,instruct,,1,Next,,,,,,,,,,,,,,,
7720.100000023842,,intro_3,81763,instruct,,1,Next,,,,,,,,,,,,,,,
null,,learn_prac_1,83770,lean_prac_1,,,,null,,,,,,,,,,,,,,
null,,html-keyboard-response,84773,<p></p>,,,,null,,,,,,,,,,,,,,
2941.5999999046326,,intro_1,87716,instruct,,0,,,,,,,,,,,,,,,,
5981.199999928474,,intro_2,93701,instruct,,1,Next,,,,,,,,,,,,,,,
null,,learn_prac_2,95705,lean_prac_2,,,,null,,,,,,,,,,,,,,
null,,html-keyboard-response,96707,<p></p>,,,,null,,,,,,,,,,,,,,
1439.0999999046326,,intro_1,98149,instruct,,0,,,,,,,,,,,,,,,,
2386.899999976158,,intro_2,100540,instruct,,1,Next,,,,,,,,,,,,,,,
12114.399999976158,,intro_3,112658,instruct,,1,Next,,,,,,,,,,,,,,,
null,,prac_atten_color_black,113303,black_plus_sign,,,,null,,,,,,,,,,,,,,
433.1999999284744,,prac_atten_color,114065,prac_stop_color,,,,49,,,,,,,,,,,,,,
null,,prac_atten_color_black,116067,black_plus_sign,,,,null,,,,,,,,,,,,,,
null,,prac_atten_color_black,116714,black_plus_sign,,,,null,,,,,,,,,,,,,,
534.5,,prac_atten_color,117565,prac_stop_color,,,,50,,,,,,,,,,,,,,
null,,prac_atten_color_black,119567,black_plus_sign,,,,null,,,,,,,,,,,,,,
null,,prac_atten_color_black,120121,black_plus_sign,,,,null,,,,,,,,,,,,,,
567.5999999046326,,prac_atten_color,120693,prac_stop_color,,,,50,,,,,,,,,,,,,,
null,,prac_atten_color_black,122695,black_plus_sign,,,,null,,,,,,,,,,,,,,
null,,prac_atten_color_black,123529,black_plus_sign,,,,null,,,,,,,,,,,,,,
280.59999990463257,,prac_atten_color,124278,prac_stop_color,,,,49,,,,,,,,,,,,,,
null,,prac_atten_color_black,126280,black_plus_sign,,,,null,,,,,,,,,,,,,,
null,,prac_atten_color_black,126936,black_plus_sign,,,,null,,,,,,,,,,,,,,
521.5999999046326,,prac_atten_color,127749,prac_stop_color,,,,50,,,,,,,,,,,,,,
null,,prac_atten_color_black,129751,black_plus_sign,,,,null,,,,,,,,,,,,,,
null,,prac_atten_color_black,130343,black_plus_sign,,,,null,,,,,,,,,,,,,,
406.8000000715256,,prac_atten_color,130840,prac_stop_color,,,,49,,,,,,,,,,,,,,
null,,prac_atten_color_black,132842,black_plus_sign,,,,null,,,,,,,,,,,,,,
3973.5,,attentioncheck_help,136819,instruct,,,,32,,,,,,,,,,,,,,
null,,prac_atten_color_black,137727,black_plus_sign,,,,null,,,,,,,,,,,,,,
466.59999990463257,,prac_atten_color,138706,prac_stop_color,,,,49,,,,,,,,,,,,,,
null,,prac_atten_color_black,140708,black_plus_sign,,,,null,,,,,,,,,,,,,,
null,,prac_atten_color_black,141134,black_plus_sign,,,,null,,,,,,,,,,,,,,
459.89999997615814,,prac_atten_color,141971,prac_stop_color,,,,50,,,,,,,,,,,,,,
null,,prac_atten_color_black,143973,black_plus_sign,,,,null,,,,,,,,,,,,,,
null,,prac_atten_color_black,144542,black_plus_sign,,,,null,,,,,,,,,,,,,,
476.5,,prac_atten_color,145578,prac_stop_color,,,,49,,,,,,,,,,,,,,
null,,prac_atten_color_black,147580,black_plus_sign,,,,null,,,,,,,,,,,,,,
null,,prac_atten_color_black,147950,black_plus_sign,,,,null,,,,,,,,,,,,,,
484.10000002384186,,prac_atten_color,148996,prac_stop_color,,,,49,,,,,,,,,,,,,,
null,,prac_atten_color_black,150998,black_plus_sign,,,,null,,,,,,,,,,,,,,
8855.099999904633,,attentioncheck_feedback,159857,cross_check_feedback,,0,,,,,,,,,,,,,,,,
8264.799999952316,,last_instruct,168124,instruct,,,,32,,,,,,,,,,,,,,
null,,learn_phase(without_color),170126,black_plus_sign,,,,null,GW/gong.jpg,GW/dustpan.jpg,,,,,,,,,,,,
null,,black_cross(without_color),170790,blue,,,,null,GW/gong.jpg,GW/dustpan.jpg,,,,,,,,,,,,
null,,rt_plussign_withcolor,171292,blue,,,,null,GW/gong.jpg,GW/dustpan.jpg,,,,,,,,,,,,
847.6000000238419,,rt_thecrossant_black,172633,black_plus_sign,,,,49,,,1,1,,,,,,,,,,
null,,color_black,172736,black_plus_sign,,,,null,,,,,,,,,,,,,,
null,,learn_phase(without_color),174740,black_plus_sign,,,,null,GW/hat.jpg,GW/barrel.jpg,,,,,,,,,,,,
null,,black_cross(without_color),175813,green,,,,null,GW/hat.jpg,GW/barrel.jpg,,,,,,,,,,,,
324.39999997615814,,rt_plussign_withcolor,176315,green,,,,50,GW/hat.jpg,GW/barrel.jpg,,,,,,,,,,,,
null,,rt_thecrossant_black,177249,black_plus_sign,,,,null,,,1,1,,,,,,,,,,
null,,color_black,177351,black_plus_sign,,,,null,,,,,,,,,,,,,,
null,,learn_phase(without_color),179355,black_plus_sign,,,,null,GW/camera.jpg,GW/basket.jpg,,,,,,,,,,,,
null,,black_cross(without_color),180055,green,,,,null,GW/camera.jpg,GW/basket.jpg,,,,,,,,,,,,
483.10000002384186,,rt_plussign_withcolor,180556,green,,,,50,GW/camera.jpg,GW/basket.jpg,,,,,,,,,,,,
null,,rt_thecrossant_black,181862,black_plus_sign,,,,null,,,1,1,,,,,,,,,,
null,,color_black,181965,black_plus_sign,,,,null,,,,,,,,,,,,,,
null,,learn_phase(without_color),183968,black_plus_sign,,,,null,GW/dustpan.jpg,GW/globe.jpg,,,,,,,,,,,,
null,,black_cross(without_color),185042,green,,,,null,GW/dustpan.jpg,GW/globe.jpg,,,,,,,,,,,,
316,,rt_plussign_withcolor,185544,green,,,,49,GW/dustpan.jpg,GW/globe.jpg,,,,,,,,,,,,
null,,rt_thecrossant_black,186475,black_plus_sign,,,,null,,,0,0.75,,,,,,,,,,
null,,color_black,186577,black_plus_sign,,,,null,,,,,,,,,,,,,,
null,,learn_phase(without_color),188580,black_plus_sign,,,,null,GW/basket.jpg,GW/paint.jpg,,,,,,,,,,,,
null,,black_cross(without_color),189179,blue,,,,null,GW/basket.jpg,GW/paint.jpg,,,,,,,,,,,,
435,,rt_plussign_withcolor,189680,blue,,,,50,GW/basket.jpg,GW/paint.jpg,,,,,,,,,,,,
null,,rt_thecrossant_black,191087,black_plus_sign,,,,null,,,0,0.6,,,,,,,,,,
null,,warning_page,194090,warning,,,,null,,,,,,,,,,,,,,
null,,color_black,194192,black_plus_sign,,,,null,,,,,,,,,,,,,,
null,,learn_phase(without_color),196196,black_plus_sign,,,,null,GW/gong.jpg,GW/hat.jpg,,,,,,,,,,,,
null,,black_cross(without_color),196977,blue,,,,null,GW/gong.jpg,GW/hat.jpg,,,,,,,,,,,,
453.7999999523163,,rt_plussign_withcolor,197479,blue,,,,49,GW/gong.jpg,GW/hat.jpg,,,,,,,,,,,,
null,,rt_thecrossant_black,198702,black_plus_sign,,,,null,,,1,0.6666666666666666,,,,,,,,,,
null,,color_black,198806,black_plus_sign,,,,null,,,,,,,,,,,,,,
null,,learn_phase(without_color),200810,black_plus_sign,,,,null,GW/teeth.jpg,GW/gong.jpg,,,,,,,,,,,,
null,,black_cross(without_color),201559,blue,,,,null,GW/teeth.jpg,GW/gong.jpg,,,,,,,,,,,,
444.3000000715256,,rt_plussign_withcolor,202060,blue,,,,49,GW/teeth.jpg,GW/gong.jpg,,,,,,,,,,,,
null,,rt_thecrossant_black,203317,black_plus_sign,,,,null,,,1,0.7142857142857143,,,,,,,,,,
null,,color_black,203419,black_plus_sign,,,,null,,,,,,,,,,,,,,
null,,learn_phase(without_color),205423,black_plus_sign,,,,null,GW/barrel.jpg,GW/snail.jpg,,,,,,,,,,,,
null,,black_cross(without_color),206456,blue,,,,null,GW/barrel.jpg,GW/snail.jpg,,,,,,,,,,,,
434.59999990463257,,rt_plussign_withcolor,206958,blue,,,,49,GW/barrel.jpg,GW/snail.jpg,,,,,,,,,,,,
null,,rt_thecrossant_black,207929,black_plus_sign,,,,null,,,1,0.75,,,,,,,,,,
null,,color_black,208032,black_plus_sign,,,,null,,,,,,,,,,,,,,
null,,learn_phase(without_color),210035,black_plus_sign,,,,null,GW/camera.jpg,GW/basket.jpg,,,,,,,,,,,,
null,,black_cross(without_color),210778,blue,,,,null,GW/camera.jpg,GW/basket.jpg,,,,,,,,,,,,
438.2000000476837,,rt_plussign_withcolor,211280,blue,,,,49,GW/camera.jpg,GW/basket.jpg,,,,,,,,,,,,
null,,rt_thecrossant_black,212542,black_plus_sign,,,,null,,,1,0.7777777777777778,,,,,,,,,,
null,,color_black,212645,black_plus_sign,,,,null,,,,,,,,,,,,,,
null,,learn_phase(without_color),214648,black_plus_sign,,,,null,GW/paint.jpg,GW/teeth.jpg,,,,,,,,,,,,
null,,black_cross(without_color),215505,blue,,,,null,GW/paint.jpg,GW/teeth.jpg,,,,,,,,,,,,
405.89999997615814,,rt_plussign_withcolor,216007,blue,,,,49,GW/paint.jpg,GW/teeth.jpg,,,,,,,,,,,,
null,,rt_thecrossant_black,217155,black_plus_sign,,,,null,,,1,0.8,,,,,,,,,,
null,,color_black,217258,black_plus_sign,,,,null,,,,,,,,,,,,,,
null,,learn_phase(without_color),219262,black_plus_sign,,,,null,GW/basket.jpg,GW/wheelchair.jpg,,,,,,,,,,,,
null,,black_cross(without_color),219940,green,,,,null,GW/basket.jpg,GW/wheelchair.jpg,,,,,,,,,,,,
366.09999990463257,,rt_plussign_withcolor,220442,green,,,,50,GW/basket.jpg,GW/wheelchair.jpg,,,,,,,,,,,,
null,,rt_thecrossant_black,221768,black_plus_sign,,,,null,,,1,0.8181818181818182,,,,,,,,,,
null,,color_black,221870,black_plus_sign,,,,null,,,,,,,,,,,,,,
null,,learn_phase(without_color),223874,black_plus_sign,,,,null,GW/gong.jpg,GW/jukebox.jpg,,,,,,,,,,,,
null,,black_cross(without_color),224909,blue,,,,null,GW/gong.jpg,GW/jukebox.jpg,,,,,,,,,,,,
null,,rt_plussign_withcolor,225411,blue,,,,null,GW/gong.jpg,GW/jukebox.jpg,,,,,,,,,,,,
819.6000000238419,,rt_thecrossant_black,226381,black_plus_sign,,,,50,,,0,0.75,,,,,,,,,,
null,,color_black,226484,black_plus_sign,,,,null,,,,,,,,,,,,,,
null,,learn_phase(without_color),228488,black_plus_sign,,,,null,GW/teeth.jpg,GW/gong.jpg,,,,,,,,,,,,
null,,black_cross(without_color),229382,blue,,,,null,GW/teeth.jpg,GW/gong.jpg,,,,,,,,,,,,
444.60000002384186,,rt_plussign_withcolor,229883,blue,,,,49,GW/teeth.jpg,GW/gong.jpg,,,,,,,,,,,,
null,,rt_thecrossant_black,230994,black_plus_sign,,,,null,,,1,0.7692307692307693,,,,,,,,,,
null,,color_black,231097,black_plus_sign,,,,null,,,,,,,,,,,,,,
null,,learn_phase(without_color),233100,black_plus_sign,,,,null,GW/gong.jpg,GW/hat.jpg,,,,,,,,,,,,
null,,black_cross(without_color),233771,green,,,,null,GW/gong.jpg,GW/hat.jpg,,,,,,,,,,,,
392.10000002384186,,rt_plussign_withcolor,234273,green,,,,50,GW/gong.jpg,GW/hat.jpg,,,,,,,,,,,,
null,,rt_thecrossant_black,235606,black_plus_sign,,,,null,,,1,0.7857142857142857,,,,,,,,,,
null,,color_black,235708,black_plus_sign,,,,null,,,,,,,,,,,,,,
null,,learn_phase(without_color),237712,black_plus_sign,,,,null,GW/teeth.jpg,GW/hat.jpg,,,,,,,,,,,,
null,,black_cross(without_color),238507,green,,,,null,GW/teeth.jpg,GW/hat.jpg,,,,,,,,,,,,
481.90000009536743,,rt_plussign_withcolor,239008,green,,,,50,GW/teeth.jpg,GW/hat.jpg,,,,,,,,,,,,
null,,rt_thecrossant_black,240218,black_plus_sign,,,,null,,,1,0.8,,,,,,,,,,
null,,color_black,240321,black_plus_sign,,,,null,,,,,,,,,,,,,,
null,,learn_phase(without_color),242324,black_plus_sign,,,,null,GW/basket.jpg,GW/wheelchair.jpg,,,,,,,,,,,,
null,,black_cross(without_color),243243,green,,,,null,GW/basket.jpg,GW/wheelchair.jpg,,,,,,,,,,,,
489.3000000715256,,rt_plussign_withcolor,243745,green,,,,50,GW/basket.jpg,GW/wheelchair.jpg,,,,,,,,,,,,
null,,rt_thecrossant_black,244831,black_plus_sign,,,,null,,,1,0.8125,,,,,,,,,,
null,,color_black,244933,black_plus_sign,,,,null,,,,,,,,,,,,,,
null,,learn_phase(without_color),246937,black_plus_sign,,,,null,GW/gong.jpg,GW/jukebox.jpg,,,,,,,,,,,,
null,,black_cross(without_color),247986,green,,,,null,GW/gong.jpg,GW/jukebox.jpg,,,,,,,,,,,,
454.5,,rt_plussign_withcolor,248488,green,,,,50,GW/gong.jpg,GW/jukebox.jpg,,,,,,,,,,,,
null,,rt_thecrossant_black,249443,black_plus_sign,,,,null,,,1,0.8235294117647058,,,,,,,,,,
null,,color_black,249546,black_plus_sign,,,,null,,,,,,,,,,,,,,
null,,learn_phase(without_color),251549,black_plus_sign,,,,null,GW/paint.jpg,GW/barrel.jpg,,,,,,,,,,,,
null,,black_cross(without_color),252544,blue,,,,null,GW/paint.jpg,GW/barrel.jpg,,,,,,,,,,,,
407.39999997615814,,rt_plussign_withcolor,253046,blue,,,,49,GW/paint.jpg,GW/barrel.jpg,,,,,,,,,,,,
null,,rt_thecrossant_black,254056,black_plus_sign,,,,null,,,1,0.8333333333333334,,,,,,,,,,
null,,color_black,254158,black_plus_sign,,,,null,,,,,,,,,,,,,,
null,,learn_phase(without_color),256162,black_plus_sign,,,,null,GW/wheelchair.jpg,GW/snail.jpg,,,,,,,,,,,,
null,,black_cross(without_color),257211,blue,,,,null,GW/wheelchair.jpg,GW/snail.jpg,,,,,,,,,,,,
435.89999997615814,,rt_plussign_withcolor,257713,blue,,,,49,GW/wheelchair.jpg,GW/snail.jpg,,,,,,,,,,,,
null,,rt_thecrossant_black,258668,black_plus_sign,,,,null,,,1,0.8421052631578947,,,,,,,,,,
null,,color_black,258771,black_plus_sign,,,,null,,,,,,,,,,,,,,
null,,learn_phase(without_color),260775,black_plus_sign,,,,null,GW/paint.jpg,GW/teeth.jpg,,,,,,,,,,,,
null,,black_cross(without_color),261856,green,,,,null,GW/paint.jpg,GW/teeth.jpg,,,,,,,,,,,,
411.59999990463257,,rt_plussign_withcolor,262358,green,,,,50,GW/paint.jpg,GW/teeth.jpg,,,,,,,,,,,,
null,,rt_thecrossant_black,263281,black_plus_sign,,,,null,,,1,0.85,,,,,,,,,,
null,,color_black,263383,black_plus_sign,,,,null,,,,,,,,,,,,,,
null,,learn_phase(without_color),265386,black_plus_sign,,,,null,GW/dustpan.jpg,GW/globe.jpg,,,,,,,,,,,,
null,,black_cross(without_color),266192,blue,,,,null,GW/dustpan.jpg,GW/globe.jpg,,,,,,,,,,,,
null,,rt_plussign_withcolor,266694,blue,,,,null,GW/dustpan.jpg,GW/globe.jpg,,,,,,,,,,,,
1224.2999999523163,,rt_thecrossant_black,267893,black_plus_sign,,,,49,,,1,0.8571428571428571,,,,,,,,,,
null,,color_black,267995,black_plus_sign,,,,null,,,,,,,,,,,,,,
null,,learn_phase(without_color),269999,black_plus_sign,,,,null,GW/paint.jpg,GW/teeth.jpg,,,,,,,,,,,,
null,,black_cross(without_color),270797,blue,,,,null,GW/paint.jpg,GW/teeth.jpg,,,,,,,,,,,,
null,,rt_plussign_withcolor,271300,blue,,,,null,GW/paint.jpg,GW/teeth.jpg,,,,,,,,,,,,
1007.3999999761581,,rt_thecrossant_black,272506,black_plus_sign,,,,49,,,1,0.8636363636363636,,,,,,,,,,
null,,color_black,272608,black_plus_sign,,,,null,,,,,,,,,,,,,,
null,,learn_phase(without_color),274610,black_plus_sign,,,,null,GW/gong.jpg,GW/dustpan.jpg,,,,,,,,,,,,
null,,black_cross(without_color),275519,green,,,,null,GW/gong.jpg,GW/dustpan.jpg,,,,,,,,,,,,
439.89999997615814,,rt_plussign_withcolor,276021,green,,,,50,GW/gong.jpg,GW/dustpan.jpg,,,,,,,,,,,,
null,,rt_thecrossant_black,277117,black_plus_sign,,,,null,,,1,0.8695652173913043,,,,,,,,,,
null,,color_black,277220,black_plus_sign,,,,null,,,,,,,,,,,,,,
null,,learn_phase(without_color),279223,black_plus_sign,,,,null,GW/paint.jpg,GW/barrel.jpg,,,,,,,,,,,,
null,,black_cross(without_color),279933,green,,,,null,GW/paint.jpg,GW/barrel.jpg,,,,,,,,,,,,
null,,rt_plussign_withcolor,280434,green,,,,null,GW/paint.jpg,GW/barrel.jpg,,,,,,,,,,,,
1086.2000000476837,,rt_thecrossant_black,281734,black_plus_sign,,,,50,,,1,0.875,,,,,,,,,,
null,,color_black,281837,black_plus_sign,,,,null,,,,,,,,,,,,,,
null,,learn_phase(without_color),283841,black_plus_sign,,,,null,GW/dustpan.jpg,GW/hat.jpg,,,,,,,,,,,,
null,,black_cross(without_color),284888,blue,,,,null,GW/dustpan.jpg,GW/hat.jpg,,,,,,,,,,,,
null,,rt_plussign_withcolor,285389,blue,,,,null,GW/dustpan.jpg,GW/hat.jpg,,,,,,,,,,,,
863.6999999284744,,rt_thecrossant_black,286348,black_plus_sign,,,,49,,,1,0.88,,,,,,,,,,
null,,color_black,286451,black_plus_sign,,,,null,,,,,,,,,,,,,,
null,,learn_phase(without_color),288455,black_plus_sign,,,,null,GW/paint.jpg,GW/teeth.jpg,,,,,,,,,,,,
null,,black_cross(without_color),289275,blue,,,,null,GW/paint.jpg,GW/teeth.jpg,,,,,,,,,,,,
494.10000002384186,,rt_plussign_withcolor,289777,blue,,,,49,GW/paint.jpg,GW/teeth.jpg,,,,,,,,,,,,
null,,rt_thecrossant_black,290961,black_plus_sign,,,,null,,,1,0.8846153846153846,,,,,,,,,,
null,,color_black,291064,black_plus_sign,,,,null,,,,,,,,,,,,,,
null,,learn_phase(without_color),293067,black_plus_sign,,,,null,GW/gong.jpg,GW/hat.jpg,,,,,,,,,,,,
null,,black_cross(without_color),293545,green,,,,null,GW/gong.jpg,GW/hat.jpg,,,,,,,,,,,,
null,,rt_plussign_withcolor,294047,green,,,,null,GW/gong.jpg,GW/hat.jpg,,,,,,,,,,,,
949.2000000476837,,rt_thecrossant_black,295574,black_plus_sign,,,,50,,,1,0.8888888888888888,,,,,,,,,,
null,,color_black,295677,black_plus_sign,,,,null,,,,,,,,,,,,,,
null,,learn_phase(without_color),297681,black_plus_sign,,,,null,GW/dustpan.jpg,GW/hat.jpg,,,,,,,,,,,,
null,,black_cross(without_color),298437,blue,,,,null,GW/dustpan.jpg,GW/hat.jpg,,,,,,,,,,,,
367,,rt_plussign_withcolor,298938,blue,,,,49,GW/dustpan.jpg,GW/hat.jpg,,,,,,,,,,,,
null,,rt_thecrossant_black,300187,black_plus_sign,,,,null,,,1,0.8928571428571429,,,,,,,,,,
null,,color_black,300291,black_plus_sign,,,,null,,,,,,,,,,,,,,
null,,learn_phase(without_color),302294,black_plus_sign,,,,null,GW/wheelchair.jpg,GW/soldier.jpg,,,,,,,,,,,,
null,,black_cross(without_color),302855,green,,,,null,GW/wheelchair.jpg,GW/soldier.jpg,,,,,,,,,,,,
413.39999997615814,,rt_plussign_withcolor,303357,green,,,,50,GW/wheelchair.jpg,GW/soldier.jpg,,,,,,,,,,,,
null,,rt_thecrossant_black,304801,black_plus_sign,,,,null,,,1,0.896551724137931,,,,,,,,,,
null,,color_black,304904,black_plus_sign,,,,null,,,,,,,,,,,,,,
null,,learn_phase(without_color),306907,black_plus_sign,,,,null,GW/teeth.jpg,GW/hat.jpg,,,,,,,,,,,,
null,,black_cross(without_color),307549,green,,,,null,GW/teeth.jpg,GW/hat.jpg,,,,,,,,,,,,
null,,rt_plussign_withcolor,308051,green,,,,null,GW/teeth.jpg,GW/hat.jpg,,,,,,,,,,,,
817,,rt_thecrossant_black,309414,black_plus_sign,,,,49,,,0,0.8666666666666667,,,,,,,,,,
null,,color_black,309517,black_plus_sign,,,,null,,,,,,,,,,,,,,
null,,learn_phase(without_color),311520,black_plus_sign,,,,null,GW/dustpan.jpg,GW/globe.jpg,,,,,,,,,,,,
null,,black_cross(without_color),312475,green,,,,null,GW/dustpan.jpg,GW/globe.jpg,,,,,,,,,,,,
439.1999999284744,,rt_plussign_withcolor,312976,green,,,,50,GW/dustpan.jpg,GW/globe.jpg,,,,,,,,,,,,
null,,rt_thecrossant_black,314027,black_plus_sign,,,,null,,,1,0.8709677419354839,,,,,,,,,,
null,,color_black,314130,black_plus_sign,,,,null,,,,,,,,,,,,,,
null,,learn_phase(without_color),316133,black_plus_sign,,,,null,GW/dustpan.jpg,GW/hat.jpg,,,,,,,,,,,,
null,,black_cross(without_color),316567,blue,,,,null,GW/dustpan.jpg,GW/hat.jpg,,,,,,,,,,,,
373.89999997615814,,rt_plussign_withcolor,317068,blue,,,,49,GW/dustpan.jpg,GW/hat.jpg,,,,,,,,,,,,
null,,rt_thecrossant_black,318640,black_plus_sign,,,,null,,,1,0.875,,,,,,,,,,
null,,color_black,318742,black_plus_sign,,,,null,,,,,,,,,,,,,,
null,,learn_phase(without_color),320746,black_plus_sign,,,,null,GW/hat.jpg,GW/barrel.jpg,,,,,,,,,,,,
null,,black_cross(without_color),321535,blue,,,,null,GW/hat.jpg,GW/barrel.jpg,,,,,,,,,,,,
488.89999997615814,,rt_plussign_withcolor,322037,blue,,,,49,GW/hat.jpg,GW/barrel.jpg,,,,,,,,,,,,
null,,rt_thecrossant_black,323252,black_plus_sign,,,,null,,,1,0.8787878787878788,,,,,,,,,,
null,,color_black,323355,black_plus_sign,,,,null,,,,,,,,,,,,,,
null,,learn_phase(without_color),325359,black_plus_sign,,,,null,GW/wheelchair.jpg,GW/snail.jpg,,,,,,,,,,,,
null,,black_cross(without_color),326279,green,,,,null,GW/wheelchair.jpg,GW/snail.jpg,,,,,,,,,,,,
null,,rt_plussign_withcolor,326781,green,,,,null,GW/wheelchair.jpg,GW/snail.jpg,,,,,,,,,,,,
907.5999999046326,,rt_thecrossant_black,327867,black_plus_sign,,,,50,,,1,0.8823529411764706,,,,,,,,,,
null,,color_black,327969,black_plus_sign,,,,null,,,,,,,,,,,,,,
null,,learn_phase(without_color),329973,black_plus_sign,,,,null,GW/camera.jpg,GW/basket.jpg,,,,,,,,,,,,
null,,black_cross(without_color),330878,green,,,,null,GW/camera.jpg,GW/basket.jpg,,,,,,,,,,,,
null,,rt_plussign_withcolor,331379,green,,,,null,GW/camera.jpg,GW/basket.jpg,,,,,,,,,,,,
1127.7999999523163,,rt_thecrossant_black,332480,black_plus_sign,,,,50,,,1,0.8857142857142857,,,,,,,,,,
null,,color_black,332583,black_plus_sign,,,,null,,,,,,,,,,,,,,
null,,learn_phase(without_color),334586,black_plus_sign,,,,null,GW/gong.jpg,GW/jukebox.jpg,,,,,,,,,,,,
null,,black_cross(without_color),335570,blue,,,,null,GW/gong.jpg,GW/jukebox.jpg,,,,,,,,,,,,
367.7999999523163,,rt_plussign_withcolor,336072,blue,,,,49,GW/gong.jpg,GW/jukebox.jpg,,,,,,,,,,,,
null,,rt_thecrossant_black,337094,black_plus_sign,,,,null,,,1,0.8888888888888888,,,,,,,,,,
null,,color_black,337196,black_plus_sign,,,,null,,,,,,,,,,,,,,
null,,learn_phase(without_color),339200,black_plus_sign,,,,null,GW/wheelchair.jpg,GW/soldier.jpg,,,,,,,,,,,,
null,,black_cross(without_color),339992,blue,,,,null,GW/wheelchair.jpg,GW/soldier.jpg,,,,,,,,,,,,
483.90000009536743,,rt_plussign_withcolor,340493,blue,,,,49,GW/wheelchair.jpg,GW/soldier.jpg,,,,,,,,,,,,
null,,rt_thecrossant_black,341707,black_plus_sign,,,,null,,,1,0.8918918918918919,,,,,,,,,,
null,,color_black,341810,black_plus_sign,,,,null,,,,,,,,,,,,,,
null,,learn_phase(without_color),343813,black_plus_sign,,,,null,GW/camera.jpg,GW/basket.jpg,,,,,,,,,,,,
null,,black_cross(without_color),344593,green,,,,null,GW/camera.jpg,GW/basket.jpg,,,,,,,,,,,,
450.2000000476837,,rt_plussign_withcolor,345095,green,,,,50,GW/camera.jpg,GW/basket.jpg,,,,,,,,,,,,
null,,rt_thecrossant_black,346320,black_plus_sign,,,,null,,,1,0.8947368421052632,,,,,,,,,,
null,,color_black,346423,black_plus_sign,,,,null,,,,,,,,,,,,,,
null,,learn_phase(without_color),348426,black_plus_sign,,,,null,GW/dustpan.jpg,GW/globe.jpg,,,,,,,,,,,,
null,,black_cross(without_color),348854,green,,,,null,GW/dustpan.jpg,GW/globe.jpg,,,,,,,,,,,,
null,,rt_plussign_withcolor,349356,green,,,,null,GW/dustpan.jpg,GW/globe.jpg,,,,,,,,,,,,
899.6999999284744,,rt_thecrossant_black,350932,black_plus_sign,,,,50,,,1,0.8974358974358975,,,,,,,,,,
null,,color_black,351035,black_plus_sign,,,,null,,,,,,,,,,,,,,
null,,learn_phase(without_color),353038,black_plus_sign,,,,null,GW/barrel.jpg,GW/snail.jpg,,,,,,,,,,,,
null,,black_cross(without_color),353457,green,,,,null,GW/barrel.jpg,GW/snail.jpg,,,,,,,,,,,,
null,,rt_plussign_withcolor,353959,green,,,,null,GW/barrel.jpg,GW/snail.jpg,,,,,,,,,,,,
552.5,,rt_thecrossant_black,355545,black_plus_sign,,,,50,,,1,0.9,,,,,,,,,,
null,,color_black,355647,black_plus_sign,,,,null,,,,,,,,,,,,,,
null,,learn_phase(without_color),357651,black_plus_sign,,,,null,GW/wheelchair.jpg,GW/soldier.jpg,,,,,,,,,,,,
null,,black_cross(without_color),358107,blue,,,,null,GW/wheelchair.jpg,GW/soldier.jpg,,,,,,,,,,,,
408,,rt_plussign_withcolor,358609,blue,,,,49,GW/wheelchair.jpg,GW/soldier.jpg,,,,,,,,,,,,
null,,rt_thecrossant_black,360158,black_plus_sign,,,,null,,,1,0.9024390243902439,,,,,,,,,,
null,,color_black,360261,black_plus_sign,,,,null,,,,,,,,,,,,,,
null,,learn_phase(without_color),362264,black_plus_sign,,,,null,GW/basket.jpg,GW/paint.jpg,,,,,,,,,,,,
null,,black_cross(without_color),362807,green,,,,null,GW/basket.jpg,GW/paint.jpg,,,,,,,,,,,,
414.8000000715256,,rt_plussign_withcolor,363309,green,,,,50,GW/basket.jpg,GW/paint.jpg,,,,,,,,,,,,
null,,rt_thecrossant_black,364771,black_plus_sign,,,,null,,,1,0.9047619047619048,,,,,,,,,,
null,,color_black,364874,black_plus_sign,,,,null,,,,,,,,,,,,,,
null,,learn_phase(without_color),366877,black_plus_sign,,,,null,GW/dustpan.jpg,GW/hat.jpg,,,,,,,,,,,,
null,,black_cross(without_color),367791,blue,,,,null,GW/dustpan.jpg,GW/hat.jpg,,,,,,,,,,,,
414.2000000476837,,rt_plussign_withcolor,368293,blue,,,,49,GW/dustpan.jpg,GW/hat.jpg,,,,,,,,,,,,
null,,rt_thecrossant_black,369384,black_plus_sign,,,,null,,,1,0.9069767441860465,,,,,,,,,,
null,,color_black,369487,black_plus_sign,,,,null,,,,,,,,,,,,,,
null,,learn_phase(without_color),371490,black_plus_sign,,,,null,GW/dustpan.jpg,GW/globe.jpg,,,,,,,,,,,,
null,,black_cross(without_color),372111,green,,,,null,GW/dustpan.jpg,GW/globe.jpg,,,,,,,,,,,,
null,,rt_plussign_withcolor,372613,green,,,,null,GW/dustpan.jpg,GW/globe.jpg,,,,,,,,,,,,
1025.6000000238419,,rt_thecrossant_black,373997,black_plus_sign,,,,50,,,1,0.9090909090909091,,,,,,,,,,
null,,color_black,374100,black_plus_sign,,,,null,,,,,,,,,,,,,,
null,,learn_phase(without_color),376104,black_plus_sign,,,,null,GW/hat.jpg,GW/barrel.jpg,,,,,,,,,,,,
null,,black_cross(without_color),377165,green,,,,null,GW/hat.jpg,GW/barrel.jpg,,,,,,,,,,,,
414.89999997615814,,rt_plussign_withcolor,377667,green,,,,50,GW/hat.jpg,GW/barrel.jpg,,,,,,,,,,,,
null,,rt_thecrossant_black,378611,black_plus_sign,,,,null,,,1,0.9111111111111111,,,,,,,,,,
null,,color_black,378713,black_plus_sign,,,,null,,,,,,,,,,,,,,
null,,learn_phase(without_color),380717,black_plus_sign,,,,null,GW/dustpan.jpg,GW/hat.jpg,,,,,,,,,,,,
null,,black_cross(without_color),381811,green,,,,null,GW/dustpan.jpg,GW/hat.jpg,,,,,,,,,,,,
null,,rt_plussign_withcolor,382313,green,,,,null,GW/dustpan.jpg,GW/hat.jpg,,,,,,,,,,,,
1292.9000000953674,,rt_thecrossant_black,383223,black_plus_sign,,,,50,,,1,0.9130434782608695,,,,,,,,,,
null,,color_black,383326,black_plus_sign,,,,null,,,,,,,,,,,,,,
null,,learn_phase(without_color),385330,black_plus_sign,,,,null,GW/dustpan.jpg,GW/globe.jpg,,,,,,,,,,,,
null,,black_cross(without_color),386160,blue,,,,null,GW/dustpan.jpg,GW/globe.jpg,,,,,,,,,,,,
388.09999990463257,,rt_plussign_withcolor,386662,blue,,,,49,GW/dustpan.jpg,GW/globe.jpg,,,,,,,,,,,,
null,,rt_thecrossant_black,387837,black_plus_sign,,,,null,,,1,0.9148936170212766,,,,,,,,,,
null,,color_black,387940,black_plus_sign,,,,null,,,,,,,,,,,,,,
null,,learn_phase(without_color),389944,black_plus_sign,,,,null,GW/gong.jpg,GW/hat.jpg,,,,,,,,,,,,
null,,black_cross(without_color),390616,blue,,,,null,GW/gong.jpg,GW/hat.jpg,,,,,,,,,,,,
null,,rt_plussign_withcolor,391118,blue,,,,null,GW/gong.jpg,GW/hat.jpg,,,,,,,,,,,,
999,,rt_thecrossant_black,392452,black_plus_sign,,,,49,,,1,0.9166666666666666,,,,,,,,,,
null,,color_black,392555,black_plus_sign,,,,null,,,,,,,,,,,,,,
null,,learn_phase(without_color),394558,black_plus_sign,,,,null,GW/wheelchair.jpg,GW/snail.jpg,,,,,,,,,,,,
null,,black_cross(without_color),395641,green,,,,null,GW/wheelchair.jpg,GW/snail.jpg,,,,,,,,,,,,
437.2000000476837,,rt_plussign_withcolor,396143,green,,,,50,GW/wheelchair.jpg,GW/snail.jpg,,,,,,,,,,,,
null,,rt_thecrossant_black,397065,black_plus_sign,,,,null,,,1,0.9183673469387755,,,,,,,,,,
null,,color_black,397168,black_plus_sign,,,,null,,,,,,,,,,,,,,
null,,learn_phase(without_color),399171,black_plus_sign,,,,null,GW/basket.jpg,GW/wheelchair.jpg,,,,,,,,,,,,
null,,black_cross(without_color),399908,green,,,,null,GW/basket.jpg,GW/wheelchair.jpg,,,,,,,,,,,,
468.2000000476837,,rt_plussign_withcolor,400410,green,,,,50,GW/basket.jpg,GW/wheelchair.jpg,,,,,,,,,,,,
null,,rt_thecrossant_black,401677,black_plus_sign,,,,null,,,1,0.92,,,,,,,,,,
null,,color_black,401780,black_plus_sign,,,,null,,,,,,,,,,,,,,
null,,learn_phase(without_color),403782,black_plus_sign,,,,null,GW/teeth.jpg,GW/hat.jpg,,,,,,,,,,,,
null,,black_cross(without_color),404827,blue,,,,null,GW/teeth.jpg,GW/hat.jpg,,,,,,,,,,,,
374.2000000476837,,rt_plussign_withcolor,405329,blue,,,,49,GW/teeth.jpg,GW/hat.jpg,,,,,,,,,,,,
null,,rt_thecrossant_black,406289,black_plus_sign,,,,null,,,1,0.9215686274509803,,,,,,,,,,
null,,color_black,406392,black_plus_sign,,,,null,,,,,,,,,,,,,,
null,,learn_phase(without_color),408396,black_plus_sign,,,,null,GW/gong.jpg,GW/jukebox.jpg,,,,,,,,,,,,
null,,black_cross(without_color),409344,green,,,,null,GW/gong.jpg,GW/jukebox.jpg,,,,,,,,,,,,
457.89999997615814,,rt_plussign_withcolor,409846,green,,,,50,GW/gong.jpg,GW/jukebox.jpg,,,,,,,,,,,,
null,,rt_thecrossant_black,410902,black_plus_sign,,,,null,,,1,0.9230769230769231,,,,,,,,,,
null,,color_black,411005,black_plus_sign,,,,null,,,,,,,,,,,,,,
null,,learn_phase(without_color),413008,black_plus_sign,,,,null,GW/basket.jpg,GW/paint.jpg,,,,,,,,,,,,
null,,black_cross(without_color),414095,green,,,,null,GW/basket.jpg,GW/paint.jpg,,,,,,,,,,,,
477,,rt_plussign_withcolor,414597,green,,,,50,GW/basket.jpg,GW/paint.jpg,,,,,,,,,,,,
null,,rt_thecrossant_black,415516,black_plus_sign,,,,null,,,1,0.9245283018867925,,,,,,,,,,
null,,color_black,415618,black_plus_sign,,,,null,,,,,,,,,,,,,,
null,,learn_phase(without_color),417622,black_plus_sign,,,,null,GW/barrel.jpg,GW/snail.jpg,,,,,,,,,,,,
null,,black_cross(without_color),418686,green,,,,null,GW/barrel.jpg,GW/snail.jpg,,,,,,,,,,,,
469.10000002384186,,rt_plussign_withcolor,419188,green,,,,50,GW/barrel.jpg,GW/snail.jpg,,,,,,,,,,,,
null,,rt_thecrossant_black,420129,black_plus_sign,,,,null,,,1,0.9259259259259259,,,,,,,,,,
null,,color_black,420231,black_plus_sign,,,,null,,,,,,,,,,,,,,
null,,learn_phase(without_color),422235,black_plus_sign,,,,null,GW/wheelchair.jpg,GW/soldier.jpg,,,,,,,,,,,,
null,,black_cross(without_color),422694,green,,,,null,GW/wheelchair.jpg,GW/soldier.jpg,,,,,,,,,,,,
null,,rt_plussign_withcolor,423196,green,,,,null,GW/wheelchair.jpg,GW/soldier.jpg,,,,,,,,,,,,
1450.8999999761581,,rt_thecrossant_black,424742,black_plus_sign,,,,50,,,1,0.9272727272727272,,,,,,,,,,
null,,color_black,424844,black_plus_sign,,,,null,,,,,,,,,,,,,,
null,,learn_phase(without_color),426848,black_plus_sign,,,,null,GW/teeth.jpg,GW/gong.jpg,,,,,,,,,,,,
null,,black_cross(without_color),427851,blue,,,,null,GW/teeth.jpg,GW/gong.jpg,,,,,,,,,,,,
391,,rt_plussign_withcolor,428353,blue,,,,49,GW/teeth.jpg,GW/gong.jpg,,,,,,,,,,,,
null,,rt_thecrossant_black,429355,black_plus_sign,,,,null,,,1,0.9285714285714286,,,,,,,,,,
null,,color_black,429458,black_plus_sign,,,,null,,,,,,,,,,,,,,
null,,learn_phase(without_color),431462,black_plus_sign,,,,null,GW/teeth.jpg,GW/hat.jpg,,,,,,,,,,,,
null,,black_cross(without_color),432443,green,,,,null,GW/teeth.jpg,GW/hat.jpg,,,,,,,,,,,,
494.7999999523163,,rt_plussign_withcolor,432945,green,,,,50,GW/teeth.jpg,GW/hat.jpg,,,,,,,,,,,,
null,,rt_thecrossant_black,433969,black_plus_sign,,,,null,,,1,0.9298245614035088,,,,,,,,,,
null,,color_black,434072,black_plus_sign,,,,null,,,,,,,,,,,,,,
null,,learn_phase(without_color),436075,black_plus_sign,,,,null,GW/gong.jpg,GW/jukebox.jpg,,,,,,,,,,,,
null,,black_cross(without_color),436653,blue,,,,null,GW/gong.jpg,GW/jukebox.jpg,,,,,,,,,,,,
null,,rt_plussign_withcolor,437155,blue,,,,null,GW/gong.jpg,GW/jukebox.jpg,,,,,,,,,,,,
1130.5,,rt_thecrossant_black,438582,black_plus_sign,,,,49,,,1,0.9310344827586207,,,,,,,,,,
null,,color_black,438685,black_plus_sign,,,,null,,,,,,,,,,,,,,
null,,learn_phase(without_color),440689,black_plus_sign,,,,null,GW/gong.jpg,GW/hat.jpg,,,,,,,,,,,,
null,,black_cross(without_color),441278,green,,,,null,GW/gong.jpg,GW/hat.jpg,,,,,,,,,,,,
457.8000000715256,,rt_plussign_withcolor,441780,green,,,,50,GW/gong.jpg,GW/hat.jpg,,,,,,,,,,,,
null,,rt_thecrossant_black,443197,black_plus_sign,,,,null,,,1,0.9322033898305084,,,,,,,,,,
null,,color_black,443300,black_plus_sign,,,,null,,,,,,,,,,,,,,
null,,learn_phase(without_color),445303,black_plus_sign,,,,null,GW/wheelchair.jpg,GW/soldier.jpg,,,,,,,,,,,,
null,,black_cross(without_color),445963,green,,,,null,GW/wheelchair.jpg,GW/soldier.jpg,,,,,,,,,,,,
null,,rt_plussign_withcolor,446465,green,,,,null,GW/wheelchair.jpg,GW/soldier.jpg,,,,,,,,,,,,
690,,rt_thecrossant_black,447810,black_plus_sign,,,,50,,,1,0.9333333333333333,,,,,,,,,,
null,,color_black,447913,black_plus_sign,,,,null,,,,,,,,,,,,,,
null,,learn_phase(without_color),449917,black_plus_sign,,,,null,GW/basket.jpg,GW/wheelchair.jpg,,,,,,,,,,,,
null,,black_cross(without_color),450570,blue,,,,null,GW/basket.jpg,GW/wheelchair.jpg,,,,,,,,,,,,
426.2000000476837,,rt_plussign_withcolor,451072,blue,,,,49,GW/basket.jpg,GW/wheelchair.jpg,,,,,,,,,,,,
null,,rt_thecrossant_black,452424,black_plus_sign,,,,null,,,1,0.9344262295081968,,,,,,,,,,
null,,color_black,452526,black_plus_sign,,,,null,,,,,,,,,,,,,,
null,,learn_phase(without_color),454530,black_plus_sign,,,,null,GW/teeth.jpg,GW/gong.jpg,,,,,,,,,,,,
null,,black_cross(without_color),455507,green,,,,null,GW/teeth.jpg,GW/gong.jpg,,,,,,,,,,,,
431.8000000715256,,rt_plussign_withcolor,456009,green,,,,50,GW/teeth.jpg,GW/gong.jpg,,,,,,,,,,,,
null,,rt_thecrossant_black,457037,black_plus_sign,,,,null,,,1,0.9354838709677419,,,,,,,,,,
null,,color_black,457140,black_plus_sign,,,,null,,,,,,,,,,,,,,
null,,learn_phase(without_color),459143,black_plus_sign,,,,null,GW/basket.jpg,GW/paint.jpg,,,,,,,,,,,,
null,,black_cross(without_color),460237,green,,,,null,GW/basket.jpg,GW/paint.jpg,,,,,,,,,,,,
453.7000000476837,,rt_plussign_withcolor,460738,green,,,,49,GW/basket.jpg,GW/paint.jpg,,,,,,,,,,,,
null,,rt_thecrossant_black,461650,black_plus_sign,,,,null,,,0,0.9206349206349206,,,,,,,,,,
null,,color_black,461753,black_plus_sign,,,,null,,,,,,,,,,,,,,
null,,learn_phase(without_color),463757,black_plus_sign,,,,null,GW/basket.jpg,GW/wheelchair.jpg,,,,,,,,,,,,
null,,black_cross(without_color),464759,blue,,,,null,GW/basket.jpg,GW/wheelchair.jpg,,,,,,,,,,,,
396.10000002384186,,rt_plussign_withcolor,465261,blue,,,,49,GW/basket.jpg,GW/wheelchair.jpg,,,,,,,,,,,,
null,,rt_thecrossant_black,466264,black_plus_sign,,,,null,,,1,0.921875,,,,,,,,,,
null,,color_black,466367,black_plus_sign,,,,null,,,,,,,,,,,,,,
null,,learn_phase(without_color),468370,black_plus_sign,,,,null,GW/teeth.jpg,GW/gong.jpg,,,,,,,,,,,,
null,,black_cross(without_color),469401,blue,,,,null,GW/teeth.jpg,GW/gong.jpg,,,,,,,,,,,,
463.8000000715256,,rt_plussign_withcolor,469903,blue,,,,49,GW/teeth.jpg,GW/gong.jpg,,,,,,,,,,,,
null,,rt_thecrossant_black,470878,black_plus_sign,,,,null,,,1,0.9230769230769231,,,,,,,,,,
null,,color_black,470980,black_plus_sign,,,,null,,,,,,,,,,,,,,
null,,learn_phase(without_color),472984,black_plus_sign,,,,null,GW/hat.jpg,GW/barrel.jpg,,,,,,,,,,,,
null,,black_cross(without_color),473870,green,,,,null,GW/hat.jpg,GW/barrel.jpg,,,,,,,,,,,,
459.60000002384186,,rt_plussign_withcolor,474372,green,,,,50,GW/hat.jpg,GW/barrel.jpg,,,,,,,,,,,,
null,,rt_thecrossant_black,475491,black_plus_sign,,,,null,,,1,0.9242424242424242,,,,,,,,,,
null,,color_black,475594,black_plus_sign,,,,null,,,,,,,,,,,,,,
null,,learn_phase(without_color),477597,black_plus_sign,,,,null,GW/teeth.jpg,GW/gong.jpg,,,,,,,,,,,,
null,,black_cross(without_color),478665,green,,,,null,GW/teeth.jpg,GW/gong.jpg,,,,,,,,,,,,
405.7000000476837,,rt_plussign_withcolor,479167,green,,,,50,GW/teeth.jpg,GW/gong.jpg,,,,,,,,,,,,
null,,rt_thecrossant_black,480104,black_plus_sign,,,,null,,,1,0.9253731343283582,,,,,,,,,,
null,,color_black,480207,black_plus_sign,,,,null,,,,,,,,,,,,,,
null,,learn_phase(without_color),482210,black_plus_sign,,,,null,GW/camera.jpg,GW/basket.jpg,,,,,,,,,,,,
null,,black_cross(without_color),482638,green,,,,null,GW/camera.jpg,GW/basket.jpg,,,,,,,,,,,,
420.89999997615814,,rt_plussign_withcolor,483140,green,,,,50,GW/camera.jpg,GW/basket.jpg,,,,,,,,,,,,
null,,rt_thecrossant_black,484718,black_plus_sign,,,,null,,,1,0.9264705882352942,,,,,,,,,,
null,,color_black,484820,black_plus_sign,,,,null,,,,,,,,,,,,,,
null,,learn_phase(without_color),486824,black_plus_sign,,,,null,GW/barrel.jpg,GW/snail.jpg,,,,,,,,,,,,
null,,black_cross(without_color),487409,blue,,,,null,GW/barrel.jpg,GW/snail.jpg,,,,,,,,,,,,
null,,rt_plussign_withcolor,487910,blue,,,,null,GW/barrel.jpg,GW/snail.jpg,,,,,,,,,,,,
542.8000000715256,,rt_thecrossant_black,489331,black_plus_sign,,,,49,,,1,0.927536231884058,,,,,,,,,,
null,,color_black,489433,black_plus_sign,,,,null,,,,,,,,,,,,,,
null,,learn_phase(without_color),491437,black_plus_sign,,,,null,GW/teeth.jpg,GW/hat.jpg,,,,,,,,,,,,
null,,black_cross(without_color),492320,blue,,,,null,GW/teeth.jpg,GW/hat.jpg,,,,,,,,,,,,
null,,rt_plussign_withcolor,492822,blue,,,,null,GW/teeth.jpg,GW/hat.jpg,,,,,,,,,,,,
802.2999999523163,,rt_thecrossant_black,493944,black_plus_sign,,,,50,,,0,0.9142857142857143,,,,,,,,,,
null,,color_black,494046,black_plus_sign,,,,null,,,,,,,,,,,,,,
null,,learn_phase(without_color),496051,black_plus_sign,,,,null,GW/basket.jpg,GW/wheelchair.jpg,,,,,,,,,,,,
null,,black_cross(without_color),496793,blue,,,,null,GW/basket.jpg,GW/wheelchair.jpg,,,,,,,,,,,,
478,,rt_plussign_withcolor,497295,blue,,,,49,GW/basket.jpg,GW/wheelchair.jpg,,,,,,,,,,,,
null,,rt_thecrossant_black,498558,black_plus_sign,,,,null,,,1,0.9154929577464789,,,,,,,,,,
null,,color_black,498661,black_plus_sign,,,,null,,,,,,,,,,,,,,
null,,learn_phase(without_color),500664,black_plus_sign,,,,null,GW/wheelchair.jpg,GW/snail.jpg,,,,,,,,,,,,
null,,black_cross(without_color),501509,blue,,,,null,GW/wheelchair.jpg,GW/snail.jpg,,,,,,,,,,,,
454.7999999523163,,rt_plussign_withcolor,502010,blue,,,,49,GW/wheelchair.jpg,GW/snail.jpg,,,,,,,,,,,,
null,,rt_thecrossant_black,503171,black_plus_sign,,,,null,,,1,0.9166666666666666,,,,,,,,,,
null,,color_black,503274,black_plus_sign,,,,null,,,,,,,,,,,,,,
null,,learn_phase(without_color),505278,black_plus_sign,,,,null,GW/gong.jpg,GW/dustpan.jpg,,,,,,,,,,,,
null,,black_cross(without_color),506228,green,,,,null,GW/gong.jpg,GW/dustpan.jpg,,,,,,,,,,,,
null,,rt_plussign_withcolor,506731,green,,,,null,GW/gong.jpg,GW/dustpan.jpg,,,,,,,,,,,,
1023.7000000476837,,rt_thecrossant_black,507786,black_plus_sign,,,,50,,,1,0.9178082191780822,,,,,,,,,,
null,,color_black,507888,black_plus_sign,,,,null,,,,,,,,,,,,,,
null,,learn_phase(without_color),509892,black_plus_sign,,,,null,GW/basket.jpg,GW/paint.jpg,,,,,,,,,,,,
null,,black_cross(without_color),510803,blue,,,,null,GW/basket.jpg,GW/paint.jpg,,,,,,,,,,,,
444.2999999523163,,rt_plussign_withcolor,511305,blue,,,,49,GW/basket.jpg,GW/paint.jpg,,,,,,,,,,,,
null,,rt_thecrossant_black,512400,black_plus_sign,,,,null,,,1,0.918918918918919,,,,,,,,,,
null,,color_black,512502,black_plus_sign,,,,null,,,,,,,,,,,,,,
null,,learn_phase(without_color),514506,black_plus_sign,,,,null,GW/wheelchair.jpg,GW/snail.jpg,,,,,,,,,,,,
null,,black_cross(without_color),515482,green,,,,null,GW/wheelchair.jpg,GW/snail.jpg,,,,,,,,,,,,
null,,rt_plussign_withcolor,515984,green,,,,null,GW/wheelchair.jpg,GW/snail.jpg,,,,,,,,,,,,
1030.6999999284744,,rt_thecrossant_black,517013,black_plus_sign,,,,50,,,1,0.92,,,,,,,,,,
null,,color_black,517116,black_plus_sign,,,,null,,,,,,,,,,,,,,
null,,learn_phase(without_color),519120,black_plus_sign,,,,null,GW/basket.jpg,GW/wheelchair.jpg,,,,,,,,,,,,
null,,black_cross(without_color),519762,blue,,,,null,GW/basket.jpg,GW/wheelchair.jpg,,,,,,,,,,,,
401.89999997615814,,rt_plussign_withcolor,520264,blue,,,,49,GW/basket.jpg,GW/wheelchair.jpg,,,,,,,,,,,,
null,,rt_thecrossant_black,521626,black_plus_sign,,,,null,,,1,0.9210526315789473,,,,,,,,,,
null,,color_black,521729,black_plus_sign,,,,null,,,,,,,,,,,,,,
null,,learn_phase(without_color),523733,black_plus_sign,,,,null,GW/gong.jpg,GW/jukebox.jpg,,,,,,,,,,,,
null,,black_cross(without_color),524395,green,,,,null,GW/gong.jpg,GW/jukebox.jpg,,,,,,,,,,,,
456.2999999523163,,rt_plussign_withcolor,524897,green,,,,49,GW/gong.jpg,GW/jukebox.jpg,,,,,,,,,,,,
null,,rt_thecrossant_black,526240,black_plus_sign,,,,null,,,0,0.9090909090909091,,,,,,,,,,
null,,color_black,526343,black_plus_sign,,,,null,,,,,,,,,,,,,,
null,,learn_phase(without_color),528347,black_plus_sign,,,,null,GW/teeth.jpg,GW/gong.jpg,,,,,,,,,,,,
null,,black_cross(without_color),529234,green,,,,null,GW/teeth.jpg,GW/gong.jpg,,,,,,,,,,,,
421.8000000715256,,rt_plussign_withcolor,529736,green,,,,50,GW/teeth.jpg,GW/gong.jpg,,,,,,,,,,,,
null,,rt_thecrossant_black,530854,black_plus_sign,,,,null,,,1,0.9102564102564102,,,,,,,,,,
null,,color_black,530957,black_plus_sign,,,,null,,,,,,,,,,,,,,
null,,learn_phase(without_color),532961,black_plus_sign,,,,null,GW/gong.jpg,GW/hat.jpg,,,,,,,,,,,,
null,,black_cross(without_color),533498,blue,,,,null,GW/gong.jpg,GW/hat.jpg,,,,,,,,,,,,
493.39999997615814,,rt_plussign_withcolor,534000,blue,,,,49,GW/gong.jpg,GW/hat.jpg,,,,,,,,,,,,
null,,rt_thecrossant_black,535469,black_plus_sign,,,,null,,,1,0.9113924050632911,,,,,,,,,,
null,,color_black,535572,black_plus_sign,,,,null,,,,,,,,,,,,,,
null,,learn_phase(without_color),537576,black_plus_sign,,,,null,GW/gong.jpg,GW/jukebox.jpg,,,,,,,,,,,,
null,,black_cross(without_color),538545,blue,,,,null,GW/gong.jpg,GW/jukebox.jpg,,,,,,,,,,,,
427.10000002384186,,rt_plussign_withcolor,539047,blue,,,,49,GW/gong.jpg,GW/jukebox.jpg,,,,,,,,,,,,
null,,rt_thecrossant_black,540083,black_plus_sign,,,,null,,,1,0.9125,,,,,,,,,,
null,,color_black,540186,black_plus_sign,,,,null,,,,,,,,,,,,,,
null,,learn_phase(without_color),542190,black_plus_sign,,,,null,GW/wheelchair.jpg,GW/snail.jpg,,,,,,,,,,,,
null,,black_cross(without_color),542988,blue,,,,null,GW/wheelchair.jpg,GW/snail.jpg,,,,,,,,,,,,
425.8000000715256,,rt_plussign_withcolor,543490,blue,,,,49,GW/wheelchair.jpg,GW/snail.jpg,,,,,,,,,,,,
null,,rt_thecrossant_black,544697,black_plus_sign,,,,null,,,1,0.9135802469135802,,,,,,,,,,
null,,color_black,544799,black_plus_sign,,,,null,,,,,,,,,,,,,,
null,,learn_phase(without_color),546803,black_plus_sign,,,,null,GW/paint.jpg,GW/teeth.jpg,,,,,,,,,,,,
null,,black_cross(without_color),547355,blue,,,,null,GW/paint.jpg,GW/teeth.jpg,,,,,,,,,,,,
null,,rt_plussign_withcolor,547857,blue,,,,null,GW/paint.jpg,GW/teeth.jpg,,,,,,,,,,,,
912.8000000715256,,rt_thecrossant_black,549311,black_plus_sign,,,,49,,,1,0.9146341463414634,,,,,,,,,,
null,,color_black,549414,black_plus_sign,,,,null,,,,,,,,,,,,,,
null,,learn_phase(without_color),551418,black_plus_sign,,,,null,GW/basket.jpg,GW/paint.jpg,,,,,,,,,,,,
null,,black_cross(without_color),551872,green,,,,null,GW/basket.jpg,GW/paint.jpg,,,,,,,,,,,,
null,,rt_plussign_withcolor,552374,green,,,,null,GW/basket.jpg,GW/paint.jpg,,,,,,,,,,,,
726.6999999284744,,rt_thecrossant_black,553925,black_plus_sign,,,,50,,,1,0.9156626506024096,,,,,,,,,,
null,,color_black,554028,black_plus_sign,,,,null,,,,,,,,,,,,,,
null,,learn_phase(without_color),556032,black_plus_sign,,,,null,GW/hat.jpg,GW/barrel.jpg,,,,,,,,,,,,
null,,black_cross(without_color),556701,blue,,,,null,GW/hat.jpg,GW/barrel.jpg,,,,,,,,,,,,
378.39999997615814,,rt_plussign_withcolor,557203,blue,,,,49,GW/hat.jpg,GW/barrel.jpg,,,,,,,,,,,,
null,,rt_thecrossant_black,558540,black_plus_sign,,,,null,,,1,0.9166666666666666,,,,,,,,,,
null,,color_black,558642,black_plus_sign,,,,null,,,,,,,,,,,,,,
null,,learn_phase(without_color),560646,black_plus_sign,,,,null,GW/barrel.jpg,GW/snail.jpg,,,,,,,,,,,,
null,,black_cross(without_color),561382,green,,,,null,GW/barrel.jpg,GW/snail.jpg,,,,,,,,,,,,
447.90000009536743,,rt_plussign_withcolor,561884,green,,,,49,GW/barrel.jpg,GW/snail.jpg,,,,,,,,,,,,
null,,rt_thecrossant_black,563153,black_plus_sign,,,,null,,,0,0.9058823529411765,,,,,,,,,,
null,,color_black,563255,black_plus_sign,,,,null,,,,,,,,,,,,,,
null,,learn_phase(without_color),565259,black_plus_sign,,,,null,GW/teeth.jpg,GW/hat.jpg,,,,,,,,,,,,
null,,black_cross(without_color),566208,green,,,,null,GW/teeth.jpg,GW/hat.jpg,,,,,,,,,,,,
452.2000000476837,,rt_plussign_withcolor,566710,green,,,,50,GW/teeth.jpg,GW/hat.jpg,,,,,,,,,,,,
null,,rt_thecrossant_black,567767,black_plus_sign,,,,null,,,1,0.9069767441860465,,,,,,,,,,
null,,color_black,567869,black_plus_sign,,,,null,,,,,,,,,,,,,,
null,,learn_phase(without_color),569873,black_plus_sign,,,,null,GW/dustpan.jpg,GW/hat.jpg,,,,,,,,,,,,
null,,black_cross(without_color),570790,green,,,,null,GW/dustpan.jpg,GW/hat.jpg,,,,,,,,,,,,
438.2999999523163,,rt_plussign_withcolor,571292,green,,,,50,GW/dustpan.jpg,GW/hat.jpg,,,,,,,,,,,,
null,,rt_thecrossant_black,572381,black_plus_sign,,,,null,,,1,0.9080459770114943,,,,,,,,,,
null,,color_black,572484,black_plus_sign,,,,null,,,,,,,,,,,,,,
null,,learn_phase(without_color),574487,black_plus_sign,,,,null,GW/barrel.jpg,GW/snail.jpg,,,,,,,,,,,,
null,,black_cross(without_color),575289,green,,,,null,GW/barrel.jpg,GW/snail.jpg,,,,,,,,,,,,
406.40000009536743,,rt_plussign_withcolor,575791,green,,,,50,GW/barrel.jpg,GW/snail.jpg,,,,,,,,,,,,
null,,rt_thecrossant_black,576995,black_plus_sign,,,,null,,,1,0.9090909090909091,,,,,,,,,,
null,,color_black,577098,black_plus_sign,,,,null,,,,,,,,,,,,,,
null,,learn_phase(without_color),579102,black_plus_sign,,,,null,GW/paint.jpg,GW/barrel.jpg,,,,,,,,,,,,
null,,black_cross(without_color),579574,blue,,,,null,GW/paint.jpg,GW/barrel.jpg,,,,,,,,,,,,
443,,rt_plussign_withcolor,580076,blue,,,,50,GW/paint.jpg,GW/barrel.jpg,,,,,,,,,,,,
null,,rt_thecrossant_black,581609,black_plus_sign,,,,null,,,0,0.898876404494382,,,,,,,,,,
null,,color_black,581712,black_plus_sign,,,,null,,,,,,,,,,,,,,
null,,learn_phase(without_color),583716,black_plus_sign,,,,null,GW/barrel.jpg,GW/snail.jpg,,,,,,,,,,,,
null,,black_cross(without_color),584621,blue,,,,null,GW/barrel.jpg,GW/snail.jpg,,,,,,,,,,,,
475.60000002384186,,rt_plussign_withcolor,585123,blue,,,,49,GW/barrel.jpg,GW/snail.jpg,,,,,,,,,,,,
null,,rt_thecrossant_black,586223,black_plus_sign,,,,null,,,1,0.9,,,,,,,,,,
null,,color_black,586326,black_plus_sign,,,,null,,,,,,,,,,,,,,
null,,learn_phase(without_color),588330,black_plus_sign,,,,null,GW/gong.jpg,GW/hat.jpg,,,,,,,,,,,,
null,,black_cross(without_color),588733,blue,,,,null,GW/gong.jpg,GW/hat.jpg,,,,,,,,,,,,
455,,rt_plussign_withcolor,589235,blue,,,,49,GW/gong.jpg,GW/hat.jpg,,,,,,,,,,,,
null,,rt_thecrossant_black,590837,black_plus_sign,,,,null,,,1,0.9010989010989011,,,,,,,,,,
null,,color_black,590940,black_plus_sign,,,,null,,,,,,,,,,,,,,
null,,learn_phase(without_color),592944,black_plus_sign,,,,null,GW/dustpan.jpg,GW/globe.jpg,,,,,,,,,,,,
null,,black_cross(without_color),593678,green,,,,null,GW/dustpan.jpg,GW/globe.jpg,,,,,,,,,,,,
490.39999997615814,,rt_plussign_withcolor,594180,green,,,,50,GW/dustpan.jpg,GW/globe.jpg,,,,,,,,,,,,
null,,rt_thecrossant_black,595452,black_plus_sign,,,,null,,,1,0.9021739130434783,,,,,,,,,,
null,,color_black,595555,black_plus_sign,,,,null,,,,,,,,,,,,,,
null,,learn_phase(without_color),597559,black_plus_sign,,,,null,GW/paint.jpg,GW/barrel.jpg,,,,,,,,,,,,
null,,black_cross(without_color),598376,green,,,,null,GW/paint.jpg,GW/barrel.jpg,,,,,,,,,,,,
475.1999999284744,,rt_plussign_withcolor,598878,green,,,,50,GW/paint.jpg,GW/barrel.jpg,,,,,,,,,,,,
null,,rt_thecrossant_black,600068,black_plus_sign,,,,null,,,1,0.9032258064516129,,,,,,,,,,
null,,color_black,600170,black_plus_sign,,,,null,,,,,,,,,,,,,,
null,,learn_phase(without_color),602174,black_plus_sign,,,,null,GW/teeth.jpg,GW/hat.jpg,,,,,,,,,,,,
null,,black_cross(without_color),602652,blue,,,,null,GW/teeth.jpg,GW/hat.jpg,,,,,,,,,,,,
null,,rt_plussign_withcolor,603154,blue,,,,null,GW/teeth.jpg,GW/hat.jpg,,,,,,,,,,,,
919.2000000476837,,rt_thecrossant_black,604682,black_plus_sign,,,,49,,,1,0.9042553191489362,,,,,,,,,,
null,,color_black,604785,black_plus_sign,,,,null,,,,,,,,,,,,,,
null,,learn_phase(without_color),606789,black_plus_sign,,,,null,GW/dustpan.jpg,GW/globe.jpg,,,,,,,,,,,,
null,,black_cross(without_color),607296,blue,,,,null,GW/dustpan.jpg,GW/globe.jpg,,,,,,,,,,,,
null,,rt_plussign_withcolor,607799,blue,,,,null,GW/dustpan.jpg,GW/globe.jpg,,,,,,,,,,,,
594.5,,rt_thecrossant_black,609299,black_plus_sign,,,,49,,,1,0.9052631578947369,,,,,,,,,,
null,,color_black,609402,black_plus_sign,,,,null,,,,,,,,,,,,,,
null,,learn_phase(without_color),611406,black_plus_sign,,,,null,GW/dustpan.jpg,GW/hat.jpg,,,,,,,,,,,,
null,,black_cross(without_color),611990,blue,,,,null,GW/dustpan.jpg,GW/hat.jpg,,,,,,,,,,,,
410,,rt_plussign_withcolor,612492,blue,,,,49,GW/dustpan.jpg,GW/hat.jpg,,,,,,,,,,,,
null,,rt_thecrossant_black,613914,black_plus_sign,,,,null,,,1,0.90625,,,,,,,,,,
null,,color_black,614017,black_plus_sign,,,,null,,,,,,,,,,,,,,
null,,learn_phase(without_color),616021,black_plus_sign,,,,null,GW/paint.jpg,GW/barrel.jpg,,,,,,,,,,,,
null,,black_cross(without_color),616810,green,,,,null,GW/paint.jpg,GW/barrel.jpg,,,,,,,,,,,,
null,,rt_plussign_withcolor,617312,green,,,,null,GW/paint.jpg,GW/barrel.jpg,,,,,,,,,,,,
709.2000000476837,,rt_thecrossant_black,618529,black_plus_sign,,,,49,,,0,0.8969072164948454,,,,,,,,,,
null,,color_black,618632,black_plus_sign,,,,null,,,,,,,,,,,,,,
null,,learn_phase(without_color),620636,black_plus_sign,,,,null,GW/paint.jpg,GW/teeth.jpg,,,,,,,,,,,,
null,,black_cross(without_color),621709,blue,,,,null,GW/paint.jpg,GW/teeth.jpg,,,,,,,,,,,,
445.7000000476837,,rt_plussign_withcolor,622211,blue,,,,49,GW/paint.jpg,GW/teeth.jpg,,,,,,,,,,,,
null,,rt_thecrossant_black,623144,black_plus_sign,,,,null,,,1,0.8979591836734694,,,,,,,,,,
null,,color_black,623247,black_plus_sign,,,,null,,,,,,,,,,,,,,
null,,learn_phase(without_color),625251,black_plus_sign,,,,null,GW/wheelchair.jpg,GW/soldier.jpg,,,,,,,,,,,,
null,,black_cross(without_color),626029,green,,,,null,GW/wheelchair.jpg,GW/soldier.jpg,,,,,,,,,,,,
396.6999999284744,,rt_plussign_withcolor,626531,green,,,,50,GW/wheelchair.jpg,GW/soldier.jpg,,,,,,,,,,,,
null,,rt_thecrossant_black,627760,black_plus_sign,,,,null,,,1,0.898989898989899,,,,,,,,,,
null,,color_black,627863,black_plus_sign,,,,null,,,,,,,,,,,,,,
null,,learn_phase(without_color),629867,black_plus_sign,,,,null,GW/paint.jpg,GW/barrel.jpg,,,,,,,,,,,,
null,,black_cross(without_color),630771,green,,,,null,GW/paint.jpg,GW/barrel.jpg,,,,,,,,,,,,
328.10000002384186,,rt_plussign_withcolor,631273,green,,,,50,GW/paint.jpg,GW/barrel.jpg,,,,,,,,,,,,
null,,rt_thecrossant_black,632375,black_plus_sign,,,,null,,,1,0.9,,,,,,,,,,
null,,color_black,632479,black_plus_sign,,,,null,,,,,,,,,,,,,,
null,,learn_phase(without_color),634483,black_plus_sign,,,,null,GW/hat.jpg,GW/barrel.jpg,,,,,,,,,,,,
null,,black_cross(without_color),635056,blue,,,,null,GW/hat.jpg,GW/barrel.jpg,,,,,,,,,,,,
361.2999999523163,,rt_plussign_withcolor,635558,blue,,,,49,GW/hat.jpg,GW/barrel.jpg,,,,,,,,,,,,
null,,rt_thecrossant_black,636991,black_plus_sign,,,,null,,,1,0.900990099009901,,,,,,,,,,
null,,color_black,637094,black_plus_sign,,,,null,,,,,,,,,,,,,,
null,,learn_phase(without_color),639098,black_plus_sign,,,,null,GW/dustpan.jpg,GW/hat.jpg,,,,,,,,,,,,
null,,black_cross(without_color),639714,green,,,,null,GW/dustpan.jpg,GW/hat.jpg,,,,,,,,,,,,
346,,rt_plussign_withcolor,640216,green,,,,50,GW/dustpan.jpg,GW/hat.jpg,,,,,,,,,,,,
null,,rt_thecrossant_black,641606,black_plus_sign,,,,null,,,1,0.9019607843137255,,,,,,,,,,
null,,color_black,641709,black_plus_sign,,,,null,,,,,,,,,,,,,,
null,,learn_phase(without_color),643714,black_plus_sign,,,,null,GW/wheelchair.jpg,GW/snail.jpg,,,,,,,,,,,,
null,,black_cross(without_color),644746,blue,,,,null,GW/wheelchair.jpg,GW/snail.jpg,,,,,,,,,,,,
297.10000002384186,,rt_plussign_withcolor,645248,blue,,,,49,GW/wheelchair.jpg,GW/snail.jpg,,,,,,,,,,,,
null,,rt_thecrossant_black,646222,black_plus_sign,,,,null,,,1,0.9029126213592233,,,,,,,,,,
null,,color_black,646326,black_plus_sign,,,,null,,,,,,,,,,,,,,
null,,learn_phase(without_color),648332,black_plus_sign,,,,null,GW/basket.jpg,GW/paint.jpg,,,,,,,,,,,,
null,,black_cross(without_color),649131,green,,,,null,GW/basket.jpg,GW/paint.jpg,,,,,,,,,,,,
null,,rt_plussign_withcolor,649634,green,,,,null,GW/basket.jpg,GW/paint.jpg,,,,,,,,,,,,
1180.7999999523163,,rt_thecrossant_black,650842,black_plus_sign,,,,50,,,1,0.9038461538461539,,,,,,,,,,
null,,color_black,650945,black_plus_sign,,,,null,,,,,,,,,,,,,,
null,,learn_phase(without_color),652949,black_plus_sign,,,,null,GW/hat.jpg,GW/barrel.jpg,,,,,,,,,,,,
null,,black_cross(without_color),653860,green,,,,null,GW/hat.jpg,GW/barrel.jpg,,,,,,,,,,,,
null,,rt_plussign_withcolor,654368,green,,,,null,GW/hat.jpg,GW/barrel.jpg,,,,,,,,,,,,
1000.5999999046326,,rt_thecrossant_black,655464,black_plus_sign,,,,50,,,1,0.9047619047619048,,,,,,,,,,
null,,color_black,655567,black_plus_sign,,,,null,,,,,,,,,,,,,,
null,,learn_phase(without_color),657571,black_plus_sign,,,,null,GW/gong.jpg,GW/dustpan.jpg,,,,,,,,,,,,
null,,black_cross(without_color),658031,blue,,,,null,GW/gong.jpg,GW/dustpan.jpg,,,,,,,,,,,,
null,,rt_plussign_withcolor,658533,blue,,,,null,GW/gong.jpg,GW/dustpan.jpg,,,,,,,,,,,,
1064.5,,rt_thecrossant_black,660079,black_plus_sign,,,,49,,,1,0.9056603773584906,,,,,,,,,,
null,,color_black,660182,black_plus_sign,,,,null,,,,,,,,,,,,,,
null,,learn_phase(without_color),662186,black_plus_sign,,,,null,GW/paint.jpg,GW/teeth.jpg,,,,,,,,,,,,
null,,black_cross(without_color),662705,green,,,,null,GW/paint.jpg,GW/teeth.jpg,,,,,,,,,,,,
458.7999999523163,,rt_plussign_withcolor,663207,green,,,,50,GW/paint.jpg,GW/teeth.jpg,,,,,,,,,,,,
null,,rt_thecrossant_black,664694,black_plus_sign,,,,null,,,1,0.9065420560747663,,,,,,,,,,
null,,color_black,664797,black_plus_sign,,,,null,,,,,,,,,,,,,,
null,,learn_phase(without_color),666801,black_plus_sign,,,,null,GW/gong.jpg,GW/dustpan.jpg,,,,,,,,,,,,
null,,black_cross(without_color),667357,blue,,,,null,GW/gong.jpg,GW/dustpan.jpg,,,,,,,,,,,,
null,,rt_plussign_withcolor,667859,blue,,,,null,GW/gong.jpg,GW/dustpan.jpg,,,,,,,,,,,,
620.2999999523163,,rt_thecrossant_black,669309,black_plus_sign,,,,49,,,1,0.9074074074074074,,,,,,,,,,
null,,color_black,669412,black_plus_sign,,,,null,,,,,,,,,,,,,,
null,,learn_phase(without_color),671416,black_plus_sign,,,,null,GW/wheelchair.jpg,GW/soldier.jpg,,,,,,,,,,,,
null,,black_cross(without_color),672233,green,,,,null,GW/wheelchair.jpg,GW/soldier.jpg,,,,,,,,,,,,
448.89999997615814,,rt_plussign_withcolor,672735,green,,,,50,GW/wheelchair.jpg,GW/soldier.jpg,,,,,,,,,,,,
null,,rt_thecrossant_black,673925,black_plus_sign,,,,null,,,1,0.908256880733945,,,,,,,,,,
null,,color_black,674028,black_plus_sign,,,,null,,,,,,,,,,,,,,
null,,learn_phase(without_color),676032,black_plus_sign,,,,null,GW/paint.jpg,GW/barrel.jpg,,,,,,,,,,,,
null,,black_cross(without_color),677026,green,,,,null,GW/paint.jpg,GW/barrel.jpg,,,,,,,,,,,,
371.39999997615814,,rt_plussign_withcolor,677529,green,,,,50,GW/paint.jpg,GW/barrel.jpg,,,,,,,,,,,,
null,,rt_thecrossant_black,678540,black_plus_sign,,,,null,,,1,0.9090909090909091,,,,,,,,,,
null,,color_black,678643,black_plus_sign,,,,null,,,,,,,,,,,,,,
null,,learn_phase(without_color),680647,black_plus_sign,,,,null,GW/camera.jpg,GW/basket.jpg,,,,,,,,,,,,
null,,black_cross(without_color),681497,green,,,,null,GW/camera.jpg,GW/basket.jpg,,,,,,,,,,,,
305.60000002384186,,rt_plussign_withcolor,681999,green,,,,50,GW/camera.jpg,GW/basket.jpg,,,,,,,,,,,,
null,,rt_thecrossant_black,683156,black_plus_sign,,,,null,,,1,0.9099099099099099,,,,,,,,,,
null,,color_black,683259,black_plus_sign,,,,null,,,,,,,,,,,,,,
null,,learn_phase(without_color),685263,black_plus_sign,,,,null,GW/basket.jpg,GW/paint.jpg,,,,,,,,,,,,
null,,black_cross(without_color),686356,blue,,,,null,GW/basket.jpg,GW/paint.jpg,,,,,,,,,,,,
487.7000000476837,,rt_plussign_withcolor,686858,blue,,,,49,GW/basket.jpg,GW/paint.jpg,,,,,,,,,,,,
null,,rt_thecrossant_black,687771,black_plus_sign,,,,null,,,1,0.9107142857142857,,,,,,,,,,
null,,color_black,687874,black_plus_sign,,,,null,,,,,,,,,,,,,,
null,,learn_phase(without_color),689878,black_plus_sign,,,,null,GW/paint.jpg,GW/teeth.jpg,,,,,,,,,,,,
null,,black_cross(without_color),690341,green,,,,null,GW/paint.jpg,GW/teeth.jpg,,,,,,,,,,,,
null,,rt_plussign_withcolor,690843,green,,,,null,GW/paint.jpg,GW/teeth.jpg,,,,,,,,,,,,
1280.1000000238419,,rt_thecrossant_black,692386,black_plus_sign,,,,49,,,0,0.9026548672566371,,,,,,,,,,
null,,color_black,692489,black_plus_sign,,,,null,,,,,,,,,,,,,,
null,,learn_phase(without_color),694493,black_plus_sign,,,,null,GW/teeth.jpg,GW/gong.jpg,,,,,,,,,,,,
null,,black_cross(without_color),695267,green,,,,null,GW/teeth.jpg,GW/gong.jpg,,,,,,,,,,,,
390.6999999284744,,rt_plussign_withcolor,695769,green,,,,50,GW/teeth.jpg,GW/gong.jpg,,,,,,,,,,,,
null,,rt_thecrossant_black,697001,black_plus_sign,,,,null,,,1,0.9035087719298246,,,,,,,,,,
null,,color_black,697104,black_plus_sign,,,,null,,,,,,,,,,,,,,
null,,learn_phase(without_color),699109,black_plus_sign,,,,null,GW/gong.jpg,GW/jukebox.jpg,,,,,,,,,,,,
null,,black_cross(without_color),699709,green,,,,null,GW/gong.jpg,GW/jukebox.jpg,,,,,,,,,,,,
null,,rt_plussign_withcolor,700211,green,,,,null,GW/gong.jpg,GW/jukebox.jpg,,,,,,,,,,,,
885.3999999761581,,rt_thecrossant_black,701617,black_plus_sign,,,,50,,,1,0.9043478260869565,,,,,,,,,,
null,,color_black,701720,black_plus_sign,,,,null,,,,,,,,,,,,,,
null,,learn_phase(without_color),703724,black_plus_sign,,,,null,GW/basket.jpg,GW/wheelchair.jpg,,,,,,,,,,,,
null,,black_cross(without_color),704631,blue,,,,null,GW/basket.jpg,GW/wheelchair.jpg,,,,,,,,,,,,
456.5,,rt_plussign_withcolor,705133,blue,,,,49,GW/basket.jpg,GW/wheelchair.jpg,,,,,,,,,,,,
null,,rt_thecrossant_black,706232,black_plus_sign,,,,null,,,1,0.9051724137931034,,,,,,,,,,
null,,color_black,706335,black_plus_sign,,,,null,,,,,,,,,,,,,,
null,,learn_phase(without_color),708339,black_plus_sign,,,,null,GW/teeth.jpg,GW/hat.jpg,,,,,,,,,,,,
null,,black_cross(without_color),709424,green,,,,null,GW/teeth.jpg,GW/hat.jpg,,,,,,,,,,,,
410.2999999523163,,rt_plussign_withcolor,709926,green,,,,50,GW/teeth.jpg,GW/hat.jpg,,,,,,,,,,,,
null,,rt_thecrossant_black,710846,black_plus_sign,,,,null,,,1,0.905982905982906,,,,,,,,,,
null,,color_black,710949,black_plus_sign,,,,null,,,,,,,,,,,,,,
null,,learn_phase(without_color),712953,black_plus_sign,,,,null,GW/gong.jpg,GW/dustpan.jpg,,,,,,,,,,,,
null,,black_cross(without_color),713959,green,,,,null,GW/gong.jpg,GW/dustpan.jpg,,,,,,,,,,,,
null,,rt_plussign_withcolor,714461,green,,,,null,GW/gong.jpg,GW/dustpan.jpg,,,,,,,,,,,,
1263.5,,rt_thecrossant_black,715461,black_plus_sign,,,,50,,,1,0.9067796610169492,,,,,,,,,,
null,,color_black,715564,black_plus_sign,,,,null,,,,,,,,,,,,,,
null,,learn_phase(without_color),717569,black_plus_sign,,,,null,GW/wheelchair.jpg,GW/soldier.jpg,,,,,,,,,,,,
null,,black_cross(without_color),718578,blue,,,,null,GW/wheelchair.jpg,GW/soldier.jpg,,,,,,,,,,,,
383.2000000476837,,rt_plussign_withcolor,719080,blue,,,,49,GW/wheelchair.jpg,GW/soldier.jpg,,,,,,,,,,,,
null,,rt_thecrossant_black,720076,black_plus_sign,,,,null,,,1,0.907563025210084,,,,,,,,,,
null,,color_black,720180,black_plus_sign,,,,null,,,,,,,,,,,,,,
null,,learn_phase(without_color),722184,black_plus_sign,,,,null,GW/barrel.jpg,GW/snail.jpg,,,,,,,,,,,,
null,,black_cross(without_color),722778,blue,,,,null,GW/barrel.jpg,GW/snail.jpg,,,,,,,,,,,,
null,,rt_plussign_withcolor,723280,blue,,,,null,GW/barrel.jpg,GW/snail.jpg,,,,,,,,,,,,
1179,,rt_thecrossant_black,724692,black_plus_sign,,,,49,,,1,0.9083333333333333,,,,,,,,,,
null,,color_black,724795,black_plus_sign,,,,null,,,,,,,,,,,,,,
null,,learn_phase(without_color),726800,black_plus_sign,,,,null,GW/gong.jpg,GW/hat.jpg,,,,,,,,,,,,
null,,black_cross(without_color),727510,green,,,,null,GW/gong.jpg,GW/hat.jpg,,,,,,,,,,,,
null,,rt_plussign_withcolor,728012,green,,,,null,GW/gong.jpg,GW/hat.jpg,,,,,,,,,,,,
null,,rt_thecrossant_black,729308,black_plus_sign,,,,null,,,,0.9083333333333333,,,,,,,,,,
null,,color_black,729411,black_plus_sign,,,,null,,,,,,,,,,,,,,
null,,learn_phase(without_color),731415,black_plus_sign,,,,null,GW/camera.jpg,GW/basket.jpg,,,,,,,,,,,,
null,,black_cross(without_color),732368,blue,,,,null,GW/camera.jpg,GW/basket.jpg,,,,,,,,,,,,
406.60000002384186,,rt_plussign_withcolor,732871,blue,,,,49,GW/camera.jpg,GW/basket.jpg,,,,,,,,,,,,
null,,rt_thecrossant_black,733923,black_plus_sign,,,,null,,,1,0.9090909090909091,,,,,,,,,,
null,,color_black,734026,black_plus_sign,,,,null,,,,,,,,,,,,,,
null,,learn_phase(without_color),736030,black_plus_sign,,,,null,GW/paint.jpg,GW/barrel.jpg,,,,,,,,,,,,
null,,black_cross(without_color),736490,green,,,,null,GW/paint.jpg,GW/barrel.jpg,,,,,,,,,,,,
null,,rt_plussign_withcolor,736992,green,,,,null,GW/paint.jpg,GW/barrel.jpg,,,,,,,,,,,,
1091.1000000238419,,rt_thecrossant_black,738538,black_plus_sign,,,,50,,,1,0.9098360655737705,,,,,,,,,,
null,,color_black,738641,black_plus_sign,,,,null,,,,,,,,,,,,,,
null,,learn_phase(without_color),740645,black_plus_sign,,,,null,GW/hat.jpg,GW/barrel.jpg,,,,,,,,,,,,
null,,black_cross(without_color),741356,green,,,,null,GW/hat.jpg,GW/barrel.jpg,,,,,,,,,,,,
428,,rt_plussign_withcolor,741859,green,,,,50,GW/hat.jpg,GW/barrel.jpg,,,,,,,,,,,,
null,,rt_thecrossant_black,743153,black_plus_sign,,,,null,,,1,0.9105691056910569,,,,,,,,,,
null,,color_black,743256,black_plus_sign,,,,null,,,,,,,,,,,,,,
null,,learn_phase(without_color),745260,black_plus_sign,,,,null,GW/gong.jpg,GW/dustpan.jpg,,,,,,,,,,,,
null,,black_cross(without_color),745663,green,,,,null,GW/gong.jpg,GW/dustpan.jpg,,,,,,,,,,,,
470.1999999284744,,rt_plussign_withcolor,746165,green,,,,50,GW/gong.jpg,GW/dustpan.jpg,,,,,,,,,,,,
null,,rt_thecrossant_black,747768,black_plus_sign,,,,null,,,1,0.9112903225806451,,,,,,,,,,
null,,color_black,747871,black_plus_sign,,,,null,,,,,,,,,,,,,,
null,,learn_phase(without_color),749875,black_plus_sign,,,,null,GW/camera.jpg,GW/basket.jpg,,,,,,,,,,,,
null,,black_cross(without_color),750586,green,,,,null,GW/camera.jpg,GW/basket.jpg,,,,,,,,,,,,
434.1999999284744,,rt_plussign_withcolor,751088,green,,,,50,GW/camera.jpg,GW/basket.jpg,,,,,,,,,,,,
null,,rt_thecrossant_black,752383,black_plus_sign,,,,null,,,1,0.912,,,,,,,,,,
null,,color_black,752486,black_plus_sign,,,,null,,,,,,,,,,,,,,
null,,learn_phase(without_color),754490,black_plus_sign,,,,null,GW/gong.jpg,GW/dustpan.jpg,,,,,,,,,,,,
null,,black_cross(without_color),754896,green,,,,null,GW/gong.jpg,GW/dustpan.jpg,,,,,,,,,,,,
430.7999999523163,,rt_plussign_withcolor,755399,green,,,,50,GW/gong.jpg,GW/dustpan.jpg,,,,,,,,,,,,
null,,rt_thecrossant_black,756999,black_plus_sign,,,,null,,,1,0.9126984126984127,,,,,,,,,,
null,,color_black,757102,black_plus_sign,,,,null,,,,,,,,,,,,,,
null,,learn_phase(without_color),759106,black_plus_sign,,,,null,GW/wheelchair.jpg,GW/snail.jpg,,,,,,,,,,,,
null,,black_cross(without_color),760198,green,,,,null,GW/wheelchair.jpg,GW/snail.jpg,,,,,,,,,,,,
484.2999999523163,,rt_plussign_withcolor,760700,green,,,,50,GW/wheelchair.jpg,GW/snail.jpg,,,,,,,,,,,,
null,,rt_thecrossant_black,761613,black_plus_sign,,,,null,,,1,0.9133858267716536,,,,,,,,,,
null,,color_black,761716,black_plus_sign,,,,null,,,,,,,,,,,,,,
48991.39999997616,,intro_1,810712,instruct,,0,Start,,,,,,,,,,,,,,,
2481.2999999523163,,directmemory_phase,813198,GW/gong.jpg,,,,50,,,1,1,GW/barrel.jpg,GW/dustpan.jpg,GW/camera.jpg,GW/dustpan.jpg,GW/barrel.jpg,GW/camera.jpg,1,,,
null,,html-keyboard-response,814203,<p></p>,,,,null,,,,,,,,,,,,,,
3829,,directmemory_phase,818035,GW/hat.jpg,,,,51,,,1,1,GW/soldier.jpg,GW/jukebox.jpg,GW/teeth.jpg,GW/teeth.jpg,GW/jukebox.jpg,GW/soldier.jpg,1,,,
null,,html-keyboard-response,819039,<p></p>,,,,null,,,,,,,,,,,,,,
1501.4000000953674,,directmemory_phase,820543,GW/soldier.jpg,,,,49,,,1,1,GW/wheelchair.jpg,GW/hat.jpg,GW/snail.jpg,GW/wheelchair.jpg,GW/snail.jpg,GW/hat.jpg,1,,,
null,,html-keyboard-response,821547,<p></p>,,,,null,,,,,,,,,,,,,,
3045.399999976158,,directmemory_phase,824596,GW/dustpan.jpg,,,,49,,,1,1,GW/hat.jpg,GW/snail.jpg,GW/barrel.jpg,GW/hat.jpg,GW/barrel.jpg,GW/snail.jpg,1,,,
null,,html-keyboard-response,825600,<p></p>,,,,null,,,,,,,,,,,,,,
2525.1999999284744,,directmemory_phase,828128,GW/snail.jpg,,,,50,,,1,1,GW/paint.jpg,GW/barrel.jpg,GW/dustpan.jpg,GW/barrel.jpg,GW/paint.jpg,GW/dustpan.jpg,1,,,
null,,html-keyboard-response,829132,<p></p>,,,,null,,,,,,,,,,,,,,
3211.899999976158,,directmemory_phase,832347,GW/gong.jpg,,,,49,,,1,1,GW/hat.jpg,GW/snail.jpg,GW/globe.jpg,GW/hat.jpg,GW/globe.jpg,GW/snail.jpg,1,,,
null,,html-keyboard-response,833351,<p></p>,,,,null,,,,,,,,,,,,,,
1588.1000000238419,,directmemory_phase,834942,GW/globe.jpg,,,,50,,,1,1,GW/hat.jpg,GW/dustpan.jpg,GW/paint.jpg,GW/dustpan.jpg,GW/hat.jpg,GW/paint.jpg,1,,,
null,,html-keyboard-response,835945,<p></p>,,,,null,,,,,,,,,,,,,,
2758.5,,directmemory_phase,838707,GW/snail.jpg,,,,49,,,0,0.875,GW/hat.jpg,GW/wheelchair.jpg,GW/dustpan.jpg,GW/wheelchair.jpg,GW/hat.jpg,GW/dustpan.jpg,0.5,closer,,
null,,html-keyboard-response,839711,<p></p>,,,,null,,,,,,,,,,,,,,
1223.1000000238419,,directmemory_phase,840938,GW/basket.jpg,,,,49,,,1,0.8888888888888888,GW/camera.jpg,GW/jukebox.jpg,GW/soldier.jpg,GW/camera.jpg,GW/soldier.jpg,GW/jukebox.jpg,1,,,
null,,html-keyboard-response,841941,<p></p>,,,,null,,,,,,,,,,,,,,
2238.7999999523163,,directmemory_phase,844182,GW/barrel.jpg,,,,50,,,0,0.8,GW/camera.jpg,GW/teeth.jpg,GW/snail.jpg,GW/snail.jpg,GW/teeth.jpg,GW/camera.jpg,0.5,closer,,
null,,html-keyboard-response,845186,<p></p>,,,,null,,,,,,,,,,,,,,
3820.7000000476837,,directmemory_phase,849010,GW/hat.jpg,,,,51,,,1,0.8181818181818182,GW/basket.jpg,GW/paint.jpg,GW/dustpan.jpg,GW/dustpan.jpg,GW/paint.jpg,GW/basket.jpg,1,,,
null,,html-keyboard-response,850014,<p></p>,,,,null,,,,,,,,,,,,,,
3097.6999999284744,,directmemory_phase,853114,GW/basket.jpg,,,,51,,,0,0.75,GW/teeth.jpg,GW/wheelchair.jpg,GW/hat.jpg,GW/wheelchair.jpg,GW/teeth.jpg,GW/hat.jpg,0.5,closer,,
null,,html-keyboard-response,854117,<p></p>,,,,null,,,,,,,,,,,,,,
1388.7000000476837,,directmemory_phase,855509,GW/paint.jpg,,,,49,,,1,0.7692307692307693,GW/barrel.jpg,GW/soldier.jpg,GW/wheelchair.jpg,GW/barrel.jpg,GW/wheelchair.jpg,GW/soldier.jpg,1,,,
null,,html-keyboard-response,856513,<p></p>,,,,null,,,,,,,,,,,,,,
1144,,directmemory_phase,857660,GW/wheelchair.jpg,,,,51,,,1,0.7857142857142857,GW/teeth.jpg,GW/camera.jpg,GW/soldier.jpg,GW/soldier.jpg,GW/camera.jpg,GW/teeth.jpg,1,,,
null,,html-keyboard-response,858664,<p></p>,,,,null,,,,,,,,,,,,,,
1081,,directmemory_phase,859748,GW/dustpan.jpg,,,,49,,,1,0.8,GW/globe.jpg,GW/snail.jpg,GW/teeth.jpg,GW/globe.jpg,GW/teeth.jpg,GW/snail.jpg,1,,,
null,,html-keyboard-response,860751,<p></p>,,,,null,,,,,,,,,,,,,,
2929.7000000476837,,directmemory_phase,863684,GW/wheelchair.jpg,,,,49,,,1,0.8125,GW/snail.jpg,GW/hat.jpg,GW/camera.jpg,GW/snail.jpg,GW/camera.jpg,GW/hat.jpg,1,,,
null,,html-keyboard-response,864688,<p></p>,,,,null,,,,,,,,,,,,,,
1286.3000000715256,,directmemory_phase,865977,GW/paint.jpg,,,,51,,,1,0.8235294117647058,GW/globe.jpg,GW/camera.jpg,GW/basket.jpg,GW/basket.jpg,GW/camera.jpg,GW/globe.jpg,1,,,
null,,html-keyboard-response,866981,<p></p>,,,,null,,,,,,,,,,,,,,
2472.600000023842,,directmemory_phase,869456,GW/gong.jpg,,,,49,,,1,0.8333333333333334,GW/teeth.jpg,GW/snail.jpg,GW/barrel.jpg,GW/teeth.jpg,GW/barrel.jpg,GW/snail.jpg,1,,,
null,,html-keyboard-response,870460,<p></p>,,,,null,,,,,,,,,,,,,,
1384.2999999523163,,directmemory_phase,871847,GW/barrel.jpg,,,,49,,,1,0.8421052631578947,GW/paint.jpg,GW/jukebox.jpg,GW/gong.jpg,GW/paint.jpg,GW/gong.jpg,GW/jukebox.jpg,1,,,
null,,html-keyboard-response,872851,<p></p>,,,,null,,,,,,,,,,,,,,
2050.2000000476837,,directmemory_phase,874904,GW/jukebox.jpg,,,,49,,,1,0.85,GW/gong.jpg,GW/paint.jpg,GW/hat.jpg,GW/gong.jpg,GW/hat.jpg,GW/paint.jpg,1,,,
null,,html-keyboard-response,875908,<p></p>,,,,null,,,,,,,,,,,,,,
1342.2999999523163,,directmemory_phase,877253,GW/basket.jpg,,,,51,,,1,0.8571428571428571,GW/hat.jpg,GW/soldier.jpg,GW/paint.jpg,GW/paint.jpg,GW/soldier.jpg,GW/hat.jpg,1,,,
null,,html-keyboard-response,878257,<p></p>,,,,null,,,,,,,,,,,,,,
3399.8000000715256,,directmemory_phase,881659,GW/barrel.jpg,,,,51,,,0,0.8181818181818182,GW/hat.jpg,GW/globe.jpg,GW/dustpan.jpg,GW/hat.jpg,GW/dustpan.jpg,GW/globe.jpg,0.5,closer,,
null,,html-keyboard-response,882663,<p></p>,,,,null,,,,,,,,,,,,,,
3498.899999976158,,directmemory_phase,886165,GW/teeth.jpg,,,,51,,,1,0.8260869565217391,GW/snail.jpg,GW/jukebox.jpg,GW/gong.jpg,GW/gong.jpg,GW/jukebox.jpg,GW/snail.jpg,1,,,
null,,html-keyboard-response,887172,<p></p>,,,,null,,,,,,,,,,,,,,
1234.5,,directmemory_phase,888410,GW/hat.jpg,,,,51,,,1,0.8333333333333334,GW/basket.jpg,GW/globe.jpg,GW/barrel.jpg,GW/barrel.jpg,GW/globe.jpg,GW/basket.jpg,1,,,
null,,html-keyboard-response,889415,<p></p>,,,,null,,,,,,,,,,,,,,
2204.6999999284744,,directmemory_phase,891622,GW/wheelchair.jpg,,,,49,,,0,0.8,GW/teeth.jpg,GW/camera.jpg,GW/basket.jpg,GW/basket.jpg,GW/camera.jpg,GW/teeth.jpg,0.5,closer,,
null,,html-keyboard-response,892626,<p></p>,,,,null,,,,,,,,,,,,,,
1586.6000000238419,,directmemory_phase,894215,GW/paint.jpg,,,,49,,,0,0.7692307692307693,GW/dustpan.jpg,GW/wheelchair.jpg,GW/teeth.jpg,GW/teeth.jpg,GW/wheelchair.jpg,GW/dustpan.jpg,0.5,closer,,
null,,html-keyboard-response,895220,<p></p>,,,,null,,,,,,,,,,,,,,
4238.700000047684,,directmemory_phase,899462,GW/gong.jpg,,,,51,,,0,0.7407407407407407,GW/paint.jpg,GW/jukebox.jpg,GW/wheelchair.jpg,GW/jukebox.jpg,GW/paint.jpg,GW/wheelchair.jpg,0.5,closer,,
null,,html-keyboard-response,900466,<p></p>,,,,null,,,,,,,,,,,,,,
2163.399999976158,,directmemory_phase,902632,GW/teeth.jpg,,,,49,,,1,0.75,GW/paint.jpg,GW/soldier.jpg,GW/barrel.jpg,GW/paint.jpg,GW/barrel.jpg,GW/soldier.jpg,1,,,
null,,html-keyboard-response,903637,<p></p>,,,,null,,,,,,,,,,,,,,
2688.100000023842,,directmemory_phase,906328,GW/hat.jpg,,,,49,,,1,0.7586206896551724,GW/gong.jpg,GW/camera.jpg,GW/globe.jpg,GW/gong.jpg,GW/globe.jpg,GW/camera.jpg,1,,,
null,,html-keyboard-response,907333,<p></p>,,,,null,,,,,,,,,,,,,,
1345.1000000238419,,directmemory_phase,908681,GW/camera.jpg,,,,51,,,1,0.7666666666666667,GW/hat.jpg,GW/wheelchair.jpg,GW/basket.jpg,GW/basket.jpg,GW/wheelchair.jpg,GW/hat.jpg,1,,,
null,,html-keyboard-response,909685,<p></p>,,,,null,,,,,,,,,,,,,,
1443.7999999523163,,directmemory_phase,911131,GW/teeth.jpg,,,,50,,,0,0.7419354838709677,GW/hat.jpg,GW/soldier.jpg,GW/basket.jpg,GW/hat.jpg,GW/basket.jpg,GW/soldier.jpg,0.5,closer,,
null,,html-keyboard-response,912135,<p></p>,,,,null,,,,,,,,,,,,,,
1735.4000000953674,,directmemory_phase,913873,GW/dustpan.jpg,,,,49,,,1,0.75,GW/gong.jpg,GW/snail.jpg,GW/jukebox.jpg,GW/gong.jpg,GW/jukebox.jpg,GW/snail.jpg,1,,,
null,,html-keyboard-response,914878,<p></p>,,,,null,,,,,,,,,,,,,,
82631.69999992847,,intro_1,997512,instruct,,0,,,,,,,,,,,,,,,,
6339.600000023842,,intro_2,1003856,instruct,,1,Next,,,,,,,,,,,,,,,
2365.5,,intro_3,1006226,instruct,,1,Next,,,,,,,,,,,,,,,
4245.700000047684,,intro_4,1010477,instruct,,1,Next,,,,,,,,,,,,,,,
12556,,intro_5,1023038,instruct,,1,Next,,,,,,,,,,,,,,,
4456.599999904633,,intro_6,1027499,instruct,,1,Next,,,,,,,,,,,,,,,
1818.4000000953674,,intro_7,1029322,instruct,,1,Next,,,,,,,,,,,,,,,
10095.900000095367,,intro_8,1039423,instruct,,1,Next,,,,,,,,,,,,,,,
1911.6000000238419,,shortestpath_phase,1041339,GW/globe.jpg,,,,49,GW/basket.jpg,GW/camera.jpg,1,1,,,,GW/basket.jpg,,,,,One Edge Diff,Five Edge Six Edge
null,,html-keyboard-response,1042344,<p></p>,,,,null,,,,,,,,,,,,,,
1960.1000000238419,,shortestpath_phase,1044306,GW/jukebox.jpg,,,,49,GW/soldier.jpg,GW/hat.jpg,0,0.5,,,,GW/hat.jpg,,,,,Four Edge Diff,Two Edge Six Edge
null,,html-keyboard-response,1045310,<p></p>,,,,null,,,,,,,,,,,,,,
1633.6000000238419,,shortestpath_phase,1046947,GW/soldier.jpg,,,,50,GW/paint.jpg,GW/snail.jpg,1,0.6666666666666666,,,,GW/snail.jpg,,,,,One Edge Diff,Two Edge Three Edge
null,,html-keyboard-response,1047951,<p></p>,,,,null,,,,,,,,,,,,,,
1334.5999999046326,,shortestpath_phase,1049288,GW/hat.jpg,,,,50,GW/camera.jpg,GW/paint.jpg,1,0.75,,,,GW/paint.jpg,,,,,Two Edge Diff,Two Edge Four Edge
null,,html-keyboard-response,1050292,<p></p>,,,,null,,,,,,,,,,,,,,
1233.7999999523163,,shortestpath_phase,1051529,GW/dustpan.jpg,,,,49,GW/soldier.jpg,GW/barrel.jpg,0,0.6,,,,GW/barrel.jpg,,,,,Three Edge Diff,Two Edge Five Edge
null,,html-keyboard-response,1052533,<p></p>,,,,null,,,,,,,,,,,,,,
1310.1000000238419,,shortestpath_phase,1053846,GW/camera.jpg,,,,50,GW/gong.jpg,GW/wheelchair.jpg,1,0.6666666666666666,,,,GW/wheelchair.jpg,,,,,Two Edge Diff,Two Edge Four Edge
null,,html-keyboard-response,1054850,<p></p>,,,,null,,,,,,,,,,,,,,
1458.7000000476837,,shortestpath_phase,1056311,GW/barrel.jpg,,,,49,GW/soldier.jpg,GW/teeth.jpg,0,0.5714285714285714,,,,GW/teeth.jpg,,,,,One Edge Diff,Two Edge Three Edge
null,,html-keyboard-response,1057315,<p></p>,,,,null,,,,,,,,,,,,,,
2093,,shortestpath_phase,1059411,GW/globe.jpg,,,,49,GW/snail.jpg,GW/camera.jpg,1,0.625,,,,GW/snail.jpg,,,,,Two Edge Diff,Four Edge Six Edge
null,,html-keyboard-response,1060416,<p></p>,,,,null,,,,,,,,,,,,,,
1432.8999999761581,,shortestpath_phase,1061852,GW/wheelchair.jpg,,,,49,GW/teeth.jpg,GW/barrel.jpg,0,0.5555555555555556,,,,GW/barrel.jpg,,,,,One Edge Diff,Two Edge Three Edge
null,,html-keyboard-response,1062856,<p></p>,,,,null,,,,,,,,,,,,,,
2095.2000000476837,,shortestpath_phase,1064954,GW/snail.jpg,,,,49,GW/teeth.jpg,GW/globe.jpg,1,0.6,,,,GW/teeth.jpg,,,,,One Edge Diff,Three Edge Four Edge
null,,html-keyboard-response,1065958,<p></p>,,,,null,,,,,,,,,,,,,,
2321.600000023842,,shortestpath_phase,1068282,GW/wheelchair.jpg,,,,49,GW/gong.jpg,GW/jukebox.jpg,1,0.6363636363636364,,,,GW/gong.jpg,,,,,One Edge Diff,Four Edge Five Edge
null,,html-keyboard-response,1069286,<p></p>,,,,null,,,,,,,,,,,,,,
2152.8000000715256,,shortestpath_phase,1071441,GW/teeth.jpg,,,,49,GW/soldier.jpg,GW/jukebox.jpg,0,0.5833333333333334,,,,GW/jukebox.jpg,,,,,Two Edge Diff,Two Edge Four Edge
null,,html-keyboard-response,1072445,<p></p>,,,,null,,,,,,,,,,,,,,
2375.600000023842,,shortestpath_phase,1074824,GW/camera.jpg,,,,50,GW/globe.jpg,GW/paint.jpg,1,0.6153846153846154,,,,GW/paint.jpg,,,,,Four Edge Diff,Two Edge Six Edge
null,,html-keyboard-response,1075828,<p></p>,,,,null,,,,,,,,,,,,,,
1074.8000000715256,,shortestpath_phase,1076905,GW/soldier.jpg,,,,50,GW/teeth.jpg,GW/gong.jpg,0,0.5714285714285714,,,,GW/teeth.jpg,,,,,One Edge Diff,Four Edge Five Edge
null,,html-keyboard-response,1077909,<p></p>,,,,null,,,,,,,,,,,,,,
1227.7999999523163,,shortestpath_phase,1079140,GW/dustpan.jpg,,,,50,GW/paint.jpg,GW/basket.jpg,0,0.5333333333333333,,,,GW/paint.jpg,,,,,One Edge Diff,Three Edge Four Edge
null,,html-keyboard-response,1080145,<p></p>,,,,null,,,,,,,,,,,,,,
1133.5999999046326,,shortestpath_phase,1081281,GW/jukebox.jpg,,,,49,GW/snail.jpg,GW/teeth.jpg,0,0.5,,,,GW/teeth.jpg,,,,,Two Edge Diff,Two Edge Four Edge
null,,html-keyboard-response,1082285,<p></p>,,,,null,,,,,,,,,,,,,,
3146.899999976158,,shortestpath_phase,1085434,GW/soldier.jpg,,,,49,GW/basket.jpg,GW/dustpan.jpg,1,0.5294117647058824,,,,GW/basket.jpg,,,,,Three Edge Diff,Three Edge Six Edge
null,,html-keyboard-response,1086438,<p></p>,,,,null,,,,,,,,,,,,,,
2497.899999976158,,shortestpath_phase,1088939,GW/globe.jpg,,,,49,GW/paint.jpg,GW/camera.jpg,1,0.5555555555555556,,,,GW/paint.jpg,,,,,Two Edge Diff,Four Edge Six Edge
null,,html-keyboard-response,1089943,<p></p>,,,,null,,,,,,,,,,,,,,
934.3000000715256,,shortestpath_phase,1090880,GW/dustpan.jpg,,,,49,GW/soldier.jpg,GW/jukebox.jpg,0,0.5263157894736842,,,,GW/jukebox.jpg,,,,,Three Edge Diff,Two Edge Five Edge
null,,html-keyboard-response,1091884,<p></p>,,,,null,,,,,,,,,,,,,,
1727.3999999761581,,shortestpath_phase,1093614,GW/basket.jpg,,,,50,GW/globe.jpg,GW/snail.jpg,1,0.55,,,,GW/snail.jpg,,,,,Three Edge Diff,Two Edge Five Edge
null,,html-keyboard-response,1094619,<p></p>,,,,null,,,,,,,,,,,,,,
999.6999999284744,,shortestpath_phase,1095621,GW/gong.jpg,,,,49,GW/soldier.jpg,GW/camera.jpg,0,0.5238095238095238,,,,GW/camera.jpg,,,,,One Edge Diff,Four Edge Five Edge
null,,html-keyboard-response,1096625,<p></p>,,,,null,,,,,,,,,,,,,,
1079.3999999761581,,shortestpath_phase,1097707,GW/wheelchair.jpg,,,,50,GW/barrel.jpg,GW/gong.jpg,0,0.5,,,,GW/barrel.jpg,,,,,Two Edge Diff,Two Edge Four Edge
null,,html-keyboard-response,1098711,<p></p>,,,,null,,,,,,,,,,,,,,
923.5,,shortestpath_phase,1099638,GW/jukebox.jpg,,,,50,GW/teeth.jpg,GW/soldier.jpg,0,0.4782608695652174,,,,GW/teeth.jpg,,,,,Four Edge Diff,Two Edge Six Edge
null,,html-keyboard-response,1100641,<p></p>,,,,null,,,,,,,,,,,,,,
1341.5,,shortestpath_phase,1101985,GW/gong.jpg,,,,49,GW/snail.jpg,GW/globe.jpg,0,0.4583333333333333,,,,GW/globe.jpg,,,,,One Edge Diff,Two Edge Three Edge
null,,html-keyboard-response,1102990,<p></p>,,,,null,,,,,,,,,,,,,,
1322,,shortestpath_phase,1104314,GW/wheelchair.jpg,,,,49,GW/teeth.jpg,GW/jukebox.jpg,1,0.48,,,,GW/teeth.jpg,,,,,Two Edge Diff,Three Edge Five Edge
null,,html-keyboard-response,1105318,<p></p>,,,,null,,,,,,,,,,,,,,
1088.8999999761581,,shortestpath_phase,1106410,GW/camera.jpg,,,,49,GW/globe.jpg,GW/jukebox.jpg,0,0.46153846153846156,,,,GW/jukebox.jpg,,,,,One Edge Diff,Five Edge Six Edge
null,,html-keyboard-response,1107414,<p></p>,,,,null,,,,,,,,,,,,,,
1111.5,,shortestpath_phase,1108528,GW/wheelchair.jpg,,,,50,GW/globe.jpg,GW/hat.jpg,1,0.48148148148148145,,,,GW/hat.jpg,,,,,Two Edge Diff,Three Edge Five Edge
null,,html-keyboard-response,1109532,<p></p>,,,,null,,,,,,,,,,,,,,
1419.8999999761581,,shortestpath_phase,1110954,GW/jukebox.jpg,,,,49,GW/basket.jpg,GW/soldier.jpg,1,0.5,,,,GW/basket.jpg,,,,,Two Edge Diff,Four Edge Six Edge
null,,html-keyboard-response,1111959,<p></p>,,,,null,,,,,,,,,,,,,,
1058.6000000238419,,shortestpath_phase,1113020,GW/wheelchair.jpg,,,,49,GW/gong.jpg,GW/camera.jpg,0,0.4827586206896552,,,,GW/camera.jpg,,,,,Two Edge Diff,Two Edge Four Edge
null,,html-keyboard-response,1114024,<p></p>,,,,null,,,,,,,,,,,,,,
1372.3000000715256,,shortestpath_phase,1115399,GW/dustpan.jpg,,,,49,GW/barrel.jpg,GW/camera.jpg,1,0.5,,,,GW/barrel.jpg,,,,,Three Edge Diff,Two Edge Five Edge
null,,html-keyboard-response,1116404,<p></p>,,,,null,,,,,,,,,,,,,,
2182.6999999284744,,shortestpath_phase,1118589,GW/wheelchair.jpg,,,,50,GW/camera.jpg,GW/dustpan.jpg,0,0.4838709677419355,,,,GW/camera.jpg,,,,,Two Edge Diff,Two Edge Four Edge
null,,html-keyboard-response,1119593,<p></p>,,,,null,,,,,,,,,,,,,,
858.2999999523163,,shortestpath_phase,1120455,GW/dustpan.jpg,,,,50,GW/teeth.jpg,GW/camera.jpg,0,0.46875,,,,GW/teeth.jpg,,,,,Three Edge Diff,Two Edge Five Edge
null,,html-keyboard-response,1121460,<p></p>,,,,null,,,,,,,,,,,,,,
1095.5,,shortestpath_phase,1122559,GW/basket.jpg,,,,50,GW/jukebox.jpg,GW/hat.jpg,1,0.48484848484848486,,,,GW/hat.jpg,,,,,One Edge Diff,Three Edge Four Edge
null,,html-keyboard-response,1123566,<p></p>,,,,null,,,,,,,,,,,,,,
1290.0999999046326,,shortestpath_phase,1124859,GW/globe.jpg,,,,49,GW/wheelchair.jpg,GW/camera.jpg,1,0.5,,,,GW/wheelchair.jpg,,,,,One Edge Diff,Five Edge Six Edge
null,,html-keyboard-response,1125864,<p></p>,,,,null,,,,,,,,,,,,,,
1000,,shortestpath_phase,1126868,GW/soldier.jpg,,,,49,GW/jukebox.jpg,GW/hat.jpg,0,0.4857142857142857,,,,GW/hat.jpg,,,,,Two Edge Diff,Four Edge Six Edge
null,,html-keyboard-response,1127871,<p></p>,,,,null,,,,,,,,,,,,,,
1313.1999999284744,,shortestpath_phase,1129187,GW/basket.jpg,,,,49,GW/globe.jpg,GW/dustpan.jpg,0,0.4722222222222222,,,,GW/dustpan.jpg,,,,,One Edge Diff,Four Edge Five Edge
null,,html-keyboard-response,1130193,<p></p>,,,,null,,,,,,,,,,,,,,
1363,,shortestpath_phase,1131559,GW/hat.jpg,,,,50,GW/soldier.jpg,GW/wheelchair.jpg,1,0.4864864864864865,,,,GW/wheelchair.jpg,,,,,One Edge Diff,Three Edge Four Edge
null,,html-keyboard-response,1132563,<p></p>,,,,null,,,,,,,,,,,,,,
1117.2000000476837,,shortestpath_phase,1133683,GW/basket.jpg,,,,50,GW/gong.jpg,GW/teeth.jpg,1,0.5,,,,GW/teeth.jpg,,,,,One Edge Diff,Two Edge Three Edge
null,,html-keyboard-response,1134687,<p></p>,,,,null,,,,,,,,,,,,,,
926.8000000715256,,shortestpath_phase,1135616,GW/snail.jpg,,,,49,GW/teeth.jpg,GW/hat.jpg,0,0.48717948717948717,,,,GW/hat.jpg,,,,,One Edge Diff,Two Edge Three Edge
null,,html-keyboard-response,1136622,<p></p>,,,,null,,,,,,,,,,,,,,
1204,,shortestpath_phase,1137829,GW/barrel.jpg,,,,50,GW/camera.jpg,GW/teeth.jpg,1,0.5,,,,GW/teeth.jpg,,,,,One Edge Diff,Two Edge Three Edge
null,,html-keyboard-response,1138833,<p></p>,,,,null,,,,,,,,,,,,,,
3773,,shortestpath_phase,1142609,GW/snail.jpg,,,,49,GW/soldier.jpg,GW/dustpan.jpg,1,0.5121951219512195,,,,GW/soldier.jpg,,,,,One Edge Diff,Two Edge Three Edge
null,,html-keyboard-response,1143614,<p></p>,,,,null,,,,,,,,,,,,,,
996.3999999761581,,shortestpath_phase,1144613,GW/paint.jpg,,,,49,GW/globe.jpg,GW/dustpan.jpg,0,0.5,,,,GW/dustpan.jpg,,,,,One Edge Diff,Three Edge Four Edge
null,,html-keyboard-response,1145617,<p></p>,,,,null,,,,,,,,,,,,,,
2394.7000000476837,,shortestpath_phase,1148015,GW/camera.jpg,,,,50,GW/dustpan.jpg,GW/barrel.jpg,1,0.5116279069767442,,,,GW/barrel.jpg,,,,,Two Edge Diff,Three Edge Five Edge
null,,html-keyboard-response,1149019,<p></p>,,,,null,,,,,,,,,,,,,,
1640.8999999761581,,shortestpath_phase,1150663,GW/gong.jpg,,,,49,GW/soldier.jpg,GW/paint.jpg,0,0.5,,,,GW/paint.jpg,,,,,Three Edge Diff,Two Edge Five Edge
null,,html-keyboard-response,1151668,<p></p>,,,,null,,,,,,,,,,,,,,
1081.3999999761581,,shortestpath_phase,1152752,GW/basket.jpg,,,,50,GW/barrel.jpg,GW/jukebox.jpg,0,0.4888888888888889,,,,GW/barrel.jpg,,,,,Two Edge Diff,Two Edge Four Edge
null,,html-keyboard-response,1153756,<p></p>,,,,null,,,,,,,,,,,,,,
3932.5999999046326,,shortestpath_phase,1157691,GW/wheelchair.jpg,,,,50,GW/camera.jpg,GW/teeth.jpg,0,0.4782608695652174,,,,GW/camera.jpg,,,,,One Edge Diff,Two Edge Three Edge
null,,html-keyboard-response,1158696,<p></p>,,,,null,,,,,,,,,,,,,,
1414.5,,shortestpath_phase,1160113,GW/soldier.jpg,,,,50,GW/barrel.jpg,GW/gong.jpg,0,0.46808510638297873,,,,GW/barrel.jpg,,,,,Two Edge Diff,Three Edge Five Edge
null,,html-keyboard-response,1161118,<p></p>,,,,null,,,,,,,,,,,,,,
1302.3999999761581,,shortestpath_phase,1162423,GW/dustpan.jpg,,,,50,GW/basket.jpg,GW/jukebox.jpg,1,0.4791666666666667,,,,GW/jukebox.jpg,,,,,Two Edge Diff,Two Edge Four Edge
null,,html-keyboard-response,1163427,<p></p>,,,,null,,,,,,,,,,,,,,
1623,,shortestpath_phase,1165053,GW/globe.jpg,,,,50,GW/basket.jpg,GW/soldier.jpg,0,0.46938775510204084,,,,GW/basket.jpg,,,,,One Edge Diff,Five Edge Six Edge
null,,html-keyboard-response,1166057,<p></p>,,,,null,,,,,,,,,,,,,,
1773.7000000476837,,shortestpath_phase,1167833,GW/camera.jpg,,,,50,GW/wheelchair.jpg,GW/globe.jpg,0,0.46,,,,GW/wheelchair.jpg,,,,,Four Edge Diff,Two Edge Six Edge
null,,html-keyboard-response,1168839,<p></p>,,,,null,,,,,,,,,,,,,,
2602.2000000476837,,shortestpath_phase,1171444,GW/dustpan.jpg,,,,49,GW/barrel.jpg,GW/camera.jpg,1,0.47058823529411764,,,,GW/barrel.jpg,,,,,Three Edge Diff,Three Edge Six Edge
null,,html-keyboard-response,1172449,<p></p>,,,,null,,,,,,,,,,,,,,
2064,,shortestpath_phase,1174516,GW/camera.jpg,,,,49,GW/jukebox.jpg,GW/paint.jpg,0,0.46153846153846156,,,,GW/paint.jpg,,,,,Three Edge Diff,Three Edge Six Edge
null,,html-keyboard-response,1175520,<p></p>,,,,null,,,,,,,,,,,,,,
1634.5999999046326,,shortestpath_phase,1177158,GW/dustpan.jpg,,,,49,GW/teeth.jpg,GW/basket.jpg,1,0.4716981132075472,,,,GW/teeth.jpg,,,,,Two Edge Diff,Two Edge Four Edge
null,,html-keyboard-response,1178162,<p></p>,,,,null,,,,,,,,,,,,,,
1910.2999999523163,,shortestpath_phase,1180075,GW/soldier.jpg,,,,49,GW/jukebox.jpg,GW/snail.jpg,0,0.46296296296296297,,,,GW/snail.jpg,,,,,Four Edge Diff,Two Edge Six Edge
null,,html-keyboard-response,1181079,<p></p>,,,,null,,,,,,,,,,,,,,
1461.3999999761581,,shortestpath_phase,1182543,GW/globe.jpg,,,,49,GW/gong.jpg,GW/soldier.jpg,1,0.4727272727272727,,,,GW/gong.jpg,,,,,Four Edge Diff,Two Edge Six Edge
null,,html-keyboard-response,1183548,<p></p>,,,,null,,,,,,,,,,,,,,
1188,,shortestpath_phase,1184739,GW/camera.jpg,,,,50,GW/dustpan.jpg,GW/teeth.jpg,1,0.48214285714285715,,,,GW/teeth.jpg,,,,,Two Edge Diff,Three Edge Five Edge
null,,html-keyboard-response,1185743,<p></p>,,,,null,,,,,,,,,,,,,,
1732.8999999761581,,shortestpath_phase,1187479,GW/jukebox.jpg,,,,49,GW/camera.jpg,GW/dustpan.jpg,0,0.47368421052631576,,,,GW/dustpan.jpg,,,,,Three Edge Diff,Three Edge Six Edge
null,,html-keyboard-response,1188483,<p></p>,,,,null,,,,,,,,,,,,,,
1202.2000000476837,,shortestpath_phase,1189688,GW/gong.jpg,,,,50,GW/barrel.jpg,GW/wheelchair.jpg,0,0.46551724137931033,,,,GW/barrel.jpg,,,,,Two Edge Diff,Two Edge Four Edge
null,,html-keyboard-response,1190693,<p></p>,,,,null,,,,,,,,,,,,,,
1699.7000000476837,,shortestpath_phase,1192395,GW/soldier.jpg,,,,49,GW/gong.jpg,GW/camera.jpg,0,0.4576271186440678,,,,GW/camera.jpg,,,,,Two Edge Diff,Three Edge Five Edge
null,,html-keyboard-response,1193400,<p></p>,,,,null,,,,,,,,,,,,,,
1596.8999999761581,,shortestpath_phase,1194999,GW/dustpan.jpg,,,,50,GW/soldier.jpg,GW/jukebox.jpg,1,0.4666666666666667,,,,GW/jukebox.jpg,,,,,Three Edge Diff,Three Edge Six Edge
null,,html-keyboard-response,1196004,<p></p>,,,,null,,,,,,,,,,,,,,
2644.399999976158,,shortestpath_phase,1198651,GW/basket.jpg,,,,49,GW/dustpan.jpg,GW/hat.jpg,0,0.45901639344262296,,,,GW/hat.jpg,,,,,One Edge Diff,Three Edge Four Edge
null,,html-keyboard-response,1199655,<p></p>,,,,null,,,,,,,,,,,,,,
2387.100000023842,,shortestpath_phase,1202045,GW/soldier.jpg,,,,50,GW/dustpan.jpg,GW/globe.jpg,0,0.45161290322580644,,,,GW/dustpan.jpg,,,,,One Edge Diff,Five Edge Six Edge
null,,html-keyboard-response,1203050,<p></p>,,,,null,,,,,,,,,,,,,,
2080.7000000476837,,shortestpath_phase,1205133,GW/wheelchair.jpg,,,,49,GW/globe.jpg,GW/camera.jpg,0,0.4444444444444444,,,,GW/camera.jpg,,,,,Three Edge Diff,Two Edge Five Edge
null,,html-keyboard-response,1206138,<p></p>,,,,null,,,,,,,,,,,,,,
1569.6999999284744,,shortestpath_phase,1207710,GW/soldier.jpg,,,,49,GW/gong.jpg,GW/basket.jpg,0,0.4375,,,,GW/basket.jpg,,,,,Three Edge Diff,Two Edge Five Edge
null,,html-keyboard-response,1208715,<p></p>,,,,null,,,,,,,,,,,,,,
1283.7999999523163,,shortestpath_phase,1210002,GW/wheelchair.jpg,,,,49,GW/globe.jpg,GW/teeth.jpg,0,0.4307692307692308,,,,GW/teeth.jpg,,,,,Two Edge Diff,Three Edge Five Edge
null,,html-keyboard-response,1211007,<p></p>,,,,null,,,,,,,,,,,,,,
1384.8999999761581,,shortestpath_phase,1212394,GW/camera.jpg,,,,49,GW/soldier.jpg,GW/dustpan.jpg,1,0.4393939393939394,,,,GW/soldier.jpg,,,,,Two Edge Diff,Three Edge Five Edge
null,,html-keyboard-response,1213399,<p></p>,,,,null,,,,,,,,,,,,,,
3205.100000023842,,shortestpath_phase,1216607,GW/wheelchair.jpg,,,,49,GW/barrel.jpg,GW/dustpan.jpg,1,0.44776119402985076,,,,GW/barrel.jpg,,,,,Two Edge Diff,Two Edge Four Edge
null,,html-keyboard-response,1217612,<p></p>,,,,null,,,,,,,,,,,,,,
1143.2000000476837,,shortestpath_phase,1218758,GW/globe.jpg,,,,50,GW/hat.jpg,GW/wheelchair.jpg,0,0.4411764705882353,,,,GW/hat.jpg,,,,,Three Edge Diff,Three Edge Six Edge
null,,html-keyboard-response,1219763,<p></p>,,,,null,,,,,,,,,,,,,,
1546.6999999284744,,shortestpath_phase,1221312,GW/soldier.jpg,,,,50,GW/globe.jpg,GW/basket.jpg,1,0.4492753623188406,,,,GW/basket.jpg,,,,,Four Edge Diff,Two Edge Six Edge
null,,html-keyboard-response,1222317,<p></p>,,,,null,,,,,,,,,,,,,,
2047.7000000476837,,shortestpath_phase,1224368,GW/globe.jpg,,,,49,GW/soldier.jpg,GW/hat.jpg,0,0.44285714285714284,,,,GW/hat.jpg,,,,,Four Edge Diff,Two Edge Six Edge
null,,html-keyboard-response,1225373,<p></p>,,,,null,,,,,,,,,,,,,,
3314.4000000953674,,shortestpath_phase,1228690,GW/teeth.jpg,,,,50,GW/jukebox.jpg,GW/snail.jpg,0,0.43661971830985913,,,,GW/jukebox.jpg,,,,,One Edge Diff,Two Edge Three Edge
null,,html-keyboard-response,1229695,<p></p>,,,,null,,,,,,,,,,,,,,
1626.2000000476837,,shortestpath_phase,1231324,GW/globe.jpg,,,,49,GW/snail.jpg,GW/basket.jpg,1,0.4444444444444444,,,,GW/snail.jpg,,,,,One Edge Diff,Four Edge Five Edge
null,,html-keyboard-response,1232329,<p></p>,,,,null,,,,,,,,,,,,,,
1764.8999999761581,,shortestpath_phase,1234097,GW/teeth.jpg,,,,49,GW/wheelchair.jpg,GW/soldier.jpg,1,0.4520547945205479,,,,GW/wheelchair.jpg,,,,,One Edge Diff,Three Edge Four Edge
null,,html-keyboard-response,1235101,<p></p>,,,,null,,,,,,,,,,,,,,
1492.6000000238419,,shortestpath_phase,1236597,GW/globe.jpg,,,,49,GW/jukebox.jpg,GW/wheelchair.jpg,1,0.4594594594594595,,,,GW/jukebox.jpg,,,,,Two Edge Diff,Three Edge Five Edge
null,,html-keyboard-response,1237601,<p></p>,,,,null,,,,,,,,,,,,,,
1112.7000000476837,,shortestpath_phase,1238717,GW/soldier.jpg,,,,49,GW/jukebox.jpg,GW/teeth.jpg,0,0.4533333333333333,,,,GW/teeth.jpg,,,,,Two Edge Diff,Four Edge Six Edge
null,,html-keyboard-response,1239722,<p></p>,,,,null,,,,,,,,,,,,,,
1257.1999999284744,,shortestpath_phase,1240983,GW/gong.jpg,,,,49,GW/basket.jpg,GW/wheelchair.jpg,1,0.4605263157894737,,,,GW/basket.jpg,,,,,One Edge Diff,Three Edge Four Edge
null,,html-keyboard-response,1241987,<p></p>,,,,null,,,,,,,,,,,,,,
832.8999999761581,,shortestpath_phase,1242824,GW/globe.jpg,,,,50,GW/basket.jpg,GW/teeth.jpg,1,0.4675324675324675,,,,GW/teeth.jpg,,,,,Two Edge Diff,Three Edge Five Edge
null,,html-keyboard-response,1243829,<p></p>,,,,null,,,,,,,,,,,,,,
1366,,shortestpath_phase,1245198,GW/soldier.jpg,,,,50,GW/jukebox.jpg,GW/dustpan.jpg,1,0.47435897435897434,,,,GW/dustpan.jpg,,,,,One Edge Diff,Five Edge Six Edge
null,,html-keyboard-response,1246202,<p></p>,,,,null,,,,,,,,,,,,,,
923.1000000238419,,shortestpath_phase,1247128,GW/camera.jpg,,,,50,GW/hat.jpg,GW/jukebox.jpg,0,0.46835443037974683,,,,GW/hat.jpg,,,,,One Edge Diff,Four Edge Five Edge
null,,html-keyboard-response,1248133,<p></p>,,,,null,,,,,,,,,,,,,,
1924.5,,shortestpath_phase,1250061,GW/jukebox.jpg,,,,50,GW/paint.jpg,GW/camera.jpg,0,0.4625,,,,GW/paint.jpg,,,,,Two Edge Diff,Three Edge Five Edge
null,,html-keyboard-response,1251065,<p></p>,,,,null,,,,,,,,,,,,,,
1112.2000000476837,,shortestpath_phase,1252180,GW/camera.jpg,,,,50,GW/globe.jpg,GW/dustpan.jpg,1,0.4691358024691358,,,,GW/dustpan.jpg,,,,,One Edge Diff,Five Edge Six Edge
null,,html-keyboard-response,1253184,<p></p>,,,,null,,,,,,,,,,,,,,
1183.3999999761581,,shortestpath_phase,1254371,GW/wheelchair.jpg,,,,50,GW/dustpan.jpg,GW/teeth.jpg,1,0.47560975609756095,,,,GW/teeth.jpg,,,,,One Edge Diff,Three Edge Four Edge
null,,html-keyboard-response,1255375,<p></p>,,,,null,,,,,,,,,,,,,,
1128.8000000715256,,shortestpath_phase,1256507,GW/globe.jpg,,,,49,GW/camera.jpg,GW/hat.jpg,0,0.46987951807228917,,,,GW/hat.jpg,,,,,Four Edge Diff,Two Edge Six Edge
null,,html-keyboard-response,1257513,<p></p>,,,,null,,,,,,,,,,,,,,
835.2000000476837,,shortestpath_phase,1258352,GW/jukebox.jpg,,,,50,GW/wheelchair.jpg,GW/teeth.jpg,1,0.47619047619047616,,,,GW/teeth.jpg,,,,,Three Edge Diff,Two Edge Five Edge
null,,html-keyboard-response,1259356,<p></p>,,,,null,,,,,,,,,,,,,,
1180.8999999761581,,shortestpath_phase,1260540,GW/dustpan.jpg,,,,49,GW/basket.jpg,GW/camera.jpg,1,0.4823529411764706,,,,GW/basket.jpg,,,,,One Edge Diff,Four Edge Five Edge
null,,html-keyboard-response,1261544,<p></p>,,,,null,,,,,,,,,,,,,,
1956.1000000238419,,shortestpath_phase,1263503,GW/globe.jpg,,,,49,GW/wheelchair.jpg,GW/soldier.jpg,1,0.4883720930232558,,,,GW/wheelchair.jpg,,,,,One Edge Diff,Five Edge Six Edge
null,,html-keyboard-response,1264507,<p></p>,,,,null,,,,,,,,,,,,,,
691.8999999761581,,shortestpath_phase,1265202,GW/jukebox.jpg,,,,49,GW/soldier.jpg,GW/snail.jpg,0,0.4827586206896552,,,,GW/snail.jpg,,,,,Two Edge Diff,Four Edge Six Edge
null,,html-keyboard-response,1266207,<p></p>,,,,null,,,,,,,,,,,,,,
1001.5,,shortestpath_phase,1267211,GW/camera.jpg,,,,49,GW/wheelchair.jpg,GW/jukebox.jpg,1,0.48863636363636365,,,,GW/wheelchair.jpg,,,,,Three Edge Diff,Three Edge Six Edge
null,,html-keyboard-response,1268215,<p></p>,,,,null,,,,,,,,,,,,,,
1329.2000000476837,,shortestpath_phase,1269548,GW/globe.jpg,,,,49,GW/soldier.jpg,GW/snail.jpg,0,0.48314606741573035,,,,GW/snail.jpg,,,,,Two Edge Diff,Four Edge Six Edge
null,,html-keyboard-response,1270553,<p></p>,,,,null,,,,,,,,,,,,,,
648.7999999523163,,shortestpath_phase,1271205,GW/dustpan.jpg,,,,50,GW/camera.jpg,GW/wheelchair.jpg,1,0.4888888888888889,,,,GW/wheelchair.jpg,,,,,One Edge Diff,Four Edge Five Edge
null,,html-keyboard-response,1272209,<p></p>,,,,null,,,,,,,,,,,,,,
580,,shortestpath_phase,1272792,GW/soldier.jpg,,,,49,GW/globe.jpg,GW/gong.jpg,0,0.4835164835164835,,,,GW/gong.jpg,,,,,One Edge Diff,Five Edge Six Edge
null,,html-keyboard-response,1273797,<p></p>,,,,null,,,,,,,,,,,,,,
850.1000000238419,,shortestpath_phase,1274650,GW/globe.jpg,,,,49,GW/paint.jpg,GW/jukebox.jpg,0,0.4782608695652174,,,,GW/jukebox.jpg,,,,,One Edge Diff,Three Edge Four Edge
null,,html-keyboard-response,1275655,<p></p>,,,,null,,,,,,,,,,,,,,
933.4000000953674,,shortestpath_phase,1276592,GW/basket.jpg,,,,50,GW/snail.jpg,GW/globe.jpg,0,0.4731182795698925,,,,GW/snail.jpg,,,,,Three Edge Diff,Three Edge Six Edge
null,,html-keyboard-response,1277596,<p></p>,,,,null,,,,,,,,,,,,,,
1503.1999999284744,,shortestpath_phase,1279102,GW/gong.jpg,,,,49,GW/soldier.jpg,GW/paint.jpg,0,0.46808510638297873,,,,GW/paint.jpg,,,,,Three Edge Diff,Three Edge Six Edge
null,,html-keyboard-response,1280107,<p></p>,,,,null,,,,,,,,,,,,,,
829.6000000238419,,shortestpath_phase,1280939,GW/basket.jpg,,,,50,GW/soldier.jpg,GW/globe.jpg,0,0.4631578947368421,,,,GW/soldier.jpg,,,,,Three Edge Diff,Two Edge Five Edge
null,,html-keyboard-response,1281944,<p></p>,,,,null,,,,,,,,,,,,,,
922.6999999284744,,shortestpath_phase,1282870,GW/globe.jpg,,,,49,GW/soldier.jpg,GW/paint.jpg,0,0.4583333333333333,,,,GW/paint.jpg,,,,,Two Edge Diff,Four Edge Six Edge
null,,html-keyboard-response,1283874,<p></p>,,,,null,,,,,,,,,,,,,,
611.2000000476837,,shortestpath_phase,1284488,GW/dustpan.jpg,,,,50,GW/soldier.jpg,GW/wheelchair.jpg,1,0.4639175257731959,,,,GW/wheelchair.jpg,,,,,One Edge Diff,Four Edge Five Edge
null,,html-keyboard-response,1285493,<p></p>,,,,null,,,,,,,,,,,,,,
599.6999999284744,,shortestpath_phase,1286095,GW/soldier.jpg,,,,49,GW/gong.jpg,GW/paint.jpg,0,0.45918367346938777,,,,GW/paint.jpg,,,,,Two Edge Diff,Three Edge Five Edge
null,,html-keyboard-response,1287101,<p></p>,,,,null,,,,,,,,,,,,,,
794.5,,shortestpath_phase,1287898,GW/globe.jpg,,,,49,GW/gong.jpg,GW/camera.jpg,1,0.46464646464646464,,,,GW/gong.jpg,,,,,Four Edge Diff,Two Edge Six Edge
null,,html-keyboard-response,1288903,<p></p>,,,,null,,,,,,,,,,,,,,
961.7999999523163,,shortestpath_phase,1289867,GW/basket.jpg,,,,50,GW/jukebox.jpg,GW/globe.jpg,0,0.46,,,,GW/jukebox.jpg,,,,,One Edge Diff,Four Edge Five Edge
null,,html-keyboard-response,1290872,<p></p>,,,,null,,,,,,,,,,,,,,
787.3999999761581,,shortestpath_phase,1291663,GW/camera.jpg,,,,49,GW/globe.jpg,GW/hat.jpg,0,0.45544554455445546,,,,GW/hat.jpg,,,,,Two Edge Diff,Four Edge Six Edge
null,,html-keyboard-response,1292667,<p></p>,,,,null,,,,,,,,,,,,,,
648.8999999761581,,shortestpath_phase,1293318,GW/soldier.jpg,,,,49,GW/globe.jpg,GW/teeth.jpg,0,0.45098039215686275,,,,GW/teeth.jpg,,,,,Two Edge Diff,Four Edge Six Edge
null,,html-keyboard-response,1294323,<p></p>,,,,null,,,,,,,,,,,,,,
488,,shortestpath_phase,1294814,GW/globe.jpg,,,,50,GW/paint.jpg,GW/basket.jpg,0,0.44660194174757284,,,,GW/paint.jpg,,,,,One Edge Diff,Four Edge Five Edge
null,,html-keyboard-response,1295818,<p></p>,,,,null,,,,,,,,,,,,,,
1189.2000000476837,,shortestpath_phase,1297010,GW/teeth.jpg,,,,49,GW/wheelchair.jpg,GW/jukebox.jpg,0,0.4423076923076923,,,,GW/jukebox.jpg,,,,,One Edge Diff,Two Edge Three Edge
null,,html-keyboard-response,1298015,<p></p>,,,,null,,,,,,,,,,,,,,
1146.0999999046326,,shortestpath_phase,1299164,GW/soldier.jpg,,,,49,GW/hat.jpg,GW/dustpan.jpg,1,0.44761904761904764,,,,GW/hat.jpg,,,,,One Edge Diff,Four Edge Five Edge
null,,html-keyboard-response,1300169,<p></p>,,,,null,,,,,,,,,,,,,,
530.5,,shortestpath_phase,1300702,GW/camera.jpg,,,,49,GW/gong.jpg,GW/globe.jpg,1,0.4528301886792453,,,,GW/gong.jpg,,,,,Two Edge Diff,Four Edge Six Edge
null,,html-keyboard-response,1301706,<p></p>,,,,null,,,,,,,,,,,,,,
1949.7000000476837,,shortestpath_phase,1303659,GW/jukebox.jpg,,,,50,GW/camera.jpg,GW/hat.jpg,1,0.45794392523364486,,,,GW/hat.jpg,,,,,Three Edge Diff,Two Edge Five Edge
null,,html-keyboard-response,1304663,<p></p>,,,,null,,,,,,,,,,,,,,
1217.8000000715256,,shortestpath_phase,1305884,GW/globe.jpg,,,,50,GW/gong.jpg,GW/wheelchair.jpg,0,0.4537037037037037,,,,GW/gong.jpg,,,,,Three Edge Diff,Three Edge Six Edge
null,,html-keyboard-response,1306889,<p></p>,,,,null,,,,,,,,,,,,,,
689.5,,shortestpath_phase,1307581,GW/soldier.jpg,,,,50,GW/camera.jpg,GW/teeth.jpg,0,0.44954128440366975,,,,GW/camera.jpg,,,,,One Edge Diff,Three Edge Four Edge
null,,html-keyboard-response,1308586,<p></p>,,,,null,,,,,,,,,,,,,,
1019.7999999523163,,shortestpath_phase,1309609,GW/basket.jpg,,,,50,GW/globe.jpg,GW/teeth.jpg,1,0.45454545454545453,,,,GW/teeth.jpg,,,,,Three Edge Diff,Three Edge Six Edge
null,,html-keyboard-response,1310615,<p></p>,,,,null,,,,,,,,,,,,,,
1097.3000000715256,,shortestpath_phase,1311715,GW/jukebox.jpg,,,,50,GW/soldier.jpg,GW/dustpan.jpg,1,0.4594594594594595,,,,GW/dustpan.jpg,,,,,Four Edge Diff,Two Edge Six Edge
null,,html-keyboard-response,1312720,<p></p>,,,,null,,,,,,,,,,,,,,
768.2999999523163,,shortestpath_phase,1313491,GW/globe.jpg,,,,49,GW/barrel.jpg,GW/gong.jpg,0,0.45535714285714285,,,,GW/gong.jpg,,,,,One Edge Diff,Two Edge Three Edge
null,,html-keyboard-response,1314495,<p></p>,,,,null,,,,,,,,,,,,,,
1222,,shortestpath_phase,1315720,GW/jukebox.jpg,,,,49,GW/camera.jpg,GW/soldier.jpg,1,0.46017699115044247,,,,GW/camera.jpg,,,,,One Edge Diff,Five Edge Six Edge
null,,html-keyboard-response,1316726,<p></p>,,,,null,,,,,,,,,,,,,,
923,,shortestpath_phase,1317652,GW/dustpan.jpg,,,,49,GW/soldier.jpg,GW/barrel.jpg,0,0.45614035087719296,,,,GW/barrel.jpg,,,,,Three Edge Diff,Three Edge Six Edge
null,,html-keyboard-response,1318657,<p></p>,,,,null,,,,,,,,,,,,,,
1711.0999999046326,,shortestpath_phase,1320371,GW/soldier.jpg,,,,49,GW/jukebox.jpg,GW/basket.jpg,0,0.45217391304347826,,,,GW/basket.jpg,,,,,Four Edge Diff,Two Edge Six Edge
null,,html-keyboard-response,1321376,<p></p>,,,,null,,,,,,,,,,,,,,
2207.100000023842,,shortestpath_phase,1323586,GW/globe.jpg,,,,49,GW/snail.jpg,GW/barrel.jpg,0,0.4482758620689655,,,,GW/barrel.jpg,,,,,One Edge Diff,Three Edge Four Edge
null,,html-keyboard-response,1324591,<p></p>,,,,null,,,,,,,,,,,,,,
4335.399999976158,,shortestpath_phase,1328929,GW/soldier.jpg,,,,50,GW/gong.jpg,GW/jukebox.jpg,0,0.4444444444444444,,,,GW/gong.jpg,,,,,One Edge Diff,Five Edge Six Edge
null,,html-keyboard-response,1329934,<p></p>,,,,null,,,,,,,,,,,,,,
993.3999999761581,,shortestpath_phase,1330930,GW/jukebox.jpg,,,,49,GW/wheelchair.jpg,GW/soldier.jpg,1,0.4491525423728814,,,,GW/wheelchair.jpg,,,,,One Edge Diff,Five Edge Six Edge
null,,html-keyboard-response,1331935,<p></p>,,,,null,,,,,,,,,,,,,,
5508.300000071526,,shortestpath_phase,1337447,GW/soldier.jpg,,,,50,GW/hat.jpg,GW/globe.jpg,0,0.44537815126050423,,,,GW/hat.jpg,,,,,Two Edge Diff,Four Edge Six Edge
null,,html-keyboard-response,1338452,<p></p>,,,,null,,,,,,,,,,,,,,
1544.5,,shortestpath_phase,1340000,GW/globe.jpg,,,,49,GW/gong.jpg,GW/wheelchair.jpg,1,0.45,,,,GW/gong.jpg,,,,,Three Edge Diff,Two Edge Five Edge
null,,html-keyboard-response,1341006,<p></p>,,,,null,,,,,,,,,,,,,,
1045.3000000715256,,shortestpath_phase,1342056,GW/soldier.jpg,,,,49,GW/globe.jpg,GW/snail.jpg,0,0.4462809917355372,,,,GW/snail.jpg,,,,,Four Edge Diff,Two Edge Six Edge
null,,html-keyboard-response,1343059,<p></p>,,,,null,,,,,,,,,,,,,,
430303.3000000715,,intro_1,1773366,instruct,,0,,,,,,,,,,,,,,,,
47335.5,,intro_2,1820707,instruct,,1,Next,,,,,,,,,,,,,,,
5580.900000095367,,intro_3,1826294,instruct,,1,Next,,,,,,,,,,,,,,,
