rt,responses,trial_type,time_elapsed,stimulus,graphorder,button_pressed,response,key_press,stimulus_left,stimulus_right,accuracy,cumulative_accuracy,stimulus_down_left,stimulus_down_mid,stimulus_down_right,stimulus_correct,stimulus_short,stimulus_far,weighted_accuracy,missedtrial,condition,specific_pairs
12978.799999952316,{worker_id:65631b21aff167a83105c476},id_enter,12985,id_enter,GW/teeth.jpg; GW/barrel.jpg; GW/globe.jpg; GW/jukebox.jpg; GW/snail.jpg; GW/hat.jpg; GW/gong.jpg; GW/camera.jpg; GW/dustpan.jpg; GW/soldier.jpg; GW/paint.jpg; GW/basket.jpg; GW/wheelchair.jpg,,,,,,,,,,,,,,,,,
14876.399999976158,,fullscreen,27876,fullscreen,,0,,,,,,,,,,,,,,,,
30553.400000095367,,intro_1,58434,instruct,,0,,,,,,,,,,,,,,,,
134516.69999992847,,intro_2,192954,instruct,,1,Next,,,,,,,,,,,,,,,
9547.200000047684,,intro_3,202505,instruct,,1,Next,,,,,,,,,,,,,,,
null,,learn_prac_1,204511,lean_prac_1,,,,null,,,,,,,,,,,,,,
null,,html-keyboard-response,205515,<p></p>,,,,null,,,,,,,,,,,,,,
23221,,intro_1,228738,instruct,,0,,,,,,,,,,,,,,,,
18760.600000023842,,intro_2,247500,instruct,,1,Next,,,,,,,,,,,,,,,
null,,learn_prac_2,249503,lean_prac_2,,,,null,,,,,,,,,,,,,,
null,,html-keyboard-response,250505,<p></p>,,,,null,,,,,,,,,,,,,,
16071.600000023842,,intro_1,266579,instruct,,0,,,,,,,,,,,,,,,,
41924,,intro_2,308505,instruct,,1,Next,,,,,,,,,,,,,,,
33434.10000002384,,intro_3,341940,instruct,,1,Next,,,,,,,,,,,,,,,
null,,prac_atten_color_black,342924,black_plus_sign,,,,null,,,,,,,,,,,,,,
null,,prac_atten_color,343344,prac_stop_color,,,,null,,,,,,,,,,,,,,
157.10000002384186,,prac_atten_color_black,345347,black_plus_sign,,,,49,,,,,,,,,,,,,,
null,,prac_atten_color_black,346332,black_plus_sign,,,,null,,,,,,,,,,,,,,
null,,prac_atten_color,346806,prac_stop_color,,,,null,,,,,,,,,,,,,,
159.29999995231628,,prac_atten_color_black,348808,black_plus_sign,,,,50,,,,,,,,,,,,,,
null,,prac_atten_color_black,349747,black_plus_sign,,,,null,,,,,,,,,,,,,,
null,,prac_atten_color,350342,prac_stop_color,,,,null,,,,,,,,,,,,,,
65.10000002384186,,prac_atten_color_black,352344,black_plus_sign,,,,50,,,,,,,,,,,,,,
null,,prac_atten_color_black,353154,black_plus_sign,,,,null,,,,,,,,,,,,,,
632.3000000715256,,prac_atten_color,353815,prac_stop_color,,,,49,,,,,,,,,,,,,,
null,,prac_atten_color_black,355818,black_plus_sign,,,,null,,,,,,,,,,,,,,
null,,prac_atten_color_black,356562,black_plus_sign,,,,null,,,,,,,,,,,,,,
null,,prac_atten_color,357028,prac_stop_color,,,,null,,,,,,,,,,,,,,
50.800000071525574,,prac_atten_color_black,359030,black_plus_sign,,,,50,,,,,,,,,,,,,,
null,,prac_atten_color_black,359969,black_plus_sign,,,,null,,,,,,,,,,,,,,
462.1999999284744,,prac_atten_color,360689,prac_stop_color,,,,50,,,,,,,,,,,,,,
null,,prac_atten_color_black,362691,black_plus_sign,,,,null,,,,,,,,,,,,,,
null,,prac_atten_color_black,363377,black_plus_sign,,,,null,,,,,,,,,,,,,,
null,,prac_atten_color,363848,prac_stop_color,,,,null,,,,,,,,,,,,,,
35,,prac_atten_color_black,365850,black_plus_sign,,,,49,,,,,,,,,,,,,,
null,,prac_atten_color_black,366785,black_plus_sign,,,,null,,,,,,,,,,,,,,
null,,prac_atten_color,367362,prac_stop_color,,,,null,,,,,,,,,,,,,,
5.399999976158142,,prac_atten_color_black,369364,black_plus_sign,,,,50,,,,,,,,,,,,,,
null,,prac_atten_color_black,370193,black_plus_sign,,,,null,,,,,,,,,,,,,,
500.6999999284744,,prac_atten_color,371045,prac_stop_color,,,,49,,,,,,,,,,,,,,
null,,prac_atten_color_black,373047,black_plus_sign,,,,null,,,,,,,,,,,,,,
null,,prac_atten_color_black,373600,black_plus_sign,,,,null,,,,,,,,,,,,,,
null,,prac_atten_color,374049,prac_stop_color,,,,null,,,,,,,,,,,,,,
78.10000002384186,,prac_atten_color_black,376051,black_plus_sign,,,,49,,,,,,,,,,,,,,
187578.89999997616,,attentioncheck_feedback,563633,cross_check_feedback,,0,,,,,,,,,,,,,,,,
57121.39999997616,,last_instruct,620757,instruct,,,,32,,,,,,,,,,,,,,
null,,learn_phase(without_color),622759,black_plus_sign,,,,null,GW/hat.jpg,GW/dustpan.jpg,,,,,,,,,,,,
null,,black_cross(without_color),623208,blue,,,,null,GW/hat.jpg,GW/dustpan.jpg,,,,,,,,,,,,
null,,rt_plussign_withcolor,623710,blue,,,,null,GW/hat.jpg,GW/dustpan.jpg,,,,,,,,,,,,
757.6000000238419,,rt_thecrossant_black,625265,black_plus_sign,,,,49,,,1,1,,,,,,,,,,
null,,color_black,625368,black_plus_sign,,,,null,,,,,,,,,,,,,,
null,,learn_phase(without_color),627371,black_plus_sign,,,,null,GW/jukebox.jpg,GW/basket.jpg,,,,,,,,,,,,
null,,black_cross(without_color),627822,green,,,,null,GW/jukebox.jpg,GW/basket.jpg,,,,,,,,,,,,
451.5,,rt_plussign_withcolor,628324,green,,,,50,GW/jukebox.jpg,GW/basket.jpg,,,,,,,,,,,,
null,,rt_thecrossant_black,629879,black_plus_sign,,,,null,,,1,1,,,,,,,,,,
null,,color_black,629981,black_plus_sign,,,,null,,,,,,,,,,,,,,
null,,learn_phase(without_color),631984,black_plus_sign,,,,null,GW/gong.jpg,GW/wheelchair.jpg,,,,,,,,,,,,
null,,black_cross(without_color),632484,green,,,,null,GW/gong.jpg,GW/wheelchair.jpg,,,,,,,,,,,,
null,,rt_plussign_withcolor,632986,green,,,,null,GW/gong.jpg,GW/wheelchair.jpg,,,,,,,,,,,,
743.3999999761581,,rt_thecrossant_black,634492,black_plus_sign,,,,50,,,1,1,,,,,,,,,,
null,,color_black,634594,black_plus_sign,,,,null,,,,,,,,,,,,,,
null,,learn_phase(without_color),636608,black_plus_sign,,,,null,GW/globe.jpg,GW/hat.jpg,,,,,,,,,,,,
null,,black_cross(without_color),637540,blue,,,,null,GW/globe.jpg,GW/hat.jpg,,,,,,,,,,,,
441.59999990463257,,rt_plussign_withcolor,638042,blue,,,,49,GW/globe.jpg,GW/hat.jpg,,,,,,,,,,,,
null,,rt_thecrossant_black,639116,black_plus_sign,,,,null,,,1,1,,,,,,,,,,
null,,color_black,639218,black_plus_sign,,,,null,,,,,,,,,,,,,,
null,,learn_phase(without_color),641222,black_plus_sign,,,,null,GW/dustpan.jpg,GW/paint.jpg,,,,,,,,,,,,
null,,black_cross(without_color),642068,blue,,,,null,GW/dustpan.jpg,GW/paint.jpg,,,,,,,,,,,,
null,,rt_plussign_withcolor,642570,blue,,,,null,GW/dustpan.jpg,GW/paint.jpg,,,,,,,,,,,,
1065,,rt_thecrossant_black,643736,black_plus_sign,,,,49,,,1,1,,,,,,,,,,
null,,color_black,643838,black_plus_sign,,,,null,,,,,,,,,,,,,,
null,,learn_phase(without_color),645841,black_plus_sign,,,,null,GW/hat.jpg,GW/dustpan.jpg,,,,,,,,,,,,
null,,black_cross(without_color),646588,green,,,,null,GW/hat.jpg,GW/dustpan.jpg,,,,,,,,,,,,
null,,rt_plussign_withcolor,647090,green,,,,null,GW/hat.jpg,GW/dustpan.jpg,,,,,,,,,,,,
1018.6000000238419,,rt_thecrossant_black,648346,black_plus_sign,,,,50,,,1,1,,,,,,,,,,
null,,color_black,648449,black_plus_sign,,,,null,,,,,,,,,,,,,,
null,,learn_phase(without_color),650453,black_plus_sign,,,,null,GW/camera.jpg,GW/dustpan.jpg,,,,,,,,,,,,
null,,black_cross(without_color),651509,blue,,,,null,GW/camera.jpg,GW/dustpan.jpg,,,,,,,,,,,,
null,,rt_plussign_withcolor,652011,blue,,,,null,GW/camera.jpg,GW/dustpan.jpg,,,,,,,,,,,,
1184.8999999761581,,rt_thecrossant_black,652959,black_plus_sign,,,,49,,,1,1,,,,,,,,,,
null,,color_black,653062,black_plus_sign,,,,null,,,,,,,,,,,,,,
null,,learn_phase(without_color),655066,black_plus_sign,,,,null,GW/gong.jpg,GW/wheelchair.jpg,,,,,,,,,,,,
null,,black_cross(without_color),655483,green,,,,null,GW/gong.jpg,GW/wheelchair.jpg,,,,,,,,,,,,
null,,rt_plussign_withcolor,655985,green,,,,null,GW/gong.jpg,GW/wheelchair.jpg,,,,,,,,,,,,
1400.6000000238419,,rt_thecrossant_black,657573,black_plus_sign,,,,50,,,1,1,,,,,,,,,,
null,,color_black,657675,black_plus_sign,,,,null,,,,,,,,,,,,,,
null,,learn_phase(without_color),659679,black_plus_sign,,,,null,GW/paint.jpg,GW/basket.jpg,,,,,,,,,,,,
null,,black_cross(without_color),660318,green,,,,null,GW/paint.jpg,GW/basket.jpg,,,,,,,,,,,,
null,,rt_plussign_withcolor,660820,green,,,,null,GW/paint.jpg,GW/basket.jpg,,,,,,,,,,,,
562,,rt_thecrossant_black,662187,black_plus_sign,,,,50,,,1,1,,,,,,,,,,
null,,color_black,662290,black_plus_sign,,,,null,,,,,,,,,,,,,,
null,,learn_phase(without_color),664294,black_plus_sign,,,,null,GW/gong.jpg,GW/wheelchair.jpg,,,,,,,,,,,,
null,,black_cross(without_color),664974,green,,,,null,GW/gong.jpg,GW/wheelchair.jpg,,,,,,,,,,,,
null,,rt_plussign_withcolor,665476,green,,,,null,GW/gong.jpg,GW/wheelchair.jpg,,,,,,,,,,,,
781.5999999046326,,rt_thecrossant_black,666816,black_plus_sign,,,,50,,,1,1,,,,,,,,,,
null,,color_black,666918,black_plus_sign,,,,null,,,,,,,,,,,,,,
null,,learn_phase(without_color),668921,black_plus_sign,,,,null,GW/hat.jpg,GW/gong.jpg,,,,,,,,,,,,
null,,black_cross(without_color),669546,green,,,,null,GW/hat.jpg,GW/gong.jpg,,,,,,,,,,,,
null,,rt_plussign_withcolor,670048,green,,,,null,GW/hat.jpg,GW/gong.jpg,,,,,,,,,,,,
930.2000000476837,,rt_thecrossant_black,671427,black_plus_sign,,,,50,,,1,1,,,,,,,,,,
null,,color_black,671530,black_plus_sign,,,,null,,,,,,,,,,,,,,
null,,learn_phase(without_color),673533,black_plus_sign,,,,null,GW/barrel.jpg,GW/globe.jpg,,,,,,,,,,,,
null,,black_cross(without_color),674452,blue,,,,null,GW/barrel.jpg,GW/globe.jpg,,,,,,,,,,,,
null,,rt_plussign_withcolor,674954,blue,,,,null,GW/barrel.jpg,GW/globe.jpg,,,,,,,,,,,,
951.4000000953674,,rt_thecrossant_black,676040,black_plus_sign,,,,49,,,1,1,,,,,,,,,,
null,,color_black,676141,black_plus_sign,,,,null,,,,,,,,,,,,,,
null,,learn_phase(without_color),678144,black_plus_sign,,,,null,GW/camera.jpg,GW/soldier.jpg,,,,,,,,,,,,
null,,black_cross(without_color),678635,green,,,,null,GW/camera.jpg,GW/soldier.jpg,,,,,,,,,,,,
null,,rt_plussign_withcolor,679138,green,,,,null,GW/camera.jpg,GW/soldier.jpg,,,,,,,,,,,,
1224.5,,rt_thecrossant_black,680651,black_plus_sign,,,,50,,,1,1,,,,,,,,,,
null,,color_black,680754,black_plus_sign,,,,null,,,,,,,,,,,,,,
null,,learn_phase(without_color),682756,black_plus_sign,,,,null,GW/paint.jpg,GW/basket.jpg,,,,,,,,,,,,
null,,black_cross(without_color),683702,green,,,,null,GW/paint.jpg,GW/basket.jpg,,,,,,,,,,,,
null,,rt_plussign_withcolor,684203,green,,,,null,GW/paint.jpg,GW/basket.jpg,,,,,,,,,,,,
640.5,,rt_thecrossant_black,685261,black_plus_sign,,,,50,,,1,1,,,,,,,,,,
null,,color_black,685364,black_plus_sign,,,,null,,,,,,,,,,,,,,
null,,learn_phase(without_color),687368,black_plus_sign,,,,null,GW/hat.jpg,GW/gong.jpg,,,,,,,,,,,,
null,,black_cross(without_color),687934,green,,,,null,GW/hat.jpg,GW/gong.jpg,,,,,,,,,,,,
null,,rt_plussign_withcolor,688436,green,,,,null,GW/hat.jpg,GW/gong.jpg,,,,,,,,,,,,
1147,,rt_thecrossant_black,689875,black_plus_sign,,,,50,,,1,1,,,,,,,,,,
null,,color_black,689977,black_plus_sign,,,,null,,,,,,,,,,,,,,
null,,learn_phase(without_color),691979,black_plus_sign,,,,null,GW/camera.jpg,GW/soldier.jpg,,,,,,,,,,,,
null,,black_cross(without_color),692963,blue,,,,null,GW/camera.jpg,GW/soldier.jpg,,,,,,,,,,,,
null,,rt_plussign_withcolor,693465,blue,,,,null,GW/camera.jpg,GW/soldier.jpg,,,,,,,,,,,,
808.3000000715256,,rt_thecrossant_black,694485,black_plus_sign,,,,49,,,1,1,,,,,,,,,,
null,,color_black,694588,black_plus_sign,,,,null,,,,,,,,,,,,,,
null,,learn_phase(without_color),696592,black_plus_sign,,,,null,GW/barrel.jpg,GW/globe.jpg,,,,,,,,,,,,
null,,black_cross(without_color),697069,blue,,,,null,GW/barrel.jpg,GW/globe.jpg,,,,,,,,,,,,
null,,rt_plussign_withcolor,697571,blue,,,,null,GW/barrel.jpg,GW/globe.jpg,,,,,,,,,,,,
1204,,rt_thecrossant_black,699098,black_plus_sign,,,,49,,,1,1,,,,,,,,,,
null,,color_black,699201,black_plus_sign,,,,null,,,,,,,,,,,,,,
null,,learn_phase(without_color),701204,black_plus_sign,,,,null,GW/globe.jpg,GW/paint.jpg,,,,,,,,,,,,
null,,black_cross(without_color),701928,blue,,,,null,GW/globe.jpg,GW/paint.jpg,,,,,,,,,,,,
null,,rt_plussign_withcolor,702429,blue,,,,null,GW/globe.jpg,GW/paint.jpg,,,,,,,,,,,,
657.8999999761581,,rt_thecrossant_black,703711,black_plus_sign,,,,49,,,1,1,,,,,,,,,,
null,,color_black,703814,black_plus_sign,,,,null,,,,,,,,,,,,,,
null,,learn_phase(without_color),705818,black_plus_sign,,,,null,GW/jukebox.jpg,GW/basket.jpg,,,,,,,,,,,,
null,,black_cross(without_color),706697,blue,,,,null,GW/jukebox.jpg,GW/basket.jpg,,,,,,,,,,,,
null,,rt_plussign_withcolor,707199,blue,,,,null,GW/jukebox.jpg,GW/basket.jpg,,,,,,,,,,,,
1093.8000000715256,,rt_thecrossant_black,708326,black_plus_sign,,,,49,,,1,1,,,,,,,,,,
null,,color_black,708429,black_plus_sign,,,,null,,,,,,,,,,,,,,
null,,learn_phase(without_color),710432,black_plus_sign,,,,null,GW/barrel.jpg,GW/globe.jpg,,,,,,,,,,,,
null,,black_cross(without_color),711085,green,,,,null,GW/barrel.jpg,GW/globe.jpg,,,,,,,,,,,,
477.7000000476837,,rt_plussign_withcolor,711586,green,,,,50,GW/barrel.jpg,GW/globe.jpg,,,,,,,,,,,,
null,,rt_thecrossant_black,712940,black_plus_sign,,,,null,,,1,1,,,,,,,,,,
null,,color_black,713042,black_plus_sign,,,,null,,,,,,,,,,,,,,
null,,learn_phase(without_color),715044,black_plus_sign,,,,null,GW/paint.jpg,GW/basket.jpg,,,,,,,,,,,,
null,,black_cross(without_color),715943,green,,,,null,GW/paint.jpg,GW/basket.jpg,,,,,,,,,,,,
486.6999999284744,,rt_plussign_withcolor,716446,green,,,,50,GW/paint.jpg,GW/basket.jpg,,,,,,,,,,,,
null,,rt_thecrossant_black,717551,black_plus_sign,,,,null,,,1,1,,,,,,,,,,
null,,color_black,717652,black_plus_sign,,,,null,,,,,,,,,,,,,,
null,,learn_phase(without_color),719654,black_plus_sign,,,,null,GW/camera.jpg,GW/dustpan.jpg,,,,,,,,,,,,
null,,black_cross(without_color),720660,blue,,,,null,GW/camera.jpg,GW/dustpan.jpg,,,,,,,,,,,,
null,,rt_plussign_withcolor,721162,blue,,,,null,GW/camera.jpg,GW/dustpan.jpg,,,,,,,,,,,,
1060.1000000238419,,rt_thecrossant_black,722161,black_plus_sign,,,,49,,,1,1,,,,,,,,,,
null,,color_black,722264,black_plus_sign,,,,null,,,,,,,,,,,,,,
null,,learn_phase(without_color),724266,black_plus_sign,,,,null,GW/teeth.jpg,GW/barrel.jpg,,,,,,,,,,,,
null,,black_cross(without_color),724807,blue,,,,null,GW/teeth.jpg,GW/barrel.jpg,,,,,,,,,,,,
null,,rt_plussign_withcolor,725309,blue,,,,null,GW/teeth.jpg,GW/barrel.jpg,,,,,,,,,,,,
1451.2000000476837,,rt_thecrossant_black,726774,black_plus_sign,,,,49,,,1,1,,,,,,,,,,
null,,color_black,726877,black_plus_sign,,,,null,,,,,,,,,,,,,,
null,,learn_phase(without_color),728880,black_plus_sign,,,,null,GW/gong.jpg,GW/dustpan.jpg,,,,,,,,,,,,
null,,black_cross(without_color),729833,blue,,,,null,GW/gong.jpg,GW/dustpan.jpg,,,,,,,,,,,,
466.2000000476837,,rt_plussign_withcolor,730335,blue,,,,49,GW/gong.jpg,GW/dustpan.jpg,,,,,,,,,,,,
null,,rt_thecrossant_black,731387,black_plus_sign,,,,null,,,1,1,,,,,,,,,,
null,,color_black,731490,black_plus_sign,,,,null,,,,,,,,,,,,,,
null,,learn_phase(without_color),733494,black_plus_sign,,,,null,GW/paint.jpg,GW/basket.jpg,,,,,,,,,,,,
null,,black_cross(without_color),733973,blue,,,,null,GW/paint.jpg,GW/basket.jpg,,,,,,,,,,,,
null,,rt_plussign_withcolor,734475,blue,,,,null,GW/paint.jpg,GW/basket.jpg,,,,,,,,,,,,
1116.1000000238419,,rt_thecrossant_black,736000,black_plus_sign,,,,49,,,1,1,,,,,,,,,,
null,,color_black,736103,black_plus_sign,,,,null,,,,,,,,,,,,,,
null,,learn_phase(without_color),738105,black_plus_sign,,,,null,GW/jukebox.jpg,GW/snail.jpg,,,,,,,,,,,,
null,,black_cross(without_color),738612,green,,,,null,GW/jukebox.jpg,GW/snail.jpg,,,,,,,,,,,,
null,,rt_plussign_withcolor,739114,green,,,,null,GW/jukebox.jpg,GW/snail.jpg,,,,,,,,,,,,
643.7000000476837,,rt_thecrossant_black,740611,black_plus_sign,,,,50,,,1,1,,,,,,,,,,
null,,color_black,740714,black_plus_sign,,,,null,,,,,,,,,,,,,,
null,,learn_phase(without_color),742717,black_plus_sign,,,,null,GW/dustpan.jpg,GW/paint.jpg,,,,,,,,,,,,
null,,black_cross(without_color),743156,green,,,,null,GW/dustpan.jpg,GW/paint.jpg,,,,,,,,,,,,
null,,rt_plussign_withcolor,743658,green,,,,null,GW/dustpan.jpg,GW/paint.jpg,,,,,,,,,,,,
720.8999999761581,,rt_thecrossant_black,745224,black_plus_sign,,,,50,,,1,1,,,,,,,,,,
null,,color_black,745326,black_plus_sign,,,,null,,,,,,,,,,,,,,
null,,learn_phase(without_color),747330,black_plus_sign,,,,null,GW/gong.jpg,GW/camera.jpg,,,,,,,,,,,,
null,,black_cross(without_color),747912,blue,,,,null,GW/gong.jpg,GW/camera.jpg,,,,,,,,,,,,
null,,rt_plussign_withcolor,748415,blue,,,,null,GW/gong.jpg,GW/camera.jpg,,,,,,,,,,,,
584.7000000476837,,rt_thecrossant_black,749838,black_plus_sign,,,,49,,,1,1,,,,,,,,,,
null,,color_black,749940,black_plus_sign,,,,null,,,,,,,,,,,,,,
null,,learn_phase(without_color),751942,black_plus_sign,,,,null,GW/hat.jpg,GW/dustpan.jpg,,,,,,,,,,,,
null,,black_cross(without_color),752667,green,,,,null,GW/hat.jpg,GW/dustpan.jpg,,,,,,,,,,,,
null,,rt_plussign_withcolor,753170,green,,,,null,GW/hat.jpg,GW/dustpan.jpg,,,,,,,,,,,,
809.3000000715256,,rt_thecrossant_black,754451,black_plus_sign,,,,50,,,1,1,,,,,,,,,,
null,,color_black,754553,black_plus_sign,,,,null,,,,,,,,,,,,,,
null,,learn_phase(without_color),756557,black_plus_sign,,,,null,GW/jukebox.jpg,GW/basket.jpg,,,,,,,,,,,,
null,,black_cross(without_color),757130,green,,,,null,GW/jukebox.jpg,GW/basket.jpg,,,,,,,,,,,,
null,,rt_plussign_withcolor,757631,green,,,,null,GW/jukebox.jpg,GW/basket.jpg,,,,,,,,,,,,
919.3000000715256,,rt_thecrossant_black,759064,black_plus_sign,,,,50,,,1,1,,,,,,,,,,
null,,color_black,759180,black_plus_sign,,,,null,,,,,,,,,,,,,,
null,,learn_phase(without_color),761183,black_plus_sign,,,,null,GW/camera.jpg,GW/dustpan.jpg,,,,,,,,,,,,
null,,black_cross(without_color),761907,blue,,,,null,GW/camera.jpg,GW/dustpan.jpg,,,,,,,,,,,,
null,,rt_plussign_withcolor,762409,blue,,,,null,GW/camera.jpg,GW/dustpan.jpg,,,,,,,,,,,,
756.2999999523163,,rt_thecrossant_black,763690,black_plus_sign,,,,49,,,1,1,,,,,,,,,,
null,,color_black,763793,black_plus_sign,,,,null,,,,,,,,,,,,,,
null,,learn_phase(without_color),765796,black_plus_sign,,,,null,GW/gong.jpg,GW/dustpan.jpg,,,,,,,,,,,,
null,,black_cross(without_color),766843,blue,,,,null,GW/gong.jpg,GW/dustpan.jpg,,,,,,,,,,,,
null,,rt_plussign_withcolor,767345,blue,,,,null,GW/gong.jpg,GW/dustpan.jpg,,,,,,,,,,,,
869.5,,rt_thecrossant_black,768302,black_plus_sign,,,,49,,,1,1,,,,,,,,,,
null,,color_black,768406,black_plus_sign,,,,null,,,,,,,,,,,,,,
null,,learn_phase(without_color),770409,black_plus_sign,,,,null,GW/teeth.jpg,GW/barrel.jpg,,,,,,,,,,,,
null,,black_cross(without_color),771443,green,,,,null,GW/teeth.jpg,GW/barrel.jpg,,,,,,,,,,,,
null,,rt_plussign_withcolor,771945,green,,,,null,GW/teeth.jpg,GW/barrel.jpg,,,,,,,,,,,,
1216.6000000238419,,rt_thecrossant_black,772916,black_plus_sign,,,,50,,,1,1,,,,,,,,,,
null,,color_black,773019,black_plus_sign,,,,null,,,,,,,,,,,,,,
null,,learn_phase(without_color),775021,black_plus_sign,,,,null,GW/hat.jpg,GW/gong.jpg,,,,,,,,,,,,
null,,black_cross(without_color),775814,green,,,,null,GW/hat.jpg,GW/gong.jpg,,,,,,,,,,,,
null,,rt_plussign_withcolor,776315,green,,,,null,GW/hat.jpg,GW/gong.jpg,,,,,,,,,,,,
1238.2000000476837,,rt_thecrossant_black,777525,black_plus_sign,,,,50,,,1,1,,,,,,,,,,
null,,color_black,777628,black_plus_sign,,,,null,,,,,,,,,,,,,,
null,,learn_phase(without_color),779631,black_plus_sign,,,,null,GW/jukebox.jpg,GW/snail.jpg,,,,,,,,,,,,
null,,black_cross(without_color),780486,green,,,,null,GW/jukebox.jpg,GW/snail.jpg,,,,,,,,,,,,
null,,rt_plussign_withcolor,780988,green,,,,null,GW/jukebox.jpg,GW/snail.jpg,,,,,,,,,,,,
936.2000000476837,,rt_thecrossant_black,782141,black_plus_sign,,,,50,,,1,1,,,,,,,,,,
null,,color_black,782243,black_plus_sign,,,,null,,,,,,,,,,,,,,
null,,learn_phase(without_color),784247,black_plus_sign,,,,null,GW/gong.jpg,GW/dustpan.jpg,,,,,,,,,,,,
null,,black_cross(without_color),784894,green,,,,null,GW/gong.jpg,GW/dustpan.jpg,,,,,,,,,,,,
null,,rt_plussign_withcolor,785395,green,,,,null,GW/gong.jpg,GW/dustpan.jpg,,,,,,,,,,,,
1133.6999999284744,,rt_thecrossant_black,786754,black_plus_sign,,,,50,,,1,1,,,,,,,,,,
null,,color_black,786857,black_plus_sign,,,,null,,,,,,,,,,,,,,
null,,learn_phase(without_color),788861,black_plus_sign,,,,null,GW/globe.jpg,GW/paint.jpg,,,,,,,,,,,,
null,,black_cross(without_color),789451,green,,,,null,GW/globe.jpg,GW/paint.jpg,,,,,,,,,,,,
null,,rt_plussign_withcolor,789953,green,,,,null,GW/globe.jpg,GW/paint.jpg,,,,,,,,,,,,
998.1999999284744,,rt_thecrossant_black,791373,black_plus_sign,,,,50,,,1,1,,,,,,,,,,
null,,color_black,791475,black_plus_sign,,,,null,,,,,,,,,,,,,,
null,,learn_phase(without_color),793480,black_plus_sign,,,,null,GW/hat.jpg,GW/gong.jpg,,,,,,,,,,,,
null,,black_cross(without_color),794333,blue,,,,null,GW/hat.jpg,GW/gong.jpg,,,,,,,,,,,,
null,,rt_plussign_withcolor,794835,blue,,,,null,GW/hat.jpg,GW/gong.jpg,,,,,,,,,,,,
709,,rt_thecrossant_black,795992,black_plus_sign,,,,49,,,1,1,,,,,,,,,,
null,,color_black,796095,black_plus_sign,,,,null,,,,,,,,,,,,,,
null,,learn_phase(without_color),798097,black_plus_sign,,,,null,GW/gong.jpg,GW/dustpan.jpg,,,,,,,,,,,,
null,,black_cross(without_color),799006,blue,,,,null,GW/gong.jpg,GW/dustpan.jpg,,,,,,,,,,,,
null,,rt_plussign_withcolor,799508,blue,,,,null,GW/gong.jpg,GW/dustpan.jpg,,,,,,,,,,,,
1183.7000000476837,,rt_thecrossant_black,800604,black_plus_sign,,,,49,,,1,1,,,,,,,,,,
null,,color_black,800706,black_plus_sign,,,,null,,,,,,,,,,,,,,
null,,learn_phase(without_color),802709,black_plus_sign,,,,null,GW/jukebox.jpg,GW/snail.jpg,,,,,,,,,,,,
null,,black_cross(without_color),803379,green,,,,null,GW/jukebox.jpg,GW/snail.jpg,,,,,,,,,,,,
null,,rt_plussign_withcolor,803880,green,,,,null,GW/jukebox.jpg,GW/snail.jpg,,,,,,,,,,,,
1231,,rt_thecrossant_black,805216,black_plus_sign,,,,50,,,1,1,,,,,,,,,,
null,,color_black,805319,black_plus_sign,,,,null,,,,,,,,,,,,,,
null,,learn_phase(without_color),807322,black_plus_sign,,,,null,GW/jukebox.jpg,GW/basket.jpg,,,,,,,,,,,,
null,,black_cross(without_color),807875,green,,,,null,GW/jukebox.jpg,GW/basket.jpg,,,,,,,,,,,,
null,,rt_plussign_withcolor,808378,green,,,,null,GW/jukebox.jpg,GW/basket.jpg,,,,,,,,,,,,
851.5,,rt_thecrossant_black,809844,black_plus_sign,,,,50,,,1,1,,,,,,,,,,
null,,color_black,809949,black_plus_sign,,,,null,,,,,,,,,,,,,,
null,,learn_phase(without_color),811953,black_plus_sign,,,,null,GW/globe.jpg,GW/paint.jpg,,,,,,,,,,,,
null,,black_cross(without_color),812507,blue,,,,null,GW/globe.jpg,GW/paint.jpg,,,,,,,,,,,,
498.3000000715256,,rt_plussign_withcolor,813008,blue,,,,49,GW/globe.jpg,GW/paint.jpg,,,,,,,,,,,,
null,,rt_thecrossant_black,814461,black_plus_sign,,,,null,,,1,1,,,,,,,,,,
null,,color_black,814564,black_plus_sign,,,,null,,,,,,,,,,,,,,
null,,learn_phase(without_color),816569,black_plus_sign,,,,null,GW/jukebox.jpg,GW/snail.jpg,,,,,,,,,,,,
null,,black_cross(without_color),817322,blue,,,,null,GW/jukebox.jpg,GW/snail.jpg,,,,,,,,,,,,
null,,rt_plussign_withcolor,817825,blue,,,,null,GW/jukebox.jpg,GW/snail.jpg,,,,,,,,,,,,
720.1000000238419,,rt_thecrossant_black,819076,black_plus_sign,,,,49,,,1,1,,,,,,,,,,
null,,color_black,819177,black_plus_sign,,,,null,,,,,,,,,,,,,,
null,,learn_phase(without_color),821180,black_plus_sign,,,,null,GW/camera.jpg,GW/soldier.jpg,,,,,,,,,,,,
null,,black_cross(without_color),821797,blue,,,,null,GW/camera.jpg,GW/soldier.jpg,,,,,,,,,,,,
429.2999999523163,,rt_plussign_withcolor,822299,blue,,,,50,GW/camera.jpg,GW/soldier.jpg,,,,,,,,,,,,
null,,rt_thecrossant_black,823687,black_plus_sign,,,,49,,,0,0.9772727272727273,,,,,,,,,,
null,,color_black,823790,black_plus_sign,,,,null,,,,,,,,,,,,,,
null,,learn_phase(without_color),825793,black_plus_sign,,,,null,GW/teeth.jpg,GW/barrel.jpg,,,,,,,,,,,,
null,,black_cross(without_color),826751,blue,,,,null,GW/teeth.jpg,GW/barrel.jpg,,,,,,,,,,,,
null,,rt_plussign_withcolor,827253,blue,,,,null,GW/teeth.jpg,GW/barrel.jpg,,,,,,,,,,,,
823.8999999761581,,rt_thecrossant_black,828301,black_plus_sign,,,,49,,,1,0.9777777777777777,,,,,,,,,,
null,,color_black,828403,black_plus_sign,,,,null,,,,,,,,,,,,,,
null,,learn_phase(without_color),830406,black_plus_sign,,,,null,GW/globe.jpg,GW/paint.jpg,,,,,,,,,,,,
null,,black_cross(without_color),831155,green,,,,null,GW/globe.jpg,GW/paint.jpg,,,,,,,,,,,,
null,,rt_plussign_withcolor,831658,green,,,,null,GW/globe.jpg,GW/paint.jpg,,,,,,,,,,,,
1192.3999999761581,,rt_thecrossant_black,832914,black_plus_sign,,,,50,,,1,0.9782608695652174,,,,,,,,,,
null,,color_black,833016,black_plus_sign,,,,null,,,,,,,,,,,,,,
null,,learn_phase(without_color),835020,black_plus_sign,,,,null,GW/dustpan.jpg,GW/paint.jpg,,,,,,,,,,,,
null,,black_cross(without_color),835844,blue,,,,null,GW/dustpan.jpg,GW/paint.jpg,,,,,,,,,,,,
null,,rt_plussign_withcolor,836346,blue,,,,null,GW/dustpan.jpg,GW/paint.jpg,,,,,,,,,,,,
933.5,,rt_thecrossant_black,837530,black_plus_sign,,,,49,,,1,0.9787234042553191,,,,,,,,,,
null,,color_black,837633,black_plus_sign,,,,null,,,,,,,,,,,,,,
null,,learn_phase(without_color),839636,black_plus_sign,,,,null,GW/teeth.jpg,GW/barrel.jpg,,,,,,,,,,,,
null,,black_cross(without_color),840612,green,,,,null,GW/teeth.jpg,GW/barrel.jpg,,,,,,,,,,,,
null,,rt_plussign_withcolor,841114,green,,,,null,GW/teeth.jpg,GW/barrel.jpg,,,,,,,,,,,,
1052.2000000476837,,rt_thecrossant_black,842144,black_plus_sign,,,,50,,,1,0.9791666666666666,,,,,,,,,,
null,,color_black,842246,black_plus_sign,,,,null,,,,,,,,,,,,,,
null,,learn_phase(without_color),844250,black_plus_sign,,,,null,GW/globe.jpg,GW/paint.jpg,,,,,,,,,,,,
null,,black_cross(without_color),844658,blue,,,,null,GW/globe.jpg,GW/paint.jpg,,,,,,,,,,,,
null,,rt_plussign_withcolor,845162,blue,,,,null,GW/globe.jpg,GW/paint.jpg,,,,,,,,,,,,
1153.7000000476837,,rt_thecrossant_black,846760,black_plus_sign,,,,49,,,1,0.9795918367346939,,,,,,,,,,
null,,color_black,846864,black_plus_sign,,,,null,,,,,,,,,,,,,,
null,,learn_phase(without_color),848867,black_plus_sign,,,,null,GW/camera.jpg,GW/dustpan.jpg,,,,,,,,,,,,
null,,black_cross(without_color),849495,green,,,,null,GW/camera.jpg,GW/dustpan.jpg,,,,,,,,,,,,
null,,rt_plussign_withcolor,849999,green,,,,null,GW/camera.jpg,GW/dustpan.jpg,,,,,,,,,,,,
536.8000000715256,,rt_thecrossant_black,851378,black_plus_sign,,,,50,,,1,0.98,,,,,,,,,,
null,,color_black,851480,black_plus_sign,,,,null,,,,,,,,,,,,,,
null,,learn_phase(without_color),853483,black_plus_sign,,,,null,GW/gong.jpg,GW/wheelchair.jpg,,,,,,,,,,,,
null,,black_cross(without_color),854553,green,,,,null,GW/gong.jpg,GW/wheelchair.jpg,,,,,,,,,,,,
null,,rt_plussign_withcolor,855055,green,,,,null,GW/gong.jpg,GW/wheelchair.jpg,,,,,,,,,,,,
1050.7000000476837,,rt_thecrossant_black,855989,black_plus_sign,,,,50,,,1,0.9803921568627451,,,,,,,,,,
null,,color_black,856092,black_plus_sign,,,,null,,,,,,,,,,,,,,
null,,learn_phase(without_color),858094,black_plus_sign,,,,null,GW/gong.jpg,GW/camera.jpg,,,,,,,,,,,,
null,,black_cross(without_color),858799,blue,,,,null,GW/gong.jpg,GW/camera.jpg,,,,,,,,,,,,
null,,rt_plussign_withcolor,859305,blue,,,,null,GW/gong.jpg,GW/camera.jpg,,,,,,,,,,,,
1366.6000000238419,,rt_thecrossant_black,860613,black_plus_sign,,,,49,,,1,0.9807692307692307,,,,,,,,,,
null,,color_black,860716,black_plus_sign,,,,null,,,,,,,,,,,,,,
null,,learn_phase(without_color),862720,black_plus_sign,,,,null,GW/hat.jpg,GW/gong.jpg,,,,,,,,,,,,
null,,black_cross(without_color),863624,blue,,,,null,GW/hat.jpg,GW/gong.jpg,,,,,,,,,,,,
null,,rt_plussign_withcolor,864127,blue,,,,null,GW/hat.jpg,GW/gong.jpg,,,,,,,,,,,,
924.2000000476837,,rt_thecrossant_black,865227,black_plus_sign,,,,49,,,1,0.9811320754716981,,,,,,,,,,
null,,color_black,865330,black_plus_sign,,,,null,,,,,,,,,,,,,,
null,,learn_phase(without_color),867333,black_plus_sign,,,,null,GW/jukebox.jpg,GW/snail.jpg,,,,,,,,,,,,
null,,black_cross(without_color),868096,blue,,,,null,GW/jukebox.jpg,GW/snail.jpg,,,,,,,,,,,,
null,,rt_plussign_withcolor,868598,blue,,,,null,GW/jukebox.jpg,GW/snail.jpg,,,,,,,,,,,,
1052.3000000715256,,rt_thecrossant_black,869840,black_plus_sign,,,,49,,,1,0.9814814814814815,,,,,,,,,,
null,,color_black,869942,black_plus_sign,,,,null,,,,,,,,,,,,,,
null,,learn_phase(without_color),871945,black_plus_sign,,,,null,GW/camera.jpg,GW/soldier.jpg,,,,,,,,,,,,
null,,black_cross(without_color),872759,blue,,,,null,GW/camera.jpg,GW/soldier.jpg,,,,,,,,,,,,
null,,rt_plussign_withcolor,873262,blue,,,,null,GW/camera.jpg,GW/soldier.jpg,,,,,,,,,,,,
979.6000000238419,,rt_thecrossant_black,874454,black_plus_sign,,,,49,,,1,0.9818181818181818,,,,,,,,,,
null,,color_black,874558,black_plus_sign,,,,null,,,,,,,,,,,,,,
null,,learn_phase(without_color),876561,black_plus_sign,,,,null,GW/globe.jpg,GW/hat.jpg,,,,,,,,,,,,
null,,black_cross(without_color),877533,green,,,,null,GW/globe.jpg,GW/hat.jpg,,,,,,,,,,,,
null,,rt_plussign_withcolor,878034,green,,,,null,GW/globe.jpg,GW/hat.jpg,,,,,,,,,,,,
1088.5999999046326,,rt_thecrossant_black,879068,black_plus_sign,,,,50,,,1,0.9821428571428571,,,,,,,,,,
null,,color_black,879170,black_plus_sign,,,,null,,,,,,,,,,,,,,
null,,learn_phase(without_color),881173,black_plus_sign,,,,null,GW/jukebox.jpg,GW/snail.jpg,,,,,,,,,,,,
null,,black_cross(without_color),881973,blue,,,,null,GW/jukebox.jpg,GW/snail.jpg,,,,,,,,,,,,
null,,rt_plussign_withcolor,882474,blue,,,,null,GW/jukebox.jpg,GW/snail.jpg,,,,,,,,,,,,
1289.3999999761581,,rt_thecrossant_black,883680,black_plus_sign,,,,49,,,1,0.9824561403508771,,,,,,,,,,
null,,color_black,883783,black_plus_sign,,,,null,,,,,,,,,,,,,,
null,,learn_phase(without_color),885786,black_plus_sign,,,,null,GW/gong.jpg,GW/camera.jpg,,,,,,,,,,,,
null,,black_cross(without_color),886567,blue,,,,null,GW/gong.jpg,GW/camera.jpg,,,,,,,,,,,,
null,,rt_plussign_withcolor,887069,blue,,,,null,GW/gong.jpg,GW/camera.jpg,,,,,,,,,,,,
979.5,,rt_thecrossant_black,888292,black_plus_sign,,,,49,,,1,0.9827586206896551,,,,,,,,,,
null,,color_black,888395,black_plus_sign,,,,null,,,,,,,,,,,,,,
null,,learn_phase(without_color),890398,black_plus_sign,,,,null,GW/barrel.jpg,GW/globe.jpg,,,,,,,,,,,,
null,,black_cross(without_color),890946,blue,,,,null,GW/barrel.jpg,GW/globe.jpg,,,,,,,,,,,,
null,,rt_plussign_withcolor,891449,blue,,,,null,GW/barrel.jpg,GW/globe.jpg,,,,,,,,,,,,
1143.6999999284744,,rt_thecrossant_black,892905,black_plus_sign,,,,49,,,1,0.9830508474576272,,,,,,,,,,
null,,color_black,893008,black_plus_sign,,,,null,,,,,,,,,,,,,,
null,,learn_phase(without_color),895011,black_plus_sign,,,,null,GW/globe.jpg,GW/hat.jpg,,,,,,,,,,,,
null,,black_cross(without_color),896056,blue,,,,null,GW/globe.jpg,GW/hat.jpg,,,,,,,,,,,,
null,,rt_plussign_withcolor,896558,blue,,,,null,GW/globe.jpg,GW/hat.jpg,,,,,,,,,,,,
811.4000000953674,,rt_thecrossant_black,897520,black_plus_sign,,,,49,,,1,0.9833333333333333,,,,,,,,,,
null,,color_black,897622,black_plus_sign,,,,null,,,,,,,,,,,,,,
null,,learn_phase(without_color),899626,black_plus_sign,,,,null,GW/barrel.jpg,GW/jukebox.jpg,,,,,,,,,,,,
null,,black_cross(without_color),900504,green,,,,null,GW/barrel.jpg,GW/jukebox.jpg,,,,,,,,,,,,
null,,rt_plussign_withcolor,901006,green,,,,null,GW/barrel.jpg,GW/jukebox.jpg,,,,,,,,,,,,
1450.2000000476837,,rt_thecrossant_black,902133,black_plus_sign,,,,50,,,1,0.9836065573770492,,,,,,,,,,
null,,color_black,902236,black_plus_sign,,,,null,,,,,,,,,,,,,,
null,,learn_phase(without_color),904239,black_plus_sign,,,,null,GW/camera.jpg,GW/dustpan.jpg,,,,,,,,,,,,
null,,black_cross(without_color),905253,blue,,,,null,GW/camera.jpg,GW/dustpan.jpg,,,,,,,,,,,,
null,,rt_plussign_withcolor,905755,blue,,,,null,GW/camera.jpg,GW/dustpan.jpg,,,,,,,,,,,,
1168.1999999284744,,rt_thecrossant_black,906746,black_plus_sign,,,,49,,,1,0.9838709677419355,,,,,,,,,,
null,,color_black,906849,black_plus_sign,,,,null,,,,,,,,,,,,,,
null,,learn_phase(without_color),908852,black_plus_sign,,,,null,GW/teeth.jpg,GW/barrel.jpg,,,,,,,,,,,,
null,,black_cross(without_color),909809,blue,,,,null,GW/teeth.jpg,GW/barrel.jpg,,,,,,,,,,,,
null,,rt_plussign_withcolor,910311,blue,,,,null,GW/teeth.jpg,GW/barrel.jpg,,,,,,,,,,,,
1178.7999999523163,,rt_thecrossant_black,911374,black_plus_sign,,,,49,,,1,0.9841269841269841,,,,,,,,,,
null,,color_black,911478,black_plus_sign,,,,null,,,,,,,,,,,,,,
null,,learn_phase(without_color),913482,black_plus_sign,,,,null,GW/barrel.jpg,GW/jukebox.jpg,,,,,,,,,,,,
null,,black_cross(without_color),914027,blue,,,,null,GW/barrel.jpg,GW/jukebox.jpg,,,,,,,,,,,,
null,,rt_plussign_withcolor,914529,blue,,,,null,GW/barrel.jpg,GW/jukebox.jpg,,,,,,,,,,,,
1213,,rt_thecrossant_black,915989,black_plus_sign,,,,49,,,1,0.984375,,,,,,,,,,
null,,color_black,916093,black_plus_sign,,,,null,,,,,,,,,,,,,,
null,,learn_phase(without_color),918098,black_plus_sign,,,,null,GW/camera.jpg,GW/dustpan.jpg,,,,,,,,,,,,
null,,black_cross(without_color),919195,green,,,,null,GW/camera.jpg,GW/dustpan.jpg,,,,,,,,,,,,
null,,rt_plussign_withcolor,919698,green,,,,null,GW/camera.jpg,GW/dustpan.jpg,,,,,,,,,,,,
658.3999999761581,,rt_thecrossant_black,920607,black_plus_sign,,,,50,,,1,0.9846153846153847,,,,,,,,,,
null,,color_black,920709,black_plus_sign,,,,null,,,,,,,,,,,,,,
null,,learn_phase(without_color),922712,black_plus_sign,,,,null,GW/gong.jpg,GW/camera.jpg,,,,,,,,,,,,
null,,black_cross(without_color),923566,green,,,,null,GW/gong.jpg,GW/camera.jpg,,,,,,,,,,,,
null,,rt_plussign_withcolor,924069,green,,,,null,GW/gong.jpg,GW/camera.jpg,,,,,,,,,,,,
1518.5,,rt_thecrossant_black,925235,black_plus_sign,,,,50,,,1,0.9848484848484849,,,,,,,,,,
null,,color_black,925338,black_plus_sign,,,,null,,,,,,,,,,,,,,
null,,learn_phase(without_color),927341,black_plus_sign,,,,null,GW/jukebox.jpg,GW/basket.jpg,,,,,,,,,,,,
null,,black_cross(without_color),928249,green,,,,null,GW/jukebox.jpg,GW/basket.jpg,,,,,,,,,,,,
null,,rt_plussign_withcolor,928752,green,,,,null,GW/jukebox.jpg,GW/basket.jpg,,,,,,,,,,,,
1143.2999999523163,,rt_thecrossant_black,929862,black_plus_sign,,,,50,,,1,0.9850746268656716,,,,,,,,,,
null,,color_black,929969,black_plus_sign,,,,null,,,,,,,,,,,,,,
null,,learn_phase(without_color),931973,black_plus_sign,,,,null,GW/camera.jpg,GW/dustpan.jpg,,,,,,,,,,,,
null,,black_cross(without_color),933064,green,,,,null,GW/camera.jpg,GW/dustpan.jpg,,,,,,,,,,,,
null,,rt_plussign_withcolor,933567,green,,,,null,GW/camera.jpg,GW/dustpan.jpg,,,,,,,,,,,,
1089.2000000476837,,rt_thecrossant_black,934481,black_plus_sign,,,,50,,,1,0.9852941176470589,,,,,,,,,,
null,,color_black,934583,black_plus_sign,,,,null,,,,,,,,,,,,,,
null,,learn_phase(without_color),936586,black_plus_sign,,,,null,GW/teeth.jpg,GW/barrel.jpg,,,,,,,,,,,,
null,,black_cross(without_color),937310,green,,,,null,GW/teeth.jpg,GW/barrel.jpg,,,,,,,,,,,,
null,,rt_plussign_withcolor,937814,green,,,,null,GW/teeth.jpg,GW/barrel.jpg,,,,,,,,,,,,
1434.6999999284744,,rt_thecrossant_black,939096,black_plus_sign,,,,50,,,1,0.9855072463768116,,,,,,,,,,
null,,color_black,939198,black_plus_sign,,,,null,,,,,,,,,,,,,,
null,,learn_phase(without_color),941204,black_plus_sign,,,,null,GW/barrel.jpg,GW/globe.jpg,,,,,,,,,,,,
null,,black_cross(without_color),942140,blue,,,,null,GW/barrel.jpg,GW/globe.jpg,,,,,,,,,,,,
null,,rt_plussign_withcolor,942642,blue,,,,null,GW/barrel.jpg,GW/globe.jpg,,,,,,,,,,,,
1002.3999999761581,,rt_thecrossant_black,943711,black_plus_sign,,,,49,,,1,0.9857142857142858,,,,,,,,,,
null,,color_black,943814,black_plus_sign,,,,null,,,,,,,,,,,,,,
null,,learn_phase(without_color),945818,black_plus_sign,,,,null,GW/camera.jpg,GW/soldier.jpg,,,,,,,,,,,,
null,,black_cross(without_color),946584,blue,,,,null,GW/camera.jpg,GW/soldier.jpg,,,,,,,,,,,,
null,,rt_plussign_withcolor,947088,blue,,,,null,GW/camera.jpg,GW/soldier.jpg,,,,,,,,,,,,
1190.4000000953674,,rt_thecrossant_black,948328,black_plus_sign,,,,49,,,1,0.9859154929577465,,,,,,,,,,
null,,color_black,948431,black_plus_sign,,,,null,,,,,,,,,,,,,,
null,,learn_phase(without_color),950433,black_plus_sign,,,,null,GW/gong.jpg,GW/camera.jpg,,,,,,,,,,,,
null,,black_cross(without_color),951288,blue,,,,null,GW/gong.jpg,GW/camera.jpg,,,,,,,,,,,,
null,,rt_plussign_withcolor,951790,blue,,,,null,GW/gong.jpg,GW/camera.jpg,,,,,,,,,,,,
942.8999999761581,,rt_thecrossant_black,952942,black_plus_sign,,,,49,,,1,0.9861111111111112,,,,,,,,,,
null,,color_black,953045,black_plus_sign,,,,null,,,,,,,,,,,,,,
null,,learn_phase(without_color),955049,black_plus_sign,,,,null,GW/jukebox.jpg,GW/basket.jpg,,,,,,,,,,,,
null,,black_cross(without_color),955461,blue,,,,null,GW/jukebox.jpg,GW/basket.jpg,,,,,,,,,,,,
null,,rt_plussign_withcolor,955969,blue,,,,null,GW/jukebox.jpg,GW/basket.jpg,,,,,,,,,,,,
1183.6999999284744,,rt_thecrossant_black,957563,black_plus_sign,,,,49,,,1,0.9863013698630136,,,,,,,,,,
null,,color_black,957666,black_plus_sign,,,,null,,,,,,,,,,,,,,
null,,learn_phase(without_color),959669,black_plus_sign,,,,null,GW/dustpan.jpg,GW/paint.jpg,,,,,,,,,,,,
null,,black_cross(without_color),960126,blue,,,,null,GW/dustpan.jpg,GW/paint.jpg,,,,,,,,,,,,
null,,rt_plussign_withcolor,960629,blue,,,,null,GW/dustpan.jpg,GW/paint.jpg,,,,,,,,,,,,
901.7999999523163,,rt_thecrossant_black,962178,black_plus_sign,,,,49,,,1,0.9864864864864865,,,,,,,,,,
null,,color_black,962281,black_plus_sign,,,,null,,,,,,,,,,,,,,
null,,learn_phase(without_color),964285,black_plus_sign,,,,null,GW/gong.jpg,GW/dustpan.jpg,,,,,,,,,,,,
null,,black_cross(without_color),965071,blue,,,,null,GW/gong.jpg,GW/dustpan.jpg,,,,,,,,,,,,
null,,rt_plussign_withcolor,965573,blue,,,,null,GW/gong.jpg,GW/dustpan.jpg,,,,,,,,,,,,
668.8000000715256,,rt_thecrossant_black,966794,black_plus_sign,,,,49,,,1,0.9866666666666667,,,,,,,,,,
null,,color_black,966896,black_plus_sign,,,,null,,,,,,,,,,,,,,
null,,learn_phase(without_color),968898,black_plus_sign,,,,null,GW/teeth.jpg,GW/barrel.jpg,,,,,,,,,,,,
null,,black_cross(without_color),969465,green,,,,null,GW/teeth.jpg,GW/barrel.jpg,,,,,,,,,,,,
null,,rt_plussign_withcolor,969966,green,,,,null,GW/teeth.jpg,GW/barrel.jpg,,,,,,,,,,,,
1048.5,,rt_thecrossant_black,971405,black_plus_sign,,,,50,,,1,0.9868421052631579,,,,,,,,,,
null,,color_black,971509,black_plus_sign,,,,null,,,,,,,,,,,,,,
null,,learn_phase(without_color),973512,black_plus_sign,,,,null,GW/globe.jpg,GW/paint.jpg,,,,,,,,,,,,
null,,black_cross(without_color),974332,green,,,,null,GW/globe.jpg,GW/paint.jpg,,,,,,,,,,,,
null,,rt_plussign_withcolor,974834,green,,,,null,GW/globe.jpg,GW/paint.jpg,,,,,,,,,,,,
944.6000000238419,,rt_thecrossant_black,976021,black_plus_sign,,,,50,,,1,0.987012987012987,,,,,,,,,,
null,,color_black,976123,black_plus_sign,,,,null,,,,,,,,,,,,,,
null,,learn_phase(without_color),978127,black_plus_sign,,,,null,GW/globe.jpg,GW/hat.jpg,,,,,,,,,,,,
null,,black_cross(without_color),978561,green,,,,null,GW/globe.jpg,GW/hat.jpg,,,,,,,,,,,,
null,,rt_plussign_withcolor,979063,green,,,,null,GW/globe.jpg,GW/hat.jpg,,,,,,,,,,,,
1045,,rt_thecrossant_black,980634,black_plus_sign,,,,50,,,1,0.9871794871794872,,,,,,,,,,
null,,color_black,980737,black_plus_sign,,,,null,,,,,,,,,,,,,,
null,,learn_phase(without_color),982740,black_plus_sign,,,,null,GW/dustpan.jpg,GW/paint.jpg,,,,,,,,,,,,
null,,black_cross(without_color),983466,blue,,,,null,GW/dustpan.jpg,GW/paint.jpg,,,,,,,,,,,,
null,,rt_plussign_withcolor,983969,blue,,,,null,GW/dustpan.jpg,GW/paint.jpg,,,,,,,,,,,,
720,,rt_thecrossant_black,985248,black_plus_sign,,,,49,,,1,0.9873417721518988,,,,,,,,,,
null,,color_black,985351,black_plus_sign,,,,null,,,,,,,,,,,,,,
null,,learn_phase(without_color),987354,black_plus_sign,,,,null,GW/paint.jpg,GW/basket.jpg,,,,,,,,,,,,
null,,black_cross(without_color),987883,green,,,,null,GW/paint.jpg,GW/basket.jpg,,,,,,,,,,,,
null,,rt_plussign_withcolor,988386,green,,,,null,GW/paint.jpg,GW/basket.jpg,,,,,,,,,,,,
1173.2999999523163,,rt_thecrossant_black,989861,black_plus_sign,,,,50,,,1,0.9875,,,,,,,,,,
null,,color_black,989964,black_plus_sign,,,,null,,,,,,,,,,,,,,
null,,learn_phase(without_color),991968,black_plus_sign,,,,null,GW/gong.jpg,GW/dustpan.jpg,,,,,,,,,,,,
null,,black_cross(without_color),992800,blue,,,,null,GW/gong.jpg,GW/dustpan.jpg,,,,,,,,,,,,
null,,rt_plussign_withcolor,993314,blue,,,,null,GW/gong.jpg,GW/dustpan.jpg,,,,,,,,,,,,
751.8999999761581,,rt_thecrossant_black,994487,black_plus_sign,,,,49,,,1,0.9876543209876543,,,,,,,,,,
null,,color_black,994590,black_plus_sign,,,,null,,,,,,,,,,,,,,
null,,learn_phase(without_color),996593,black_plus_sign,,,,null,GW/barrel.jpg,GW/jukebox.jpg,,,,,,,,,,,,
null,,black_cross(without_color),997474,green,,,,null,GW/barrel.jpg,GW/jukebox.jpg,,,,,,,,,,,,
476.39999997615814,,rt_plussign_withcolor,997976,green,,,,50,GW/barrel.jpg,GW/jukebox.jpg,,,,,,,,,,,,
null,,rt_thecrossant_black,999100,black_plus_sign,,,,null,,,1,0.9878048780487805,,,,,,,,,,
null,,color_black,999202,black_plus_sign,,,,null,,,,,,,,,,,,,,
null,,learn_phase(without_color),1001204,black_plus_sign,,,,null,GW/jukebox.jpg,GW/basket.jpg,,,,,,,,,,,,
null,,black_cross(without_color),1002111,green,,,,null,GW/jukebox.jpg,GW/basket.jpg,,,,,,,,,,,,
null,,rt_plussign_withcolor,1002614,green,,,,null,GW/jukebox.jpg,GW/basket.jpg,,,,,,,,,,,,
983.1000000238419,,rt_thecrossant_black,1003713,black_plus_sign,,,,50,,,1,0.9879518072289156,,,,,,,,,,
null,,color_black,1003816,black_plus_sign,,,,null,,,,,,,,,,,,,,
null,,learn_phase(without_color),1005819,black_plus_sign,,,,null,GW/barrel.jpg,GW/globe.jpg,,,,,,,,,,,,
null,,black_cross(without_color),1006284,blue,,,,null,GW/barrel.jpg,GW/globe.jpg,,,,,,,,,,,,
null,,rt_plussign_withcolor,1006787,blue,,,,null,GW/barrel.jpg,GW/globe.jpg,,,,,,,,,,,,
1277.2000000476837,,rt_thecrossant_black,1008328,black_plus_sign,,,,49,,,1,0.9880952380952381,,,,,,,,,,
null,,color_black,1008431,black_plus_sign,,,,null,,,,,,,,,,,,,,
null,,learn_phase(without_color),1010434,black_plus_sign,,,,null,GW/jukebox.jpg,GW/snail.jpg,,,,,,,,,,,,
null,,black_cross(without_color),1011534,green,,,,null,GW/jukebox.jpg,GW/snail.jpg,,,,,,,,,,,,
null,,rt_plussign_withcolor,1012036,green,,,,null,GW/jukebox.jpg,GW/snail.jpg,,,,,,,,,,,,
821.5,,rt_thecrossant_black,1012941,black_plus_sign,,,,50,,,1,0.9882352941176471,,,,,,,,,,
null,,color_black,1013045,black_plus_sign,,,,null,,,,,,,,,,,,,,
null,,learn_phase(without_color),1015048,black_plus_sign,,,,null,GW/camera.jpg,GW/dustpan.jpg,,,,,,,,,,,,
null,,black_cross(without_color),1015738,green,,,,null,GW/camera.jpg,GW/dustpan.jpg,,,,,,,,,,,,
null,,rt_plussign_withcolor,1016240,green,,,,null,GW/camera.jpg,GW/dustpan.jpg,,,,,,,,,,,,
1724.6000000238419,,rt_thecrossant_black,1017556,black_plus_sign,,,,50,,,1,0.9883720930232558,,,,,,,,,,
null,,color_black,1017659,black_plus_sign,,,,null,,,,,,,,,,,,,,
null,,learn_phase(without_color),1019663,black_plus_sign,,,,null,GW/barrel.jpg,GW/jukebox.jpg,,,,,,,,,,,,
null,,black_cross(without_color),1020244,blue,,,,null,GW/barrel.jpg,GW/jukebox.jpg,,,,,,,,,,,,
478.90000009536743,,rt_plussign_withcolor,1020745,blue,,,,49,GW/barrel.jpg,GW/jukebox.jpg,,,,,,,,,,,,
null,,rt_thecrossant_black,1022171,black_plus_sign,,,,null,,,1,0.9885057471264368,,,,,,,,,,
null,,color_black,1022273,black_plus_sign,,,,null,,,,,,,,,,,,,,
null,,learn_phase(without_color),1024278,black_plus_sign,,,,null,GW/hat.jpg,GW/gong.jpg,,,,,,,,,,,,
null,,black_cross(without_color),1025325,green,,,,null,GW/hat.jpg,GW/gong.jpg,,,,,,,,,,,,
432,,rt_plussign_withcolor,1025828,green,,,,50,GW/hat.jpg,GW/gong.jpg,,,,,,,,,,,,
null,,rt_thecrossant_black,1026785,black_plus_sign,,,,null,,,1,0.9886363636363636,,,,,,,,,,
null,,color_black,1026888,black_plus_sign,,,,null,,,,,,,,,,,,,,
null,,learn_phase(without_color),1028892,black_plus_sign,,,,null,GW/gong.jpg,GW/wheelchair.jpg,,,,,,,,,,,,
null,,black_cross(without_color),1029484,blue,,,,null,GW/gong.jpg,GW/wheelchair.jpg,,,,,,,,,,,,
null,,rt_plussign_withcolor,1029986,blue,,,,null,GW/gong.jpg,GW/wheelchair.jpg,,,,,,,,,,,,
1304.0999999046326,,rt_thecrossant_black,1031398,black_plus_sign,,,,49,,,1,0.9887640449438202,,,,,,,,,,
null,,color_black,1031501,black_plus_sign,,,,null,,,,,,,,,,,,,,
null,,learn_phase(without_color),1033504,black_plus_sign,,,,null,GW/paint.jpg,GW/basket.jpg,,,,,,,,,,,,
null,,black_cross(without_color),1034161,green,,,,null,GW/paint.jpg,GW/basket.jpg,,,,,,,,,,,,
null,,rt_plussign_withcolor,1034663,green,,,,null,GW/paint.jpg,GW/basket.jpg,,,,,,,,,,,,
811,,rt_thecrossant_black,1036012,black_plus_sign,,,,50,,,1,0.9888888888888889,,,,,,,,,,
null,,color_black,1036116,black_plus_sign,,,,null,,,,,,,,,,,,,,
null,,learn_phase(without_color),1038120,black_plus_sign,,,,null,GW/gong.jpg,GW/wheelchair.jpg,,,,,,,,,,,,
null,,black_cross(without_color),1038687,blue,,,,null,GW/gong.jpg,GW/wheelchair.jpg,,,,,,,,,,,,
null,,rt_plussign_withcolor,1039188,blue,,,,null,GW/gong.jpg,GW/wheelchair.jpg,,,,,,,,,,,,
992.2999999523163,,rt_thecrossant_black,1040627,black_plus_sign,,,,49,,,1,0.989010989010989,,,,,,,,,,
null,,color_black,1040730,black_plus_sign,,,,null,,,,,,,,,,,,,,
null,,learn_phase(without_color),1042734,black_plus_sign,,,,null,GW/hat.jpg,GW/dustpan.jpg,,,,,,,,,,,,
null,,black_cross(without_color),1043782,blue,,,,null,GW/hat.jpg,GW/dustpan.jpg,,,,,,,,,,,,
null,,rt_plussign_withcolor,1044285,blue,,,,null,GW/hat.jpg,GW/dustpan.jpg,,,,,,,,,,,,
761.2000000476837,,rt_thecrossant_black,1045242,black_plus_sign,,,,49,,,1,0.9891304347826086,,,,,,,,,,
null,,color_black,1045345,black_plus_sign,,,,null,,,,,,,,,,,,,,
null,,learn_phase(without_color),1047349,black_plus_sign,,,,null,GW/barrel.jpg,GW/jukebox.jpg,,,,,,,,,,,,
null,,black_cross(without_color),1048443,green,,,,null,GW/barrel.jpg,GW/jukebox.jpg,,,,,,,,,,,,
null,,rt_plussign_withcolor,1048946,green,,,,null,GW/barrel.jpg,GW/jukebox.jpg,,,,,,,,,,,,
1320,,rt_thecrossant_black,1049859,black_plus_sign,,,,50,,,1,0.989247311827957,,,,,,,,,,
null,,color_black,1049962,black_plus_sign,,,,null,,,,,,,,,,,,,,
null,,learn_phase(without_color),1051968,black_plus_sign,,,,null,GW/camera.jpg,GW/soldier.jpg,,,,,,,,,,,,
null,,black_cross(without_color),1052990,blue,,,,null,GW/camera.jpg,GW/soldier.jpg,,,,,,,,,,,,
null,,rt_plussign_withcolor,1053492,blue,,,,null,GW/camera.jpg,GW/soldier.jpg,,,,,,,,,,,,
1196.7000000476837,,rt_thecrossant_black,1054475,black_plus_sign,,,,49,,,1,0.9893617021276596,,,,,,,,,,
null,,color_black,1054577,black_plus_sign,,,,null,,,,,,,,,,,,,,
null,,learn_phase(without_color),1056580,black_plus_sign,,,,null,GW/globe.jpg,GW/paint.jpg,,,,,,,,,,,,
null,,black_cross(without_color),1057384,green,,,,null,GW/globe.jpg,GW/paint.jpg,,,,,,,,,,,,
null,,rt_plussign_withcolor,1057886,green,,,,null,GW/globe.jpg,GW/paint.jpg,,,,,,,,,,,,
1215.8999999761581,,rt_thecrossant_black,1059087,black_plus_sign,,,,50,,,1,0.9894736842105263,,,,,,,,,,
null,,color_black,1059190,black_plus_sign,,,,null,,,,,,,,,,,,,,
null,,learn_phase(without_color),1061193,black_plus_sign,,,,null,GW/globe.jpg,GW/hat.jpg,,,,,,,,,,,,
null,,black_cross(without_color),1061947,blue,,,,null,GW/globe.jpg,GW/hat.jpg,,,,,,,,,,,,
null,,rt_plussign_withcolor,1062449,blue,,,,null,GW/globe.jpg,GW/hat.jpg,,,,,,,,,,,,
1040.2000000476837,,rt_thecrossant_black,1063701,black_plus_sign,,,,49,,,1,0.9895833333333334,,,,,,,,,,
null,,color_black,1063805,black_plus_sign,,,,null,,,,,,,,,,,,,,
null,,learn_phase(without_color),1065809,black_plus_sign,,,,null,GW/barrel.jpg,GW/globe.jpg,,,,,,,,,,,,
null,,black_cross(without_color),1066215,green,,,,null,GW/barrel.jpg,GW/globe.jpg,,,,,,,,,,,,
null,,rt_plussign_withcolor,1066718,green,,,,null,GW/barrel.jpg,GW/globe.jpg,,,,,,,,,,,,
984.9000000953674,,rt_thecrossant_black,1068318,black_plus_sign,,,,50,,,1,0.9896907216494846,,,,,,,,,,
null,,color_black,1068420,black_plus_sign,,,,null,,,,,,,,,,,,,,
null,,learn_phase(without_color),1070423,black_plus_sign,,,,null,GW/teeth.jpg,GW/barrel.jpg,,,,,,,,,,,,
null,,black_cross(without_color),1071443,green,,,,null,GW/teeth.jpg,GW/barrel.jpg,,,,,,,,,,,,
null,,rt_plussign_withcolor,1071946,green,,,,null,GW/teeth.jpg,GW/barrel.jpg,,,,,,,,,,,,
603.8000000715256,,rt_thecrossant_black,1072930,black_plus_sign,,,,50,,,1,0.9897959183673469,,,,,,,,,,
null,,color_black,1073034,black_plus_sign,,,,null,,,,,,,,,,,,,,
null,,learn_phase(without_color),1075037,black_plus_sign,,,,null,GW/globe.jpg,GW/hat.jpg,,,,,,,,,,,,
null,,black_cross(without_color),1075928,blue,,,,null,GW/globe.jpg,GW/hat.jpg,,,,,,,,,,,,
null,,rt_plussign_withcolor,1076430,blue,,,,null,GW/globe.jpg,GW/hat.jpg,,,,,,,,,,,,
1409.2000000476837,,rt_thecrossant_black,1077545,black_plus_sign,,,,49,,,1,0.98989898989899,,,,,,,,,,
null,,color_black,1077648,black_plus_sign,,,,null,,,,,,,,,,,,,,
null,,learn_phase(without_color),1079652,black_plus_sign,,,,null,GW/gong.jpg,GW/dustpan.jpg,,,,,,,,,,,,
null,,black_cross(without_color),1080576,blue,,,,null,GW/gong.jpg,GW/dustpan.jpg,,,,,,,,,,,,
null,,rt_plussign_withcolor,1081078,blue,,,,null,GW/gong.jpg,GW/dustpan.jpg,,,,,,,,,,,,
1104.5,,rt_thecrossant_black,1082160,black_plus_sign,,,,49,,,1,0.99,,,,,,,,,,
null,,color_black,1082263,black_plus_sign,,,,null,,,,,,,,,,,,,,
null,,learn_phase(without_color),1084267,black_plus_sign,,,,null,GW/dustpan.jpg,GW/paint.jpg,,,,,,,,,,,,
null,,black_cross(without_color),1085065,green,,,,null,GW/dustpan.jpg,GW/paint.jpg,,,,,,,,,,,,
null,,rt_plussign_withcolor,1085567,green,,,,null,GW/dustpan.jpg,GW/paint.jpg,,,,,,,,,,,,
1086.2000000476837,,rt_thecrossant_black,1086776,black_plus_sign,,,,50,,,1,0.9900990099009901,,,,,,,,,,
null,,color_black,1086879,black_plus_sign,,,,null,,,,,,,,,,,,,,
null,,learn_phase(without_color),1088881,black_plus_sign,,,,null,GW/barrel.jpg,GW/jukebox.jpg,,,,,,,,,,,,
null,,black_cross(without_color),1089585,green,,,,null,GW/barrel.jpg,GW/jukebox.jpg,,,,,,,,,,,,
null,,rt_plussign_withcolor,1090087,green,,,,null,GW/barrel.jpg,GW/jukebox.jpg,,,,,,,,,,,,
1025.9000000953674,,rt_thecrossant_black,1091388,black_plus_sign,,,,50,,,1,0.9901960784313726,,,,,,,,,,
null,,color_black,1091491,black_plus_sign,,,,null,,,,,,,,,,,,,,
null,,learn_phase(without_color),1093495,black_plus_sign,,,,null,GW/paint.jpg,GW/basket.jpg,,,,,,,,,,,,
null,,black_cross(without_color),1094233,blue,,,,null,GW/paint.jpg,GW/basket.jpg,,,,,,,,,,,,
null,,rt_plussign_withcolor,1094736,blue,,,,null,GW/paint.jpg,GW/basket.jpg,,,,,,,,,,,,
856.0999999046326,,rt_thecrossant_black,1096002,black_plus_sign,,,,49,,,1,0.9902912621359223,,,,,,,,,,
null,,color_black,1096105,black_plus_sign,,,,null,,,,,,,,,,,,,,
null,,learn_phase(without_color),1098109,black_plus_sign,,,,null,GW/hat.jpg,GW/gong.jpg,,,,,,,,,,,,
null,,black_cross(without_color),1098934,blue,,,,null,GW/hat.jpg,GW/gong.jpg,,,,,,,,,,,,
null,,rt_plussign_withcolor,1099436,blue,,,,null,GW/hat.jpg,GW/gong.jpg,,,,,,,,,,,,
931.5,,rt_thecrossant_black,1100615,black_plus_sign,,,,49,,,1,0.9903846153846154,,,,,,,,,,
null,,color_black,1100720,black_plus_sign,,,,null,,,,,,,,,,,,,,
null,,learn_phase(without_color),1102723,black_plus_sign,,,,null,GW/gong.jpg,GW/camera.jpg,,,,,,,,,,,,
null,,black_cross(without_color),1103689,green,,,,null,GW/gong.jpg,GW/camera.jpg,,,,,,,,,,,,
null,,rt_plussign_withcolor,1104190,green,,,,null,GW/gong.jpg,GW/camera.jpg,,,,,,,,,,,,
960.8999999761581,,rt_thecrossant_black,1105230,black_plus_sign,,,,50,,,1,0.9904761904761905,,,,,,,,,,
null,,color_black,1105333,black_plus_sign,,,,null,,,,,,,,,,,,,,
null,,learn_phase(without_color),1107335,black_plus_sign,,,,null,GW/jukebox.jpg,GW/snail.jpg,,,,,,,,,,,,
null,,black_cross(without_color),1107991,green,,,,null,GW/jukebox.jpg,GW/snail.jpg,,,,,,,,,,,,
null,,rt_plussign_withcolor,1108493,green,,,,null,GW/jukebox.jpg,GW/snail.jpg,,,,,,,,,,,,
1168.1999999284744,,rt_thecrossant_black,1109844,black_plus_sign,,,,50,,,1,0.9905660377358491,,,,,,,,,,
null,,color_black,1109946,black_plus_sign,,,,null,,,,,,,,,,,,,,
null,,learn_phase(without_color),1111949,black_plus_sign,,,,null,GW/barrel.jpg,GW/globe.jpg,,,,,,,,,,,,
null,,black_cross(without_color),1112530,blue,,,,null,GW/barrel.jpg,GW/globe.jpg,,,,,,,,,,,,
null,,rt_plussign_withcolor,1113032,blue,,,,null,GW/barrel.jpg,GW/globe.jpg,,,,,,,,,,,,
870.9000000953674,,rt_thecrossant_black,1114457,black_plus_sign,,,,49,,,1,0.9906542056074766,,,,,,,,,,
null,,color_black,1114560,black_plus_sign,,,,null,,,,,,,,,,,,,,
null,,learn_phase(without_color),1116565,black_plus_sign,,,,null,GW/dustpan.jpg,GW/paint.jpg,,,,,,,,,,,,
null,,black_cross(without_color),1117081,blue,,,,null,GW/dustpan.jpg,GW/paint.jpg,,,,,,,,,,,,
null,,rt_plussign_withcolor,1117583,blue,,,,null,GW/dustpan.jpg,GW/paint.jpg,,,,,,,,,,,,
822.8000000715256,,rt_thecrossant_black,1119072,black_plus_sign,,,,49,,,1,0.9907407407407407,,,,,,,,,,
null,,color_black,1119175,black_plus_sign,,,,null,,,,,,,,,,,,,,
null,,learn_phase(without_color),1121179,black_plus_sign,,,,null,GW/barrel.jpg,GW/jukebox.jpg,,,,,,,,,,,,
null,,black_cross(without_color),1121826,green,,,,null,GW/barrel.jpg,GW/jukebox.jpg,,,,,,,,,,,,
null,,rt_plussign_withcolor,1122328,green,,,,null,GW/barrel.jpg,GW/jukebox.jpg,,,,,,,,,,,,
715.8999999761581,,rt_thecrossant_black,1123689,black_plus_sign,,,,50,,,1,0.9908256880733946,,,,,,,,,,
null,,color_black,1123791,black_plus_sign,,,,null,,,,,,,,,,,,,,
null,,learn_phase(without_color),1125795,black_plus_sign,,,,null,GW/gong.jpg,GW/dustpan.jpg,,,,,,,,,,,,
null,,black_cross(without_color),1126531,green,,,,null,GW/gong.jpg,GW/dustpan.jpg,,,,,,,,,,,,
null,,rt_plussign_withcolor,1127033,green,,,,null,GW/gong.jpg,GW/dustpan.jpg,,,,,,,,,,,,
785.1000000238419,,rt_thecrossant_black,1128303,black_plus_sign,,,,50,,,1,0.990909090909091,,,,,,,,,,
null,,color_black,1128404,black_plus_sign,,,,null,,,,,,,,,,,,,,
null,,learn_phase(without_color),1130409,black_plus_sign,,,,null,GW/globe.jpg,GW/hat.jpg,,,,,,,,,,,,
null,,black_cross(without_color),1131036,green,,,,null,GW/globe.jpg,GW/hat.jpg,,,,,,,,,,,,
null,,rt_plussign_withcolor,1131538,green,,,,null,GW/globe.jpg,GW/hat.jpg,,,,,,,,,,,,
1109.6000000238419,,rt_thecrossant_black,1132917,black_plus_sign,,,,50,,,1,0.990990990990991,,,,,,,,,,
null,,color_black,1133020,black_plus_sign,,,,null,,,,,,,,,,,,,,
null,,learn_phase(without_color),1135024,black_plus_sign,,,,null,GW/paint.jpg,GW/basket.jpg,,,,,,,,,,,,
null,,black_cross(without_color),1135939,green,,,,null,GW/paint.jpg,GW/basket.jpg,,,,,,,,,,,,
null,,rt_plussign_withcolor,1136448,green,,,,null,GW/paint.jpg,GW/basket.jpg,,,,,,,,,,,,
854.5999999046326,,rt_thecrossant_black,1137540,black_plus_sign,,,,50,,,1,0.9910714285714286,,,,,,,,,,
null,,color_black,1137644,black_plus_sign,,,,null,,,,,,,,,,,,,,
null,,learn_phase(without_color),1139648,black_plus_sign,,,,null,GW/globe.jpg,GW/paint.jpg,,,,,,,,,,,,
null,,black_cross(without_color),1140682,blue,,,,null,GW/globe.jpg,GW/paint.jpg,,,,,,,,,,,,
null,,rt_plussign_withcolor,1141185,blue,,,,null,GW/globe.jpg,GW/paint.jpg,,,,,,,,,,,,
1297.1999999284744,,rt_thecrossant_black,1142157,black_plus_sign,,,,49,,,1,0.9911504424778761,,,,,,,,,,
null,,color_black,1142261,black_plus_sign,,,,null,,,,,,,,,,,,,,
null,,learn_phase(without_color),1144265,black_plus_sign,,,,null,GW/dustpan.jpg,GW/paint.jpg,,,,,,,,,,,,
null,,black_cross(without_color),1144896,blue,,,,null,GW/dustpan.jpg,GW/paint.jpg,,,,,,,,,,,,
null,,rt_plussign_withcolor,1145400,blue,,,,null,GW/dustpan.jpg,GW/paint.jpg,,,,,,,,,,,,
2087.2999999523163,,rt_thecrossant_black,1146774,black_plus_sign,,,,49,,,1,0.9912280701754386,,,,,,,,,,
null,,color_black,1146876,black_plus_sign,,,,null,,,,,,,,,,,,,,
null,,learn_phase(without_color),1148881,black_plus_sign,,,,null,GW/hat.jpg,GW/dustpan.jpg,,,,,,,,,,,,
null,,black_cross(without_color),1149796,blue,,,,null,GW/hat.jpg,GW/dustpan.jpg,,,,,,,,,,,,
null,,rt_plussign_withcolor,1150299,blue,,,,null,GW/hat.jpg,GW/dustpan.jpg,,,,,,,,,,,,
815.8999999761581,,rt_thecrossant_black,1151391,black_plus_sign,,,,49,,,1,0.991304347826087,,,,,,,,,,
null,,color_black,1151494,black_plus_sign,,,,null,,,,,,,,,,,,,,
null,,learn_phase(without_color),1153498,black_plus_sign,,,,null,GW/camera.jpg,GW/soldier.jpg,,,,,,,,,,,,
null,,black_cross(without_color),1154152,green,,,,null,GW/camera.jpg,GW/soldier.jpg,,,,,,,,,,,,
null,,rt_plussign_withcolor,1154655,green,,,,null,GW/camera.jpg,GW/soldier.jpg,,,,,,,,,,,,
1086.6999999284744,,rt_thecrossant_black,1156008,black_plus_sign,,,,50,,,1,0.9913793103448276,,,,,,,,,,
null,,color_black,1156113,black_plus_sign,,,,null,,,,,,,,,,,,,,
null,,learn_phase(without_color),1158122,black_plus_sign,,,,null,GW/gong.jpg,GW/wheelchair.jpg,,,,,,,,,,,,
null,,black_cross(without_color),1158960,green,,,,null,GW/gong.jpg,GW/wheelchair.jpg,,,,,,,,,,,,
null,,rt_plussign_withcolor,1159462,green,,,,null,GW/gong.jpg,GW/wheelchair.jpg,,,,,,,,,,,,
839.5,,rt_thecrossant_black,1160631,black_plus_sign,,,,50,,,1,0.9914529914529915,,,,,,,,,,
null,,color_black,1160734,black_plus_sign,,,,null,,,,,,,,,,,,,,
null,,learn_phase(without_color),1162737,black_plus_sign,,,,null,GW/hat.jpg,GW/dustpan.jpg,,,,,,,,,,,,
null,,black_cross(without_color),1163493,green,,,,null,GW/hat.jpg,GW/dustpan.jpg,,,,,,,,,,,,
null,,rt_plussign_withcolor,1163995,green,,,,null,GW/hat.jpg,GW/dustpan.jpg,,,,,,,,,,,,
1005.7999999523163,,rt_thecrossant_black,1165246,black_plus_sign,,,,50,,,1,0.9915254237288136,,,,,,,,,,
null,,color_black,1165349,black_plus_sign,,,,null,,,,,,,,,,,,,,
null,,learn_phase(without_color),1167352,black_plus_sign,,,,null,GW/globe.jpg,GW/hat.jpg,,,,,,,,,,,,
null,,black_cross(without_color),1168411,green,,,,null,GW/globe.jpg,GW/hat.jpg,,,,,,,,,,,,
null,,rt_plussign_withcolor,1168913,green,,,,null,GW/globe.jpg,GW/hat.jpg,,,,,,,,,,,,
852.8999999761581,,rt_thecrossant_black,1169859,black_plus_sign,,,,50,,,1,0.9915966386554622,,,,,,,,,,
null,,color_black,1169961,black_plus_sign,,,,null,,,,,,,,,,,,,,
null,,learn_phase(without_color),1171963,black_plus_sign,,,,null,GW/hat.jpg,GW/dustpan.jpg,,,,,,,,,,,,
null,,black_cross(without_color),1172520,blue,,,,null,GW/hat.jpg,GW/dustpan.jpg,,,,,,,,,,,,
null,,rt_plussign_withcolor,1173023,blue,,,,null,GW/hat.jpg,GW/dustpan.jpg,,,,,,,,,,,,
1233.3999999761581,,rt_thecrossant_black,1174472,black_plus_sign,,,,49,,,1,0.9916666666666667,,,,,,,,,,
null,,color_black,1174575,black_plus_sign,,,,null,,,,,,,,,,,,,,
null,,learn_phase(without_color),1176578,black_plus_sign,,,,null,GW/hat.jpg,GW/gong.jpg,,,,,,,,,,,,
null,,black_cross(without_color),1177107,green,,,,null,GW/hat.jpg,GW/gong.jpg,,,,,,,,,,,,
null,,rt_plussign_withcolor,1177610,green,,,,null,GW/hat.jpg,GW/gong.jpg,,,,,,,,,,,,
676.5,,rt_thecrossant_black,1179090,black_plus_sign,,,,50,,,1,0.9917355371900827,,,,,,,,,,
null,,color_black,1179193,black_plus_sign,,,,null,,,,,,,,,,,,,,
null,,learn_phase(without_color),1181196,black_plus_sign,,,,null,GW/gong.jpg,GW/camera.jpg,,,,,,,,,,,,
null,,black_cross(without_color),1181932,green,,,,null,GW/gong.jpg,GW/camera.jpg,,,,,,,,,,,,
null,,rt_plussign_withcolor,1182434,green,,,,null,GW/gong.jpg,GW/camera.jpg,,,,,,,,,,,,
711.8000000715256,,rt_thecrossant_black,1183705,black_plus_sign,,,,50,,,1,0.9918032786885246,,,,,,,,,,
null,,color_black,1183808,black_plus_sign,,,,null,,,,,,,,,,,,,,
null,,learn_phase(without_color),1185811,black_plus_sign,,,,null,GW/barrel.jpg,GW/jukebox.jpg,,,,,,,,,,,,
null,,black_cross(without_color),1186378,green,,,,null,GW/barrel.jpg,GW/jukebox.jpg,,,,,,,,,,,,
null,,rt_plussign_withcolor,1186880,green,,,,null,GW/barrel.jpg,GW/jukebox.jpg,,,,,,,,,,,,
909.7000000476837,,rt_thecrossant_black,1188328,black_plus_sign,,,,50,,,1,0.991869918699187,,,,,,,,,,
null,,color_black,1188430,black_plus_sign,,,,null,,,,,,,,,,,,,,
null,,learn_phase(without_color),1190434,black_plus_sign,,,,null,GW/camera.jpg,GW/soldier.jpg,,,,,,,,,,,,
null,,black_cross(without_color),1191141,green,,,,null,GW/camera.jpg,GW/soldier.jpg,,,,,,,,,,,,
null,,rt_plussign_withcolor,1191643,green,,,,null,GW/camera.jpg,GW/soldier.jpg,,,,,,,,,,,,
675.8999999761581,,rt_thecrossant_black,1192942,black_plus_sign,,,,50,,,1,0.9919354838709677,,,,,,,,,,
null,,color_black,1193045,black_plus_sign,,,,null,,,,,,,,,,,,,,
null,,learn_phase(without_color),1195050,black_plus_sign,,,,null,GW/gong.jpg,GW/camera.jpg,,,,,,,,,,,,
null,,black_cross(without_color),1195644,blue,,,,null,GW/gong.jpg,GW/camera.jpg,,,,,,,,,,,,
null,,rt_plussign_withcolor,1196147,blue,,,,null,GW/gong.jpg,GW/camera.jpg,,,,,,,,,,,,
856.1999999284744,,rt_thecrossant_black,1197560,black_plus_sign,,,,49,,,1,0.992,,,,,,,,,,
null,,color_black,1197663,black_plus_sign,,,,null,,,,,,,,,,,,,,
null,,learn_phase(without_color),1199668,black_plus_sign,,,,null,GW/jukebox.jpg,GW/basket.jpg,,,,,,,,,,,,
null,,black_cross(without_color),1200444,green,,,,null,GW/jukebox.jpg,GW/basket.jpg,,,,,,,,,,,,
null,,rt_plussign_withcolor,1200947,green,,,,null,GW/jukebox.jpg,GW/basket.jpg,,,,,,,,,,,,
883.7999999523163,,rt_thecrossant_black,1202178,black_plus_sign,,,,50,,,1,0.9920634920634921,,,,,,,,,,
null,,color_black,1202280,black_plus_sign,,,,null,,,,,,,,,,,,,,
null,,learn_phase(without_color),1204285,black_plus_sign,,,,null,GW/gong.jpg,GW/wheelchair.jpg,,,,,,,,,,,,
null,,black_cross(without_color),1204764,green,,,,null,GW/gong.jpg,GW/wheelchair.jpg,,,,,,,,,,,,
null,,rt_plussign_withcolor,1205266,green,,,,null,GW/gong.jpg,GW/wheelchair.jpg,,,,,,,,,,,,
935.7999999523163,,rt_thecrossant_black,1206792,black_plus_sign,,,,50,,,1,0.9921259842519685,,,,,,,,,,
null,,color_black,1206894,black_plus_sign,,,,null,,,,,,,,,,,,,,
null,,learn_phase(without_color),1208897,black_plus_sign,,,,null,GW/hat.jpg,GW/dustpan.jpg,,,,,,,,,,,,
null,,black_cross(without_color),1209531,blue,,,,null,GW/hat.jpg,GW/dustpan.jpg,,,,,,,,,,,,
null,,rt_plussign_withcolor,1210032,blue,,,,null,GW/hat.jpg,GW/dustpan.jpg,,,,,,,,,,,,
757.1999999284744,,rt_thecrossant_black,1211408,black_plus_sign,,,,49,,,1,0.9921875,,,,,,,,,,
null,,color_black,1211512,black_plus_sign,,,,null,,,,,,,,,,,,,,
49245,,intro_1,1260761,instruct,,0,Start,,,,,,,,,,,,,,,
2800,,directmemory_phase,1263566,GW/dustpan.jpg,,,,51,,,0,0,GW/camera.jpg,GW/barrel.jpg,GW/basket.jpg,GW/camera.jpg,GW/basket.jpg,GW/barrel.jpg,0.5,closer,,
null,,html-keyboard-response,1264570,<p></p>,,,,null,,,,,,,,,,,,,,
3494.6999999284744,,directmemory_phase,1268066,GW/gong.jpg,,,,49,,,0,0,GW/globe.jpg,GW/hat.jpg,GW/teeth.jpg,GW/hat.jpg,GW/globe.jpg,GW/teeth.jpg,0.5,closer,,
null,,html-keyboard-response,1269070,<p></p>,,,,null,,,,,,,,,,,,,,
4045.899999976158,,directmemory_phase,1273118,GW/paint.jpg,,,,50,,,1,0.3333333333333333,GW/barrel.jpg,GW/dustpan.jpg,GW/wheelchair.jpg,GW/dustpan.jpg,GW/barrel.jpg,GW/wheelchair.jpg,1,,,
null,,html-keyboard-response,1274121,<p></p>,,,,null,,,,,,,,,,,,,,
2662.8000000715256,,directmemory_phase,1276787,GW/hat.jpg,,,,49,,,0,0.25,GW/soldier.jpg,GW/barrel.jpg,GW/gong.jpg,GW/gong.jpg,GW/barrel.jpg,GW/soldier.jpg,0.5,closer,,
null,,html-keyboard-response,1277791,<p></p>,,,,null,,,,,,,,,,,,,,
2482.399999976158,,directmemory_phase,1280275,GW/paint.jpg,,,,51,,,1,0.4,GW/wheelchair.jpg,GW/gong.jpg,GW/basket.jpg,GW/basket.jpg,GW/gong.jpg,GW/wheelchair.jpg,1,,,
null,,html-keyboard-response,1281277,<p></p>,,,,null,,,,,,,,,,,,,,
3283.899999976158,,directmemory_phase,1284562,GW/dustpan.jpg,,,,49,,,1,0.5,GW/hat.jpg,GW/jukebox.jpg,GW/wheelchair.jpg,GW/hat.jpg,GW/wheelchair.jpg,GW/jukebox.jpg,1,,,
null,,html-keyboard-response,1285567,<p></p>,,,,null,,,,,,,,,,,,,,
3040.899999976158,,directmemory_phase,1288610,GW/gong.jpg,,,,50,,,0,0.42857142857142855,GW/camera.jpg,GW/jukebox.jpg,GW/soldier.jpg,GW/camera.jpg,GW/soldier.jpg,GW/jukebox.jpg,0.5,closer,,
null,,html-keyboard-response,1289612,<p></p>,,,,null,,,,,,,,,,,,,,
3211.6999999284744,,directmemory_phase,1292826,GW/basket.jpg,,,,49,,,1,0.5,GW/jukebox.jpg,GW/hat.jpg,GW/barrel.jpg,GW/jukebox.jpg,GW/barrel.jpg,GW/hat.jpg,1,,,
null,,html-keyboard-response,1293828,<p></p>,,,,null,,,,,,,,,,,,,,
3294.7999999523163,,directmemory_phase,1297124,GW/camera.jpg,,,,51,,,1,0.5555555555555556,GW/jukebox.jpg,GW/paint.jpg,GW/gong.jpg,GW/gong.jpg,GW/paint.jpg,GW/jukebox.jpg,1,,,
null,,html-keyboard-response,1298127,<p></p>,,,,null,,,,,,,,,,,,,,
4364.599999904633,,directmemory_phase,1302493,GW/globe.jpg,,,,50,,,1,0.6,GW/teeth.jpg,GW/hat.jpg,GW/wheelchair.jpg,GW/hat.jpg,GW/teeth.jpg,GW/wheelchair.jpg,1,,,
null,,html-keyboard-response,1303497,<p></p>,,,,null,,,,,,,,,,,,,,
3239.399999976158,,directmemory_phase,1306739,GW/camera.jpg,,,,51,,,1,0.6363636363636364,GW/basket.jpg,GW/hat.jpg,GW/soldier.jpg,GW/soldier.jpg,GW/hat.jpg,GW/basket.jpg,1,,,
null,,html-keyboard-response,1307742,<p></p>,,,,null,,,,,,,,,,,,,,
4449,,directmemory_phase,1312193,GW/gong.jpg,,,,50,,,0,0.5833333333333334,GW/basket.jpg,GW/soldier.jpg,GW/dustpan.jpg,GW/dustpan.jpg,GW/soldier.jpg,GW/basket.jpg,0.5,closer,,
null,,html-keyboard-response,1313199,<p></p>,,,,null,,,,,,,,,,,,,,
2578.5,,directmemory_phase,1315780,GW/globe.jpg,,,,49,,,1,0.6153846153846154,GW/barrel.jpg,GW/soldier.jpg,GW/jukebox.jpg,GW/barrel.jpg,GW/jukebox.jpg,GW/soldier.jpg,1,,,
null,,html-keyboard-response,1316784,<p></p>,,,,null,,,,,,,,,,,,,,
2532.100000023842,,directmemory_phase,1319319,GW/dustpan.jpg,,,,49,,,1,0.6428571428571429,GW/paint.jpg,GW/snail.jpg,GW/globe.jpg,GW/paint.jpg,GW/globe.jpg,GW/snail.jpg,1,,,
null,,html-keyboard-response,1320323,<p></p>,,,,null,,,,,,,,,,,,,,
3246.5,,directmemory_phase,1323572,GW/barrel.jpg,,,,49,,,1,0.6666666666666666,GW/globe.jpg,GW/wheelchair.jpg,GW/snail.jpg,GW/globe.jpg,GW/snail.jpg,GW/wheelchair.jpg,1,,,
null,,html-keyboard-response,1324577,<p></p>,,,,null,,,,,,,,,,,,,,
3648.399999976158,,directmemory_phase,1328227,GW/jukebox.jpg,,,,50,,,0,0.625,GW/dustpan.jpg,GW/globe.jpg,GW/snail.jpg,GW/snail.jpg,GW/globe.jpg,GW/dustpan.jpg,0.5,closer,,
null,,html-keyboard-response,1329230,<p></p>,,,,null,,,,,,,,,,,,,,
2936.600000023842,,directmemory_phase,1332169,GW/teeth.jpg,,,,49,,,0,0.5882352941176471,GW/hat.jpg,GW/jukebox.jpg,GW/barrel.jpg,GW/barrel.jpg,GW/jukebox.jpg,GW/hat.jpg,0.5,closer,,
null,,html-keyboard-response,1333173,<p></p>,,,,null,,,,,,,,,,,,,,
4538.100000023842,,directmemory_phase,1337713,GW/globe.jpg,,,,51,,,0,0.5555555555555556,GW/jukebox.jpg,GW/paint.jpg,GW/snail.jpg,GW/paint.jpg,GW/jukebox.jpg,GW/snail.jpg,0.5,closer,,
null,,html-keyboard-response,1338718,<p></p>,,,,null,,,,,,,,,,,,,,
4196.5,,directmemory_phase,1342917,GW/dustpan.jpg,,,,49,,,0,0.5263157894736842,GW/globe.jpg,GW/gong.jpg,GW/snail.jpg,GW/gong.jpg,GW/globe.jpg,GW/snail.jpg,0.5,closer,,
null,,html-keyboard-response,1343922,<p></p>,,,,null,,,,,,,,,,,,,,
4616.899999976158,,directmemory_phase,1348541,GW/paint.jpg,,,,50,,,0,0.5,GW/globe.jpg,GW/snail.jpg,GW/gong.jpg,GW/globe.jpg,GW/gong.jpg,GW/snail.jpg,0.5,closer,,
null,,html-keyboard-response,1349545,<p></p>,,,,null,,,,,,,,,,,,,,
4700.799999952316,,directmemory_phase,1354248,GW/camera.jpg,,,,50,,,0,0.47619047619047616,GW/jukebox.jpg,GW/hat.jpg,GW/dustpan.jpg,GW/dustpan.jpg,GW/hat.jpg,GW/jukebox.jpg,0.5,closer,,
null,,html-keyboard-response,1355251,<p></p>,,,,null,,,,,,,,,,,,,,
3878.5999999046326,,directmemory_phase,1359133,GW/barrel.jpg,,,,51,,,1,0.5,GW/wheelchair.jpg,GW/hat.jpg,GW/jukebox.jpg,GW/jukebox.jpg,GW/hat.jpg,GW/wheelchair.jpg,1,,,
null,,html-keyboard-response,1360137,<p></p>,,,,null,,,,,,,,,,,,,,
5560.200000047684,,directmemory_phase,1365699,GW/hat.jpg,,,,51,,,1,0.5217391304347826,GW/snail.jpg,GW/paint.jpg,GW/dustpan.jpg,GW/dustpan.jpg,GW/paint.jpg,GW/snail.jpg,1,,,
null,,html-keyboard-response,1366702,<p></p>,,,,null,,,,,,,,,,,,,,
6084.299999952316,,directmemory_phase,1372788,GW/snail.jpg,,,,51,,,0,0.5,GW/jukebox.jpg,GW/dustpan.jpg,GW/barrel.jpg,GW/jukebox.jpg,GW/barrel.jpg,GW/dustpan.jpg,0.5,closer,,
null,,html-keyboard-response,1373792,<p></p>,,,,null,,,,,,,,,,,,,,
3722,,directmemory_phase,1377516,GW/barrel.jpg,,,,51,,,1,0.52,GW/wheelchair.jpg,GW/snail.jpg,GW/teeth.jpg,GW/teeth.jpg,GW/snail.jpg,GW/wheelchair.jpg,1,,,
null,,html-keyboard-response,1378520,<p></p>,,,,null,,,,,,,,,,,,,,
5583.299999952316,,directmemory_phase,1384106,GW/hat.jpg,,,,50,,,0,0.5,GW/globe.jpg,GW/teeth.jpg,GW/camera.jpg,GW/globe.jpg,GW/camera.jpg,GW/teeth.jpg,0.5,closer,,
null,,html-keyboard-response,1385108,<p></p>,,,,null,,,,,,,,,,,,,,
2941,,directmemory_phase,1388051,GW/jukebox.jpg,,,,49,,,1,0.5185185185185185,GW/barrel.jpg,GW/gong.jpg,GW/globe.jpg,GW/barrel.jpg,GW/globe.jpg,GW/gong.jpg,1,,,
null,,html-keyboard-response,1389055,<p></p>,,,,null,,,,,,,,,,,,,,
3553.7999999523163,,directmemory_phase,1392611,GW/gong.jpg,,,,49,,,1,0.5357142857142857,GW/wheelchair.jpg,GW/teeth.jpg,GW/soldier.jpg,GW/wheelchair.jpg,GW/soldier.jpg,GW/teeth.jpg,1,,,
null,,html-keyboard-response,1393615,<p></p>,,,,null,,,,,,,,,,,,,,
3768.600000023842,,directmemory_phase,1397385,GW/soldier.jpg,,,,49,,,0,0.5172413793103449,GW/globe.jpg,GW/dustpan.jpg,GW/camera.jpg,GW/camera.jpg,GW/dustpan.jpg,GW/globe.jpg,0.5,closer,,
null,,html-keyboard-response,1398388,<p></p>,,,,null,,,,,,,,,,,,,,
2003.8999999761581,,directmemory_phase,1400396,GW/wheelchair.jpg,,,,51,,,1,0.5333333333333333,GW/globe.jpg,GW/hat.jpg,GW/gong.jpg,GW/gong.jpg,GW/hat.jpg,GW/globe.jpg,1,,,
null,,html-keyboard-response,1401401,<p></p>,,,,null,,,,,,,,,,,,,,
3838.6999999284744,,directmemory_phase,1405242,GW/basket.jpg,,,,50,,,1,0.5483870967741935,GW/globe.jpg,GW/paint.jpg,GW/soldier.jpg,GW/paint.jpg,GW/globe.jpg,GW/soldier.jpg,1,,,
null,,html-keyboard-response,1406244,<p></p>,,,,null,,,,,,,,,,,,,,
null,,directmemory_phase,1412747,,,,,null,,,0,0.53125,,,,,,,0,,,
null,,html-keyboard-response,1413750,<p></p>,,,,null,,,,,,,,,,,,,,
23811.5,,intro_1,1437565,instruct,,0,,,,,,,,,,,,,,,,
14047.899999976158,,intro_2,1451616,instruct,,1,Next,,,,,,,,,,,,,,,
9546.600000023842,,intro_3,1461165,instruct,,1,Next,,,,,,,,,,,,,,,
12714.5,,intro_4,1473883,instruct,,1,Next,,,,,,,,,,,,,,,
28546.399999976158,,intro_5,1502432,instruct,,1,Next,,,,,,,,,,,,,,,
1597.9000000953674,,intro_6,1504033,instruct,,1,Next,,,,,,,,,,,,,,,
27085.799999952316,,intro_7,1531123,instruct,,1,Next,,,,,,,,,,,,,,,
72976.70000004768,,intro_8,1604103,instruct,,1,Next,,,,,,,,,,,,,,,
3004.7000000476837,,shortestpath_phase,1607111,GW/barrel.jpg,,,,49,GW/snail.jpg,GW/wheelchair.jpg,1,1,,,,GW/snail.jpg,,,,,Two Edge Diff,Two Edge Four Edge
null,,html-keyboard-response,1608116,<p></p>,,,,null,,,,,,,,,,,,,,
1794.2999999523163,,shortestpath_phase,1609913,GW/soldier.jpg,,,,50,GW/teeth.jpg,GW/globe.jpg,1,1,,,,GW/globe.jpg,,,,,Two Edge Diff,Four Edge Six Edge
null,,html-keyboard-response,1610917,<p></p>,,,,null,,,,,,,,,,,,,,
2653.7000000476837,,shortestpath_phase,1613572,GW/teeth.jpg,,,,49,GW/wheelchair.jpg,GW/paint.jpg,0,0.6666666666666666,,,,GW/paint.jpg,,,,,Two Edge Diff,Three Edge Five Edge
null,,html-keyboard-response,1614576,<p></p>,,,,null,,,,,,,,,,,,,,
2143.2999999523163,,shortestpath_phase,1616721,GW/basket.jpg,,,,50,GW/globe.jpg,GW/hat.jpg,0,0.5,,,,GW/globe.jpg,,,,,One Edge Diff,Two Edge Three Edge
null,,html-keyboard-response,1617725,<p></p>,,,,null,,,,,,,,,,,,,,
1442.7000000476837,,shortestpath_phase,1619170,GW/gong.jpg,,,,49,GW/soldier.jpg,GW/snail.jpg,1,0.6,,,,GW/soldier.jpg,,,,,Three Edge Diff,Two Edge Five Edge
null,,html-keyboard-response,1620174,<p></p>,,,,null,,,,,,,,,,,,,,
1805,,shortestpath_phase,1621981,GW/wheelchair.jpg,,,,49,GW/hat.jpg,GW/snail.jpg,1,0.6666666666666666,,,,GW/hat.jpg,,,,,Four Edge Diff,Two Edge Six Edge
null,,html-keyboard-response,1622985,<p></p>,,,,null,,,,,,,,,,,,,,
1719.8999999761581,,shortestpath_phase,1624707,GW/soldier.jpg,,,,49,GW/barrel.jpg,GW/snail.jpg,1,0.7142857142857143,,,,GW/barrel.jpg,,,,,One Edge Diff,Five Edge Six Edge
null,,html-keyboard-response,1625726,<p></p>,,,,null,,,,,,,,,,,,,,
2156.1999999284744,,shortestpath_phase,1627885,GW/jukebox.jpg,,,,50,GW/camera.jpg,GW/teeth.jpg,1,0.75,,,,GW/teeth.jpg,,,,,Two Edge Diff,Two Edge Four Edge
null,,html-keyboard-response,1628889,<p></p>,,,,null,,,,,,,,,,,,,,
2774.5999999046326,,shortestpath_phase,1631666,GW/soldier.jpg,,,,50,GW/dustpan.jpg,GW/barrel.jpg,0,0.6666666666666666,,,,GW/dustpan.jpg,,,,,Three Edge Diff,Three Edge Six Edge
null,,html-keyboard-response,1632670,<p></p>,,,,null,,,,,,,,,,,,,,
3627.7999999523163,,shortestpath_phase,1636300,GW/globe.jpg,,,,49,GW/wheelchair.jpg,GW/jukebox.jpg,0,0.6,,,,GW/jukebox.jpg,,,,,One Edge Diff,Two Edge Three Edge
null,,html-keyboard-response,1637304,<p></p>,,,,null,,,,,,,,,,,,,,
3230.100000023842,,shortestpath_phase,1640536,GW/wheelchair.jpg,,,,50,GW/teeth.jpg,GW/camera.jpg,1,0.6363636363636364,,,,GW/camera.jpg,,,,,Three Edge Diff,Two Edge Five Edge
null,,html-keyboard-response,1641540,<p></p>,,,,null,,,,,,,,,,,,,,
4502.5,,shortestpath_phase,1646044,GW/soldier.jpg,,,,50,GW/teeth.jpg,GW/jukebox.jpg,1,0.6666666666666666,,,,GW/jukebox.jpg,,,,,One Edge Diff,Five Edge Six Edge
null,,html-keyboard-response,1647049,<p></p>,,,,null,,,,,,,,,,,,,,
2520,,shortestpath_phase,1649571,GW/snail.jpg,,,,50,GW/soldier.jpg,GW/hat.jpg,1,0.6923076923076923,,,,GW/hat.jpg,,,,,Two Edge Diff,Four Edge Six Edge
null,,html-keyboard-response,1650575,<p></p>,,,,null,,,,,,,,,,,,,,
3423.7000000476837,,shortestpath_phase,1654000,GW/jukebox.jpg,,,,49,GW/wheelchair.jpg,GW/globe.jpg,0,0.6428571428571429,,,,GW/globe.jpg,,,,,Three Edge Diff,Two Edge Five Edge
null,,html-keyboard-response,1655002,<p></p>,,,,null,,,,,,,,,,,,,,
3131.8000000715256,,shortestpath_phase,1658135,GW/snail.jpg,,,,50,GW/gong.jpg,GW/soldier.jpg,0,0.6,,,,GW/gong.jpg,,,,,One Edge Diff,Five Edge Six Edge
null,,html-keyboard-response,1659138,<p></p>,,,,null,,,,,,,,,,,,,,
1604.3999999761581,,shortestpath_phase,1660744,GW/wheelchair.jpg,,,,50,GW/snail.jpg,GW/basket.jpg,1,0.625,,,,GW/basket.jpg,,,,,Two Edge Diff,Four Edge Six Edge
null,,html-keyboard-response,1661747,<p></p>,,,,null,,,,,,,,,,,,,,
3376,,shortestpath_phase,1665126,GW/soldier.jpg,,,,49,GW/gong.jpg,GW/snail.jpg,1,0.6470588235294118,,,,GW/gong.jpg,,,,,Four Edge Diff,Two Edge Six Edge
null,,html-keyboard-response,1666131,<p></p>,,,,null,,,,,,,,,,,,,,
3401.399999976158,,shortestpath_phase,1669535,GW/snail.jpg,,,,50,GW/barrel.jpg,GW/globe.jpg,0,0.6111111111111112,,,,GW/barrel.jpg,,,,,One Edge Diff,Two Edge Three Edge
null,,html-keyboard-response,1670539,<p></p>,,,,null,,,,,,,,,,,,,,
1405.1999999284744,,shortestpath_phase,1671945,GW/basket.jpg,,,,50,GW/globe.jpg,GW/wheelchair.jpg,0,0.5789473684210527,,,,GW/globe.jpg,,,,,Two Edge Diff,Two Edge Four Edge
null,,html-keyboard-response,1672948,<p></p>,,,,null,,,,,,,,,,,,,,
2418.100000023842,,shortestpath_phase,1675368,GW/wheelchair.jpg,,,,49,GW/teeth.jpg,GW/snail.jpg,1,0.6,,,,GW/teeth.jpg,,,,,One Edge Diff,Five Edge Six Edge
null,,html-keyboard-response,1676377,<p></p>,,,,null,,,,,,,,,,,,,,
2488.100000023842,,shortestpath_phase,1678867,GW/paint.jpg,,,,49,GW/hat.jpg,GW/snail.jpg,1,0.6190476190476191,,,,GW/hat.jpg,,,,,One Edge Diff,Two Edge Three Edge
null,,html-keyboard-response,1679871,<p></p>,,,,null,,,,,,,,,,,,,,
2515.100000023842,,shortestpath_phase,1682388,GW/teeth.jpg,,,,50,GW/soldier.jpg,GW/gong.jpg,1,0.6363636363636364,,,,GW/gong.jpg,,,,,Two Edge Diff,Four Edge Six Edge
null,,html-keyboard-response,1683391,<p></p>,,,,null,,,,,,,,,,,,,,
1494.6000000238419,,shortestpath_phase,1684887,GW/wheelchair.jpg,,,,49,GW/barrel.jpg,GW/globe.jpg,0,0.6086956521739131,,,,GW/globe.jpg,,,,,One Edge Diff,Three Edge Four Edge
null,,html-keyboard-response,1685891,<p></p>,,,,null,,,,,,,,,,,,,,
1432.3000000715256,,shortestpath_phase,1687326,GW/snail.jpg,,,,49,GW/wheelchair.jpg,GW/hat.jpg,0,0.5833333333333334,,,,GW/hat.jpg,,,,,Two Edge Diff,Four Edge Six Edge
null,,html-keyboard-response,1688330,<p></p>,,,,null,,,,,,,,,,,,,,
1424.7999999523163,,shortestpath_phase,1689757,GW/teeth.jpg,,,,50,GW/globe.jpg,GW/snail.jpg,0,0.56,,,,GW/globe.jpg,,,,,One Edge Diff,Two Edge Three Edge
null,,html-keyboard-response,1690761,<p></p>,,,,null,,,,,,,,,,,,,,
1983.8000000715256,,shortestpath_phase,1692746,GW/snail.jpg,,,,50,GW/camera.jpg,GW/basket.jpg,1,0.5769230769230769,,,,GW/basket.jpg,,,,,Three Edge Diff,Two Edge Five Edge
null,,html-keyboard-response,1693750,<p></p>,,,,null,,,,,,,,,,,,,,
2609.2000000476837,,shortestpath_phase,1696361,GW/gong.jpg,,,,50,GW/teeth.jpg,GW/globe.jpg,1,0.5925925925925926,,,,GW/globe.jpg,,,,,Two Edge Diff,Two Edge Four Edge
null,,html-keyboard-response,1697365,<p></p>,,,,null,,,,,,,,,,,,,,
2318.2999999523163,,shortestpath_phase,1699685,GW/camera.jpg,,,,50,GW/barrel.jpg,GW/wheelchair.jpg,1,0.6071428571428571,,,,GW/wheelchair.jpg,,,,,Two Edge Diff,Two Edge Four Edge
null,,html-keyboard-response,1700689,<p></p>,,,,null,,,,,,,,,,,,,,
2910.2000000476837,,shortestpath_phase,1703602,GW/soldier.jpg,,,,49,GW/barrel.jpg,GW/teeth.jpg,1,0.6206896551724138,,,,GW/barrel.jpg,,,,,One Edge Diff,Five Edge Six Edge
null,,html-keyboard-response,1704605,<p></p>,,,,null,,,,,,,,,,,,,,
2198.6999999284744,,shortestpath_phase,1706807,GW/camera.jpg,,,,49,GW/wheelchair.jpg,GW/basket.jpg,1,0.6333333333333333,,,,GW/wheelchair.jpg,,,,,One Edge Diff,Two Edge Three Edge
null,,html-keyboard-response,1707811,<p></p>,,,,null,,,,,,,,,,,,,,
3273.5,,shortestpath_phase,1711087,GW/soldier.jpg,,,,50,GW/dustpan.jpg,GW/jukebox.jpg,0,0.6129032258064516,,,,GW/dustpan.jpg,,,,,Three Edge Diff,Three Edge Six Edge
null,,html-keyboard-response,1712091,<p></p>,,,,null,,,,,,,,,,,,,,
2949.3000000715256,,shortestpath_phase,1715043,GW/snail.jpg,,,,49,GW/wheelchair.jpg,GW/camera.jpg,0,0.59375,,,,GW/camera.jpg,,,,,One Edge Diff,Five Edge Six Edge
null,,html-keyboard-response,1716060,<p></p>,,,,null,,,,,,,,,,,,,,
1603,,shortestpath_phase,1717665,GW/barrel.jpg,,,,50,GW/dustpan.jpg,GW/camera.jpg,0,0.5757575757575758,,,,GW/dustpan.jpg,,,,,One Edge Diff,Three Edge Four Edge
null,,html-keyboard-response,1718670,<p></p>,,,,null,,,,,,,,,,,,,,
1485.3999999761581,,shortestpath_phase,1720158,GW/camera.jpg,,,,50,GW/snail.jpg,GW/hat.jpg,1,0.5882352941176471,,,,GW/hat.jpg,,,,,Three Edge Diff,Two Edge Five Edge
null,,html-keyboard-response,1721161,<p></p>,,,,null,,,,,,,,,,,,,,
4150.5,,shortestpath_phase,1725313,GW/snail.jpg,,,,50,GW/paint.jpg,GW/gong.jpg,0,0.5714285714285714,,,,GW/paint.jpg,,,,,Two Edge Diff,Three Edge Five Edge
null,,html-keyboard-response,1726316,<p></p>,,,,null,,,,,,,,,,,,,,
1863.6000000238419,,shortestpath_phase,1728182,GW/barrel.jpg,,,,50,GW/hat.jpg,GW/soldier.jpg,0,0.5555555555555556,,,,GW/hat.jpg,,,,,Three Edge Diff,Three Edge Six Edge
null,,html-keyboard-response,1729186,<p></p>,,,,null,,,,,,,,,,,,,,
1977.2999999523163,,shortestpath_phase,1731167,GW/snail.jpg,,,,50,GW/camera.jpg,GW/soldier.jpg,0,0.5405405405405406,,,,GW/camera.jpg,,,,,One Edge Diff,Five Edge Six Edge
null,,html-keyboard-response,1732171,<p></p>,,,,null,,,,,,,,,,,,,,
2059.8000000715256,,shortestpath_phase,1734233,GW/teeth.jpg,,,,49,GW/soldier.jpg,GW/wheelchair.jpg,0,0.5263157894736842,,,,GW/wheelchair.jpg,,,,,One Edge Diff,Five Edge Six Edge
null,,html-keyboard-response,1735236,<p></p>,,,,null,,,,,,,,,,,,,,
2594.399999976158,,shortestpath_phase,1737833,GW/snail.jpg,,,,50,GW/dustpan.jpg,GW/globe.jpg,1,0.5384615384615384,,,,GW/globe.jpg,,,,,One Edge Diff,Three Edge Four Edge
null,,html-keyboard-response,1738838,<p></p>,,,,null,,,,,,,,,,,,,,
1545.5,,shortestpath_phase,1740386,GW/teeth.jpg,,,,50,GW/gong.jpg,GW/camera.jpg,0,0.525,,,,GW/gong.jpg,,,,,One Edge Diff,Four Edge Five Edge
null,,html-keyboard-response,1741390,<p></p>,,,,null,,,,,,,,,,,,,,
3049.2999999523163,,shortestpath_phase,1744441,GW/soldier.jpg,,,,49,GW/basket.jpg,GW/wheelchair.jpg,0,0.5121951219512195,,,,GW/wheelchair.jpg,,,,,One Edge Diff,Three Edge Four Edge
null,,html-keyboard-response,1745445,<p></p>,,,,null,,,,,,,,,,,,,,
1914.8000000715256,,shortestpath_phase,1747363,GW/teeth.jpg,,,,50,GW/globe.jpg,GW/hat.jpg,0,0.5,,,,GW/globe.jpg,,,,,One Edge Diff,Two Edge Three Edge
null,,html-keyboard-response,1748366,<p></p>,,,,null,,,,,,,,,,,,,,
4206,,shortestpath_phase,1752573,GW/barrel.jpg,,,,50,GW/dustpan.jpg,GW/basket.jpg,1,0.5116279069767442,,,,GW/basket.jpg,,,,,One Edge Diff,Two Edge Three Edge
null,,html-keyboard-response,1753577,<p></p>,,,,null,,,,,,,,,,,,,,
2637.899999976158,,shortestpath_phase,1756217,GW/soldier.jpg,,,,49,GW/hat.jpg,GW/jukebox.jpg,1,0.5227272727272727,,,,GW/hat.jpg,,,,,Two Edge Diff,Three Edge Five Edge
null,,html-keyboard-response,1757221,<p></p>,,,,null,,,,,,,,,,,,,,
4114.100000023842,,shortestpath_phase,1761337,GW/gong.jpg,,,,50,GW/globe.jpg,GW/jukebox.jpg,0,0.5111111111111111,,,,GW/globe.jpg,,,,,Two Edge Diff,Two Edge Four Edge
null,,html-keyboard-response,1762342,<p></p>,,,,null,,,,,,,,,,,,,,
2293.5,,shortestpath_phase,1764638,GW/snail.jpg,,,,49,GW/teeth.jpg,GW/hat.jpg,1,0.5217391304347826,,,,GW/teeth.jpg,,,,,One Edge Diff,Three Edge Four Edge
null,,html-keyboard-response,1765656,<p></p>,,,,null,,,,,,,,,,,,,,
4075.7000000476837,,shortestpath_phase,1769733,GW/barrel.jpg,,,,49,GW/camera.jpg,GW/soldier.jpg,1,0.5319148936170213,,,,GW/camera.jpg,,,,,One Edge Diff,Four Edge Five Edge
null,,html-keyboard-response,1770750,<p></p>,,,,null,,,,,,,,,,,,,,
2508.100000023842,,shortestpath_phase,1773260,GW/wheelchair.jpg,,,,49,GW/snail.jpg,GW/dustpan.jpg,0,0.5208333333333334,,,,GW/dustpan.jpg,,,,,Four Edge Diff,Two Edge Six Edge
null,,html-keyboard-response,1774264,<p></p>,,,,null,,,,,,,,,,,,,,
3628.399999976158,,shortestpath_phase,1777895,GW/snail.jpg,,,,49,GW/gong.jpg,GW/basket.jpg,0,0.5102040816326531,,,,GW/basket.jpg,,,,,Three Edge Diff,Three Edge Six Edge
null,,html-keyboard-response,1778898,<p></p>,,,,null,,,,,,,,,,,,,,
5091.099999904633,,shortestpath_phase,1783991,GW/teeth.jpg,,,,49,GW/camera.jpg,GW/jukebox.jpg,0,0.5,,,,GW/jukebox.jpg,,,,,Three Edge Diff,Three Edge Six Edge
null,,html-keyboard-response,1784995,<p></p>,,,,null,,,,,,,,,,,,,,
4046.100000023842,,shortestpath_phase,1789043,GW/barrel.jpg,,,,50,GW/wheelchair.jpg,GW/soldier.jpg,0,0.49019607843137253,,,,GW/wheelchair.jpg,,,,,One Edge Diff,Four Edge Five Edge
null,,html-keyboard-response,1790047,<p></p>,,,,null,,,,,,,,,,,,,,
2196.1999999284744,,shortestpath_phase,1792246,GW/teeth.jpg,,,,50,GW/wheelchair.jpg,GW/jukebox.jpg,1,0.5,,,,GW/jukebox.jpg,,,,,Three Edge Diff,Three Edge Six Edge
null,,html-keyboard-response,1793250,<p></p>,,,,null,,,,,,,,,,,,,,
2192.600000023842,,shortestpath_phase,1795445,GW/snail.jpg,,,,50,GW/barrel.jpg,GW/gong.jpg,0,0.49056603773584906,,,,GW/barrel.jpg,,,,,Three Edge Diff,Three Edge Six Edge
null,,html-keyboard-response,1796450,<p></p>,,,,null,,,,,,,,,,,,,,
3604.7999999523163,,shortestpath_phase,1800057,GW/soldier.jpg,,,,49,GW/dustpan.jpg,GW/basket.jpg,1,0.5,,,,GW/dustpan.jpg,,,,,Two Edge Diff,Two Edge Four Edge
null,,html-keyboard-response,1801061,<p></p>,,,,null,,,,,,,,,,,,,,
2462.100000023842,,shortestpath_phase,1803526,GW/snail.jpg,,,,49,GW/gong.jpg,GW/wheelchair.jpg,1,0.509090909090909,,,,GW/gong.jpg,,,,,One Edge Diff,Five Edge Six Edge
null,,html-keyboard-response,1804530,<p></p>,,,,null,,,,,,,,,,,,,,
2038.5,,shortestpath_phase,1806571,GW/camera.jpg,,,,49,GW/teeth.jpg,GW/paint.jpg,0,0.5,,,,GW/paint.jpg,,,,,Three Edge Diff,Two Edge Five Edge
null,,html-keyboard-response,1807575,<p></p>,,,,null,,,,,,,,,,,,,,
2756.899999976158,,shortestpath_phase,1810334,GW/jukebox.jpg,,,,50,GW/wheelchair.jpg,GW/gong.jpg,1,0.5087719298245614,,,,GW/gong.jpg,,,,,One Edge Diff,Four Edge Five Edge
null,,html-keyboard-response,1811335,<p></p>,,,,null,,,,,,,,,,,,,,
2945.8000000715256,,shortestpath_phase,1814283,GW/teeth.jpg,,,,50,GW/camera.jpg,GW/soldier.jpg,0,0.5,,,,GW/camera.jpg,,,,,One Edge Diff,Five Edge Six Edge
null,,html-keyboard-response,1815289,<p></p>,,,,null,,,,,,,,,,,,,,
3226.1999999284744,,shortestpath_phase,1818517,GW/barrel.jpg,,,,49,GW/gong.jpg,GW/wheelchair.jpg,1,0.5084745762711864,,,,GW/gong.jpg,,,,,One Edge Diff,Three Edge Four Edge
null,,html-keyboard-response,1819523,<p></p>,,,,null,,,,,,,,,,,,,,
2834.8000000715256,,shortestpath_phase,1822360,GW/wheelchair.jpg,,,,50,GW/dustpan.jpg,GW/jukebox.jpg,0,0.5,,,,GW/dustpan.jpg,,,,,Three Edge Diff,Two Edge Five Edge
null,,html-keyboard-response,1823364,<p></p>,,,,null,,,,,,,,,,,,,,
2291,,shortestpath_phase,1825658,GW/jukebox.jpg,,,,49,GW/camera.jpg,GW/hat.jpg,0,0.4918032786885246,,,,GW/hat.jpg,,,,,One Edge Diff,Three Edge Four Edge
null,,html-keyboard-response,1826673,<p></p>,,,,null,,,,,,,,,,,,,,
1626.1000000238419,,shortestpath_phase,1828302,GW/wheelchair.jpg,,,,49,GW/camera.jpg,GW/jukebox.jpg,1,0.5,,,,GW/camera.jpg,,,,,Three Edge Diff,Three Edge Six Edge
null,,html-keyboard-response,1829304,<p></p>,,,,null,,,,,,,,,,,,,,
2736.399999976158,,shortestpath_phase,1832042,GW/teeth.jpg,,,,49,GW/wheelchair.jpg,GW/globe.jpg,0,0.49206349206349204,,,,GW/globe.jpg,,,,,Three Edge Diff,Two Edge Five Edge
null,,html-keyboard-response,1833047,<p></p>,,,,null,,,,,,,,,,,,,,
1338.7000000476837,,shortestpath_phase,1834388,GW/camera.jpg,,,,50,GW/hat.jpg,GW/barrel.jpg,0,0.484375,,,,GW/hat.jpg,,,,,Two Edge Diff,Two Edge Four Edge
null,,html-keyboard-response,1835392,<p></p>,,,,null,,,,,,,,,,,,,,
1701.6999999284744,,shortestpath_phase,1837097,GW/teeth.jpg,,,,50,GW/jukebox.jpg,GW/wheelchair.jpg,0,0.47692307692307695,,,,GW/jukebox.jpg,,,,,Three Edge Diff,Two Edge Five Edge
null,,html-keyboard-response,1838107,<p></p>,,,,null,,,,,,,,,,,,,,
2449,,shortestpath_phase,1840558,GW/wheelchair.jpg,,,,49,GW/globe.jpg,GW/camera.jpg,0,0.4696969696969697,,,,GW/camera.jpg,,,,,One Edge Diff,Two Edge Three Edge
null,,html-keyboard-response,1841562,<p></p>,,,,null,,,,,,,,,,,,,,
2319.899999976158,,shortestpath_phase,1843885,GW/jukebox.jpg,,,,50,GW/soldier.jpg,GW/globe.jpg,1,0.47761194029850745,,,,GW/globe.jpg,,,,,Three Edge Diff,Three Edge Six Edge
null,,html-keyboard-response,1844889,<p></p>,,,,null,,,,,,,,,,,,,,
1387,,shortestpath_phase,1846279,GW/teeth.jpg,,,,50,GW/dustpan.jpg,GW/soldier.jpg,0,0.47058823529411764,,,,GW/dustpan.jpg,,,,,Two Edge Diff,Four Edge Six Edge
null,,html-keyboard-response,1847284,<p></p>,,,,null,,,,,,,,,,,,,,
2204.2000000476837,,shortestpath_phase,1849491,GW/camera.jpg,,,,50,GW/teeth.jpg,GW/jukebox.jpg,1,0.4782608695652174,,,,GW/jukebox.jpg,,,,,One Edge Diff,Four Edge Five Edge
null,,html-keyboard-response,1850495,<p></p>,,,,null,,,,,,,,,,,,,,
1181.8999999761581,,shortestpath_phase,1851679,GW/snail.jpg,,,,49,GW/soldier.jpg,GW/basket.jpg,0,0.4714285714285714,,,,GW/basket.jpg,,,,,Four Edge Diff,Two Edge Six Edge
null,,html-keyboard-response,1852683,<p></p>,,,,null,,,,,,,,,,,,,,
2856.1999999284744,,shortestpath_phase,1855542,GW/wheelchair.jpg,,,,50,GW/snail.jpg,GW/camera.jpg,1,0.4788732394366197,,,,GW/camera.jpg,,,,,Four Edge Diff,Two Edge Six Edge
null,,html-keyboard-response,1856546,<p></p>,,,,null,,,,,,,,,,,,,,
1348.2000000476837,,shortestpath_phase,1857897,GW/soldier.jpg,,,,49,GW/basket.jpg,GW/barrel.jpg,1,0.4861111111111111,,,,GW/basket.jpg,,,,,One Edge Diff,Four Edge Five Edge
null,,html-keyboard-response,1858900,<p></p>,,,,null,,,,,,,,,,,,,,
1038.7000000476837,,shortestpath_phase,1859941,GW/wheelchair.jpg,,,,50,GW/snail.jpg,GW/jukebox.jpg,1,0.4931506849315068,,,,GW/jukebox.jpg,,,,,One Edge Diff,Five Edge Six Edge
null,,html-keyboard-response,1860944,<p></p>,,,,null,,,,,,,,,,,,,,
1733.5999999046326,,shortestpath_phase,1862680,GW/dustpan.jpg,,,,50,GW/jukebox.jpg,GW/soldier.jpg,1,0.5,,,,GW/soldier.jpg,,,,,One Edge Diff,Two Edge Three Edge
null,,html-keyboard-response,1863684,<p></p>,,,,null,,,,,,,,,,,,,,
1630.7999999523163,,shortestpath_phase,1865318,GW/wheelchair.jpg,,,,50,GW/paint.jpg,GW/teeth.jpg,0,0.49333333333333335,,,,GW/paint.jpg,,,,,Two Edge Diff,Three Edge Five Edge
null,,html-keyboard-response,1866322,<p></p>,,,,null,,,,,,,,,,,,,,
1581.3999999761581,,shortestpath_phase,1867906,GW/soldier.jpg,,,,50,GW/gong.jpg,GW/basket.jpg,0,0.4868421052631579,,,,GW/gong.jpg,,,,,Two Edge Diff,Two Edge Four Edge
null,,html-keyboard-response,1868911,<p></p>,,,,null,,,,,,,,,,,,,,
1572,,shortestpath_phase,1870485,GW/barrel.jpg,,,,49,GW/basket.jpg,GW/soldier.jpg,1,0.4935064935064935,,,,GW/basket.jpg,,,,,Three Edge Diff,Two Edge Five Edge
null,,html-keyboard-response,1871490,<p></p>,,,,null,,,,,,,,,,,,,,
1285.5999999046326,,shortestpath_phase,1872778,GW/soldier.jpg,,,,50,GW/gong.jpg,GW/teeth.jpg,0,0.48717948717948717,,,,GW/gong.jpg,,,,,Four Edge Diff,Two Edge Six Edge
null,,html-keyboard-response,1873789,<p></p>,,,,null,,,,,,,,,,,,,,
2367.7000000476837,,shortestpath_phase,1876159,GW/camera.jpg,,,,50,GW/globe.jpg,GW/barrel.jpg,0,0.4810126582278481,,,,GW/globe.jpg,,,,,One Edge Diff,Three Edge Four Edge
null,,html-keyboard-response,1877164,<p></p>,,,,null,,,,,,,,,,,,,,
1278,,shortestpath_phase,1878444,GW/soldier.jpg,,,,49,GW/teeth.jpg,GW/dustpan.jpg,0,0.475,,,,GW/dustpan.jpg,,,,,Four Edge Diff,Two Edge Six Edge
null,,html-keyboard-response,1879448,<p></p>,,,,null,,,,,,,,,,,,,,
2919.5,,shortestpath_phase,1882370,GW/basket.jpg,,,,49,GW/wheelchair.jpg,GW/gong.jpg,0,0.4691358024691358,,,,GW/gong.jpg,,,,,One Edge Diff,Three Edge Four Edge
null,,html-keyboard-response,1883374,<p></p>,,,,null,,,,,,,,,,,,,,
2445.1999999284744,,shortestpath_phase,1885822,GW/snail.jpg,,,,49,GW/soldier.jpg,GW/dustpan.jpg,0,0.4634146341463415,,,,GW/dustpan.jpg,,,,,Two Edge Diff,Four Edge Six Edge
null,,html-keyboard-response,1886826,<p></p>,,,,null,,,,,,,,,,,,,,
2549.7000000476837,,shortestpath_phase,1889379,GW/soldier.jpg,,,,50,GW/barrel.jpg,GW/wheelchair.jpg,1,0.46987951807228917,,,,GW/wheelchair.jpg,,,,,Two Edge Diff,Three Edge Five Edge
null,,html-keyboard-response,1890383,<p></p>,,,,null,,,,,,,,,,,,,,
2531.899999976158,,shortestpath_phase,1892916,GW/jukebox.jpg,,,,50,GW/dustpan.jpg,GW/soldier.jpg,0,0.4642857142857143,,,,GW/dustpan.jpg,,,,,Two Edge Diff,Three Edge Five Edge
null,,html-keyboard-response,1893920,<p></p>,,,,null,,,,,,,,,,,,,,
4399.100000023842,,shortestpath_phase,1898321,GW/snail.jpg,,,,50,GW/wheelchair.jpg,GW/basket.jpg,1,0.47058823529411764,,,,GW/basket.jpg,,,,,Four Edge Diff,Two Edge Six Edge
null,,html-keyboard-response,1899326,<p></p>,,,,null,,,,,,,,,,,,,,
3072,,shortestpath_phase,1902400,GW/gong.jpg,,,,49,GW/soldier.jpg,GW/snail.jpg,1,0.47674418604651164,,,,GW/soldier.jpg,,,,,Three Edge Diff,Three Edge Six Edge
null,,html-keyboard-response,1903405,<p></p>,,,,null,,,,,,,,,,,,,,
1854.5,,shortestpath_phase,1905262,GW/globe.jpg,,,,50,GW/soldier.jpg,GW/camera.jpg,1,0.4827586206896552,,,,GW/camera.jpg,,,,,One Edge Diff,Three Edge Four Edge
null,,html-keyboard-response,1906267,<p></p>,,,,null,,,,,,,,,,,,,,
2256.5999999046326,,shortestpath_phase,1908526,GW/soldier.jpg,,,,49,GW/teeth.jpg,GW/basket.jpg,0,0.4772727272727273,,,,GW/basket.jpg,,,,,Two Edge Diff,Four Edge Six Edge
null,,html-keyboard-response,1909531,<p></p>,,,,null,,,,,,,,,,,,,,
3030.3000000715256,,shortestpath_phase,1912564,GW/teeth.jpg,,,,50,GW/dustpan.jpg,GW/camera.jpg,0,0.47191011235955055,,,,GW/dustpan.jpg,,,,,One Edge Diff,Four Edge Five Edge
null,,html-keyboard-response,1913569,<p></p>,,,,null,,,,,,,,,,,,,,
2536.1999999284744,,shortestpath_phase,1916108,GW/soldier.jpg,,,,49,GW/basket.jpg,GW/snail.jpg,1,0.4777777777777778,,,,GW/basket.jpg,,,,,Two Edge Diff,Four Edge Six Edge
null,,html-keyboard-response,1917112,<p></p>,,,,null,,,,,,,,,,,,,,
1309.5999999046326,,shortestpath_phase,1918424,GW/wheelchair.jpg,,,,50,GW/snail.jpg,GW/barrel.jpg,1,0.4835164835164835,,,,GW/barrel.jpg,,,,,Two Edge Diff,Four Edge Six Edge
null,,html-keyboard-response,1919428,<p></p>,,,,null,,,,,,,,,,,,,,
2682.2000000476837,,shortestpath_phase,1922113,GW/soldier.jpg,,,,49,GW/globe.jpg,GW/snail.jpg,1,0.4891304347826087,,,,GW/globe.jpg,,,,,Two Edge Diff,Four Edge Six Edge
null,,html-keyboard-response,1923118,<p></p>,,,,null,,,,,,,,,,,,,,
1233.7999999523163,,shortestpath_phase,1924353,GW/basket.jpg,,,,50,GW/barrel.jpg,GW/soldier.jpg,0,0.4838709677419355,,,,GW/barrel.jpg,,,,,Two Edge Diff,Two Edge Four Edge
null,,html-keyboard-response,1925357,<p></p>,,,,null,,,,,,,,,,,,,,
1314,,shortestpath_phase,1926674,GW/wheelchair.jpg,,,,50,GW/soldier.jpg,GW/jukebox.jpg,0,0.4787234042553192,,,,GW/soldier.jpg,,,,,Two Edge Diff,Three Edge Five Edge
null,,html-keyboard-response,1927677,<p></p>,,,,null,,,,,,,,,,,,,,
1814,,shortestpath_phase,1929493,GW/snail.jpg,,,,50,GW/barrel.jpg,GW/wheelchair.jpg,0,0.47368421052631576,,,,GW/barrel.jpg,,,,,Four Edge Diff,Two Edge Six Edge
null,,html-keyboard-response,1930498,<p></p>,,,,null,,,,,,,,,,,,,,
2271.899999976158,,shortestpath_phase,1932773,GW/wheelchair.jpg,,,,49,GW/globe.jpg,GW/jukebox.jpg,1,0.4791666666666667,,,,GW/globe.jpg,,,,,Two Edge Diff,Three Edge Five Edge
null,,html-keyboard-response,1933779,<p></p>,,,,null,,,,,,,,,,,,,,
3691.7999999523163,,shortestpath_phase,1937473,GW/soldier.jpg,,,,50,GW/barrel.jpg,GW/paint.jpg,1,0.4845360824742268,,,,GW/paint.jpg,,,,,Two Edge Diff,Three Edge Five Edge
null,,html-keyboard-response,1938476,<p></p>,,,,null,,,,,,,,,,,,,,
3263.5,,shortestpath_phase,1941742,GW/wheelchair.jpg,,,,50,GW/camera.jpg,GW/jukebox.jpg,0,0.47959183673469385,,,,GW/camera.jpg,,,,,Three Edge Diff,Two Edge Five Edge
null,,html-keyboard-response,1942744,<p></p>,,,,null,,,,,,,,,,,,,,
2164.899999976158,,shortestpath_phase,1944911,GW/teeth.jpg,,,,50,GW/soldier.jpg,GW/globe.jpg,1,0.48484848484848486,,,,GW/globe.jpg,,,,,Four Edge Diff,Two Edge Six Edge
null,,html-keyboard-response,1945914,<p></p>,,,,null,,,,,,,,,,,,,,
3234.100000023842,,shortestpath_phase,1949150,GW/wheelchair.jpg,,,,50,GW/barrel.jpg,GW/jukebox.jpg,0,0.48,,,,GW/barrel.jpg,,,,,One Edge Diff,Four Edge Five Edge
null,,html-keyboard-response,1950166,<p></p>,,,,null,,,,,,,,,,,,,,
2151.899999976158,,shortestpath_phase,1952321,GW/soldier.jpg,,,,49,GW/dustpan.jpg,GW/globe.jpg,1,0.48514851485148514,,,,GW/dustpan.jpg,,,,,Two Edge Diff,Two Edge Four Edge
null,,html-keyboard-response,1953325,<p></p>,,,,null,,,,,,,,,,,,,,
2141.4000000953674,,shortestpath_phase,1955469,GW/jukebox.jpg,,,,49,GW/camera.jpg,GW/wheelchair.jpg,1,0.49019607843137253,,,,GW/camera.jpg,,,,,One Edge Diff,Four Edge Five Edge
null,,html-keyboard-response,1956473,<p></p>,,,,null,,,,,,,,,,,,,,
1375.2000000476837,,shortestpath_phase,1957851,GW/wheelchair.jpg,,,,50,GW/teeth.jpg,GW/soldier.jpg,1,0.49514563106796117,,,,GW/soldier.jpg,,,,,Two Edge Diff,Three Edge Five Edge
null,,html-keyboard-response,1958856,<p></p>,,,,null,,,,,,,,,,,,,,
1826.8999999761581,,shortestpath_phase,1960686,GW/teeth.jpg,,,,50,GW/soldier.jpg,GW/jukebox.jpg,1,0.5,,,,GW/jukebox.jpg,,,,,Four Edge Diff,Two Edge Six Edge
null,,html-keyboard-response,1961697,<p></p>,,,,null,,,,,,,,,,,,,,
2213.100000023842,,shortestpath_phase,1963913,GW/camera.jpg,,,,50,GW/teeth.jpg,GW/barrel.jpg,1,0.5047619047619047,,,,GW/barrel.jpg,,,,,One Edge Diff,Four Edge Five Edge
null,,html-keyboard-response,1964918,<p></p>,,,,null,,,,,,,,,,,,,,
2481.600000023842,,shortestpath_phase,1967402,GW/snail.jpg,,,,49,GW/wheelchair.jpg,GW/dustpan.jpg,0,0.5,,,,GW/dustpan.jpg,,,,,Two Edge Diff,Four Edge Six Edge
null,,html-keyboard-response,1968407,<p></p>,,,,null,,,,,,,,,,,,,,
1506.2999999523163,,shortestpath_phase,1969915,GW/globe.jpg,,,,49,GW/wheelchair.jpg,GW/teeth.jpg,0,0.4953271028037383,,,,GW/teeth.jpg,,,,,One Edge Diff,Two Edge Three Edge
null,,html-keyboard-response,1970926,<p></p>,,,,null,,,,,,,,,,,,,,
1391.0999999046326,,shortestpath_phase,1972319,GW/soldier.jpg,,,,50,GW/snail.jpg,GW/dustpan.jpg,1,0.5,,,,GW/dustpan.jpg,,,,,Four Edge Diff,Two Edge Six Edge
null,,html-keyboard-response,1973323,<p></p>,,,,null,,,,,,,,,,,,,,
1799.3999999761581,,shortestpath_phase,1975125,GW/jukebox.jpg,,,,49,GW/hat.jpg,GW/paint.jpg,0,0.4954128440366973,,,,GW/paint.jpg,,,,,One Edge Diff,Two Edge Three Edge
null,,html-keyboard-response,1976130,<p></p>,,,,null,,,,,,,,,,,,,,
2031.5,,shortestpath_phase,1978164,GW/teeth.jpg,,,,50,GW/globe.jpg,GW/dustpan.jpg,0,0.4909090909090909,,,,GW/globe.jpg,,,,,Two Edge Diff,Two Edge Four Edge
null,,html-keyboard-response,1979169,<p></p>,,,,null,,,,,,,,,,,,,,
2026.5,,shortestpath_phase,1981198,GW/soldier.jpg,,,,50,GW/paint.jpg,GW/basket.jpg,0,0.4864864864864865,,,,GW/paint.jpg,,,,,One Edge Diff,Three Edge Four Edge
null,,html-keyboard-response,1982202,<p></p>,,,,null,,,,,,,,,,,,,,
2968.7000000476837,,shortestpath_phase,1985174,GW/jukebox.jpg,,,,50,GW/teeth.jpg,GW/soldier.jpg,0,0.48214285714285715,,,,GW/teeth.jpg,,,,,Three Edge Diff,Three Edge Six Edge
null,,html-keyboard-response,1986178,<p></p>,,,,null,,,,,,,,,,,,,,
1810.3000000715256,,shortestpath_phase,1987991,GW/wheelchair.jpg,,,,49,GW/basket.jpg,GW/jukebox.jpg,1,0.48672566371681414,,,,GW/basket.jpg,,,,,One Edge Diff,Four Edge Five Edge
null,,html-keyboard-response,1988997,<p></p>,,,,null,,,,,,,,,,,,,,
1424.2999999523163,,shortestpath_phase,1990423,GW/soldier.jpg,,,,50,GW/snail.jpg,GW/jukebox.jpg,1,0.49122807017543857,,,,GW/jukebox.jpg,,,,,One Edge Diff,Five Edge Six Edge
null,,html-keyboard-response,1991425,<p></p>,,,,null,,,,,,,,,,,,,,
2142.1999999284744,,shortestpath_phase,1993569,GW/snail.jpg,,,,49,GW/barrel.jpg,GW/soldier.jpg,1,0.4956521739130435,,,,GW/barrel.jpg,,,,,Four Edge Diff,Two Edge Six Edge
null,,html-keyboard-response,1994574,<p></p>,,,,null,,,,,,,,,,,,,,
2530.100000023842,,shortestpath_phase,1997106,GW/hat.jpg,,,,50,GW/snail.jpg,GW/jukebox.jpg,1,0.5,,,,GW/jukebox.jpg,,,,,One Edge Diff,Three Edge Four Edge
null,,html-keyboard-response,1998109,<p></p>,,,,null,,,,,,,,,,,,,,
1325.7000000476837,,shortestpath_phase,1999436,GW/snail.jpg,,,,50,GW/teeth.jpg,GW/camera.jpg,0,0.49572649572649574,,,,GW/teeth.jpg,,,,,Two Edge Diff,Three Edge Five Edge
null,,html-keyboard-response,2000437,<p></p>,,,,null,,,,,,,,,,,,,,
1346.2000000476837,,shortestpath_phase,2001785,GW/jukebox.jpg,,,,49,GW/globe.jpg,GW/soldier.jpg,1,0.5,,,,GW/globe.jpg,,,,,Three Edge Diff,Two Edge Five Edge
null,,html-keyboard-response,2002788,<p></p>,,,,null,,,,,,,,,,,,,,
1268.1000000238419,,shortestpath_phase,2004058,GW/teeth.jpg,,,,50,GW/hat.jpg,GW/wheelchair.jpg,0,0.4957983193277311,,,,GW/hat.jpg,,,,,Two Edge Diff,Three Edge Five Edge
null,,html-keyboard-response,2005062,<p></p>,,,,null,,,,,,,,,,,,,,
2242,,shortestpath_phase,2007306,GW/jukebox.jpg,,,,49,GW/soldier.jpg,GW/camera.jpg,0,0.49166666666666664,,,,GW/camera.jpg,,,,,One Edge Diff,Four Edge Five Edge
null,,html-keyboard-response,2008313,<p></p>,,,,null,,,,,,,,,,,,,,
2240.7999999523163,,shortestpath_phase,2010555,,,,,50,,,1,0.49586776859504134,,,,,,,,,Three Edge Diff,Three Edge Six Edge
null,,html-keyboard-response,2011559,<p></p>,,,,null,,,,,,,,,,,,,,
47282.5,,intro_1,2058845,instruct,,0,,,,,,,,,,,,,,,,
31616.800000071526,,intro_2,2090466,instruct,,1,Next,,,,,,,,,,,,,,,
4523.199999928474,,intro_3,2094994,instruct,,1,Next,,,,,,,,,,,,,,,
