rt,responses,trial_type,time_elapsed,stimulus,graphorder,button_pressed,response,key_press,stimulus_left,stimulus_right,accuracy,cumulative_accuracy,stimulus_down_left,stimulus_down_mid,stimulus_down_right,stimulus_correct,stimulus_short,stimulus_far,weighted_accuracy,missedtrial,condition,specific_pairs
37524.799999952316,{worker_id:66af82fe7c33867b3ed6efcb},id_enter,37530,id_enter,GW/paint.jpg; GW/snail.jpg; GW/soldier.jpg; GW/barrel.jpg; GW/hat.jpg; GW/wheelchair.jpg; GW/gong.jpg; GW/globe.jpg; GW/camera.jpg; GW/jukebox.jpg; GW/dustpan.jpg; GW/teeth.jpg; GW/basket.jpg,,,,,,,,,,,,,,,,,
50006,,fullscreen,87547,fullscreen,,0,,,,,,,,,,,,,,,,
88354.20000004768,,intro_1,175905,instruct,,0,,,,,,,,,,,,,,,,
36455.200000047684,,intro_2,212366,instruct,,1,Next,,,,,,,,,,,,,,,
25041.700000047684,,intro_3,237411,instruct,,1,Next,,,,,,,,,,,,,,,
null,,learn_prac_1,239425,lean_prac_1,,,,null,,,,,,,,,,,,,,
null,,html-keyboard-response,240431,<p></p>,,,,null,,,,,,,,,,,,,,
7593.799999952316,,intro_1,248027,instruct,,0,,,,,,,,,,,,,,,,
18909.200000047684,,intro_2,266940,instruct,,1,Next,,,,,,,,,,,,,,,
null,,learn_prac_2,268950,lean_prac_2,,,,null,,,,,,,,,,,,,,
null,,html-keyboard-response,269954,<p></p>,,,,null,,,,,,,,,,,,,,
11882.299999952316,,intro_1,281839,instruct,,0,,,,,,,,,,,,,,,,
11763.600000023842,,intro_2,293606,instruct,,1,Next,,,,,,,,,,,,,,,
82348.79999995232,,intro_3,375958,instruct,,1,Next,,,,,,,,,,,,,,,
null,,prac_atten_color_black,376767,black_plus_sign,,,,null,,,,,,,,,,,,,,
null,,prac_atten_color,377373,prac_stop_color,,,,null,,,,,,,,,,,,,,
181.40000009536743,,prac_atten_color_black,379381,black_plus_sign,,,,49,,,,,,,,,,,,,,
null,,prac_atten_color_black,380198,black_plus_sign,,,,null,,,,,,,,,,,,,,
844.6000000238419,,prac_atten_color,381130,prac_stop_color,,,,50,,,,,,,,,,,,,,
null,,prac_atten_color_black,383134,black_plus_sign,,,,null,,,,,,,,,,,,,,
null,,prac_atten_color_black,383616,black_plus_sign,,,,null,,,,,,,,,,,,,,
666.9000000953674,,prac_atten_color,384493,prac_stop_color,,,,50,,,,,,,,,,,,,,
null,,prac_atten_color_black,386511,black_plus_sign,,,,null,,,,,,,,,,,,,,
null,,prac_atten_color_black,387043,black_plus_sign,,,,null,,,,,,,,,,,,,,
531.9000000953674,,prac_atten_color,387816,prac_stop_color,,,,49,,,,,,,,,,,,,,
null,,prac_atten_color_black,389823,black_plus_sign,,,,null,,,,,,,,,,,,,,
null,,prac_atten_color_black,390458,black_plus_sign,,,,null,,,,,,,,,,,,,,
null,,prac_atten_color,391351,prac_stop_color,,,,null,,,,,,,,,,,,,,
169.10000002384186,,prac_atten_color_black,393354,black_plus_sign,,,,50,,,,,,,,,,,,,,
null,,prac_atten_color_black,393872,black_plus_sign,,,,null,,,,,,,,,,,,,,
null,,prac_atten_color,394543,prac_stop_color,,,,null,,,,,,,,,,,,,,
224.5,,prac_atten_color_black,396546,black_plus_sign,,,,50,,,,,,,,,,,,,,
null,,prac_atten_color_black,397292,black_plus_sign,,,,null,,,,,,,,,,,,,,
539,,prac_atten_color,398346,prac_stop_color,,,,49,,,,,,,,,,,,,,
null,,prac_atten_color_black,400364,black_plus_sign,,,,null,,,,,,,,,,,,,,
null,,prac_atten_color_black,400722,black_plus_sign,,,,null,,,,,,,,,,,,,,
660.1000000238419,,prac_atten_color,401574,prac_stop_color,,,,50,,,,,,,,,,,,,,
null,,prac_atten_color_black,403576,black_plus_sign,,,,null,,,,,,,,,,,,,,
null,,prac_atten_color_black,404144,black_plus_sign,,,,null,,,,,,,,,,,,,,
null,,prac_atten_color,404671,prac_stop_color,,,,null,,,,,,,,,,,,,,
62.39999997615814,,prac_atten_color_black,406681,black_plus_sign,,,,49,,,,,,,,,,,,,,
null,,prac_atten_color_black,407573,black_plus_sign,,,,null,,,,,,,,,,,,,,
653.7000000476837,,prac_atten_color,408434,prac_stop_color,,,,49,,,,,,,,,,,,,,
null,,prac_atten_color_black,410442,black_plus_sign,,,,null,,,,,,,,,,,,,,
14877.200000047684,,attentioncheck_feedback,425323,cross_check_feedback,,0,,,,,,,,,,,,,,,,
68841,,last_instruct,494166,instruct,,,,32,,,,,,,,,,,,,,
null,,learn_phase(without_color),496170,black_plus_sign,,,,null,GW/wheelchair.jpg,GW/gong.jpg,,,,,,,,,,,,
null,,black_cross(without_color),496816,blue,,,,null,GW/wheelchair.jpg,GW/gong.jpg,,,,,,,,,,,,
null,,rt_plussign_withcolor,497321,blue,,,,null,GW/wheelchair.jpg,GW/gong.jpg,,,,,,,,,,,,
1026.6000000238419,,rt_thecrossant_black,498700,black_plus_sign,,,,49,,,1,1,,,,,,,,,,
null,,color_black,498810,black_plus_sign,,,,null,,,,,,,,,,,,,,
null,,learn_phase(without_color),500823,black_plus_sign,,,,null,GW/dustpan.jpg,GW/teeth.jpg,,,,,,,,,,,,
null,,black_cross(without_color),501569,green,,,,null,GW/dustpan.jpg,GW/teeth.jpg,,,,,,,,,,,,
null,,rt_plussign_withcolor,502081,green,,,,null,GW/dustpan.jpg,GW/teeth.jpg,,,,,,,,,,,,
1234.7000000476837,,rt_thecrossant_black,503343,black_plus_sign,,,,50,,,1,1,,,,,,,,,,
null,,color_black,503452,black_plus_sign,,,,null,,,,,,,,,,,,,,
null,,learn_phase(without_color),505465,black_plus_sign,,,,null,GW/barrel.jpg,GW/teeth.jpg,,,,,,,,,,,,
null,,black_cross(without_color),505993,green,,,,null,GW/barrel.jpg,GW/teeth.jpg,,,,,,,,,,,,
null,,rt_plussign_withcolor,506512,green,,,,null,GW/barrel.jpg,GW/teeth.jpg,,,,,,,,,,,,
1421.2000000476837,,rt_thecrossant_black,507993,black_plus_sign,,,,50,,,1,1,,,,,,,,,,
null,,color_black,508105,black_plus_sign,,,,null,,,,,,,,,,,,,,
null,,learn_phase(without_color),510113,black_plus_sign,,,,null,GW/wheelchair.jpg,GW/camera.jpg,,,,,,,,,,,,
null,,black_cross(without_color),511095,green,,,,null,GW/wheelchair.jpg,GW/camera.jpg,,,,,,,,,,,,
null,,rt_plussign_withcolor,511611,green,,,,null,GW/wheelchair.jpg,GW/camera.jpg,,,,,,,,,,,,
974.6999999284744,,rt_thecrossant_black,512654,black_plus_sign,,,,50,,,1,1,,,,,,,,,,
null,,color_black,512759,black_plus_sign,,,,null,,,,,,,,,,,,,,
null,,learn_phase(without_color),514765,black_plus_sign,,,,null,GW/globe.jpg,GW/jukebox.jpg,,,,,,,,,,,,
null,,black_cross(without_color),515655,green,,,,null,GW/globe.jpg,GW/jukebox.jpg,,,,,,,,,,,,
null,,rt_plussign_withcolor,516158,green,,,,null,GW/globe.jpg,GW/jukebox.jpg,,,,,,,,,,,,
1577.8000000715256,,rt_thecrossant_black,517284,black_plus_sign,,,,50,,,1,1,,,,,,,,,,
null,,color_black,517389,black_plus_sign,,,,null,,,,,,,,,,,,,,
null,,learn_phase(without_color),519397,black_plus_sign,,,,null,GW/barrel.jpg,GW/teeth.jpg,,,,,,,,,,,,
null,,black_cross(without_color),519864,green,,,,null,GW/barrel.jpg,GW/teeth.jpg,,,,,,,,,,,,
null,,rt_plussign_withcolor,520380,green,,,,null,GW/barrel.jpg,GW/teeth.jpg,,,,,,,,,,,,
1555.3999999761581,,rt_thecrossant_black,521925,black_plus_sign,,,,50,,,1,1,,,,,,,,,,
null,,color_black,522037,black_plus_sign,,,,null,,,,,,,,,,,,,,
null,,learn_phase(without_color),524054,black_plus_sign,,,,null,GW/snail.jpg,GW/barrel.jpg,,,,,,,,,,,,
null,,black_cross(without_color),524853,green,,,,null,GW/snail.jpg,GW/barrel.jpg,,,,,,,,,,,,
null,,rt_plussign_withcolor,525364,green,,,,null,GW/snail.jpg,GW/barrel.jpg,,,,,,,,,,,,
944.8999999761581,,rt_thecrossant_black,526592,black_plus_sign,,,,50,,,1,1,,,,,,,,,,
null,,color_black,526696,black_plus_sign,,,,null,,,,,,,,,,,,,,
null,,learn_phase(without_color),528702,black_plus_sign,,,,null,GW/wheelchair.jpg,GW/camera.jpg,,,,,,,,,,,,
null,,black_cross(without_color),529730,blue,,,,null,GW/wheelchair.jpg,GW/camera.jpg,,,,,,,,,,,,
null,,rt_plussign_withcolor,530244,blue,,,,null,GW/wheelchair.jpg,GW/camera.jpg,,,,,,,,,,,,
1361.6000000238419,,rt_thecrossant_black,531234,black_plus_sign,,,,49,,,1,1,,,,,,,,,,
null,,color_black,531342,black_plus_sign,,,,null,,,,,,,,,,,,,,
null,,learn_phase(without_color),533350,black_plus_sign,,,,null,GW/dustpan.jpg,GW/teeth.jpg,,,,,,,,,,,,
null,,black_cross(without_color),534003,green,,,,null,GW/dustpan.jpg,GW/teeth.jpg,,,,,,,,,,,,
null,,rt_plussign_withcolor,534520,green,,,,null,GW/dustpan.jpg,GW/teeth.jpg,,,,,,,,,,,,
1576.2999999523163,,rt_thecrossant_black,535884,black_plus_sign,,,,50,,,1,1,,,,,,,,,,
null,,color_black,536002,black_plus_sign,,,,null,,,,,,,,,,,,,,
null,,learn_phase(without_color),538007,black_plus_sign,,,,null,GW/soldier.jpg,GW/wheelchair.jpg,,,,,,,,,,,,
null,,black_cross(without_color),538959,green,,,,null,GW/soldier.jpg,GW/wheelchair.jpg,,,,,,,,,,,,
null,,rt_plussign_withcolor,539473,green,,,,null,GW/soldier.jpg,GW/wheelchair.jpg,,,,,,,,,,,,
991.3000000715256,,rt_thecrossant_black,540532,black_plus_sign,,,,50,,,1,1,,,,,,,,,,
null,,color_black,540644,black_plus_sign,,,,null,,,,,,,,,,,,,,
null,,learn_phase(without_color),542663,black_plus_sign,,,,null,GW/paint.jpg,GW/snail.jpg,,,,,,,,,,,,
null,,black_cross(without_color),543379,blue,,,,null,GW/paint.jpg,GW/snail.jpg,,,,,,,,,,,,
null,,rt_plussign_withcolor,543888,blue,,,,null,GW/paint.jpg,GW/snail.jpg,,,,,,,,,,,,
1489.8999999761581,,rt_thecrossant_black,545184,black_plus_sign,,,,49,,,1,1,,,,,,,,,,
null,,color_black,545298,black_plus_sign,,,,null,,,,,,,,,,,,,,
null,,learn_phase(without_color),547316,black_plus_sign,,,,null,GW/soldier.jpg,GW/dustpan.jpg,,,,,,,,,,,,
null,,black_cross(without_color),548292,blue,,,,null,GW/soldier.jpg,GW/dustpan.jpg,,,,,,,,,,,,
null,,rt_plussign_withcolor,548796,blue,,,,null,GW/soldier.jpg,GW/dustpan.jpg,,,,,,,,,,,,
1189.3999999761581,,rt_thecrossant_black,549835,black_plus_sign,,,,49,,,1,1,,,,,,,,,,
null,,color_black,549938,black_plus_sign,,,,null,,,,,,,,,,,,,,
null,,learn_phase(without_color),551944,black_plus_sign,,,,null,GW/soldier.jpg,GW/wheelchair.jpg,,,,,,,,,,,,
null,,black_cross(without_color),552423,blue,,,,null,GW/soldier.jpg,GW/wheelchair.jpg,,,,,,,,,,,,
null,,rt_plussign_withcolor,552934,blue,,,,null,GW/soldier.jpg,GW/wheelchair.jpg,,,,,,,,,,,,
1448.3999999761581,,rt_thecrossant_black,554465,black_plus_sign,,,,49,,,1,1,,,,,,,,,,
null,,color_black,554580,black_plus_sign,,,,null,,,,,,,,,,,,,,
null,,learn_phase(without_color),556593,black_plus_sign,,,,null,GW/globe.jpg,GW/camera.jpg,,,,,,,,,,,,
null,,black_cross(without_color),557288,green,,,,null,GW/globe.jpg,GW/camera.jpg,,,,,,,,,,,,
null,,rt_plussign_withcolor,557792,green,,,,null,GW/globe.jpg,GW/camera.jpg,,,,,,,,,,,,
947.7999999523163,,rt_thecrossant_black,559123,black_plus_sign,,,,50,,,1,1,,,,,,,,,,
null,,color_black,559225,black_plus_sign,,,,null,,,,,,,,,,,,,,
null,,learn_phase(without_color),561232,black_plus_sign,,,,null,GW/snail.jpg,GW/soldier.jpg,,,,,,,,,,,,
null,,black_cross(without_color),562329,green,,,,null,GW/snail.jpg,GW/soldier.jpg,,,,,,,,,,,,
null,,rt_plussign_withcolor,562834,green,,,,null,GW/snail.jpg,GW/soldier.jpg,,,,,,,,,,,,
1191.3999999761581,,rt_thecrossant_black,563773,black_plus_sign,,,,50,,,1,1,,,,,,,,,,
null,,color_black,563886,black_plus_sign,,,,null,,,,,,,,,,,,,,
null,,learn_phase(without_color),565891,black_plus_sign,,,,null,GW/gong.jpg,GW/globe.jpg,,,,,,,,,,,,
null,,black_cross(without_color),566613,green,,,,null,GW/gong.jpg,GW/globe.jpg,,,,,,,,,,,,
null,,rt_plussign_withcolor,567116,green,,,,null,GW/gong.jpg,GW/globe.jpg,,,,,,,,,,,,
1547.6000000238419,,rt_thecrossant_black,568416,black_plus_sign,,,,50,,,1,1,,,,,,,,,,
null,,color_black,568529,black_plus_sign,,,,null,,,,,,,,,,,,,,
null,,learn_phase(without_color),570537,black_plus_sign,,,,null,GW/wheelchair.jpg,GW/gong.jpg,,,,,,,,,,,,
null,,black_cross(without_color),571594,green,,,,null,GW/wheelchair.jpg,GW/gong.jpg,,,,,,,,,,,,
null,,rt_plussign_withcolor,572104,green,,,,null,GW/wheelchair.jpg,GW/gong.jpg,,,,,,,,,,,,
950.0999999046326,,rt_thecrossant_black,573058,black_plus_sign,,,,50,,,1,1,,,,,,,,,,
null,,color_black,573163,black_plus_sign,,,,null,,,,,,,,,,,,,,
null,,learn_phase(without_color),575168,black_plus_sign,,,,null,GW/barrel.jpg,GW/hat.jpg,,,,,,,,,,,,
null,,black_cross(without_color),576109,green,,,,null,GW/barrel.jpg,GW/hat.jpg,,,,,,,,,,,,
null,,rt_plussign_withcolor,576620,green,,,,null,GW/barrel.jpg,GW/hat.jpg,,,,,,,,,,,,
1284.3000000715256,,rt_thecrossant_black,577694,black_plus_sign,,,,50,,,1,1,,,,,,,,,,
null,,color_black,577801,black_plus_sign,,,,null,,,,,,,,,,,,,,
null,,learn_phase(without_color),579814,black_plus_sign,,,,null,GW/soldier.jpg,GW/wheelchair.jpg,,,,,,,,,,,,
null,,black_cross(without_color),580733,green,,,,null,GW/soldier.jpg,GW/wheelchair.jpg,,,,,,,,,,,,
null,,rt_plussign_withcolor,581243,green,,,,null,GW/soldier.jpg,GW/wheelchair.jpg,,,,,,,,,,,,
1387,,rt_thecrossant_black,582350,black_plus_sign,,,,50,,,1,1,,,,,,,,,,
null,,color_black,582459,black_plus_sign,,,,null,,,,,,,,,,,,,,
null,,learn_phase(without_color),584474,black_plus_sign,,,,null,GW/globe.jpg,GW/camera.jpg,,,,,,,,,,,,
null,,black_cross(without_color),585462,blue,,,,null,GW/globe.jpg,GW/camera.jpg,,,,,,,,,,,,
null,,rt_plussign_withcolor,585975,blue,,,,null,GW/globe.jpg,GW/camera.jpg,,,,,,,,,,,,
1235.3000000715256,,rt_thecrossant_black,587012,black_plus_sign,,,,49,,,1,1,,,,,,,,,,
null,,color_black,587116,black_plus_sign,,,,null,,,,,,,,,,,,,,
null,,learn_phase(without_color),589130,black_plus_sign,,,,null,GW/soldier.jpg,GW/dustpan.jpg,,,,,,,,,,,,
null,,black_cross(without_color),589550,blue,,,,null,GW/soldier.jpg,GW/dustpan.jpg,,,,,,,,,,,,
null,,rt_plussign_withcolor,590055,blue,,,,null,GW/soldier.jpg,GW/dustpan.jpg,,,,,,,,,,,,
1408.3999999761581,,rt_thecrossant_black,591653,black_plus_sign,,,,49,,,1,1,,,,,,,,,,
null,,color_black,591770,black_plus_sign,,,,null,,,,,,,,,,,,,,
null,,learn_phase(without_color),593782,black_plus_sign,,,,null,GW/gong.jpg,GW/basket.jpg,,,,,,,,,,,,
null,,black_cross(without_color),594836,green,,,,null,GW/gong.jpg,GW/basket.jpg,,,,,,,,,,,,
null,,rt_plussign_withcolor,595339,green,,,,null,GW/gong.jpg,GW/basket.jpg,,,,,,,,,,,,
789.5,,rt_thecrossant_black,596310,black_plus_sign,,,,50,,,1,1,,,,,,,,,,
null,,color_black,596414,black_plus_sign,,,,null,,,,,,,,,,,,,,
null,,learn_phase(without_color),598425,black_plus_sign,,,,null,GW/barrel.jpg,GW/teeth.jpg,,,,,,,,,,,,
null,,black_cross(without_color),599403,green,,,,null,GW/barrel.jpg,GW/teeth.jpg,,,,,,,,,,,,
null,,rt_plussign_withcolor,599912,green,,,,null,GW/barrel.jpg,GW/teeth.jpg,,,,,,,,,,,,
1474.0999999046326,,rt_thecrossant_black,600960,black_plus_sign,,,,50,,,1,1,,,,,,,,,,
null,,color_black,601069,black_plus_sign,,,,null,,,,,,,,,,,,,,
null,,learn_phase(without_color),603074,black_plus_sign,,,,null,GW/gong.jpg,GW/basket.jpg,,,,,,,,,,,,
null,,black_cross(without_color),603992,blue,,,,null,GW/gong.jpg,GW/basket.jpg,,,,,,,,,,,,
null,,rt_plussign_withcolor,604503,blue,,,,null,GW/gong.jpg,GW/basket.jpg,,,,,,,,,,,,
1290.5999999046326,,rt_thecrossant_black,605598,black_plus_sign,,,,49,,,1,1,,,,,,,,,,
null,,color_black,605708,black_plus_sign,,,,null,,,,,,,,,,,,,,
null,,learn_phase(without_color),607713,black_plus_sign,,,,null,GW/paint.jpg,GW/snail.jpg,,,,,,,,,,,,
null,,black_cross(without_color),608374,blue,,,,null,GW/paint.jpg,GW/snail.jpg,,,,,,,,,,,,
null,,rt_plussign_withcolor,608879,blue,,,,null,GW/paint.jpg,GW/snail.jpg,,,,,,,,,,,,
1346.1999999284744,,rt_thecrossant_black,610241,black_plus_sign,,,,49,,,1,1,,,,,,,,,,
null,,color_black,610344,black_plus_sign,,,,null,,,,,,,,,,,,,,
null,,learn_phase(without_color),612354,black_plus_sign,,,,null,GW/globe.jpg,GW/camera.jpg,,,,,,,,,,,,
null,,black_cross(without_color),613289,blue,,,,null,GW/globe.jpg,GW/camera.jpg,,,,,,,,,,,,
null,,rt_plussign_withcolor,613796,blue,,,,null,GW/globe.jpg,GW/camera.jpg,,,,,,,,,,,,
941.6999999284744,,rt_thecrossant_black,614879,black_plus_sign,,,,49,,,1,1,,,,,,,,,,
null,,color_black,614991,black_plus_sign,,,,null,,,,,,,,,,,,,,
null,,learn_phase(without_color),616998,black_plus_sign,,,,null,GW/camera.jpg,GW/dustpan.jpg,,,,,,,,,,,,
null,,black_cross(without_color),617693,green,,,,null,GW/camera.jpg,GW/dustpan.jpg,,,,,,,,,,,,
null,,rt_plussign_withcolor,618199,green,,,,null,GW/camera.jpg,GW/dustpan.jpg,,,,,,,,,,,,
1441.6000000238419,,rt_thecrossant_black,619511,black_plus_sign,,,,50,,,1,1,,,,,,,,,,
null,,color_black,619622,black_plus_sign,,,,null,,,,,,,,,,,,,,
null,,learn_phase(without_color),621632,black_plus_sign,,,,null,GW/dustpan.jpg,GW/teeth.jpg,,,,,,,,,,,,
null,,black_cross(without_color),622544,blue,,,,null,GW/dustpan.jpg,GW/teeth.jpg,,,,,,,,,,,,
null,,rt_plussign_withcolor,623054,blue,,,,null,GW/dustpan.jpg,GW/teeth.jpg,,,,,,,,,,,,
1110.6000000238419,,rt_thecrossant_black,624160,black_plus_sign,,,,49,,,1,1,,,,,,,,,,
null,,color_black,624266,black_plus_sign,,,,null,,,,,,,,,,,,,,
null,,learn_phase(without_color),626272,black_plus_sign,,,,null,GW/camera.jpg,GW/dustpan.jpg,,,,,,,,,,,,
null,,black_cross(without_color),626710,blue,,,,null,GW/camera.jpg,GW/dustpan.jpg,,,,,,,,,,,,
null,,rt_plussign_withcolor,627225,blue,,,,null,GW/camera.jpg,GW/dustpan.jpg,,,,,,,,,,,,
1295.5,,rt_thecrossant_black,628813,black_plus_sign,,,,49,,,1,1,,,,,,,,,,
null,,color_black,628917,black_plus_sign,,,,null,,,,,,,,,,,,,,
null,,learn_phase(without_color),630923,black_plus_sign,,,,null,GW/dustpan.jpg,GW/teeth.jpg,,,,,,,,,,,,
null,,black_cross(without_color),631614,green,,,,null,GW/dustpan.jpg,GW/teeth.jpg,,,,,,,,,,,,
null,,rt_plussign_withcolor,632131,green,,,,null,GW/dustpan.jpg,GW/teeth.jpg,,,,,,,,,,,,
719.8999999761581,,rt_thecrossant_black,633458,black_plus_sign,,,,50,,,1,1,,,,,,,,,,
null,,color_black,633562,black_plus_sign,,,,null,,,,,,,,,,,,,,
null,,learn_phase(without_color),635569,black_plus_sign,,,,null,GW/camera.jpg,GW/dustpan.jpg,,,,,,,,,,,,
null,,black_cross(without_color),636164,blue,,,,null,GW/camera.jpg,GW/dustpan.jpg,,,,,,,,,,,,
null,,rt_plussign_withcolor,636675,blue,,,,null,GW/camera.jpg,GW/dustpan.jpg,,,,,,,,,,,,
1086.1999999284744,,rt_thecrossant_black,638099,black_plus_sign,,,,49,,,1,1,,,,,,,,,,
null,,color_black,638210,black_plus_sign,,,,null,,,,,,,,,,,,,,
null,,learn_phase(without_color),640215,black_plus_sign,,,,null,GW/gong.jpg,GW/basket.jpg,,,,,,,,,,,,
null,,black_cross(without_color),641312,green,,,,null,GW/gong.jpg,GW/basket.jpg,,,,,,,,,,,,
null,,rt_plussign_withcolor,641819,green,,,,null,GW/gong.jpg,GW/basket.jpg,,,,,,,,,,,,
1040,,rt_thecrossant_black,642733,black_plus_sign,,,,50,,,1,1,,,,,,,,,,
null,,color_black,642845,black_plus_sign,,,,null,,,,,,,,,,,,,,
null,,learn_phase(without_color),644856,black_plus_sign,,,,null,GW/snail.jpg,GW/barrel.jpg,,,,,,,,,,,,
null,,black_cross(without_color),645378,blue,,,,null,GW/snail.jpg,GW/barrel.jpg,,,,,,,,,,,,
null,,rt_plussign_withcolor,645884,blue,,,,null,GW/snail.jpg,GW/barrel.jpg,,,,,,,,,,,,
1568.5,,rt_thecrossant_black,647379,black_plus_sign,,,,49,,,1,1,,,,,,,,,,
null,,color_black,647490,black_plus_sign,,,,null,,,,,,,,,,,,,,
null,,learn_phase(without_color),649503,black_plus_sign,,,,null,GW/gong.jpg,GW/camera.jpg,,,,,,,,,,,,
null,,black_cross(without_color),650280,blue,,,,null,GW/gong.jpg,GW/camera.jpg,,,,,,,,,,,,
null,,rt_plussign_withcolor,650785,blue,,,,null,GW/gong.jpg,GW/camera.jpg,,,,,,,,,,,,
1005.7999999523163,,rt_thecrossant_black,652021,black_plus_sign,,,,49,,,1,1,,,,,,,,,,
null,,color_black,652126,black_plus_sign,,,,null,,,,,,,,,,,,,,
null,,learn_phase(without_color),654132,black_plus_sign,,,,null,GW/snail.jpg,GW/soldier.jpg,,,,,,,,,,,,
null,,black_cross(without_color),655065,blue,,,,null,GW/snail.jpg,GW/soldier.jpg,,,,,,,,,,,,
null,,rt_plussign_withcolor,655567,blue,,,,null,GW/snail.jpg,GW/soldier.jpg,,,,,,,,,,,,
1196.1999999284744,,rt_thecrossant_black,656655,black_plus_sign,,,,49,,,1,1,,,,,,,,,,
null,,color_black,656758,black_plus_sign,,,,null,,,,,,,,,,,,,,
null,,learn_phase(without_color),658775,black_plus_sign,,,,null,GW/gong.jpg,GW/camera.jpg,,,,,,,,,,,,
null,,black_cross(without_color),659867,green,,,,null,GW/gong.jpg,GW/camera.jpg,,,,,,,,,,,,
null,,rt_plussign_withcolor,660384,green,,,,null,GW/gong.jpg,GW/camera.jpg,,,,,,,,,,,,
1099.6000000238419,,rt_thecrossant_black,661320,black_plus_sign,,,,50,,,1,1,,,,,,,,,,
null,,color_black,661424,black_plus_sign,,,,null,,,,,,,,,,,,,,
null,,learn_phase(without_color),663431,black_plus_sign,,,,null,GW/wheelchair.jpg,GW/gong.jpg,,,,,,,,,,,,
null,,black_cross(without_color),663992,green,,,,null,GW/wheelchair.jpg,GW/gong.jpg,,,,,,,,,,,,
null,,rt_plussign_withcolor,664502,green,,,,null,GW/wheelchair.jpg,GW/gong.jpg,,,,,,,,,,,,
1397.7000000476837,,rt_thecrossant_black,665972,black_plus_sign,,,,50,,,1,1,,,,,,,,,,
null,,color_black,666083,black_plus_sign,,,,null,,,,,,,,,,,,,,
null,,learn_phase(without_color),668094,black_plus_sign,,,,null,GW/snail.jpg,GW/soldier.jpg,,,,,,,,,,,,
null,,black_cross(without_color),669191,green,,,,null,GW/snail.jpg,GW/soldier.jpg,,,,,,,,,,,,
null,,rt_plussign_withcolor,669694,green,,,,null,GW/snail.jpg,GW/soldier.jpg,,,,,,,,,,,,
1179.8999999761581,,rt_thecrossant_black,670617,black_plus_sign,,,,50,,,1,1,,,,,,,,,,
null,,color_black,670721,black_plus_sign,,,,null,,,,,,,,,,,,,,
null,,learn_phase(without_color),672729,black_plus_sign,,,,null,GW/dustpan.jpg,GW/teeth.jpg,,,,,,,,,,,,
null,,black_cross(without_color),673698,blue,,,,null,GW/dustpan.jpg,GW/teeth.jpg,,,,,,,,,,,,
null,,rt_plussign_withcolor,674200,blue,,,,null,GW/dustpan.jpg,GW/teeth.jpg,,,,,,,,,,,,
1469.7000000476837,,rt_thecrossant_black,675252,black_plus_sign,,,,49,,,1,1,,,,,,,,,,
null,,color_black,675364,black_plus_sign,,,,null,,,,,,,,,,,,,,
null,,learn_phase(without_color),677384,black_plus_sign,,,,null,GW/wheelchair.jpg,GW/camera.jpg,,,,,,,,,,,,
null,,black_cross(without_color),677979,blue,,,,null,GW/wheelchair.jpg,GW/camera.jpg,,,,,,,,,,,,
null,,rt_plussign_withcolor,678483,blue,,,,null,GW/wheelchair.jpg,GW/camera.jpg,,,,,,,,,,,,
1377.6000000238419,,rt_thecrossant_black,679904,black_plus_sign,,,,49,,,1,1,,,,,,,,,,
null,,color_black,680019,black_plus_sign,,,,null,,,,,,,,,,,,,,
null,,learn_phase(without_color),682030,black_plus_sign,,,,null,GW/paint.jpg,GW/snail.jpg,,,,,,,,,,,,
null,,black_cross(without_color),682504,blue,,,,null,GW/paint.jpg,GW/snail.jpg,,,,,,,,,,,,
null,,rt_plussign_withcolor,683015,blue,,,,null,GW/paint.jpg,GW/snail.jpg,,,,,,,,,,,,
1029.1000000238419,,rt_thecrossant_black,684557,black_plus_sign,,,,49,,,1,1,,,,,,,,,,
null,,color_black,684669,black_plus_sign,,,,null,,,,,,,,,,,,,,
null,,learn_phase(without_color),686674,black_plus_sign,,,,null,GW/globe.jpg,GW/camera.jpg,,,,,,,,,,,,
null,,black_cross(without_color),687690,blue,,,,null,GW/globe.jpg,GW/camera.jpg,,,,,,,,,,,,
null,,rt_plussign_withcolor,688193,blue,,,,null,GW/globe.jpg,GW/camera.jpg,,,,,,,,,,,,
706.3999999761581,,rt_thecrossant_black,689204,black_plus_sign,,,,49,,,1,1,,,,,,,,,,
null,,color_black,689315,black_plus_sign,,,,null,,,,,,,,,,,,,,
null,,learn_phase(without_color),691320,black_plus_sign,,,,null,GW/globe.jpg,GW/jukebox.jpg,,,,,,,,,,,,
null,,black_cross(without_color),692030,green,,,,null,GW/globe.jpg,GW/jukebox.jpg,,,,,,,,,,,,
null,,rt_plussign_withcolor,692540,green,,,,null,GW/globe.jpg,GW/jukebox.jpg,,,,,,,,,,,,
1334.6000000238419,,rt_thecrossant_black,693841,black_plus_sign,,,,50,,,1,1,,,,,,,,,,
null,,color_black,693954,black_plus_sign,,,,null,,,,,,,,,,,,,,
null,,learn_phase(without_color),695961,black_plus_sign,,,,null,GW/gong.jpg,GW/globe.jpg,,,,,,,,,,,,
null,,black_cross(without_color),697039,blue,,,,null,GW/gong.jpg,GW/globe.jpg,,,,,,,,,,,,
null,,rt_plussign_withcolor,697551,blue,,,,null,GW/gong.jpg,GW/globe.jpg,,,,,,,,,,,,
1191.2000000476837,,rt_thecrossant_black,698494,black_plus_sign,,,,49,,,1,1,,,,,,,,,,
null,,color_black,698602,black_plus_sign,,,,null,,,,,,,,,,,,,,
null,,learn_phase(without_color),700611,black_plus_sign,,,,null,GW/snail.jpg,GW/barrel.jpg,,,,,,,,,,,,
null,,black_cross(without_color),701408,blue,,,,null,GW/snail.jpg,GW/barrel.jpg,,,,,,,,,,,,
null,,rt_plussign_withcolor,701915,blue,,,,null,GW/snail.jpg,GW/barrel.jpg,,,,,,,,,,,,
1457.2999999523163,,rt_thecrossant_black,703130,black_plus_sign,,,,49,,,1,1,,,,,,,,,,
null,,color_black,703243,black_plus_sign,,,,null,,,,,,,,,,,,,,
null,,learn_phase(without_color),705262,black_plus_sign,,,,null,GW/camera.jpg,GW/dustpan.jpg,,,,,,,,,,,,
null,,black_cross(without_color),706188,blue,,,,null,GW/camera.jpg,GW/dustpan.jpg,,,,,,,,,,,,
null,,rt_plussign_withcolor,706693,blue,,,,null,GW/camera.jpg,GW/dustpan.jpg,,,,,,,,,,,,
1239.5999999046326,,rt_thecrossant_black,707776,black_plus_sign,,,,49,,,1,1,,,,,,,,,,
null,,color_black,707880,black_plus_sign,,,,null,,,,,,,,,,,,,,
null,,learn_phase(without_color),709892,black_plus_sign,,,,null,GW/barrel.jpg,GW/hat.jpg,,,,,,,,,,,,
null,,black_cross(without_color),710990,blue,,,,null,GW/barrel.jpg,GW/hat.jpg,,,,,,,,,,,,
null,,rt_plussign_withcolor,711493,blue,,,,null,GW/barrel.jpg,GW/hat.jpg,,,,,,,,,,,,
1250.0999999046326,,rt_thecrossant_black,712431,black_plus_sign,,,,49,,,1,1,,,,,,,,,,
null,,color_black,712543,black_plus_sign,,,,null,,,,,,,,,,,,,,
null,,learn_phase(without_color),714550,black_plus_sign,,,,null,GW/wheelchair.jpg,GW/gong.jpg,,,,,,,,,,,,
null,,black_cross(without_color),715194,green,,,,null,GW/wheelchair.jpg,GW/gong.jpg,,,,,,,,,,,,
null,,rt_plussign_withcolor,715704,green,,,,null,GW/wheelchair.jpg,GW/gong.jpg,,,,,,,,,,,,
1565.5999999046326,,rt_thecrossant_black,717075,black_plus_sign,,,,50,,,1,1,,,,,,,,,,
null,,color_black,717184,black_plus_sign,,,,null,,,,,,,,,,,,,,
null,,learn_phase(without_color),719195,black_plus_sign,,,,null,GW/paint.jpg,GW/snail.jpg,,,,,,,,,,,,
null,,black_cross(without_color),719722,blue,,,,null,GW/paint.jpg,GW/snail.jpg,,,,,,,,,,,,
null,,rt_plussign_withcolor,720229,blue,,,,null,GW/paint.jpg,GW/snail.jpg,,,,,,,,,,,,
1094,,rt_thecrossant_black,721720,black_plus_sign,,,,49,,,1,1,,,,,,,,,,
null,,color_black,721827,black_plus_sign,,,,null,,,,,,,,,,,,,,
null,,learn_phase(without_color),723833,black_plus_sign,,,,null,GW/soldier.jpg,GW/dustpan.jpg,,,,,,,,,,,,
null,,black_cross(without_color),724745,green,,,,null,GW/soldier.jpg,GW/dustpan.jpg,,,,,,,,,,,,
null,,rt_plussign_withcolor,725257,green,,,,null,GW/soldier.jpg,GW/dustpan.jpg,,,,,,,,,,,,
973,,rt_thecrossant_black,726370,black_plus_sign,,,,50,,,1,1,,,,,,,,,,
null,,color_black,726474,black_plus_sign,,,,null,,,,,,,,,,,,,,
null,,learn_phase(without_color),728491,black_plus_sign,,,,null,GW/wheelchair.jpg,GW/gong.jpg,,,,,,,,,,,,
null,,black_cross(without_color),729000,green,,,,null,GW/wheelchair.jpg,GW/gong.jpg,,,,,,,,,,,,
null,,rt_plussign_withcolor,729509,green,,,,null,GW/wheelchair.jpg,GW/gong.jpg,,,,,,,,,,,,
1383.1999999284744,,rt_thecrossant_black,731013,black_plus_sign,,,,50,,,1,1,,,,,,,,,,
null,,color_black,731118,black_plus_sign,,,,null,,,,,,,,,,,,,,
null,,learn_phase(without_color),733124,black_plus_sign,,,,null,GW/wheelchair.jpg,GW/camera.jpg,,,,,,,,,,,,
null,,black_cross(without_color),733798,blue,,,,null,GW/wheelchair.jpg,GW/camera.jpg,,,,,,,,,,,,
null,,rt_plussign_withcolor,734305,blue,,,,null,GW/wheelchair.jpg,GW/camera.jpg,,,,,,,,,,,,
946.2999999523163,,rt_thecrossant_black,735650,black_plus_sign,,,,49,,,1,1,,,,,,,,,,
null,,color_black,735761,black_plus_sign,,,,null,,,,,,,,,,,,,,
null,,learn_phase(without_color),737770,black_plus_sign,,,,null,GW/gong.jpg,GW/globe.jpg,,,,,,,,,,,,
null,,black_cross(without_color),738652,blue,,,,null,GW/gong.jpg,GW/globe.jpg,,,,,,,,,,,,
null,,rt_plussign_withcolor,739153,blue,,,,null,GW/gong.jpg,GW/globe.jpg,,,,,,,,,,,,
1135.6999999284744,,rt_thecrossant_black,740293,black_plus_sign,,,,49,,,1,1,,,,,,,,,,
null,,color_black,740404,black_plus_sign,,,,null,,,,,,,,,,,,,,
null,,learn_phase(without_color),742410,black_plus_sign,,,,null,GW/snail.jpg,GW/barrel.jpg,,,,,,,,,,,,
null,,black_cross(without_color),743299,green,,,,null,GW/snail.jpg,GW/barrel.jpg,,,,,,,,,,,,
null,,rt_plussign_withcolor,743805,green,,,,null,GW/snail.jpg,GW/barrel.jpg,,,,,,,,,,,,
1325.3000000715256,,rt_thecrossant_black,744934,black_plus_sign,,,,50,,,1,1,,,,,,,,,,
null,,color_black,745044,black_plus_sign,,,,null,,,,,,,,,,,,,,
null,,learn_phase(without_color),747053,black_plus_sign,,,,null,GW/soldier.jpg,GW/wheelchair.jpg,,,,,,,,,,,,
null,,black_cross(without_color),747514,green,,,,null,GW/soldier.jpg,GW/wheelchair.jpg,,,,,,,,,,,,
null,,rt_plussign_withcolor,748024,green,,,,null,GW/soldier.jpg,GW/wheelchair.jpg,,,,,,,,,,,,
1195.7000000476837,,rt_thecrossant_black,749579,black_plus_sign,,,,50,,,1,1,,,,,,,,,,
null,,color_black,749691,black_plus_sign,,,,null,,,,,,,,,,,,,,
null,,learn_phase(without_color),751699,black_plus_sign,,,,null,GW/barrel.jpg,GW/hat.jpg,,,,,,,,,,,,
null,,black_cross(without_color),752716,blue,,,,null,GW/barrel.jpg,GW/hat.jpg,,,,,,,,,,,,
null,,rt_plussign_withcolor,753231,blue,,,,null,GW/barrel.jpg,GW/hat.jpg,,,,,,,,,,,,
964.3000000715256,,rt_thecrossant_black,754230,black_plus_sign,,,,49,,,1,1,,,,,,,,,,
null,,color_black,754341,black_plus_sign,,,,null,,,,,,,,,,,,,,
null,,learn_phase(without_color),756354,black_plus_sign,,,,null,GW/camera.jpg,GW/dustpan.jpg,,,,,,,,,,,,
null,,black_cross(without_color),757314,blue,,,,null,GW/camera.jpg,GW/dustpan.jpg,,,,,,,,,,,,
null,,rt_plussign_withcolor,757824,blue,,,,null,GW/camera.jpg,GW/dustpan.jpg,,,,,,,,,,,,
1262.0999999046326,,rt_thecrossant_black,758905,black_plus_sign,,,,49,,,1,1,,,,,,,,,,
null,,color_black,759020,black_plus_sign,,,,null,,,,,,,,,,,,,,
null,,learn_phase(without_color),761030,black_plus_sign,,,,null,GW/soldier.jpg,GW/dustpan.jpg,,,,,,,,,,,,
null,,black_cross(without_color),761510,blue,,,,null,GW/soldier.jpg,GW/dustpan.jpg,,,,,,,,,,,,
null,,rt_plussign_withcolor,762012,blue,,,,null,GW/soldier.jpg,GW/dustpan.jpg,,,,,,,,,,,,
1522.5,,rt_thecrossant_black,763548,black_plus_sign,,,,49,,,1,1,,,,,,,,,,
null,,color_black,763665,black_plus_sign,,,,null,,,,,,,,,,,,,,
null,,learn_phase(without_color),765683,black_plus_sign,,,,null,GW/barrel.jpg,GW/hat.jpg,,,,,,,,,,,,
null,,black_cross(without_color),766625,blue,,,,null,GW/barrel.jpg,GW/hat.jpg,,,,,,,,,,,,
null,,rt_plussign_withcolor,767134,blue,,,,null,GW/barrel.jpg,GW/hat.jpg,,,,,,,,,,,,
894.1000000238419,,rt_thecrossant_black,768216,black_plus_sign,,,,49,,,1,1,,,,,,,,,,
null,,color_black,768320,black_plus_sign,,,,null,,,,,,,,,,,,,,
null,,learn_phase(without_color),770326,black_plus_sign,,,,null,GW/dustpan.jpg,GW/teeth.jpg,,,,,,,,,,,,
null,,black_cross(without_color),771292,blue,,,,null,GW/dustpan.jpg,GW/teeth.jpg,,,,,,,,,,,,
null,,rt_plussign_withcolor,771805,blue,,,,null,GW/dustpan.jpg,GW/teeth.jpg,,,,,,,,,,,,
1350.7000000476837,,rt_thecrossant_black,772863,black_plus_sign,,,,49,,,1,1,,,,,,,,,,
null,,color_black,772977,black_plus_sign,,,,null,,,,,,,,,,,,,,
null,,learn_phase(without_color),774988,black_plus_sign,,,,null,GW/snail.jpg,GW/soldier.jpg,,,,,,,,,,,,
null,,black_cross(without_color),775859,blue,,,,null,GW/snail.jpg,GW/soldier.jpg,,,,,,,,,,,,
null,,rt_plussign_withcolor,776370,blue,,,,null,GW/snail.jpg,GW/soldier.jpg,,,,,,,,,,,,
1415.2000000476837,,rt_thecrossant_black,777514,black_plus_sign,,,,49,,,1,1,,,,,,,,,,
null,,color_black,777631,black_plus_sign,,,,null,,,,,,,,,,,,,,
null,,learn_phase(without_color),779634,black_plus_sign,,,,null,GW/snail.jpg,GW/barrel.jpg,,,,,,,,,,,,
null,,black_cross(without_color),780524,green,,,,null,GW/snail.jpg,GW/barrel.jpg,,,,,,,,,,,,
null,,rt_plussign_withcolor,781037,green,,,,null,GW/snail.jpg,GW/barrel.jpg,,,,,,,,,,,,
1284.7000000476837,,rt_thecrossant_black,782170,black_plus_sign,,,,50,,,1,1,,,,,,,,,,
null,,color_black,782282,black_plus_sign,,,,null,,,,,,,,,,,,,,
null,,learn_phase(without_color),784290,black_plus_sign,,,,null,GW/barrel.jpg,GW/hat.jpg,,,,,,,,,,,,
null,,black_cross(without_color),785220,green,,,,null,GW/barrel.jpg,GW/hat.jpg,,,,,,,,,,,,
null,,rt_plussign_withcolor,785730,green,,,,null,GW/barrel.jpg,GW/hat.jpg,,,,,,,,,,,,
null,,rt_thecrossant_black,786813,black_plus_sign,,,,null,,,,1,,,,,,,,,,
null,,color_black,786926,black_plus_sign,,,,null,,,,,,,,,,,,,,
null,,learn_phase(without_color),788931,black_plus_sign,,,,null,GW/soldier.jpg,GW/wheelchair.jpg,,,,,,,,,,,,
null,,black_cross(without_color),789878,blue,,,,null,GW/soldier.jpg,GW/wheelchair.jpg,,,,,,,,,,,,
null,,rt_plussign_withcolor,790380,blue,,,,null,GW/soldier.jpg,GW/wheelchair.jpg,,,,,,,,,,,,
1100,,rt_thecrossant_black,791454,black_plus_sign,,,,49,,,1,1,,,,,,,,,,
null,,color_black,791560,black_plus_sign,,,,null,,,,,,,,,,,,,,
null,,learn_phase(without_color),793575,black_plus_sign,,,,null,GW/gong.jpg,GW/basket.jpg,,,,,,,,,,,,
null,,black_cross(without_color),794474,blue,,,,null,GW/gong.jpg,GW/basket.jpg,,,,,,,,,,,,
null,,rt_plussign_withcolor,794983,blue,,,,null,GW/gong.jpg,GW/basket.jpg,,,,,,,,,,,,
1189.4000000953674,,rt_thecrossant_black,796109,black_plus_sign,,,,49,,,1,1,,,,,,,,,,
null,,color_black,796220,black_plus_sign,,,,null,,,,,,,,,,,,,,
null,,learn_phase(without_color),798228,black_plus_sign,,,,null,GW/paint.jpg,GW/snail.jpg,,,,,,,,,,,,
null,,black_cross(without_color),799114,blue,,,,null,GW/paint.jpg,GW/snail.jpg,,,,,,,,,,,,
null,,rt_plussign_withcolor,799624,blue,,,,null,GW/paint.jpg,GW/snail.jpg,,,,,,,,,,,,
1229.6000000238419,,rt_thecrossant_black,800754,black_plus_sign,,,,49,,,1,1,,,,,,,,,,
null,,color_black,800867,black_plus_sign,,,,null,,,,,,,,,,,,,,
null,,learn_phase(without_color),802880,black_plus_sign,,,,null,GW/snail.jpg,GW/barrel.jpg,,,,,,,,,,,,
null,,black_cross(without_color),803765,blue,,,,null,GW/snail.jpg,GW/barrel.jpg,,,,,,,,,,,,
458.2999999523163,,rt_plussign_withcolor,804271,blue,,,,49,GW/snail.jpg,GW/barrel.jpg,,,,,,,,,,,,
null,,rt_thecrossant_black,805405,black_plus_sign,,,,null,,,1,1,,,,,,,,,,
null,,color_black,805520,black_plus_sign,,,,null,,,,,,,,,,,,,,
null,,learn_phase(without_color),807524,black_plus_sign,,,,null,GW/globe.jpg,GW/camera.jpg,,,,,,,,,,,,
null,,black_cross(without_color),808503,blue,,,,null,GW/globe.jpg,GW/camera.jpg,,,,,,,,,,,,
null,,rt_plussign_withcolor,809014,blue,,,,null,GW/globe.jpg,GW/camera.jpg,,,,,,,,,,,,
1091.3999999761581,,rt_thecrossant_black,810065,black_plus_sign,,,,49,,,1,1,,,,,,,,,,
null,,color_black,810169,black_plus_sign,,,,null,,,,,,,,,,,,,,
null,,learn_phase(without_color),812174,black_plus_sign,,,,null,GW/wheelchair.jpg,GW/gong.jpg,,,,,,,,,,,,
null,,black_cross(without_color),813274,blue,,,,null,GW/wheelchair.jpg,GW/gong.jpg,,,,,,,,,,,,
null,,rt_plussign_withcolor,813780,blue,,,,null,GW/wheelchair.jpg,GW/gong.jpg,,,,,,,,,,,,
1272,,rt_thecrossant_black,814698,black_plus_sign,,,,49,,,1,1,,,,,,,,,,
null,,color_black,814811,black_plus_sign,,,,null,,,,,,,,,,,,,,
null,,learn_phase(without_color),816824,black_plus_sign,,,,null,GW/gong.jpg,GW/camera.jpg,,,,,,,,,,,,
null,,black_cross(without_color),817453,blue,,,,null,GW/gong.jpg,GW/camera.jpg,,,,,,,,,,,,
null,,rt_plussign_withcolor,817965,blue,,,,null,GW/gong.jpg,GW/camera.jpg,,,,,,,,,,,,
1592.2000000476837,,rt_thecrossant_black,819353,black_plus_sign,,,,49,,,1,1,,,,,,,,,,
null,,color_black,819464,black_plus_sign,,,,null,,,,,,,,,,,,,,
null,,learn_phase(without_color),821471,black_plus_sign,,,,null,GW/gong.jpg,GW/globe.jpg,,,,,,,,,,,,
null,,black_cross(without_color),821945,green,,,,null,GW/gong.jpg,GW/globe.jpg,,,,,,,,,,,,
null,,rt_plussign_withcolor,822463,green,,,,null,GW/gong.jpg,GW/globe.jpg,,,,,,,,,,,,
1210.8000000715256,,rt_thecrossant_black,824024,black_plus_sign,,,,50,,,1,1,,,,,,,,,,
null,,color_black,824138,black_plus_sign,,,,null,,,,,,,,,,,,,,
null,,learn_phase(without_color),826151,black_plus_sign,,,,null,GW/snail.jpg,GW/soldier.jpg,,,,,,,,,,,,
null,,black_cross(without_color),827237,blue,,,,null,GW/snail.jpg,GW/soldier.jpg,,,,,,,,,,,,
null,,rt_plussign_withcolor,827743,blue,,,,null,GW/snail.jpg,GW/soldier.jpg,,,,,,,,,,,,
629.3000000715256,,rt_thecrossant_black,828680,black_plus_sign,,,,49,,,1,1,,,,,,,,,,
null,,color_black,828798,black_plus_sign,,,,null,,,,,,,,,,,,,,
null,,learn_phase(without_color),830814,black_plus_sign,,,,null,GW/gong.jpg,GW/globe.jpg,,,,,,,,,,,,
null,,black_cross(without_color),831270,green,,,,null,GW/gong.jpg,GW/globe.jpg,,,,,,,,,,,,
null,,rt_plussign_withcolor,831781,green,,,,null,GW/gong.jpg,GW/globe.jpg,,,,,,,,,,,,
1463.1999999284744,,rt_thecrossant_black,833344,black_plus_sign,,,,50,,,1,1,,,,,,,,,,
null,,color_black,833449,black_plus_sign,,,,null,,,,,,,,,,,,,,
null,,learn_phase(without_color),835462,black_plus_sign,,,,null,GW/gong.jpg,GW/camera.jpg,,,,,,,,,,,,
null,,black_cross(without_color),835933,green,,,,null,GW/gong.jpg,GW/camera.jpg,,,,,,,,,,,,
null,,rt_plussign_withcolor,836437,green,,,,null,GW/gong.jpg,GW/camera.jpg,,,,,,,,,,,,
806.0999999046326,,rt_thecrossant_black,837979,black_plus_sign,,,,50,,,1,1,,,,,,,,,,
null,,color_black,838084,black_plus_sign,,,,null,,,,,,,,,,,,,,
null,,learn_phase(without_color),840091,black_plus_sign,,,,null,GW/soldier.jpg,GW/wheelchair.jpg,,,,,,,,,,,,
null,,black_cross(without_color),840804,green,,,,null,GW/soldier.jpg,GW/wheelchair.jpg,,,,,,,,,,,,
null,,rt_plussign_withcolor,841314,green,,,,null,GW/soldier.jpg,GW/wheelchair.jpg,,,,,,,,,,,,
766.4000000953674,,rt_thecrossant_black,842621,black_plus_sign,,,,50,,,1,1,,,,,,,,,,
null,,color_black,842724,black_plus_sign,,,,null,,,,,,,,,,,,,,
null,,learn_phase(without_color),844735,black_plus_sign,,,,null,GW/snail.jpg,GW/soldier.jpg,,,,,,,,,,,,
null,,black_cross(without_color),845793,blue,,,,null,GW/snail.jpg,GW/soldier.jpg,,,,,,,,,,,,
null,,rt_plussign_withcolor,846300,blue,,,,null,GW/snail.jpg,GW/soldier.jpg,,,,,,,,,,,,
1461.6999999284744,,rt_thecrossant_black,847258,black_plus_sign,,,,50,,,0,0.9866666666666667,,,,,,,,,,
null,,color_black,847378,black_plus_sign,,,,null,,,,,,,,,,,,,,
null,,learn_phase(without_color),849387,black_plus_sign,,,,null,GW/gong.jpg,GW/camera.jpg,,,,,,,,,,,,
null,,black_cross(without_color),850048,green,,,,null,GW/gong.jpg,GW/camera.jpg,,,,,,,,,,,,
null,,rt_plussign_withcolor,850553,green,,,,null,GW/gong.jpg,GW/camera.jpg,,,,,,,,,,,,
1599.7000000476837,,rt_thecrossant_black,851926,black_plus_sign,,,,50,,,1,0.9868421052631579,,,,,,,,,,
null,,color_black,852037,black_plus_sign,,,,null,,,,,,,,,,,,,,
null,,learn_phase(without_color),854045,black_plus_sign,,,,null,GW/globe.jpg,GW/jukebox.jpg,,,,,,,,,,,,
null,,black_cross(without_color),854781,blue,,,,null,GW/globe.jpg,GW/jukebox.jpg,,,,,,,,,,,,
null,,rt_plussign_withcolor,855287,blue,,,,null,GW/globe.jpg,GW/jukebox.jpg,,,,,,,,,,,,
872.3999999761581,,rt_thecrossant_black,856576,black_plus_sign,,,,49,,,1,0.987012987012987,,,,,,,,,,
null,,color_black,856690,black_plus_sign,,,,null,,,,,,,,,,,,,,
null,,learn_phase(without_color),858698,black_plus_sign,,,,null,GW/paint.jpg,GW/snail.jpg,,,,,,,,,,,,
null,,black_cross(without_color),859739,green,,,,null,GW/paint.jpg,GW/snail.jpg,,,,,,,,,,,,
null,,rt_plussign_withcolor,860242,green,,,,null,GW/paint.jpg,GW/snail.jpg,,,,,,,,,,,,
1203.6000000238419,,rt_thecrossant_black,861215,black_plus_sign,,,,50,,,1,0.9871794871794872,,,,,,,,,,
null,,color_black,861319,black_plus_sign,,,,null,,,,,,,,,,,,,,
null,,learn_phase(without_color),863324,black_plus_sign,,,,null,GW/gong.jpg,GW/basket.jpg,,,,,,,,,,,,
null,,black_cross(without_color),864429,green,,,,null,GW/gong.jpg,GW/basket.jpg,,,,,,,,,,,,
null,,rt_plussign_withcolor,864935,green,,,,null,GW/gong.jpg,GW/basket.jpg,,,,,,,,,,,,
1513.7000000476837,,rt_thecrossant_black,865845,black_plus_sign,,,,50,,,1,0.9873417721518988,,,,,,,,,,
null,,color_black,865963,black_plus_sign,,,,null,,,,,,,,,,,,,,
null,,learn_phase(without_color),867968,black_plus_sign,,,,null,GW/barrel.jpg,GW/hat.jpg,,,,,,,,,,,,
null,,black_cross(without_color),868854,blue,,,,null,GW/barrel.jpg,GW/hat.jpg,,,,,,,,,,,,
null,,rt_plussign_withcolor,869365,blue,,,,null,GW/barrel.jpg,GW/hat.jpg,,,,,,,,,,,,
1494.7999999523163,,rt_thecrossant_black,870499,black_plus_sign,,,,49,,,1,0.9875,,,,,,,,,,
null,,color_black,870610,black_plus_sign,,,,null,,,,,,,,,,,,,,
null,,learn_phase(without_color),872622,black_plus_sign,,,,null,GW/gong.jpg,GW/globe.jpg,,,,,,,,,,,,
null,,black_cross(without_color),873349,green,,,,null,GW/gong.jpg,GW/globe.jpg,,,,,,,,,,,,
null,,rt_plussign_withcolor,873860,green,,,,null,GW/gong.jpg,GW/globe.jpg,,,,,,,,,,,,
1295.7000000476837,,rt_thecrossant_black,875152,black_plus_sign,,,,50,,,1,0.9876543209876543,,,,,,,,,,
null,,color_black,875264,black_plus_sign,,,,null,,,,,,,,,,,,,,
null,,learn_phase(without_color),877272,black_plus_sign,,,,null,GW/globe.jpg,GW/camera.jpg,,,,,,,,,,,,
null,,black_cross(without_color),878035,blue,,,,null,GW/globe.jpg,GW/camera.jpg,,,,,,,,,,,,
null,,rt_plussign_withcolor,878542,blue,,,,null,GW/globe.jpg,GW/camera.jpg,,,,,,,,,,,,
1041.8000000715256,,rt_thecrossant_black,879799,black_plus_sign,,,,49,,,1,0.9878048780487805,,,,,,,,,,
null,,color_black,879913,black_plus_sign,,,,null,,,,,,,,,,,,,,
null,,learn_phase(without_color),881919,black_plus_sign,,,,null,GW/gong.jpg,GW/globe.jpg,,,,,,,,,,,,
null,,black_cross(without_color),882345,blue,,,,null,GW/gong.jpg,GW/globe.jpg,,,,,,,,,,,,
null,,rt_plussign_withcolor,882855,blue,,,,null,GW/gong.jpg,GW/globe.jpg,,,,,,,,,,,,
1214.6000000238419,,rt_thecrossant_black,884455,black_plus_sign,,,,49,,,1,0.9879518072289156,,,,,,,,,,
null,,color_black,884560,black_plus_sign,,,,null,,,,,,,,,,,,,,
null,,learn_phase(without_color),886571,black_plus_sign,,,,null,GW/snail.jpg,GW/soldier.jpg,,,,,,,,,,,,
null,,black_cross(without_color),887053,blue,,,,null,GW/snail.jpg,GW/soldier.jpg,,,,,,,,,,,,
null,,rt_plussign_withcolor,887562,blue,,,,null,GW/snail.jpg,GW/soldier.jpg,,,,,,,,,,,,
735.3000000715256,,rt_thecrossant_black,889093,black_plus_sign,,,,49,,,1,0.9880952380952381,,,,,,,,,,
null,,color_black,889197,black_plus_sign,,,,null,,,,,,,,,,,,,,
null,,learn_phase(without_color),891210,black_plus_sign,,,,null,GW/barrel.jpg,GW/teeth.jpg,,,,,,,,,,,,
null,,black_cross(without_color),892210,blue,,,,null,GW/barrel.jpg,GW/teeth.jpg,,,,,,,,,,,,
null,,rt_plussign_withcolor,892714,blue,,,,null,GW/barrel.jpg,GW/teeth.jpg,,,,,,,,,,,,
909.6999999284744,,rt_thecrossant_black,893730,black_plus_sign,,,,49,,,1,0.9882352941176471,,,,,,,,,,
null,,color_black,893843,black_plus_sign,,,,null,,,,,,,,,,,,,,
null,,learn_phase(without_color),895853,black_plus_sign,,,,null,GW/globe.jpg,GW/jukebox.jpg,,,,,,,,,,,,
null,,black_cross(without_color),896477,blue,,,,null,GW/globe.jpg,GW/jukebox.jpg,,,,,,,,,,,,
null,,rt_plussign_withcolor,896985,blue,,,,null,GW/globe.jpg,GW/jukebox.jpg,,,,,,,,,,,,
1435.6000000238419,,rt_thecrossant_black,898382,black_plus_sign,,,,49,,,1,0.9883720930232558,,,,,,,,,,
null,,color_black,898485,black_plus_sign,,,,null,,,,,,,,,,,,,,
null,,learn_phase(without_color),900495,black_plus_sign,,,,null,GW/gong.jpg,GW/basket.jpg,,,,,,,,,,,,
null,,black_cross(without_color),900994,blue,,,,null,GW/gong.jpg,GW/basket.jpg,,,,,,,,,,,,
null,,rt_plussign_withcolor,901499,blue,,,,null,GW/gong.jpg,GW/basket.jpg,,,,,,,,,,,,
990,,rt_thecrossant_black,903027,black_plus_sign,,,,49,,,1,0.9885057471264368,,,,,,,,,,
null,,color_black,903132,black_plus_sign,,,,null,,,,,,,,,,,,,,
null,,learn_phase(without_color),905137,black_plus_sign,,,,null,GW/dustpan.jpg,GW/teeth.jpg,,,,,,,,,,,,
null,,black_cross(without_color),905964,blue,,,,null,GW/dustpan.jpg,GW/teeth.jpg,,,,,,,,,,,,
null,,rt_plussign_withcolor,906473,blue,,,,null,GW/dustpan.jpg,GW/teeth.jpg,,,,,,,,,,,,
663.7999999523163,,rt_thecrossant_black,907670,black_plus_sign,,,,49,,,1,0.9886363636363636,,,,,,,,,,
null,,color_black,907783,black_plus_sign,,,,null,,,,,,,,,,,,,,
null,,learn_phase(without_color),909793,black_plus_sign,,,,null,GW/barrel.jpg,GW/teeth.jpg,,,,,,,,,,,,
null,,black_cross(without_color),910375,green,,,,null,GW/barrel.jpg,GW/teeth.jpg,,,,,,,,,,,,
null,,rt_plussign_withcolor,910891,green,,,,null,GW/barrel.jpg,GW/teeth.jpg,,,,,,,,,,,,
null,,rt_thecrossant_black,912328,black_plus_sign,,,,null,,,,0.9886363636363636,,,,,,,,,,
null,,color_black,912438,black_plus_sign,,,,null,,,,,,,,,,,,,,
null,,learn_phase(without_color),914450,black_plus_sign,,,,null,GW/camera.jpg,GW/dustpan.jpg,,,,,,,,,,,,
null,,black_cross(without_color),915343,green,,,,null,GW/camera.jpg,GW/dustpan.jpg,,,,,,,,,,,,
null,,rt_plussign_withcolor,915854,green,,,,null,GW/camera.jpg,GW/dustpan.jpg,,,,,,,,,,,,
947.0999999046326,,rt_thecrossant_black,916990,black_plus_sign,,,,50,,,1,0.9887640449438202,,,,,,,,,,
null,,color_black,917102,black_plus_sign,,,,null,,,,,,,,,,,,,,
null,,learn_phase(without_color),919113,black_plus_sign,,,,null,GW/gong.jpg,GW/camera.jpg,,,,,,,,,,,,
null,,black_cross(without_color),920160,green,,,,null,GW/gong.jpg,GW/camera.jpg,,,,,,,,,,,,
null,,rt_plussign_withcolor,920667,green,,,,null,GW/gong.jpg,GW/camera.jpg,,,,,,,,,,,,
1320.8000000715256,,rt_thecrossant_black,921655,black_plus_sign,,,,50,,,1,0.9888888888888889,,,,,,,,,,
null,,color_black,921767,black_plus_sign,,,,null,,,,,,,,,,,,,,
null,,learn_phase(without_color),923775,black_plus_sign,,,,null,GW/barrel.jpg,GW/teeth.jpg,,,,,,,,,,,,
null,,black_cross(without_color),924365,green,,,,null,GW/barrel.jpg,GW/teeth.jpg,,,,,,,,,,,,
null,,rt_plussign_withcolor,924881,green,,,,null,GW/barrel.jpg,GW/teeth.jpg,,,,,,,,,,,,
1546.7999999523163,,rt_thecrossant_black,926304,black_plus_sign,,,,50,,,1,0.989010989010989,,,,,,,,,,
null,,color_black,926408,black_plus_sign,,,,null,,,,,,,,,,,,,,
null,,learn_phase(without_color),928418,black_plus_sign,,,,null,GW/camera.jpg,GW/dustpan.jpg,,,,,,,,,,,,
null,,black_cross(without_color),928933,green,,,,null,GW/camera.jpg,GW/dustpan.jpg,,,,,,,,,,,,
null,,rt_plussign_withcolor,929439,green,,,,null,GW/camera.jpg,GW/dustpan.jpg,,,,,,,,,,,,
1013.2000000476837,,rt_thecrossant_black,930945,black_plus_sign,,,,50,,,1,0.9891304347826086,,,,,,,,,,
null,,color_black,931058,black_plus_sign,,,,null,,,,,,,,,,,,,,
null,,learn_phase(without_color),933065,black_plus_sign,,,,null,GW/dustpan.jpg,GW/teeth.jpg,,,,,,,,,,,,
null,,black_cross(without_color),933680,green,,,,null,GW/dustpan.jpg,GW/teeth.jpg,,,,,,,,,,,,
null,,rt_plussign_withcolor,934193,green,,,,null,GW/dustpan.jpg,GW/teeth.jpg,,,,,,,,,,,,
699.2999999523163,,rt_thecrossant_black,935584,black_plus_sign,,,,50,,,1,0.989247311827957,,,,,,,,,,
null,,color_black,935698,black_plus_sign,,,,null,,,,,,,,,,,,,,
null,,learn_phase(without_color),937712,black_plus_sign,,,,null,GW/wheelchair.jpg,GW/gong.jpg,,,,,,,,,,,,
null,,black_cross(without_color),938276,green,,,,null,GW/wheelchair.jpg,GW/gong.jpg,,,,,,,,,,,,
null,,rt_plussign_withcolor,938788,green,,,,null,GW/wheelchair.jpg,GW/gong.jpg,,,,,,,,,,,,
891.3000000715256,,rt_thecrossant_black,940244,black_plus_sign,,,,50,,,1,0.9893617021276596,,,,,,,,,,
null,,color_black,940350,black_plus_sign,,,,null,,,,,,,,,,,,,,
null,,learn_phase(without_color),942360,black_plus_sign,,,,null,GW/soldier.jpg,GW/wheelchair.jpg,,,,,,,,,,,,
null,,black_cross(without_color),943134,green,,,,null,GW/soldier.jpg,GW/wheelchair.jpg,,,,,,,,,,,,
null,,rt_plussign_withcolor,943654,green,,,,null,GW/soldier.jpg,GW/wheelchair.jpg,,,,,,,,,,,,
911.8999999761581,,rt_thecrossant_black,944892,black_plus_sign,,,,50,,,1,0.9894736842105263,,,,,,,,,,
null,,color_black,944997,black_plus_sign,,,,null,,,,,,,,,,,,,,
null,,learn_phase(without_color),947003,black_plus_sign,,,,null,GW/globe.jpg,GW/jukebox.jpg,,,,,,,,,,,,
null,,black_cross(without_color),947740,green,,,,null,GW/globe.jpg,GW/jukebox.jpg,,,,,,,,,,,,
null,,rt_plussign_withcolor,948242,green,,,,null,GW/globe.jpg,GW/jukebox.jpg,,,,,,,,,,,,
1108,,rt_thecrossant_black,949525,black_plus_sign,,,,50,,,1,0.9895833333333334,,,,,,,,,,
null,,color_black,949633,black_plus_sign,,,,null,,,,,,,,,,,,,,
null,,learn_phase(without_color),951639,black_plus_sign,,,,null,GW/wheelchair.jpg,GW/gong.jpg,,,,,,,,,,,,
null,,black_cross(without_color),952384,green,,,,null,GW/wheelchair.jpg,GW/gong.jpg,,,,,,,,,,,,
null,,rt_plussign_withcolor,952893,green,,,,null,GW/wheelchair.jpg,GW/gong.jpg,,,,,,,,,,,,
952.6999999284744,,rt_thecrossant_black,954171,black_plus_sign,,,,50,,,1,0.9896907216494846,,,,,,,,,,
null,,color_black,954275,black_plus_sign,,,,null,,,,,,,,,,,,,,
null,,learn_phase(without_color),956288,black_plus_sign,,,,null,GW/gong.jpg,GW/basket.jpg,,,,,,,,,,,,
null,,black_cross(without_color),956885,blue,,,,null,GW/gong.jpg,GW/basket.jpg,,,,,,,,,,,,
null,,rt_plussign_withcolor,957395,blue,,,,null,GW/gong.jpg,GW/basket.jpg,,,,,,,,,,,,
1165.8999999761581,,rt_thecrossant_black,958813,black_plus_sign,,,,49,,,1,0.9897959183673469,,,,,,,,,,
null,,color_black,958925,black_plus_sign,,,,null,,,,,,,,,,,,,,
null,,learn_phase(without_color),960938,black_plus_sign,,,,null,GW/barrel.jpg,GW/hat.jpg,,,,,,,,,,,,
null,,black_cross(without_color),961619,green,,,,null,GW/barrel.jpg,GW/hat.jpg,,,,,,,,,,,,
null,,rt_plussign_withcolor,962135,green,,,,null,GW/barrel.jpg,GW/hat.jpg,,,,,,,,,,,,
908.2000000476837,,rt_thecrossant_black,963479,black_plus_sign,,,,50,,,1,0.98989898989899,,,,,,,,,,
null,,color_black,963582,black_plus_sign,,,,null,,,,,,,,,,,,,,
null,,learn_phase(without_color),965594,black_plus_sign,,,,null,GW/gong.jpg,GW/camera.jpg,,,,,,,,,,,,
null,,black_cross(without_color),966454,blue,,,,null,GW/gong.jpg,GW/camera.jpg,,,,,,,,,,,,
null,,rt_plussign_withcolor,966964,blue,,,,null,GW/gong.jpg,GW/camera.jpg,,,,,,,,,,,,
1038.7000000476837,,rt_thecrossant_black,968125,black_plus_sign,,,,49,,,1,0.99,,,,,,,,,,
null,,color_black,968238,black_plus_sign,,,,null,,,,,,,,,,,,,,
null,,learn_phase(without_color),970243,black_plus_sign,,,,null,GW/wheelchair.jpg,GW/camera.jpg,,,,,,,,,,,,
null,,black_cross(without_color),971164,blue,,,,null,GW/wheelchair.jpg,GW/camera.jpg,,,,,,,,,,,,
null,,rt_plussign_withcolor,971675,blue,,,,null,GW/wheelchair.jpg,GW/camera.jpg,,,,,,,,,,,,
1135.0999999046326,,rt_thecrossant_black,972766,black_plus_sign,,,,49,,,1,0.9900990099009901,,,,,,,,,,
null,,color_black,972875,black_plus_sign,,,,null,,,,,,,,,,,,,,
null,,learn_phase(without_color),974881,black_plus_sign,,,,null,GW/camera.jpg,GW/dustpan.jpg,,,,,,,,,,,,
null,,black_cross(without_color),975493,green,,,,null,GW/camera.jpg,GW/dustpan.jpg,,,,,,,,,,,,
null,,rt_plussign_withcolor,976001,green,,,,null,GW/camera.jpg,GW/dustpan.jpg,,,,,,,,,,,,
1333.8999999761581,,rt_thecrossant_black,977415,black_plus_sign,,,,50,,,1,0.9901960784313726,,,,,,,,,,
null,,color_black,977529,black_plus_sign,,,,null,,,,,,,,,,,,,,
null,,learn_phase(without_color),979543,black_plus_sign,,,,null,GW/soldier.jpg,GW/wheelchair.jpg,,,,,,,,,,,,
null,,black_cross(without_color),980468,green,,,,null,GW/soldier.jpg,GW/wheelchair.jpg,,,,,,,,,,,,
null,,rt_plussign_withcolor,980975,green,,,,null,GW/soldier.jpg,GW/wheelchair.jpg,,,,,,,,,,,,
1105,,rt_thecrossant_black,982059,black_plus_sign,,,,50,,,1,0.9902912621359223,,,,,,,,,,
null,,color_black,982170,black_plus_sign,,,,null,,,,,,,,,,,,,,
null,,learn_phase(without_color),984175,black_plus_sign,,,,null,GW/globe.jpg,GW/jukebox.jpg,,,,,,,,,,,,
null,,black_cross(without_color),985270,blue,,,,null,GW/globe.jpg,GW/jukebox.jpg,,,,,,,,,,,,
null,,rt_plussign_withcolor,985773,blue,,,,null,GW/globe.jpg,GW/jukebox.jpg,,,,,,,,,,,,
1718.7999999523163,,rt_thecrossant_black,986701,black_plus_sign,,,,49,,,1,0.9903846153846154,,,,,,,,,,
null,,color_black,986811,black_plus_sign,,,,null,,,,,,,,,,,,,,
null,,learn_phase(without_color),988819,black_plus_sign,,,,null,GW/paint.jpg,GW/snail.jpg,,,,,,,,,,,,
null,,black_cross(without_color),989564,blue,,,,null,GW/paint.jpg,GW/snail.jpg,,,,,,,,,,,,
null,,rt_plussign_withcolor,990068,blue,,,,null,GW/paint.jpg,GW/snail.jpg,,,,,,,,,,,,
1477.8000000715256,,rt_thecrossant_black,991339,black_plus_sign,,,,49,,,1,0.9904761904761905,,,,,,,,,,
null,,color_black,991457,black_plus_sign,,,,null,,,,,,,,,,,,,,
null,,learn_phase(without_color),993465,black_plus_sign,,,,null,GW/wheelchair.jpg,GW/camera.jpg,,,,,,,,,,,,
null,,black_cross(without_color),994237,blue,,,,null,GW/wheelchair.jpg,GW/camera.jpg,,,,,,,,,,,,
null,,rt_plussign_withcolor,994749,blue,,,,null,GW/wheelchair.jpg,GW/camera.jpg,,,,,,,,,,,,
1145.5,,rt_thecrossant_black,996002,black_plus_sign,,,,49,,,1,0.9905660377358491,,,,,,,,,,
null,,color_black,996112,black_plus_sign,,,,null,,,,,,,,,,,,,,
null,,learn_phase(without_color),998126,black_plus_sign,,,,null,GW/barrel.jpg,GW/hat.jpg,,,,,,,,,,,,
null,,black_cross(without_color),998633,blue,,,,null,GW/barrel.jpg,GW/hat.jpg,,,,,,,,,,,,
null,,rt_plussign_withcolor,999145,blue,,,,null,GW/barrel.jpg,GW/hat.jpg,,,,,,,,,,,,
1101.6000000238419,,rt_thecrossant_black,1000650,black_plus_sign,,,,49,,,1,0.9906542056074766,,,,,,,,,,
null,,color_black,1000767,black_plus_sign,,,,null,,,,,,,,,,,,,,
null,,learn_phase(without_color),1002773,black_plus_sign,,,,null,GW/snail.jpg,GW/barrel.jpg,,,,,,,,,,,,
null,,black_cross(without_color),1003889,blue,,,,null,GW/snail.jpg,GW/barrel.jpg,,,,,,,,,,,,
null,,rt_plussign_withcolor,1004400,blue,,,,null,GW/snail.jpg,GW/barrel.jpg,,,,,,,,,,,,
676,,rt_thecrossant_black,1005307,black_plus_sign,,,,49,,,1,0.9907407407407407,,,,,,,,,,
null,,color_black,1005413,black_plus_sign,,,,null,,,,,,,,,,,,,,
null,,learn_phase(without_color),1007424,black_plus_sign,,,,null,GW/wheelchair.jpg,GW/camera.jpg,,,,,,,,,,,,
null,,black_cross(without_color),1008208,green,,,,null,GW/wheelchair.jpg,GW/camera.jpg,,,,,,,,,,,,
null,,rt_plussign_withcolor,1008711,green,,,,null,GW/wheelchair.jpg,GW/camera.jpg,,,,,,,,,,,,
1622.0999999046326,,rt_thecrossant_black,1009946,black_plus_sign,,,,50,,,1,0.9908256880733946,,,,,,,,,,
null,,color_black,1010048,black_plus_sign,,,,null,,,,,,,,,,,,,,
null,,learn_phase(without_color),1012060,black_plus_sign,,,,null,GW/soldier.jpg,GW/dustpan.jpg,,,,,,,,,,,,
null,,black_cross(without_color),1013041,green,,,,null,GW/soldier.jpg,GW/dustpan.jpg,,,,,,,,,,,,
null,,rt_plussign_withcolor,1013559,green,,,,null,GW/soldier.jpg,GW/dustpan.jpg,,,,,,,,,,,,
1345.6000000238419,,rt_thecrossant_black,1014598,black_plus_sign,,,,50,,,1,0.990909090909091,,,,,,,,,,
null,,color_black,1014713,black_plus_sign,,,,null,,,,,,,,,,,,,,
null,,learn_phase(without_color),1016724,black_plus_sign,,,,null,GW/snail.jpg,GW/barrel.jpg,,,,,,,,,,,,
null,,black_cross(without_color),1017507,green,,,,null,GW/snail.jpg,GW/barrel.jpg,,,,,,,,,,,,
null,,rt_plussign_withcolor,1018017,green,,,,null,GW/snail.jpg,GW/barrel.jpg,,,,,,,,,,,,
1297.6999999284744,,rt_thecrossant_black,1019243,black_plus_sign,,,,50,,,1,0.990990990990991,,,,,,,,,,
null,,color_black,1019353,black_plus_sign,,,,null,,,,,,,,,,,,,,
null,,learn_phase(without_color),1021366,black_plus_sign,,,,null,GW/paint.jpg,GW/snail.jpg,,,,,,,,,,,,
null,,black_cross(without_color),1022074,green,,,,null,GW/paint.jpg,GW/snail.jpg,,,,,,,,,,,,
null,,rt_plussign_withcolor,1022584,green,,,,null,GW/paint.jpg,GW/snail.jpg,,,,,,,,,,,,
1094.5,,rt_thecrossant_black,1023907,black_plus_sign,,,,50,,,1,0.9910714285714286,,,,,,,,,,
null,,color_black,1024014,black_plus_sign,,,,null,,,,,,,,,,,,,,
null,,learn_phase(without_color),1026021,black_plus_sign,,,,null,GW/gong.jpg,GW/camera.jpg,,,,,,,,,,,,
null,,black_cross(without_color),1026763,blue,,,,null,GW/gong.jpg,GW/camera.jpg,,,,,,,,,,,,
null,,rt_plussign_withcolor,1027271,blue,,,,null,GW/gong.jpg,GW/camera.jpg,,,,,,,,,,,,
1023,,rt_thecrossant_black,1028541,black_plus_sign,,,,49,,,1,0.9911504424778761,,,,,,,,,,
null,,color_black,1028653,black_plus_sign,,,,null,,,,,,,,,,,,,,
null,,learn_phase(without_color),1030674,black_plus_sign,,,,null,GW/soldier.jpg,GW/dustpan.jpg,,,,,,,,,,,,
null,,black_cross(without_color),1031533,green,,,,null,GW/soldier.jpg,GW/dustpan.jpg,,,,,,,,,,,,
null,,rt_plussign_withcolor,1032043,green,,,,null,GW/soldier.jpg,GW/dustpan.jpg,,,,,,,,,,,,
1026.8999999761581,,rt_thecrossant_black,1033204,black_plus_sign,,,,50,,,1,0.9912280701754386,,,,,,,,,,
null,,color_black,1033324,black_plus_sign,,,,null,,,,,,,,,,,,,,
null,,learn_phase(without_color),1035335,black_plus_sign,,,,null,GW/globe.jpg,GW/jukebox.jpg,,,,,,,,,,,,
null,,black_cross(without_color),1036010,green,,,,null,GW/globe.jpg,GW/jukebox.jpg,,,,,,,,,,,,
null,,rt_plussign_withcolor,1036523,green,,,,null,GW/globe.jpg,GW/jukebox.jpg,,,,,,,,,,,,
1379.7000000476837,,rt_thecrossant_black,1037857,black_plus_sign,,,,50,,,1,0.991304347826087,,,,,,,,,,
null,,color_black,1037965,black_plus_sign,,,,null,,,,,,,,,,,,,,
null,,learn_phase(without_color),1039973,black_plus_sign,,,,null,GW/soldier.jpg,GW/dustpan.jpg,,,,,,,,,,,,
null,,black_cross(without_color),1040819,green,,,,null,GW/soldier.jpg,GW/dustpan.jpg,,,,,,,,,,,,
null,,rt_plussign_withcolor,1041332,green,,,,null,GW/soldier.jpg,GW/dustpan.jpg,,,,,,,,,,,,
1132,,rt_thecrossant_black,1042507,black_plus_sign,,,,50,,,1,0.9913793103448276,,,,,,,,,,
null,,color_black,1042625,black_plus_sign,,,,null,,,,,,,,,,,,,,
null,,learn_phase(without_color),1044633,black_plus_sign,,,,null,GW/globe.jpg,GW/camera.jpg,,,,,,,,,,,,
null,,black_cross(without_color),1045685,green,,,,null,GW/globe.jpg,GW/camera.jpg,,,,,,,,,,,,
null,,rt_plussign_withcolor,1046197,green,,,,null,GW/globe.jpg,GW/camera.jpg,,,,,,,,,,,,
1618.3999999761581,,rt_thecrossant_black,1047160,black_plus_sign,,,,50,,,1,0.9914529914529915,,,,,,,,,,
null,,color_black,1047270,black_plus_sign,,,,null,,,,,,,,,,,,,,
null,,learn_phase(without_color),1049277,black_plus_sign,,,,null,GW/barrel.jpg,GW/teeth.jpg,,,,,,,,,,,,
null,,black_cross(without_color),1050112,blue,,,,null,GW/barrel.jpg,GW/teeth.jpg,,,,,,,,,,,,
null,,rt_plussign_withcolor,1050616,blue,,,,null,GW/barrel.jpg,GW/teeth.jpg,,,,,,,,,,,,
1436.1000000238419,,rt_thecrossant_black,1051804,black_plus_sign,,,,49,,,1,0.9915254237288136,,,,,,,,,,
null,,color_black,1051915,black_plus_sign,,,,null,,,,,,,,,,,,,,
null,,learn_phase(without_color),1053920,black_plus_sign,,,,null,GW/globe.jpg,GW/camera.jpg,,,,,,,,,,,,
null,,black_cross(without_color),1054339,green,,,,null,GW/globe.jpg,GW/camera.jpg,,,,,,,,,,,,
null,,rt_plussign_withcolor,1054848,green,,,,null,GW/globe.jpg,GW/camera.jpg,,,,,,,,,,,,
1398.0999999046326,,rt_thecrossant_black,1056441,black_plus_sign,,,,50,,,1,0.9915966386554622,,,,,,,,,,
null,,color_black,1056551,black_plus_sign,,,,null,,,,,,,,,,,,,,
null,,learn_phase(without_color),1058563,black_plus_sign,,,,null,GW/gong.jpg,GW/globe.jpg,,,,,,,,,,,,
null,,black_cross(without_color),1059022,green,,,,null,GW/gong.jpg,GW/globe.jpg,,,,,,,,,,,,
null,,rt_plussign_withcolor,1059539,green,,,,null,GW/gong.jpg,GW/globe.jpg,,,,,,,,,,,,
803.1000000238419,,rt_thecrossant_black,1061110,black_plus_sign,,,,50,,,1,0.9916666666666667,,,,,,,,,,
null,,color_black,1061224,black_plus_sign,,,,null,,,,,,,,,,,,,,
null,,learn_phase(without_color),1063237,black_plus_sign,,,,null,GW/gong.jpg,GW/basket.jpg,,,,,,,,,,,,
null,,black_cross(without_color),1063965,green,,,,null,GW/gong.jpg,GW/basket.jpg,,,,,,,,,,,,
null,,rt_plussign_withcolor,1064468,green,,,,null,GW/gong.jpg,GW/basket.jpg,,,,,,,,,,,,
851.2000000476837,,rt_thecrossant_black,1065759,black_plus_sign,,,,50,,,1,0.9917355371900827,,,,,,,,,,
null,,color_black,1065870,black_plus_sign,,,,null,,,,,,,,,,,,,,
null,,learn_phase(without_color),1067880,black_plus_sign,,,,null,GW/snail.jpg,GW/soldier.jpg,,,,,,,,,,,,
null,,black_cross(without_color),1068830,blue,,,,null,GW/snail.jpg,GW/soldier.jpg,,,,,,,,,,,,
null,,rt_plussign_withcolor,1069343,blue,,,,null,GW/snail.jpg,GW/soldier.jpg,,,,,,,,,,,,
1006,,rt_thecrossant_black,1070415,black_plus_sign,,,,49,,,1,0.9918032786885246,,,,,,,,,,
null,,color_black,1070526,black_plus_sign,,,,null,,,,,,,,,,,,,,
null,,learn_phase(without_color),1072534,black_plus_sign,,,,null,GW/globe.jpg,GW/jukebox.jpg,,,,,,,,,,,,
null,,black_cross(without_color),1073159,green,,,,null,GW/globe.jpg,GW/jukebox.jpg,,,,,,,,,,,,
null,,rt_plussign_withcolor,1073663,green,,,,null,GW/globe.jpg,GW/jukebox.jpg,,,,,,,,,,,,
1747.5,,rt_thecrossant_black,1075064,black_plus_sign,,,,50,,,1,0.991869918699187,,,,,,,,,,
null,,color_black,1075169,black_plus_sign,,,,null,,,,,,,,,,,,,,
null,,learn_phase(without_color),1077177,black_plus_sign,,,,null,GW/soldier.jpg,GW/dustpan.jpg,,,,,,,,,,,,
null,,black_cross(without_color),1077863,blue,,,,null,GW/soldier.jpg,GW/dustpan.jpg,,,,,,,,,,,,
null,,rt_plussign_withcolor,1078375,blue,,,,null,GW/soldier.jpg,GW/dustpan.jpg,,,,,,,,,,,,
927.7999999523163,,rt_thecrossant_black,1079708,black_plus_sign,,,,49,,,1,0.9919354838709677,,,,,,,,,,
null,,color_black,1079821,black_plus_sign,,,,null,,,,,,,,,,,,,,
null,,learn_phase(without_color),1081834,black_plus_sign,,,,null,GW/wheelchair.jpg,GW/camera.jpg,,,,,,,,,,,,
null,,black_cross(without_color),1082402,green,,,,null,GW/wheelchair.jpg,GW/camera.jpg,,,,,,,,,,,,
null,,rt_plussign_withcolor,1082920,green,,,,null,GW/wheelchair.jpg,GW/camera.jpg,,,,,,,,,,,,
1110.7000000476837,,rt_thecrossant_black,1084363,black_plus_sign,,,,50,,,1,0.992,,,,,,,,,,
null,,color_black,1084480,black_plus_sign,,,,null,,,,,,,,,,,,,,
null,,learn_phase(without_color),1086487,black_plus_sign,,,,null,GW/barrel.jpg,GW/teeth.jpg,,,,,,,,,,,,
null,,black_cross(without_color),1087196,blue,,,,null,GW/barrel.jpg,GW/teeth.jpg,,,,,,,,,,,,
null,,rt_plussign_withcolor,1087704,blue,,,,null,GW/barrel.jpg,GW/teeth.jpg,,,,,,,,,,,,
778.7999999523163,,rt_thecrossant_black,1089014,black_plus_sign,,,,49,,,1,0.9920634920634921,,,,,,,,,,
null,,color_black,1089124,black_plus_sign,,,,null,,,,,,,,,,,,,,
57231.700000047684,,intro_1,1146361,instruct,,0,Start,,,,,,,,,,,,,,,
3451.399999976158,,directmemory_phase,1149818,GW/soldier.jpg,,,,51,,,1,1,GW/jukebox.jpg,GW/gong.jpg,GW/dustpan.jpg,GW/dustpan.jpg,GW/gong.jpg,GW/jukebox.jpg,1,,,
null,,html-keyboard-response,1150832,<p></p>,,,,null,,,,,,,,,,,,,,
2749.399999976158,,directmemory_phase,1153583,GW/barrel.jpg,,,,50,,,1,1,GW/soldier.jpg,GW/teeth.jpg,GW/globe.jpg,GW/teeth.jpg,GW/soldier.jpg,GW/globe.jpg,1,,,
null,,html-keyboard-response,1154596,<p></p>,,,,null,,,,,,,,,,,,,,
3563.7999999523163,,directmemory_phase,1158162,GW/dustpan.jpg,,,,51,,,1,1,GW/paint.jpg,GW/wheelchair.jpg,GW/soldier.jpg,GW/soldier.jpg,GW/wheelchair.jpg,GW/paint.jpg,1,,,
null,,html-keyboard-response,1159174,<p></p>,,,,null,,,,,,,,,,,,,,
2459.1999999284744,,directmemory_phase,1161635,GW/gong.jpg,,,,51,,,1,1,GW/barrel.jpg,GW/soldier.jpg,GW/camera.jpg,GW/camera.jpg,GW/soldier.jpg,GW/barrel.jpg,1,,,
null,,html-keyboard-response,1162641,<p></p>,,,,null,,,,,,,,,,,,,,
4137.300000071526,,directmemory_phase,1166781,GW/snail.jpg,,,,49,,,0,0.8,GW/hat.jpg,GW/soldier.jpg,GW/basket.jpg,GW/soldier.jpg,GW/hat.jpg,GW/basket.jpg,0.5,closer,,
null,,html-keyboard-response,1167794,<p></p>,,,,null,,,,,,,,,,,,,,
2881.899999976158,,directmemory_phase,1170678,GW/wheelchair.jpg,,,,50,,,1,0.8333333333333334,GW/snail.jpg,GW/camera.jpg,GW/teeth.jpg,GW/camera.jpg,GW/snail.jpg,GW/teeth.jpg,1,,,
null,,html-keyboard-response,1171694,<p></p>,,,,null,,,,,,,,,,,,,,
2148.7000000476837,,directmemory_phase,1173845,GW/basket.jpg,,,,49,,,1,0.8571428571428571,GW/gong.jpg,GW/snail.jpg,GW/globe.jpg,GW/gong.jpg,GW/globe.jpg,GW/snail.jpg,1,,,
null,,html-keyboard-response,1174851,<p></p>,,,,null,,,,,,,,,,,,,,
3159.8000000715256,,directmemory_phase,1178013,GW/globe.jpg,,,,51,,,1,0.875,GW/snail.jpg,GW/dustpan.jpg,GW/camera.jpg,GW/camera.jpg,GW/dustpan.jpg,GW/snail.jpg,1,,,
null,,html-keyboard-response,1179033,<p></p>,,,,null,,,,,,,,,,,,,,
2656.399999976158,,directmemory_phase,1181693,GW/gong.jpg,,,,49,,,1,0.8888888888888888,GW/wheelchair.jpg,GW/teeth.jpg,GW/soldier.jpg,GW/wheelchair.jpg,GW/soldier.jpg,GW/teeth.jpg,1,,,
null,,html-keyboard-response,1182705,<p></p>,,,,null,,,,,,,,,,,,,,
2560.7999999523163,,directmemory_phase,1185268,GW/globe.jpg,,,,51,,,1,0.9,GW/snail.jpg,GW/basket.jpg,GW/jukebox.jpg,GW/jukebox.jpg,GW/basket.jpg,GW/snail.jpg,1,,,
null,,html-keyboard-response,1186279,<p></p>,,,,null,,,,,,,,,,,,,,
2561.600000023842,,directmemory_phase,1188843,GW/wheelchair.jpg,,,,51,,,1,0.9090909090909091,GW/paint.jpg,GW/dustpan.jpg,GW/gong.jpg,GW/gong.jpg,GW/dustpan.jpg,GW/paint.jpg,1,,,
null,,html-keyboard-response,1189854,<p></p>,,,,null,,,,,,,,,,,,,,
2792.7999999523163,,directmemory_phase,1192649,GW/barrel.jpg,,,,51,,,1,0.9166666666666666,GW/gong.jpg,GW/dustpan.jpg,GW/hat.jpg,GW/hat.jpg,GW/dustpan.jpg,GW/gong.jpg,1,,,
null,,html-keyboard-response,1193659,<p></p>,,,,null,,,,,,,,,,,,,,
2641.399999976158,,directmemory_phase,1196303,GW/camera.jpg,,,,51,,,1,0.9230769230769231,GW/barrel.jpg,GW/teeth.jpg,GW/wheelchair.jpg,GW/wheelchair.jpg,GW/teeth.jpg,GW/barrel.jpg,1,,,
null,,html-keyboard-response,1197321,<p></p>,,,,null,,,,,,,,,,,,,,
2020.3999999761581,,directmemory_phase,1199344,GW/snail.jpg,,,,49,,,1,0.9285714285714286,GW/barrel.jpg,GW/camera.jpg,GW/teeth.jpg,GW/barrel.jpg,GW/teeth.jpg,GW/camera.jpg,1,,,
null,,html-keyboard-response,1200354,<p></p>,,,,null,,,,,,,,,,,,,,
2888.7000000476837,,directmemory_phase,1203246,GW/globe.jpg,,,,51,,,1,0.9333333333333333,GW/soldier.jpg,GW/dustpan.jpg,GW/gong.jpg,GW/gong.jpg,GW/dustpan.jpg,GW/soldier.jpg,1,,,
null,,html-keyboard-response,1204253,<p></p>,,,,null,,,,,,,,,,,,,,
5393.699999928474,,directmemory_phase,1209649,GW/hat.jpg,,,,50,,,0,0.875,GW/barrel.jpg,GW/paint.jpg,GW/snail.jpg,GW/barrel.jpg,GW/snail.jpg,GW/paint.jpg,0.5,closer,,
null,,html-keyboard-response,1210663,<p></p>,,,,null,,,,,,,,,,,,,,
4773.299999952316,,directmemory_phase,1215439,GW/soldier.jpg,,,,49,,,1,0.8823529411764706,GW/wheelchair.jpg,GW/basket.jpg,GW/paint.jpg,GW/wheelchair.jpg,GW/paint.jpg,GW/basket.jpg,1,,,
null,,html-keyboard-response,1216449,<p></p>,,,,null,,,,,,,,,,,,,,
2944.8000000715256,,directmemory_phase,1219396,GW/gong.jpg,,,,51,,,0,0.8333333333333334,GW/globe.jpg,GW/teeth.jpg,GW/jukebox.jpg,GW/globe.jpg,GW/jukebox.jpg,GW/teeth.jpg,0.5,closer,,
null,,html-keyboard-response,1220405,<p></p>,,,,null,,,,,,,,,,,,,,
2627.7999999523163,,directmemory_phase,1223035,GW/paint.jpg,,,,50,,,1,0.8421052631578947,GW/soldier.jpg,GW/snail.jpg,GW/teeth.jpg,GW/snail.jpg,GW/soldier.jpg,GW/teeth.jpg,1,,,
null,,html-keyboard-response,1224049,<p></p>,,,,null,,,,,,,,,,,,,,
5876.899999976158,,directmemory_phase,1229929,GW/gong.jpg,,,,50,,,1,0.85,GW/dustpan.jpg,GW/basket.jpg,GW/barrel.jpg,GW/basket.jpg,GW/dustpan.jpg,GW/barrel.jpg,1,,,
null,,html-keyboard-response,1230939,<p></p>,,,,null,,,,,,,,,,,,,,
2695,,directmemory_phase,1233637,GW/jukebox.jpg,,,,49,,,1,0.8571428571428571,GW/globe.jpg,GW/teeth.jpg,GW/camera.jpg,GW/globe.jpg,GW/camera.jpg,GW/teeth.jpg,1,,,
null,,html-keyboard-response,1234641,<p></p>,,,,null,,,,,,,,,,,,,,
4928,,directmemory_phase,1239572,GW/soldier.jpg,,,,51,,,0,0.8181818181818182,GW/paint.jpg,GW/snail.jpg,GW/basket.jpg,GW/snail.jpg,GW/paint.jpg,GW/basket.jpg,0.5,closer,,
null,,html-keyboard-response,1240580,<p></p>,,,,null,,,,,,,,,,,,,,
null,,directmemory_phase,1247085,GW/teeth.jpg,,,,null,,,0,0.782608695652174,GW/barrel.jpg,GW/gong.jpg,GW/hat.jpg,GW/barrel.jpg,GW/hat.jpg,GW/gong.jpg,0,,,
null,,html-keyboard-response,1248101,<p></p>,,,,null,,,,,,,,,,,,,,
3045.1999999284744,,directmemory_phase,1251149,GW/dustpan.jpg,,,,49,,,0,0.75,GW/basket.jpg,GW/gong.jpg,GW/camera.jpg,GW/camera.jpg,GW/gong.jpg,GW/basket.jpg,0.5,closer,,
null,,html-keyboard-response,1252155,<p></p>,,,,null,,,,,,,,,,,,,,
2145.5,,directmemory_phase,1254303,GW/snail.jpg,,,,50,,,1,0.76,GW/teeth.jpg,GW/paint.jpg,GW/globe.jpg,GW/paint.jpg,GW/teeth.jpg,GW/globe.jpg,1,,,
null,,html-keyboard-response,1255318,<p></p>,,,,null,,,,,,,,,,,,,,
2115.7999999523163,,directmemory_phase,1257437,GW/camera.jpg,,,,51,,,1,0.7692307692307693,GW/barrel.jpg,GW/basket.jpg,GW/gong.jpg,GW/gong.jpg,GW/basket.jpg,GW/barrel.jpg,1,,,
null,,html-keyboard-response,1258450,<p></p>,,,,null,,,,,,,,,,,,,,
2593.600000023842,,directmemory_phase,1261046,GW/teeth.jpg,,,,51,,,1,0.7777777777777778,GW/basket.jpg,GW/hat.jpg,GW/dustpan.jpg,GW/dustpan.jpg,GW/hat.jpg,GW/basket.jpg,1,,,
null,,html-keyboard-response,1262051,<p></p>,,,,null,,,,,,,,,,,,,,
2629.100000023842,,directmemory_phase,1264683,GW/camera.jpg,,,,49,,,1,0.7857142857142857,GW/globe.jpg,GW/hat.jpg,GW/basket.jpg,GW/globe.jpg,GW/basket.jpg,GW/hat.jpg,1,,,
null,,html-keyboard-response,1265691,<p></p>,,,,null,,,,,,,,,,,,,,
2434.5,,directmemory_phase,1268128,GW/dustpan.jpg,,,,49,,,1,0.7931034482758621,GW/teeth.jpg,GW/basket.jpg,GW/barrel.jpg,GW/teeth.jpg,GW/barrel.jpg,GW/basket.jpg,1,,,
null,,html-keyboard-response,1269134,<p></p>,,,,null,,,,,,,,,,,,,,
2379,,directmemory_phase,1271515,GW/wheelchair.jpg,,,,50,,,0,0.7666666666666667,GW/soldier.jpg,GW/teeth.jpg,GW/snail.jpg,GW/soldier.jpg,GW/snail.jpg,GW/teeth.jpg,0.5,closer,,
null,,html-keyboard-response,1272521,<p></p>,,,,null,,,,,,,,,,,,,,
2033.5,,directmemory_phase,1274557,GW/camera.jpg,,,,51,,,0,0.7419354838709677,GW/dustpan.jpg,GW/paint.jpg,GW/soldier.jpg,GW/dustpan.jpg,GW/soldier.jpg,GW/paint.jpg,0.5,closer,,
null,,html-keyboard-response,1275563,<p></p>,,,,null,,,,,,,,,,,,,,
3760.5999999046326,,directmemory_phase,1279326,GW/barrel.jpg,,,,51,,,1,0.75,GW/globe.jpg,GW/paint.jpg,GW/snail.jpg,GW/snail.jpg,GW/paint.jpg,GW/globe.jpg,1,,,
null,,html-keyboard-response,1280334,<p></p>,,,,null,,,,,,,,,,,,,,
86378.69999992847,,intro_1,1366715,instruct,,0,,,,,,,,,,,,,,,,
30163.399999976158,,intro_2,1396884,instruct,,1,Next,,,,,,,,,,,,,,,
13428.399999976158,,intro_3,1410318,instruct,,1,Next,,,,,,,,,,,,,,,
19458.100000023842,,intro_4,1429781,instruct,,1,Next,,,,,,,,,,,,,,,
39970.200000047684,,intro_5,1469755,instruct,,1,Next,,,,,,,,,,,,,,,
36879.09999990463,,intro_6,1506639,instruct,,1,Next,,,,,,,,,,,,,,,
42868,,intro_7,1549512,instruct,,1,Next,,,,,,,,,,,,,,,
38372.699999928474,,intro_8,1587888,instruct,,1,Next,,,,,,,,,,,,,,,
3359.2999999523163,,shortestpath_phase,1591250,GW/jukebox.jpg,,,,50,GW/hat.jpg,GW/barrel.jpg,1,1,,,,GW/barrel.jpg,,,,,One Edge Diff,Five Edge Six Edge
null,,html-keyboard-response,1592264,<p></p>,,,,null,,,,,,,,,,,,,,
2549,,shortestpath_phase,1594816,GW/hat.jpg,,,,50,GW/basket.jpg,GW/teeth.jpg,1,1,,,,GW/teeth.jpg,,,,,Four Edge Diff,Two Edge Six Edge
null,,html-keyboard-response,1595835,<p></p>,,,,null,,,,,,,,,,,,,,
2535.6999999284744,,shortestpath_phase,1598373,GW/dustpan.jpg,,,,50,GW/basket.jpg,GW/barrel.jpg,1,1,,,,GW/barrel.jpg,,,,,One Edge Diff,Two Edge Three Edge
null,,html-keyboard-response,1599381,<p></p>,,,,null,,,,,,,,,,,,,,
2423.899999976158,,shortestpath_phase,1601808,GW/camera.jpg,,,,49,GW/hat.jpg,GW/basket.jpg,0,0.75,,,,GW/basket.jpg,,,,,Two Edge Diff,Two Edge Four Edge
null,,html-keyboard-response,1602817,<p></p>,,,,null,,,,,,,,,,,,,,
2522.7999999523163,,shortestpath_phase,1605342,GW/soldier.jpg,,,,49,GW/globe.jpg,GW/barrel.jpg,0,0.6,,,,GW/barrel.jpg,,,,,One Edge Diff,Two Edge Three Edge
null,,html-keyboard-response,1606355,<p></p>,,,,null,,,,,,,,,,,,,,
2104.2999999523163,,shortestpath_phase,1608462,GW/jukebox.jpg,,,,49,GW/camera.jpg,GW/hat.jpg,1,0.6666666666666666,,,,GW/camera.jpg,,,,,Four Edge Diff,Two Edge Six Edge
null,,html-keyboard-response,1609475,<p></p>,,,,null,,,,,,,,,,,,,,
2420.7999999523163,,shortestpath_phase,1611898,GW/globe.jpg,,,,49,GW/basket.jpg,GW/teeth.jpg,1,0.7142857142857143,,,,GW/basket.jpg,,,,,One Edge Diff,Two Edge Three Edge
null,,html-keyboard-response,1612919,<p></p>,,,,null,,,,,,,,,,,,,,
1951.1000000238419,,shortestpath_phase,1614873,GW/soldier.jpg,,,,50,GW/jukebox.jpg,GW/camera.jpg,1,0.75,,,,GW/camera.jpg,,,,,Two Edge Diff,Two Edge Four Edge
null,,html-keyboard-response,1615892,<p></p>,,,,null,,,,,,,,,,,,,,
1716.7999999523163,,shortestpath_phase,1617611,GW/jukebox.jpg,,,,49,GW/teeth.jpg,GW/snail.jpg,1,0.7777777777777778,,,,GW/teeth.jpg,,,,,One Edge Diff,Four Edge Five Edge
null,,html-keyboard-response,1618621,<p></p>,,,,null,,,,,,,,,,,,,,
2208,,shortestpath_phase,1620831,GW/hat.jpg,,,,49,GW/jukebox.jpg,GW/snail.jpg,0,0.7,,,,GW/snail.jpg,,,,,Four Edge Diff,Two Edge Six Edge
null,,html-keyboard-response,1621844,<p></p>,,,,null,,,,,,,,,,,,,,
1990.2000000476837,,shortestpath_phase,1623837,GW/basket.jpg,,,,50,GW/hat.jpg,GW/teeth.jpg,1,0.7272727272727273,,,,GW/teeth.jpg,,,,,Two Edge Diff,Four Edge Six Edge
null,,html-keyboard-response,1624851,<p></p>,,,,null,,,,,,,,,,,,,,
1605.2000000476837,,shortestpath_phase,1626459,GW/hat.jpg,,,,50,GW/globe.jpg,GW/snail.jpg,1,0.75,,,,GW/snail.jpg,,,,,Three Edge Diff,Two Edge Five Edge
null,,html-keyboard-response,1627465,<p></p>,,,,null,,,,,,,,,,,,,,
1847,,shortestpath_phase,1629315,GW/barrel.jpg,,,,50,GW/dustpan.jpg,GW/globe.jpg,0,0.6923076923076923,,,,GW/dustpan.jpg,,,,,Two Edge Diff,Two Edge Four Edge
null,,html-keyboard-response,1630329,<p></p>,,,,null,,,,,,,,,,,,,,
2743.6999999284744,,shortestpath_phase,1633076,GW/hat.jpg,,,,50,GW/teeth.jpg,GW/jukebox.jpg,0,0.6428571428571429,,,,GW/teeth.jpg,,,,,Four Edge Diff,Two Edge Six Edge
null,,html-keyboard-response,1634085,<p></p>,,,,null,,,,,,,,,,,,,,
2962.600000023842,,shortestpath_phase,1637050,GW/snail.jpg,,,,50,GW/jukebox.jpg,GW/dustpan.jpg,1,0.6666666666666666,,,,GW/dustpan.jpg,,,,,Three Edge Diff,Two Edge Five Edge
null,,html-keyboard-response,1638057,<p></p>,,,,null,,,,,,,,,,,,,,
1730.3999999761581,,shortestpath_phase,1639790,GW/jukebox.jpg,,,,50,GW/barrel.jpg,GW/gong.jpg,1,0.6875,,,,GW/gong.jpg,,,,,Three Edge Diff,Two Edge Five Edge
null,,html-keyboard-response,1640805,<p></p>,,,,null,,,,,,,,,,,,,,
1989.7000000476837,,shortestpath_phase,1642797,GW/paint.jpg,,,,49,GW/camera.jpg,GW/basket.jpg,1,0.7058823529411765,,,,GW/camera.jpg,,,,,One Edge Diff,Four Edge Five Edge
null,,html-keyboard-response,1643811,<p></p>,,,,null,,,,,,,,,,,,,,
1791.2000000476837,,shortestpath_phase,1645605,GW/jukebox.jpg,,,,49,GW/gong.jpg,GW/hat.jpg,1,0.7222222222222222,,,,GW/gong.jpg,,,,,Four Edge Diff,Two Edge Six Edge
null,,html-keyboard-response,1646621,<p></p>,,,,null,,,,,,,,,,,,,,
1985.0999999046326,,shortestpath_phase,1648609,GW/globe.jpg,,,,50,GW/barrel.jpg,GW/soldier.jpg,1,0.7368421052631579,,,,GW/soldier.jpg,,,,,One Edge Diff,Three Edge Four Edge
null,,html-keyboard-response,1649629,<p></p>,,,,null,,,,,,,,,,,,,,
2295.3000000715256,,shortestpath_phase,1651927,GW/jukebox.jpg,,,,50,GW/snail.jpg,GW/camera.jpg,1,0.75,,,,GW/camera.jpg,,,,,Three Edge Diff,Two Edge Five Edge
null,,html-keyboard-response,1652932,<p></p>,,,,null,,,,,,,,,,,,,,
1943.1000000238419,,shortestpath_phase,1654878,GW/basket.jpg,,,,49,GW/barrel.jpg,GW/snail.jpg,0,0.7142857142857143,,,,GW/snail.jpg,,,,,One Edge Diff,Four Edge Five Edge
null,,html-keyboard-response,1655890,<p></p>,,,,null,,,,,,,,,,,,,,
2883.8000000715256,,shortestpath_phase,1658776,GW/hat.jpg,,,,49,GW/gong.jpg,GW/jukebox.jpg,1,0.7272727272727273,,,,GW/gong.jpg,,,,,One Edge Diff,Five Edge Six Edge
null,,html-keyboard-response,1659783,<p></p>,,,,null,,,,,,,,,,,,,,
1679.7999999523163,,shortestpath_phase,1661466,GW/soldier.jpg,,,,50,GW/basket.jpg,GW/teeth.jpg,1,0.7391304347826086,,,,GW/teeth.jpg,,,,,One Edge Diff,Two Edge Three Edge
null,,html-keyboard-response,1662474,<p></p>,,,,null,,,,,,,,,,,,,,
1829.6999999284744,,shortestpath_phase,1664306,GW/paint.jpg,,,,49,GW/hat.jpg,GW/basket.jpg,1,0.75,,,,GW/hat.jpg,,,,,Two Edge Diff,Three Edge Five Edge
null,,html-keyboard-response,1665314,<p></p>,,,,null,,,,,,,,,,,,,,
2442.8000000715256,,shortestpath_phase,1667759,GW/jukebox.jpg,,,,49,GW/teeth.jpg,GW/paint.jpg,1,0.76,,,,GW/teeth.jpg,,,,,Two Edge Diff,Four Edge Six Edge
null,,html-keyboard-response,1668764,<p></p>,,,,null,,,,,,,,,,,,,,
2059.100000023842,,shortestpath_phase,1670826,GW/hat.jpg,,,,50,GW/jukebox.jpg,GW/globe.jpg,1,0.7692307692307693,,,,GW/globe.jpg,,,,,One Edge Diff,Five Edge Six Edge
null,,html-keyboard-response,1671835,<p></p>,,,,null,,,,,,,,,,,,,,
2422,,shortestpath_phase,1674260,GW/teeth.jpg,,,,49,GW/jukebox.jpg,GW/snail.jpg,0,0.7407407407407407,,,,GW/snail.jpg,,,,,Two Edge Diff,Two Edge Four Edge
null,,html-keyboard-response,1675273,<p></p>,,,,null,,,,,,,,,,,,,,
2216.6999999284744,,shortestpath_phase,1677492,GW/camera.jpg,,,,50,GW/jukebox.jpg,GW/snail.jpg,0,0.7142857142857143,,,,GW/jukebox.jpg,,,,,One Edge Diff,Two Edge Three Edge
null,,html-keyboard-response,1678502,<p></p>,,,,null,,,,,,,,,,,,,,
2003,,shortestpath_phase,1680508,GW/paint.jpg,,,,49,GW/barrel.jpg,GW/jukebox.jpg,1,0.7241379310344828,,,,GW/barrel.jpg,,,,,Four Edge Diff,Two Edge Six Edge
null,,html-keyboard-response,1681516,<p></p>,,,,null,,,,,,,,,,,,,,
2508.100000023842,,shortestpath_phase,1684026,GW/globe.jpg,,,,50,GW/dustpan.jpg,GW/teeth.jpg,0,0.7,,,,GW/dustpan.jpg,,,,,One Edge Diff,Two Edge Three Edge
null,,html-keyboard-response,1685040,<p></p>,,,,null,,,,,,,,,,,,,,
1317.6999999284744,,shortestpath_phase,1686361,GW/gong.jpg,,,,50,GW/hat.jpg,GW/barrel.jpg,1,0.7096774193548387,,,,GW/barrel.jpg,,,,,One Edge Diff,Four Edge Five Edge
null,,html-keyboard-response,1687371,<p></p>,,,,null,,,,,,,,,,,,,,
1820.2000000476837,,shortestpath_phase,1689194,GW/soldier.jpg,,,,50,GW/jukebox.jpg,GW/paint.jpg,1,0.71875,,,,GW/paint.jpg,,,,,Two Edge Diff,Two Edge Four Edge
null,,html-keyboard-response,1690199,<p></p>,,,,null,,,,,,,,,,,,,,
1271.3000000715256,,shortestpath_phase,1691473,GW/wheelchair.jpg,,,,50,GW/snail.jpg,GW/teeth.jpg,0,0.696969696969697,,,,GW/snail.jpg,,,,,One Edge Diff,Two Edge Three Edge
null,,html-keyboard-response,1692484,<p></p>,,,,null,,,,,,,,,,,,,,
1614,,shortestpath_phase,1694100,GW/basket.jpg,,,,50,GW/paint.jpg,GW/globe.jpg,1,0.7058823529411765,,,,GW/globe.jpg,,,,,Three Edge Diff,Two Edge Five Edge
null,,html-keyboard-response,1695115,<p></p>,,,,null,,,,,,,,,,,,,,
1698.3999999761581,,shortestpath_phase,1696816,GW/paint.jpg,,,,50,GW/globe.jpg,GW/barrel.jpg,1,0.7142857142857143,,,,GW/barrel.jpg,,,,,Three Edge Diff,Three Edge Six Edge
null,,html-keyboard-response,1697833,<p></p>,,,,null,,,,,,,,,,,,,,
2236.8000000715256,,shortestpath_phase,1700073,GW/basket.jpg,,,,50,GW/barrel.jpg,GW/camera.jpg,1,0.7222222222222222,,,,GW/camera.jpg,,,,,Three Edge Diff,Two Edge Five Edge
null,,html-keyboard-response,1701079,<p></p>,,,,null,,,,,,,,,,,,,,
2533.0999999046326,,shortestpath_phase,1703615,GW/hat.jpg,,,,49,GW/gong.jpg,GW/wheelchair.jpg,0,0.7027027027027027,,,,GW/wheelchair.jpg,,,,,One Edge Diff,Four Edge Five Edge
null,,html-keyboard-response,1704629,<p></p>,,,,null,,,,,,,,,,,,,,
2063.600000023842,,shortestpath_phase,1706696,GW/snail.jpg,,,,50,GW/jukebox.jpg,GW/teeth.jpg,1,0.7105263157894737,,,,GW/teeth.jpg,,,,,Three Edge Diff,Two Edge Five Edge
null,,html-keyboard-response,1707709,<p></p>,,,,null,,,,,,,,,,,,,,
1166.8999999761581,,shortestpath_phase,1708878,GW/hat.jpg,,,,49,GW/gong.jpg,GW/camera.jpg,0,0.6923076923076923,,,,GW/camera.jpg,,,,,One Edge Diff,Four Edge Five Edge
null,,html-keyboard-response,1709884,<p></p>,,,,null,,,,,,,,,,,,,,
1521,,shortestpath_phase,1711408,GW/jukebox.jpg,,,,49,GW/gong.jpg,GW/paint.jpg,1,0.7,,,,GW/gong.jpg,,,,,Four Edge Diff,Two Edge Six Edge
null,,html-keyboard-response,1712413,<p></p>,,,,null,,,,,,,,,,,,,,
2453,,shortestpath_phase,1714869,GW/paint.jpg,,,,49,GW/jukebox.jpg,GW/soldier.jpg,0,0.6829268292682927,,,,GW/soldier.jpg,,,,,Four Edge Diff,Two Edge Six Edge
null,,html-keyboard-response,1715880,<p></p>,,,,null,,,,,,,,,,,,,,
1259.5,,shortestpath_phase,1717142,GW/barrel.jpg,,,,50,GW/basket.jpg,GW/gong.jpg,1,0.6904761904761905,,,,GW/gong.jpg,,,,,One Edge Diff,Four Edge Five Edge
null,,html-keyboard-response,1718151,<p></p>,,,,null,,,,,,,,,,,,,,
2352.5,,shortestpath_phase,1720506,GW/soldier.jpg,,,,49,GW/teeth.jpg,GW/globe.jpg,1,0.6976744186046512,,,,GW/teeth.jpg,,,,,One Edge Diff,Two Edge Three Edge
null,,html-keyboard-response,1721520,<p></p>,,,,null,,,,,,,,,,,,,,
2970.5,,shortestpath_phase,1724494,GW/basket.jpg,,,,49,GW/wheelchair.jpg,GW/hat.jpg,1,0.7045454545454546,,,,GW/wheelchair.jpg,,,,,Four Edge Diff,Two Edge Six Edge
null,,html-keyboard-response,1725502,<p></p>,,,,null,,,,,,,,,,,,,,
1768.1999999284744,,shortestpath_phase,1727272,GW/teeth.jpg,,,,49,GW/basket.jpg,GW/paint.jpg,0,0.6888888888888889,,,,GW/paint.jpg,,,,,One Edge Diff,Three Edge Four Edge
null,,html-keyboard-response,1728282,<p></p>,,,,null,,,,,,,,,,,,,,
1973,,shortestpath_phase,1730257,GW/globe.jpg,,,,49,GW/soldier.jpg,GW/dustpan.jpg,0,0.6739130434782609,,,,GW/dustpan.jpg,,,,,One Edge Diff,Two Edge Three Edge
null,,html-keyboard-response,1731270,<p></p>,,,,null,,,,,,,,,,,,,,
2818.2999999523163,,shortestpath_phase,1734090,GW/snail.jpg,,,,49,GW/gong.jpg,GW/globe.jpg,1,0.6808510638297872,,,,GW/gong.jpg,,,,,One Edge Diff,Three Edge Four Edge
null,,html-keyboard-response,1735103,<p></p>,,,,null,,,,,,,,,,,,,,
2098.600000023842,,shortestpath_phase,1737204,GW/paint.jpg,,,,50,GW/dustpan.jpg,GW/camera.jpg,0,0.6666666666666666,,,,GW/dustpan.jpg,,,,,One Edge Diff,Three Edge Four Edge
null,,html-keyboard-response,1738224,<p></p>,,,,null,,,,,,,,,,,,,,
1846.5,,shortestpath_phase,1740073,GW/hat.jpg,,,,49,GW/teeth.jpg,GW/globe.jpg,1,0.673469387755102,,,,GW/teeth.jpg,,,,,Three Edge Diff,Two Edge Five Edge
null,,html-keyboard-response,1741079,<p></p>,,,,null,,,,,,,,,,,,,,
3115,,shortestpath_phase,1744197,GW/barrel.jpg,,,,49,GW/globe.jpg,GW/jukebox.jpg,1,0.68,,,,GW/globe.jpg,,,,,One Edge Diff,Four Edge Five Edge
null,,html-keyboard-response,1745206,<p></p>,,,,null,,,,,,,,,,,,,,
2863.899999976158,,shortestpath_phase,1748073,GW/hat.jpg,,,,50,GW/wheelchair.jpg,GW/globe.jpg,0,0.6666666666666666,,,,GW/wheelchair.jpg,,,,,One Edge Diff,Four Edge Five Edge
null,,html-keyboard-response,1749085,<p></p>,,,,null,,,,,,,,,,,,,,
1992.8999999761581,,shortestpath_phase,1751080,GW/basket.jpg,,,,50,GW/teeth.jpg,GW/barrel.jpg,0,0.6538461538461539,,,,GW/teeth.jpg,,,,,One Edge Diff,Four Edge Five Edge
null,,html-keyboard-response,1752095,<p></p>,,,,null,,,,,,,,,,,,,,
2384.6999999284744,,shortestpath_phase,1754482,GW/jukebox.jpg,,,,50,GW/dustpan.jpg,GW/snail.jpg,0,0.6415094339622641,,,,GW/dustpan.jpg,,,,,Two Edge Diff,Three Edge Five Edge
null,,html-keyboard-response,1755493,<p></p>,,,,null,,,,,,,,,,,,,,
2103.2999999523163,,shortestpath_phase,1757599,GW/globe.jpg,,,,50,GW/paint.jpg,GW/basket.jpg,1,0.6481481481481481,,,,GW/basket.jpg,,,,,Three Edge Diff,Two Edge Five Edge
null,,html-keyboard-response,1758606,<p></p>,,,,null,,,,,,,,,,,,,,
2060.8000000715256,,shortestpath_phase,1760670,GW/jukebox.jpg,,,,49,GW/hat.jpg,GW/teeth.jpg,0,0.6363636363636364,,,,GW/teeth.jpg,,,,,Two Edge Diff,Four Edge Six Edge
null,,html-keyboard-response,1761680,<p></p>,,,,null,,,,,,,,,,,,,,
2079.6999999284744,,shortestpath_phase,1763762,GW/globe.jpg,,,,49,GW/wheelchair.jpg,GW/snail.jpg,1,0.6428571428571429,,,,GW/wheelchair.jpg,,,,,Two Edge Diff,Two Edge Four Edge
null,,html-keyboard-response,1764768,<p></p>,,,,null,,,,,,,,,,,,,,
3303,,shortestpath_phase,1768074,GW/camera.jpg,,,,49,GW/soldier.jpg,GW/hat.jpg,1,0.6491228070175439,,,,GW/soldier.jpg,,,,,Two Edge Diff,Two Edge Four Edge
null,,html-keyboard-response,1769085,<p></p>,,,,null,,,,,,,,,,,,,,
2019.8999999761581,,shortestpath_phase,1771108,GW/basket.jpg,,,,49,GW/snail.jpg,GW/hat.jpg,1,0.6551724137931034,,,,GW/snail.jpg,,,,,Two Edge Diff,Four Edge Six Edge
null,,html-keyboard-response,1772115,<p></p>,,,,null,,,,,,,,,,,,,,
2295.100000023842,,shortestpath_phase,1774413,GW/gong.jpg,,,,50,GW/paint.jpg,GW/teeth.jpg,1,0.6610169491525424,,,,GW/teeth.jpg,,,,,One Edge Diff,Three Edge Four Edge
null,,html-keyboard-response,1775435,<p></p>,,,,null,,,,,,,,,,,,,,
1618.9000000953674,,shortestpath_phase,1777057,GW/basket.jpg,,,,49,GW/paint.jpg,GW/hat.jpg,1,0.6666666666666666,,,,GW/paint.jpg,,,,,One Edge Diff,Five Edge Six Edge
null,,html-keyboard-response,1778064,<p></p>,,,,null,,,,,,,,,,,,,,
2138.5999999046326,,shortestpath_phase,1780206,GW/teeth.jpg,,,,49,GW/wheelchair.jpg,GW/basket.jpg,1,0.6721311475409836,,,,GW/wheelchair.jpg,,,,,One Edge Diff,Three Edge Four Edge
null,,html-keyboard-response,1781214,<p></p>,,,,null,,,,,,,,,,,,,,
2610.600000023842,,shortestpath_phase,1783828,GW/basket.jpg,,,,50,GW/hat.jpg,GW/globe.jpg,1,0.6774193548387096,,,,GW/globe.jpg,,,,,Four Edge Diff,Two Edge Six Edge
null,,html-keyboard-response,1784833,<p></p>,,,,null,,,,,,,,,,,,,,
2253.100000023842,,shortestpath_phase,1787089,GW/paint.jpg,,,,50,GW/gong.jpg,GW/teeth.jpg,1,0.6825396825396826,,,,GW/teeth.jpg,,,,,One Edge Diff,Three Edge Four Edge
null,,html-keyboard-response,1788102,<p></p>,,,,null,,,,,,,,,,,,,,
3435.3000000715256,,shortestpath_phase,1791540,GW/globe.jpg,,,,49,GW/hat.jpg,GW/dustpan.jpg,0,0.671875,,,,GW/dustpan.jpg,,,,,Three Edge Diff,Three Edge Six Edge
null,,html-keyboard-response,1792556,<p></p>,,,,null,,,,,,,,,,,,,,
1638.3999999761581,,shortestpath_phase,1794197,GW/paint.jpg,,,,50,GW/globe.jpg,GW/soldier.jpg,1,0.676923076923077,,,,GW/soldier.jpg,,,,,Three Edge Diff,Three Edge Six Edge
null,,html-keyboard-response,1795203,<p></p>,,,,null,,,,,,,,,,,,,,
4038.100000023842,,shortestpath_phase,1799244,GW/jukebox.jpg,,,,49,GW/barrel.jpg,GW/paint.jpg,1,0.6818181818181818,,,,GW/barrel.jpg,,,,,One Edge Diff,Five Edge Six Edge
null,,html-keyboard-response,1800262,<p></p>,,,,null,,,,,,,,,,,,,,
2192.0999999046326,,shortestpath_phase,1802457,GW/paint.jpg,,,,49,GW/globe.jpg,GW/dustpan.jpg,0,0.6716417910447762,,,,GW/dustpan.jpg,,,,,Two Edge Diff,Three Edge Five Edge
null,,html-keyboard-response,1803462,<p></p>,,,,null,,,,,,,,,,,,,,
1526.6000000238419,,shortestpath_phase,1804991,GW/jukebox.jpg,,,,49,GW/hat.jpg,GW/snail.jpg,0,0.6617647058823529,,,,GW/snail.jpg,,,,,One Edge Diff,Five Edge Six Edge
null,,html-keyboard-response,1806004,<p></p>,,,,null,,,,,,,,,,,,,,
2924.5,,shortestpath_phase,1808931,GW/paint.jpg,,,,50,GW/gong.jpg,GW/jukebox.jpg,0,0.6521739130434783,,,,GW/gong.jpg,,,,,Two Edge Diff,Four Edge Six Edge
null,,html-keyboard-response,1809938,<p></p>,,,,null,,,,,,,,,,,,,,
3745,,shortestpath_phase,1813686,GW/jukebox.jpg,,,,49,GW/soldier.jpg,GW/camera.jpg,0,0.6428571428571429,,,,GW/camera.jpg,,,,,Two Edge Diff,Two Edge Four Edge
null,,html-keyboard-response,1814695,<p></p>,,,,null,,,,,,,,,,,,,,
3759.7000000476837,,shortestpath_phase,1818458,GW/globe.jpg,,,,50,GW/basket.jpg,GW/hat.jpg,0,0.6338028169014085,,,,GW/basket.jpg,,,,,Three Edge Diff,Three Edge Six Edge
null,,html-keyboard-response,1819464,<p></p>,,,,null,,,,,,,,,,,,,,
3242.399999976158,,shortestpath_phase,1822710,GW/dustpan.jpg,,,,50,GW/paint.jpg,GW/barrel.jpg,1,0.6388888888888888,,,,GW/barrel.jpg,,,,,One Edge Diff,Two Edge Three Edge
null,,html-keyboard-response,1823730,<p></p>,,,,null,,,,,,,,,,,,,,
3516.5999999046326,,shortestpath_phase,1827249,GW/globe.jpg,,,,49,GW/snail.jpg,GW/paint.jpg,1,0.6438356164383562,,,,GW/snail.jpg,,,,,One Edge Diff,Four Edge Five Edge
null,,html-keyboard-response,1828265,<p></p>,,,,null,,,,,,,,,,,,,,
2565.100000023842,,shortestpath_phase,1830832,GW/hat.jpg,,,,49,GW/teeth.jpg,GW/wheelchair.jpg,1,0.6486486486486487,,,,GW/teeth.jpg,,,,,Two Edge Diff,Two Edge Four Edge
null,,html-keyboard-response,1831850,<p></p>,,,,null,,,,,,,,,,,,,,
1937.2000000476837,,shortestpath_phase,1833790,GW/paint.jpg,,,,49,GW/jukebox.jpg,GW/globe.jpg,0,0.64,,,,GW/globe.jpg,,,,,One Edge Diff,Five Edge Six Edge
null,,html-keyboard-response,1834803,<p></p>,,,,null,,,,,,,,,,,,,,
1087.6000000238419,,shortestpath_phase,1835894,GW/jukebox.jpg,,,,50,GW/dustpan.jpg,GW/barrel.jpg,0,0.631578947368421,,,,GW/dustpan.jpg,,,,,Two Edge Diff,Three Edge Five Edge
null,,html-keyboard-response,1836900,<p></p>,,,,null,,,,,,,,,,,,,,
2162.5,,shortestpath_phase,1839066,GW/barrel.jpg,,,,50,GW/basket.jpg,GW/globe.jpg,1,0.6363636363636364,,,,GW/globe.jpg,,,,,One Edge Diff,Four Edge Five Edge
null,,html-keyboard-response,1840085,<p></p>,,,,null,,,,,,,,,,,,,,
1579.2999999523163,,shortestpath_phase,1841667,GW/hat.jpg,,,,49,GW/camera.jpg,GW/jukebox.jpg,1,0.6410256410256411,,,,GW/camera.jpg,,,,,Two Edge Diff,Four Edge Six Edge
null,,html-keyboard-response,1842672,<p></p>,,,,null,,,,,,,,,,,,,,
1854.8000000715256,,shortestpath_phase,1844531,GW/basket.jpg,,,,49,GW/globe.jpg,GW/barrel.jpg,1,0.6455696202531646,,,,GW/globe.jpg,,,,,Three Edge Diff,Two Edge Five Edge
null,,html-keyboard-response,1845538,<p></p>,,,,null,,,,,,,,,,,,,,
2361.2999999523163,,shortestpath_phase,1847902,GW/paint.jpg,,,,49,GW/barrel.jpg,GW/basket.jpg,1,0.65,,,,GW/barrel.jpg,,,,,Three Edge Diff,Two Edge Five Edge
null,,html-keyboard-response,1848914,<p></p>,,,,null,,,,,,,,,,,,,,
1724.0999999046326,,shortestpath_phase,1850641,GW/hat.jpg,,,,49,GW/globe.jpg,GW/basket.jpg,1,0.654320987654321,,,,GW/globe.jpg,,,,,One Edge Diff,Five Edge Six Edge
null,,html-keyboard-response,1851652,<p></p>,,,,null,,,,,,,,,,,,,,
2018.5,,shortestpath_phase,1853674,GW/paint.jpg,,,,50,GW/basket.jpg,GW/barrel.jpg,1,0.6585365853658537,,,,GW/barrel.jpg,,,,,Three Edge Diff,Three Edge Six Edge
null,,html-keyboard-response,1854679,<p></p>,,,,null,,,,,,,,,,,,,,
2210.100000023842,,shortestpath_phase,1856892,GW/globe.jpg,,,,49,GW/soldier.jpg,GW/hat.jpg,1,0.6626506024096386,,,,GW/soldier.jpg,,,,,Two Edge Diff,Three Edge Five Edge
null,,html-keyboard-response,1857905,<p></p>,,,,null,,,,,,,,,,,,,,
2104,,shortestpath_phase,1860012,GW/jukebox.jpg,,,,50,GW/camera.jpg,GW/snail.jpg,0,0.6547619047619048,,,,GW/camera.jpg,,,,,Three Edge Diff,Three Edge Six Edge
null,,html-keyboard-response,1861025,<p></p>,,,,null,,,,,,,,,,,,,,
2569.7000000476837,,shortestpath_phase,1863597,GW/barrel.jpg,,,,49,GW/gong.jpg,GW/wheelchair.jpg,0,0.6470588235294118,,,,GW/wheelchair.jpg,,,,,One Edge Diff,Three Edge Four Edge
null,,html-keyboard-response,1864615,<p></p>,,,,null,,,,,,,,,,,,,,
2652.100000023842,,shortestpath_phase,1867269,GW/gong.jpg,,,,49,GW/jukebox.jpg,GW/hat.jpg,1,0.6511627906976745,,,,GW/jukebox.jpg,,,,,Three Edge Diff,Three Edge Six Edge
null,,html-keyboard-response,1868284,<p></p>,,,,null,,,,,,,,,,,,,,
3572.2999999523163,,shortestpath_phase,1871859,GW/hat.jpg,,,,49,GW/jukebox.jpg,GW/wheelchair.jpg,0,0.6436781609195402,,,,GW/wheelchair.jpg,,,,,Two Edge Diff,Four Edge Six Edge
null,,html-keyboard-response,1872871,<p></p>,,,,null,,,,,,,,,,,,,,
1649.7000000476837,,shortestpath_phase,1874524,GW/barrel.jpg,,,,50,GW/basket.jpg,GW/paint.jpg,1,0.6477272727272727,,,,GW/paint.jpg,,,,,Three Edge Diff,Two Edge Five Edge
null,,html-keyboard-response,1875535,<p></p>,,,,null,,,,,,,,,,,,,,
1348.8999999761581,,shortestpath_phase,1876886,GW/jukebox.jpg,,,,49,GW/soldier.jpg,GW/paint.jpg,1,0.651685393258427,,,,GW/soldier.jpg,,,,,Two Edge Diff,Four Edge Six Edge
null,,html-keyboard-response,1877893,<p></p>,,,,null,,,,,,,,,,,,,,
1137.2000000476837,,shortestpath_phase,1879032,GW/paint.jpg,,,,50,GW/wheelchair.jpg,GW/barrel.jpg,1,0.6555555555555556,,,,GW/barrel.jpg,,,,,One Edge Diff,Two Edge Three Edge
null,,html-keyboard-response,1880045,<p></p>,,,,null,,,,,,,,,,,,,,
1395.1999999284744,,shortestpath_phase,1881443,GW/hat.jpg,,,,50,GW/basket.jpg,GW/camera.jpg,1,0.6593406593406593,,,,GW/camera.jpg,,,,,Two Edge Diff,Four Edge Six Edge
null,,html-keyboard-response,1882452,<p></p>,,,,null,,,,,,,,,,,,,,
2337.100000023842,,shortestpath_phase,1884792,GW/teeth.jpg,,,,50,GW/jukebox.jpg,GW/gong.jpg,1,0.6630434782608695,,,,GW/gong.jpg,,,,,One Edge Diff,Three Edge Four Edge
null,,html-keyboard-response,1885800,<p></p>,,,,null,,,,,,,,,,,,,,
1680.7000000476837,,shortestpath_phase,1887484,GW/barrel.jpg,,,,49,GW/camera.jpg,GW/basket.jpg,1,0.6666666666666666,,,,GW/camera.jpg,,,,,Two Edge Diff,Three Edge Five Edge
null,,html-keyboard-response,1888491,<p></p>,,,,null,,,,,,,,,,,,,,
1540.7000000476837,,shortestpath_phase,1890034,GW/hat.jpg,,,,50,GW/basket.jpg,GW/gong.jpg,1,0.6702127659574468,,,,GW/gong.jpg,,,,,One Edge Diff,Five Edge Six Edge
null,,html-keyboard-response,1891047,<p></p>,,,,null,,,,,,,,,,,,,,
2170.399999976158,,shortestpath_phase,1893221,GW/teeth.jpg,,,,49,GW/camera.jpg,GW/jukebox.jpg,1,0.6736842105263158,,,,GW/camera.jpg,,,,,Two Edge Diff,Two Edge Four Edge
null,,html-keyboard-response,1894234,<p></p>,,,,null,,,,,,,,,,,,,,
2072.600000023842,,shortestpath_phase,1896310,GW/basket.jpg,,,,49,GW/teeth.jpg,GW/dustpan.jpg,0,0.6666666666666666,,,,GW/dustpan.jpg,,,,,One Edge Diff,Three Edge Four Edge
null,,html-keyboard-response,1897325,<p></p>,,,,null,,,,,,,,,,,,,,
1660.5,,shortestpath_phase,1898988,GW/barrel.jpg,,,,49,GW/soldier.jpg,GW/globe.jpg,1,0.6701030927835051,,,,GW/soldier.jpg,,,,,Two Edge Diff,Two Edge Four Edge
null,,html-keyboard-response,1899998,<p></p>,,,,null,,,,,,,,,,,,,,
2026.8000000715256,,shortestpath_phase,1902028,GW/snail.jpg,,,,50,GW/jukebox.jpg,GW/camera.jpg,1,0.673469387755102,,,,GW/camera.jpg,,,,,Two Edge Diff,Three Edge Five Edge
null,,html-keyboard-response,1903041,<p></p>,,,,null,,,,,,,,,,,,,,
2602.1999999284744,,shortestpath_phase,1905646,GW/barrel.jpg,,,,49,GW/wheelchair.jpg,GW/jukebox.jpg,1,0.6767676767676768,,,,GW/wheelchair.jpg,,,,,Two Edge Diff,Three Edge Five Edge
null,,html-keyboard-response,1906655,<p></p>,,,,null,,,,,,,,,,,,,,
1951.6000000238419,,shortestpath_phase,1908610,GW/hat.jpg,,,,49,GW/camera.jpg,GW/snail.jpg,0,0.67,,,,GW/snail.jpg,,,,,Two Edge Diff,Two Edge Four Edge
null,,html-keyboard-response,1909628,<p></p>,,,,null,,,,,,,,,,,,,,
2325.2000000476837,,shortestpath_phase,1911956,GW/paint.jpg,,,,50,GW/camera.jpg,GW/jukebox.jpg,0,0.6633663366336634,,,,GW/camera.jpg,,,,,Two Edge Diff,Four Edge Six Edge
null,,html-keyboard-response,1912964,<p></p>,,,,null,,,,,,,,,,,,,,
1634.5,,shortestpath_phase,1914601,GW/snail.jpg,,,,49,GW/jukebox.jpg,GW/wheelchair.jpg,0,0.6568627450980392,,,,GW/wheelchair.jpg,,,,,Three Edge Diff,Three Edge Six Edge
null,,html-keyboard-response,1915607,<p></p>,,,,null,,,,,,,,,,,,,,
1684.5,,shortestpath_phase,1917294,GW/basket.jpg,,,,49,GW/hat.jpg,GW/barrel.jpg,0,0.6504854368932039,,,,GW/barrel.jpg,,,,,One Edge Diff,Five Edge Six Edge
null,,html-keyboard-response,1918303,<p></p>,,,,null,,,,,,,,,,,,,,
1296.5,,shortestpath_phase,1919603,GW/jukebox.jpg,,,,50,GW/paint.jpg,GW/snail.jpg,1,0.6538461538461539,,,,GW/snail.jpg,,,,,One Edge Diff,Five Edge Six Edge
null,,html-keyboard-response,1920610,<p></p>,,,,null,,,,,,,,,,,,,,
2284.399999976158,,shortestpath_phase,1922897,GW/basket.jpg,,,,49,GW/wheelchair.jpg,GW/barrel.jpg,1,0.6571428571428571,,,,GW/wheelchair.jpg,,,,,Three Edge Diff,Three Edge Six Edge
null,,html-keyboard-response,1923908,<p></p>,,,,null,,,,,,,,,,,,,,
2475.7000000476837,,shortestpath_phase,1926386,GW/hat.jpg,,,,50,GW/basket.jpg,GW/snail.jpg,1,0.660377358490566,,,,GW/snail.jpg,,,,,Four Edge Diff,Two Edge Six Edge
null,,html-keyboard-response,1927395,<p></p>,,,,null,,,,,,,,,,,,,,
2122.1999999284744,,shortestpath_phase,1929520,GW/basket.jpg,,,,49,GW/teeth.jpg,GW/soldier.jpg,0,0.6542056074766355,,,,GW/soldier.jpg,,,,,One Edge Diff,Three Edge Four Edge
null,,html-keyboard-response,1930531,<p></p>,,,,null,,,,,,,,,,,,,,
2292.899999976158,,shortestpath_phase,1932827,GW/hat.jpg,,,,49,GW/basket.jpg,GW/wheelchair.jpg,0,0.6481481481481481,,,,GW/wheelchair.jpg,,,,,Two Edge Diff,Four Edge Six Edge
null,,html-keyboard-response,1933835,<p></p>,,,,null,,,,,,,,,,,,,,
2793.100000023842,,shortestpath_phase,1936631,GW/paint.jpg,,,,49,GW/basket.jpg,GW/jukebox.jpg,1,0.6513761467889908,,,,GW/basket.jpg,,,,,One Edge Diff,Five Edge Six Edge
null,,html-keyboard-response,1937643,<p></p>,,,,null,,,,,,,,,,,,,,
2362.100000023842,,shortestpath_phase,1940008,GW/jukebox.jpg,,,,49,GW/soldier.jpg,GW/hat.jpg,1,0.6545454545454545,,,,GW/soldier.jpg,,,,,Two Edge Diff,Four Edge Six Edge
null,,html-keyboard-response,1941025,<p></p>,,,,null,,,,,,,,,,,,,,
2760.6999999284744,,shortestpath_phase,1943788,GW/basket.jpg,,,,50,GW/camera.jpg,GW/hat.jpg,0,0.6486486486486487,,,,GW/camera.jpg,,,,,Four Edge Diff,Two Edge Six Edge
null,,html-keyboard-response,1944798,<p></p>,,,,null,,,,,,,,,,,,,,
2552,,shortestpath_phase,1947353,GW/hat.jpg,,,,49,GW/paint.jpg,GW/gong.jpg,1,0.6517857142857143,,,,GW/paint.jpg,,,,,Two Edge Diff,Three Edge Five Edge
null,,html-keyboard-response,1948371,<p></p>,,,,null,,,,,,,,,,,,,,
2844.2999999523163,,shortestpath_phase,1951218,GW/jukebox.jpg,,,,49,GW/paint.jpg,GW/camera.jpg,0,0.6460176991150443,,,,GW/camera.jpg,,,,,Four Edge Diff,Two Edge Six Edge
null,,html-keyboard-response,1952225,<p></p>,,,,null,,,,,,,,,,,,,,
3391.5999999046326,,shortestpath_phase,1955620,GW/paint.jpg,,,,49,GW/hat.jpg,GW/globe.jpg,1,0.6491228070175439,,,,GW/hat.jpg,,,,,Two Edge Diff,Three Edge Five Edge
null,,html-keyboard-response,1956625,<p></p>,,,,null,,,,,,,,,,,,,,
2777.100000023842,,shortestpath_phase,1959405,GW/basket.jpg,,,,50,GW/barrel.jpg,GW/camera.jpg,1,0.6521739130434783,,,,GW/camera.jpg,,,,,Three Edge Diff,Three Edge Six Edge
null,,html-keyboard-response,1960416,<p></p>,,,,null,,,,,,,,,,,,,,
2669.7000000476837,,shortestpath_phase,1963088,GW/gong.jpg,,,,49,GW/snail.jpg,GW/hat.jpg,1,0.6551724137931034,,,,GW/snail.jpg,,,,,Two Edge Diff,Three Edge Five Edge
null,,html-keyboard-response,1964094,<p></p>,,,,null,,,,,,,,,,,,,,
3118.600000023842,,shortestpath_phase,1967216,GW/soldier.jpg,,,,49,GW/jukebox.jpg,GW/hat.jpg,0,0.6495726495726496,,,,GW/hat.jpg,,,,,One Edge Diff,Three Edge Four Edge
null,,html-keyboard-response,1968230,<p></p>,,,,null,,,,,,,,,,,,,,
3394.6999999284744,,shortestpath_phase,1971627,GW/snail.jpg,,,,49,GW/jukebox.jpg,GW/gong.jpg,0,0.6440677966101694,,,,GW/gong.jpg,,,,,Two Edge Diff,Three Edge Five Edge
null,,html-keyboard-response,1972645,<p></p>,,,,null,,,,,,,,,,,,,,
1841.3999999761581,,shortestpath_phase,1974490,GW/soldier.jpg,,,,50,GW/hat.jpg,GW/teeth.jpg,1,0.6470588235294118,,,,GW/teeth.jpg,,,,,One Edge Diff,Two Edge Three Edge
null,,html-keyboard-response,1975505,<p></p>,,,,null,,,,,,,,,,,,,,
2369.600000023842,,shortestpath_phase,1977878,GW/hat.jpg,,,,49,GW/snail.jpg,GW/gong.jpg,1,0.65,,,,GW/snail.jpg,,,,,Three Edge Diff,Three Edge Six Edge
null,,html-keyboard-response,1978885,<p></p>,,,,null,,,,,,,,,,,,,,
1778.3000000715256,,shortestpath_phase,1980667,GW/jukebox.jpg,,,,49,GW/gong.jpg,GW/snail.jpg,1,0.6528925619834711,,,,GW/gong.jpg,,,,,Three Edge Diff,Three Edge Six Edge
null,,html-keyboard-response,1981676,<p></p>,,,,null,,,,,,,,,,,,,,
108149.39999997616,,intro_1,2089829,instruct,,0,,,,,,,,,,,,,,,,
66721.60000002384,,intro_2,2156555,instruct,,1,Next,,,,,,,,,,,,,,,
13783.900000095367,,intro_3,2170342,instruct,,1,Next,,,,,,,,,,,,,,,
