rt,responses,trial_type,time_elapsed,stimulus,graphorder,button_pressed,response,key_press,stimulus_left,stimulus_right,accuracy,cumulative_accuracy,stimulus_down_left,stimulus_down_mid,stimulus_down_right,stimulus_correct,stimulus_short,stimulus_far,weighted_accuracy,missedtrial,condition,specific_pairs
29244.30000001192,{worker_id:66b2c7262f4631f5eea8e729},id_enter,29250,id_enter,GW/jukebox.jpg; GW/teeth.jpg; GW/camera.jpg; GW/basket.jpg; GW/dustpan.jpg; GW/barrel.jpg; GW/hat.jpg; GW/globe.jpg; GW/snail.jpg; GW/wheelchair.jpg; GW/paint.jpg; GW/soldier.jpg; GW/gong.jpg,,,,,,,,,,,,,,,,,
32906,,fullscreen,62166,fullscreen,,0,,,,,,,,,,,,,,,,
12197.200000047684,,intro_1,74370,instruct,,0,,,,,,,,,,,,,,,,
12618.5,,intro_2,86996,instruct,,1,Next,,,,,,,,,,,,,,,
10347.799999952316,,intro_3,97347,instruct,,1,Next,,,,,,,,,,,,,,,
null,,learn_prac_1,99352,lean_prac_1,,,,null,,,,,,,,,,,,,,
null,,html-keyboard-response,100358,<p></p>,,,,null,,,,,,,,,,,,,,
4371.900000035763,,intro_1,104732,instruct,,0,,,,,,,,,,,,,,,,
6932.5,,intro_2,111667,instruct,,1,Next,,,,,,,,,,,,,,,
null,,learn_prac_2,113684,lean_prac_2,,,,null,,,,,,,,,,,,,,
null,,html-keyboard-response,114689,<p></p>,,,,null,,,,,,,,,,,,,,
1583.800000011921,,intro_1,116276,instruct,,0,,,,,,,,,,,,,,,,
5517.899999976158,,intro_2,121796,instruct,,1,Next,,,,,,,,,,,,,,,
31547.30000001192,,intro_3,153348,instruct,,1,Next,,,,,,,,,,,,,,,
null,,prac_atten_color_black,154196,black_plus_sign,,,,null,,,,,,,,,,,,,,
null,,prac_atten_color,154757,prac_stop_color,,,,null,,,,,,,,,,,,,,
243.69999998807907,,prac_atten_color_black,156761,black_plus_sign,,,,49,,,,,,,,,,,,,,
null,,prac_atten_color_black,157612,black_plus_sign,,,,null,,,,,,,,,,,,,,
699.3999999761581,,prac_atten_color,158439,prac_stop_color,,,,50,,,,,,,,,,,,,,
null,,prac_atten_color_black,160442,black_plus_sign,,,,null,,,,,,,,,,,,,,
null,,prac_atten_color_black,161025,black_plus_sign,,,,null,,,,,,,,,,,,,,
668.9000000357628,,prac_atten_color,161844,prac_stop_color,,,,50,,,,,,,,,,,,,,
null,,prac_atten_color_black,163847,black_plus_sign,,,,null,,,,,,,,,,,,,,
null,,prac_atten_color_black,164445,black_plus_sign,,,,null,,,,,,,,,,,,,,
545.8999999761581,,prac_atten_color,165476,prac_stop_color,,,,49,,,,,,,,,,,,,,
null,,prac_atten_color_black,167478,black_plus_sign,,,,null,,,,,,,,,,,,,,
null,,prac_atten_color_black,167855,black_plus_sign,,,,null,,,,,,,,,,,,,,
533.0999999642372,,prac_atten_color,168675,prac_stop_color,,,,50,,,,,,,,,,,,,,
null,,prac_atten_color_black,170678,black_plus_sign,,,,null,,,,,,,,,,,,,,
null,,prac_atten_color_black,171278,black_plus_sign,,,,null,,,,,,,,,,,,,,
704.3999999761581,,prac_atten_color,172344,prac_stop_color,,,,50,,,,,,,,,,,,,,
null,,prac_atten_color_black,174347,black_plus_sign,,,,null,,,,,,,,,,,,,,
null,,prac_atten_color_black,174695,black_plus_sign,,,,null,,,,,,,,,,,,,,
null,,prac_atten_color,175173,prac_stop_color,,,,null,,,,,,,,,,,,,,
233.5,,prac_atten_color_black,177177,black_plus_sign,,,,49,,,,,,,,,,,,,,
null,,prac_atten_color_black,178109,black_plus_sign,,,,null,,,,,,,,,,,,,,
null,,prac_atten_color,178614,prac_stop_color,,,,null,,,,,,,,,,,,,,
117.19999998807907,,prac_atten_color_black,180617,black_plus_sign,,,,50,,,,,,,,,,,,,,
null,,prac_atten_color_black,181522,black_plus_sign,,,,null,,,,,,,,,,,,,,
495.39999997615814,,prac_atten_color,182429,prac_stop_color,,,,49,,,,,,,,,,,,,,
null,,prac_atten_color_black,184432,black_plus_sign,,,,null,,,,,,,,,,,,,,
null,,prac_atten_color_black,184946,black_plus_sign,,,,null,,,,,,,,,,,,,,
594.8000000119209,,prac_atten_color,185564,prac_stop_color,,,,49,,,,,,,,,,,,,,
null,,prac_atten_color_black,187567,black_plus_sign,,,,null,,,,,,,,,,,,,,
7502.399999976158,,attentioncheck_feedback,195074,cross_check_feedback,,0,,,,,,,,,,,,,,,,
35167.10000002384,,last_instruct,230244,instruct,,,,32,,,,,,,,,,,,,,
null,,learn_phase(without_color),232248,black_plus_sign,,,,null,GW/basket.jpg,GW/dustpan.jpg,,,,,,,,,,,,
null,,black_cross(without_color),232986,blue,,,,null,GW/basket.jpg,GW/dustpan.jpg,,,,,,,,,,,,
null,,rt_plussign_withcolor,233488,blue,,,,null,GW/basket.jpg,GW/dustpan.jpg,,,,,,,,,,,,
922.5,,rt_thecrossant_black,234759,black_plus_sign,,,,49,,,1,1,,,,,,,,,,
null,,color_black,234867,black_plus_sign,,,,null,,,,,,,,,,,,,,
null,,learn_phase(without_color),236875,black_plus_sign,,,,null,GW/camera.jpg,GW/barrel.jpg,,,,,,,,,,,,
null,,black_cross(without_color),237902,blue,,,,null,GW/camera.jpg,GW/barrel.jpg,,,,,,,,,,,,
null,,rt_plussign_withcolor,238410,blue,,,,null,GW/camera.jpg,GW/barrel.jpg,,,,,,,,,,,,
1256.199999988079,,rt_thecrossant_black,239392,black_plus_sign,,,,49,,,1,1,,,,,,,,,,
null,,color_black,239496,black_plus_sign,,,,null,,,,,,,,,,,,,,
null,,learn_phase(without_color),241501,black_plus_sign,,,,null,GW/hat.jpg,GW/gong.jpg,,,,,,,,,,,,
null,,black_cross(without_color),241949,green,,,,null,GW/hat.jpg,GW/gong.jpg,,,,,,,,,,,,
null,,rt_plussign_withcolor,242461,green,,,,null,GW/hat.jpg,GW/gong.jpg,,,,,,,,,,,,
1282.800000011921,,rt_thecrossant_black,244020,black_plus_sign,,,,50,,,1,1,,,,,,,,,,
null,,color_black,244125,black_plus_sign,,,,null,,,,,,,,,,,,,,
null,,learn_phase(without_color),246131,black_plus_sign,,,,null,GW/teeth.jpg,GW/basket.jpg,,,,,,,,,,,,
null,,black_cross(without_color),246557,blue,,,,null,GW/teeth.jpg,GW/basket.jpg,,,,,,,,,,,,
null,,rt_plussign_withcolor,247059,blue,,,,null,GW/teeth.jpg,GW/basket.jpg,,,,,,,,,,,,
624.3000000119209,,rt_thecrossant_black,248640,black_plus_sign,,,,49,,,1,1,,,,,,,,,,
null,,color_black,248744,black_plus_sign,,,,null,,,,,,,,,,,,,,
null,,learn_phase(without_color),250750,black_plus_sign,,,,null,GW/camera.jpg,GW/barrel.jpg,,,,,,,,,,,,
null,,black_cross(without_color),251477,green,,,,null,GW/camera.jpg,GW/barrel.jpg,,,,,,,,,,,,
null,,rt_plussign_withcolor,251980,green,,,,null,GW/camera.jpg,GW/barrel.jpg,,,,,,,,,,,,
618.2999999523163,,rt_thecrossant_black,253265,black_plus_sign,,,,50,,,1,1,,,,,,,,,,
null,,color_black,253370,black_plus_sign,,,,null,,,,,,,,,,,,,,
null,,learn_phase(without_color),255385,black_plus_sign,,,,null,GW/barrel.jpg,GW/snail.jpg,,,,,,,,,,,,
null,,black_cross(without_color),256106,green,,,,null,GW/barrel.jpg,GW/snail.jpg,,,,,,,,,,,,
null,,rt_plussign_withcolor,256608,green,,,,null,GW/barrel.jpg,GW/snail.jpg,,,,,,,,,,,,
892.8999999761581,,rt_thecrossant_black,257891,black_plus_sign,,,,50,,,1,1,,,,,,,,,,
null,,color_black,257996,black_plus_sign,,,,null,,,,,,,,,,,,,,
null,,learn_phase(without_color),259998,black_plus_sign,,,,null,GW/barrel.jpg,GW/hat.jpg,,,,,,,,,,,,
null,,black_cross(without_color),260772,green,,,,null,GW/barrel.jpg,GW/hat.jpg,,,,,,,,,,,,
null,,rt_plussign_withcolor,261275,green,,,,null,GW/barrel.jpg,GW/hat.jpg,,,,,,,,,,,,
952.1000000238419,,rt_thecrossant_black,262509,black_plus_sign,,,,50,,,1,1,,,,,,,,,,
null,,color_black,262616,black_plus_sign,,,,null,,,,,,,,,,,,,,
null,,learn_phase(without_color),264620,black_plus_sign,,,,null,GW/camera.jpg,GW/barrel.jpg,,,,,,,,,,,,
null,,black_cross(without_color),265714,blue,,,,null,GW/camera.jpg,GW/barrel.jpg,,,,,,,,,,,,
null,,rt_plussign_withcolor,266217,blue,,,,null,GW/camera.jpg,GW/barrel.jpg,,,,,,,,,,,,
999.8000000119209,,rt_thecrossant_black,267132,black_plus_sign,,,,49,,,1,1,,,,,,,,,,
null,,color_black,267236,black_plus_sign,,,,null,,,,,,,,,,,,,,
null,,learn_phase(without_color),269241,black_plus_sign,,,,null,GW/paint.jpg,GW/soldier.jpg,,,,,,,,,,,,
null,,black_cross(without_color),270064,green,,,,null,GW/paint.jpg,GW/soldier.jpg,,,,,,,,,,,,
null,,rt_plussign_withcolor,270567,green,,,,null,GW/paint.jpg,GW/soldier.jpg,,,,,,,,,,,,
1313.2999999523163,,rt_thecrossant_black,271754,black_plus_sign,,,,50,,,1,1,,,,,,,,,,
null,,color_black,271858,black_plus_sign,,,,null,,,,,,,,,,,,,,
null,,learn_phase(without_color),273864,black_plus_sign,,,,null,GW/basket.jpg,GW/dustpan.jpg,,,,,,,,,,,,
null,,black_cross(without_color),274738,green,,,,null,GW/basket.jpg,GW/dustpan.jpg,,,,,,,,,,,,
null,,rt_plussign_withcolor,275241,green,,,,null,GW/basket.jpg,GW/dustpan.jpg,,,,,,,,,,,,
1089.199999988079,,rt_thecrossant_black,276378,black_plus_sign,,,,50,,,1,1,,,,,,,,,,
null,,color_black,276485,black_plus_sign,,,,null,,,,,,,,,,,,,,
null,,learn_phase(without_color),278495,black_plus_sign,,,,null,GW/hat.jpg,GW/globe.jpg,,,,,,,,,,,,
null,,black_cross(without_color),279330,blue,,,,null,GW/hat.jpg,GW/globe.jpg,,,,,,,,,,,,
null,,rt_plussign_withcolor,279833,blue,,,,null,GW/hat.jpg,GW/globe.jpg,,,,,,,,,,,,
1123.6000000238419,,rt_thecrossant_black,281017,black_plus_sign,,,,49,,,1,1,,,,,,,,,,
null,,color_black,281122,black_plus_sign,,,,null,,,,,,,,,,,,,,
null,,learn_phase(without_color),283126,black_plus_sign,,,,null,GW/barrel.jpg,GW/snail.jpg,,,,,,,,,,,,
null,,black_cross(without_color),284199,blue,,,,null,GW/barrel.jpg,GW/snail.jpg,,,,,,,,,,,,
null,,rt_plussign_withcolor,284702,blue,,,,null,GW/barrel.jpg,GW/snail.jpg,,,,,,,,,,,,
929.6000000238419,,rt_thecrossant_black,285650,black_plus_sign,,,,49,,,1,1,,,,,,,,,,
null,,color_black,285755,black_plus_sign,,,,null,,,,,,,,,,,,,,
null,,learn_phase(without_color),287762,black_plus_sign,,,,null,GW/teeth.jpg,GW/basket.jpg,,,,,,,,,,,,
null,,black_cross(without_color),288532,green,,,,null,GW/teeth.jpg,GW/basket.jpg,,,,,,,,,,,,
null,,rt_plussign_withcolor,289034,green,,,,null,GW/teeth.jpg,GW/basket.jpg,,,,,,,,,,,,
1228.6000000238419,,rt_thecrossant_black,290273,black_plus_sign,,,,50,,,1,1,,,,,,,,,,
null,,color_black,290378,black_plus_sign,,,,null,,,,,,,,,,,,,,
null,,learn_phase(without_color),292382,black_plus_sign,,,,null,GW/barrel.jpg,GW/hat.jpg,,,,,,,,,,,,
null,,black_cross(without_color),293161,green,,,,null,GW/barrel.jpg,GW/hat.jpg,,,,,,,,,,,,
null,,rt_plussign_withcolor,293664,green,,,,null,GW/barrel.jpg,GW/hat.jpg,,,,,,,,,,,,
954.6000000238419,,rt_thecrossant_black,294893,black_plus_sign,,,,49,,,0,0.9285714285714286,,,,,,,,,,
null,,color_black,294998,black_plus_sign,,,,null,,,,,,,,,,,,,,
null,,learn_phase(without_color),297002,black_plus_sign,,,,null,GW/hat.jpg,GW/globe.jpg,,,,,,,,,,,,
null,,black_cross(without_color),297789,blue,,,,null,GW/hat.jpg,GW/globe.jpg,,,,,,,,,,,,
null,,rt_plussign_withcolor,298292,blue,,,,null,GW/hat.jpg,GW/globe.jpg,,,,,,,,,,,,
1012.1999999880791,,rt_thecrossant_black,299511,black_plus_sign,,,,49,,,1,0.9333333333333333,,,,,,,,,,
null,,color_black,299616,black_plus_sign,,,,null,,,,,,,,,,,,,,
null,,learn_phase(without_color),301618,black_plus_sign,,,,null,GW/basket.jpg,GW/soldier.jpg,,,,,,,,,,,,
null,,black_cross(without_color),302094,blue,,,,null,GW/basket.jpg,GW/soldier.jpg,,,,,,,,,,,,
null,,rt_plussign_withcolor,302612,blue,,,,null,GW/basket.jpg,GW/soldier.jpg,,,,,,,,,,,,
1181.8999999761581,,rt_thecrossant_black,304145,black_plus_sign,,,,49,,,1,0.9375,,,,,,,,,,
null,,color_black,304249,black_plus_sign,,,,null,,,,,,,,,,,,,,
null,,learn_phase(without_color),306255,black_plus_sign,,,,null,GW/camera.jpg,GW/barrel.jpg,,,,,,,,,,,,
null,,black_cross(without_color),307343,blue,,,,null,GW/camera.jpg,GW/barrel.jpg,,,,,,,,,,,,
null,,rt_plussign_withcolor,307845,blue,,,,null,GW/camera.jpg,GW/barrel.jpg,,,,,,,,,,,,
673.8999999761581,,rt_thecrossant_black,308766,black_plus_sign,,,,49,,,1,0.9411764705882353,,,,,,,,,,
null,,color_black,308869,black_plus_sign,,,,null,,,,,,,,,,,,,,
null,,learn_phase(without_color),310875,black_plus_sign,,,,null,GW/snail.jpg,GW/paint.jpg,,,,,,,,,,,,
null,,black_cross(without_color),311782,green,,,,null,GW/snail.jpg,GW/paint.jpg,,,,,,,,,,,,
468.80000001192093,,rt_plussign_withcolor,312285,green,,,,50,GW/snail.jpg,GW/paint.jpg,,,,,,,,,,,,
null,,rt_thecrossant_black,313385,black_plus_sign,,,,null,,,1,0.9444444444444444,,,,,,,,,,
null,,color_black,313489,black_plus_sign,,,,null,,,,,,,,,,,,,,
null,,learn_phase(without_color),315495,black_plus_sign,,,,null,GW/camera.jpg,GW/barrel.jpg,,,,,,,,,,,,
null,,black_cross(without_color),316048,green,,,,null,GW/camera.jpg,GW/barrel.jpg,,,,,,,,,,,,
null,,rt_plussign_withcolor,316548,green,,,,null,GW/camera.jpg,GW/barrel.jpg,,,,,,,,,,,,
1413.5,,rt_thecrossant_black,318000,black_plus_sign,,,,50,,,1,0.9473684210526315,,,,,,,,,,
null,,color_black,318104,black_plus_sign,,,,null,,,,,,,,,,,,,,
null,,learn_phase(without_color),320119,black_plus_sign,,,,null,GW/basket.jpg,GW/soldier.jpg,,,,,,,,,,,,
null,,black_cross(without_color),321032,blue,,,,null,GW/basket.jpg,GW/soldier.jpg,,,,,,,,,,,,
null,,rt_plussign_withcolor,321535,blue,,,,null,GW/basket.jpg,GW/soldier.jpg,,,,,,,,,,,,
860.8000000119209,,rt_thecrossant_black,322627,black_plus_sign,,,,49,,,1,0.95,,,,,,,,,,
null,,color_black,322729,black_plus_sign,,,,null,,,,,,,,,,,,,,
null,,learn_phase(without_color),324734,black_plus_sign,,,,null,GW/hat.jpg,GW/gong.jpg,,,,,,,,,,,,
null,,black_cross(without_color),325703,blue,,,,null,GW/hat.jpg,GW/gong.jpg,,,,,,,,,,,,
null,,rt_plussign_withcolor,326207,blue,,,,null,GW/hat.jpg,GW/gong.jpg,,,,,,,,,,,,
1010.8000000119209,,rt_thecrossant_black,327246,black_plus_sign,,,,49,,,1,0.9523809523809523,,,,,,,,,,
null,,color_black,327351,black_plus_sign,,,,null,,,,,,,,,,,,,,
null,,learn_phase(without_color),329356,black_plus_sign,,,,null,GW/snail.jpg,GW/paint.jpg,,,,,,,,,,,,
null,,black_cross(without_color),330237,blue,,,,null,GW/snail.jpg,GW/paint.jpg,,,,,,,,,,,,
null,,rt_plussign_withcolor,330740,blue,,,,null,GW/snail.jpg,GW/paint.jpg,,,,,,,,,,,,
1068.4000000357628,,rt_thecrossant_black,331868,black_plus_sign,,,,49,,,1,0.9545454545454546,,,,,,,,,,
null,,color_black,331972,black_plus_sign,,,,null,,,,,,,,,,,,,,
null,,learn_phase(without_color),333977,black_plus_sign,,,,null,GW/camera.jpg,GW/barrel.jpg,,,,,,,,,,,,
null,,black_cross(without_color),334590,green,,,,null,GW/camera.jpg,GW/barrel.jpg,,,,,,,,,,,,
null,,rt_plussign_withcolor,335091,green,,,,null,GW/camera.jpg,GW/barrel.jpg,,,,,,,,,,,,
989.0999999642372,,rt_thecrossant_black,336493,black_plus_sign,,,,50,,,1,0.9565217391304348,,,,,,,,,,
null,,color_black,336597,black_plus_sign,,,,null,,,,,,,,,,,,,,
null,,learn_phase(without_color),338599,black_plus_sign,,,,null,GW/barrel.jpg,GW/snail.jpg,,,,,,,,,,,,
null,,black_cross(without_color),339391,blue,,,,null,GW/barrel.jpg,GW/snail.jpg,,,,,,,,,,,,
473,,rt_plussign_withcolor,339893,blue,,,,49,GW/barrel.jpg,GW/snail.jpg,,,,,,,,,,,,
null,,rt_thecrossant_black,341108,black_plus_sign,,,,null,,,1,0.9583333333333334,,,,,,,,,,
null,,color_black,341211,black_plus_sign,,,,null,,,,,,,,,,,,,,
null,,learn_phase(without_color),343215,black_plus_sign,,,,null,GW/snail.jpg,GW/paint.jpg,,,,,,,,,,,,
null,,black_cross(without_color),344237,blue,,,,null,GW/snail.jpg,GW/paint.jpg,,,,,,,,,,,,
482.5999999642372,,rt_plussign_withcolor,344741,blue,,,,49,GW/snail.jpg,GW/paint.jpg,,,,,,,,,,,,
null,,rt_thecrossant_black,345727,black_plus_sign,,,,null,,,1,0.96,,,,,,,,,,
null,,color_black,345832,black_plus_sign,,,,null,,,,,,,,,,,,,,
null,,learn_phase(without_color),347838,black_plus_sign,,,,null,GW/teeth.jpg,GW/camera.jpg,,,,,,,,,,,,
null,,black_cross(without_color),348671,blue,,,,null,GW/teeth.jpg,GW/camera.jpg,,,,,,,,,,,,
null,,rt_plussign_withcolor,349174,blue,,,,null,GW/teeth.jpg,GW/camera.jpg,,,,,,,,,,,,
1299.800000011921,,rt_thecrossant_black,350347,black_plus_sign,,,,49,,,1,0.9615384615384616,,,,,,,,,,
null,,color_black,350450,black_plus_sign,,,,null,,,,,,,,,,,,,,
null,,learn_phase(without_color),352457,black_plus_sign,,,,null,GW/basket.jpg,GW/dustpan.jpg,,,,,,,,,,,,
null,,black_cross(without_color),353471,blue,,,,null,GW/basket.jpg,GW/dustpan.jpg,,,,,,,,,,,,
482.19999998807907,,rt_plussign_withcolor,353973,blue,,,,49,GW/basket.jpg,GW/dustpan.jpg,,,,,,,,,,,,
null,,rt_thecrossant_black,354965,black_plus_sign,,,,null,,,1,0.9629629629629629,,,,,,,,,,
null,,color_black,355070,black_plus_sign,,,,null,,,,,,,,,,,,,,
null,,learn_phase(without_color),357074,black_plus_sign,,,,null,GW/camera.jpg,GW/barrel.jpg,,,,,,,,,,,,
null,,black_cross(without_color),357593,blue,,,,null,GW/camera.jpg,GW/barrel.jpg,,,,,,,,,,,,
null,,rt_plussign_withcolor,358097,blue,,,,null,GW/camera.jpg,GW/barrel.jpg,,,,,,,,,,,,
1178.8999999761581,,rt_thecrossant_black,359590,black_plus_sign,,,,49,,,1,0.9642857142857143,,,,,,,,,,
null,,color_black,359692,black_plus_sign,,,,null,,,,,,,,,,,,,,
null,,learn_phase(without_color),361694,black_plus_sign,,,,null,GW/hat.jpg,GW/globe.jpg,,,,,,,,,,,,
null,,black_cross(without_color),362504,green,,,,null,GW/hat.jpg,GW/globe.jpg,,,,,,,,,,,,
null,,rt_plussign_withcolor,363008,green,,,,null,GW/hat.jpg,GW/globe.jpg,,,,,,,,,,,,
626.8000000119209,,rt_thecrossant_black,364206,black_plus_sign,,,,50,,,1,0.9655172413793104,,,,,,,,,,
null,,color_black,364310,black_plus_sign,,,,null,,,,,,,,,,,,,,
null,,learn_phase(without_color),366313,black_plus_sign,,,,null,GW/paint.jpg,GW/soldier.jpg,,,,,,,,,,,,
null,,black_cross(without_color),367334,green,,,,null,GW/paint.jpg,GW/soldier.jpg,,,,,,,,,,,,
502.5999999642372,,rt_plussign_withcolor,367841,green,,,,50,GW/paint.jpg,GW/soldier.jpg,,,,,,,,,,,,
null,,rt_thecrossant_black,368842,black_plus_sign,,,,null,,,1,0.9666666666666667,,,,,,,,,,
null,,color_black,368954,black_plus_sign,,,,null,,,,,,,,,,,,,,
null,,learn_phase(without_color),370963,black_plus_sign,,,,null,GW/teeth.jpg,GW/basket.jpg,,,,,,,,,,,,
null,,black_cross(without_color),371467,green,,,,null,GW/teeth.jpg,GW/basket.jpg,,,,,,,,,,,,
null,,rt_plussign_withcolor,371970,green,,,,null,GW/teeth.jpg,GW/basket.jpg,,,,,,,,,,,,
1269.5999999642372,,rt_thecrossant_black,373492,black_plus_sign,,,,50,,,1,0.967741935483871,,,,,,,,,,
null,,color_black,373603,black_plus_sign,,,,null,,,,,,,,,,,,,,
null,,learn_phase(without_color),375606,black_plus_sign,,,,null,GW/hat.jpg,GW/globe.jpg,,,,,,,,,,,,
null,,black_cross(without_color),376037,green,,,,null,GW/hat.jpg,GW/globe.jpg,,,,,,,,,,,,
null,,rt_plussign_withcolor,376538,green,,,,null,GW/hat.jpg,GW/globe.jpg,,,,,,,,,,,,
700.6999999880791,,rt_thecrossant_black,378112,black_plus_sign,,,,50,,,1,0.96875,,,,,,,,,,
null,,color_black,378215,black_plus_sign,,,,null,,,,,,,,,,,,,,
null,,learn_phase(without_color),380220,black_plus_sign,,,,null,GW/hat.jpg,GW/snail.jpg,,,,,,,,,,,,
null,,black_cross(without_color),381112,green,,,,null,GW/hat.jpg,GW/snail.jpg,,,,,,,,,,,,
null,,rt_plussign_withcolor,381620,green,,,,null,GW/hat.jpg,GW/snail.jpg,,,,,,,,,,,,
533.1000000238419,,rt_thecrossant_black,382736,black_plus_sign,,,,50,,,1,0.9696969696969697,,,,,,,,,,
null,,color_black,382842,black_plus_sign,,,,null,,,,,,,,,,,,,,
null,,learn_phase(without_color),384848,black_plus_sign,,,,null,GW/basket.jpg,GW/dustpan.jpg,,,,,,,,,,,,
null,,black_cross(without_color),385287,green,,,,null,GW/basket.jpg,GW/dustpan.jpg,,,,,,,,,,,,
null,,rt_plussign_withcolor,385791,green,,,,null,GW/basket.jpg,GW/dustpan.jpg,,,,,,,,,,,,
1140.4000000357628,,rt_thecrossant_black,387361,black_plus_sign,,,,50,,,1,0.9705882352941176,,,,,,,,,,
null,,color_black,387466,black_plus_sign,,,,null,,,,,,,,,,,,,,
null,,learn_phase(without_color),389485,black_plus_sign,,,,null,GW/jukebox.jpg,GW/teeth.jpg,,,,,,,,,,,,
null,,black_cross(without_color),389930,blue,,,,null,GW/jukebox.jpg,GW/teeth.jpg,,,,,,,,,,,,
null,,rt_plussign_withcolor,390434,blue,,,,null,GW/jukebox.jpg,GW/teeth.jpg,,,,,,,,,,,,
698.8999999761581,,rt_thecrossant_black,392000,black_plus_sign,,,,49,,,1,0.9714285714285714,,,,,,,,,,
null,,color_black,392105,black_plus_sign,,,,null,,,,,,,,,,,,,,
null,,learn_phase(without_color),394110,black_plus_sign,,,,null,GW/hat.jpg,GW/snail.jpg,,,,,,,,,,,,
null,,black_cross(without_color),395011,green,,,,null,GW/hat.jpg,GW/snail.jpg,,,,,,,,,,,,
493.80000001192093,,rt_plussign_withcolor,395514,green,,,,50,GW/hat.jpg,GW/snail.jpg,,,,,,,,,,,,
null,,rt_thecrossant_black,396624,black_plus_sign,,,,null,,,1,0.9722222222222222,,,,,,,,,,
null,,color_black,396730,black_plus_sign,,,,null,,,,,,,,,,,,,,
null,,learn_phase(without_color),398735,black_plus_sign,,,,null,GW/paint.jpg,GW/soldier.jpg,,,,,,,,,,,,
null,,black_cross(without_color),399355,blue,,,,null,GW/paint.jpg,GW/soldier.jpg,,,,,,,,,,,,
503.4000000357628,,rt_plussign_withcolor,399860,blue,,,,49,GW/paint.jpg,GW/soldier.jpg,,,,,,,,,,,,
null,,rt_thecrossant_black,401247,black_plus_sign,,,,null,,,1,0.972972972972973,,,,,,,,,,
null,,color_black,401352,black_plus_sign,,,,null,,,,,,,,,,,,,,
null,,learn_phase(without_color),403358,black_plus_sign,,,,null,GW/hat.jpg,GW/gong.jpg,,,,,,,,,,,,
null,,black_cross(without_color),403899,blue,,,,null,GW/hat.jpg,GW/gong.jpg,,,,,,,,,,,,
null,,rt_plussign_withcolor,404401,blue,,,,null,GW/hat.jpg,GW/gong.jpg,,,,,,,,,,,,
784.8000000119209,,rt_thecrossant_black,405867,black_plus_sign,,,,49,,,1,0.9736842105263158,,,,,,,,,,
null,,color_black,405970,black_plus_sign,,,,null,,,,,,,,,,,,,,
null,,learn_phase(without_color),407976,black_plus_sign,,,,null,GW/camera.jpg,GW/paint.jpg,,,,,,,,,,,,
null,,black_cross(without_color),408477,blue,,,,null,GW/camera.jpg,GW/paint.jpg,,,,,,,,,,,,
null,,rt_plussign_withcolor,408980,blue,,,,null,GW/camera.jpg,GW/paint.jpg,,,,,,,,,,,,
697.6999999880791,,rt_thecrossant_black,410515,black_plus_sign,,,,49,,,1,0.9743589743589743,,,,,,,,,,
null,,color_black,410621,black_plus_sign,,,,null,,,,,,,,,,,,,,
null,,learn_phase(without_color),412626,black_plus_sign,,,,null,GW/barrel.jpg,GW/snail.jpg,,,,,,,,,,,,
null,,black_cross(without_color),413580,green,,,,null,GW/barrel.jpg,GW/snail.jpg,,,,,,,,,,,,
492,,rt_plussign_withcolor,414083,green,,,,50,GW/barrel.jpg,GW/snail.jpg,,,,,,,,,,,,
null,,rt_thecrossant_black,415134,black_plus_sign,,,,null,,,1,0.975,,,,,,,,,,
null,,color_black,415239,black_plus_sign,,,,null,,,,,,,,,,,,,,
null,,learn_phase(without_color),417245,black_plus_sign,,,,null,GW/hat.jpg,GW/gong.jpg,,,,,,,,,,,,
null,,black_cross(without_color),417681,green,,,,null,GW/hat.jpg,GW/gong.jpg,,,,,,,,,,,,
459.9000000357628,,rt_plussign_withcolor,418184,green,,,,50,GW/hat.jpg,GW/gong.jpg,,,,,,,,,,,,
null,,rt_thecrossant_black,419757,black_plus_sign,,,,null,,,1,0.975609756097561,,,,,,,,,,
null,,color_black,419862,black_plus_sign,,,,null,,,,,,,,,,,,,,
null,,learn_phase(without_color),421866,black_plus_sign,,,,null,GW/globe.jpg,GW/snail.jpg,,,,,,,,,,,,
null,,black_cross(without_color),422335,blue,,,,null,GW/globe.jpg,GW/snail.jpg,,,,,,,,,,,,
null,,rt_plussign_withcolor,422837,blue,,,,null,GW/globe.jpg,GW/snail.jpg,,,,,,,,,,,,
557.1000000238419,,rt_thecrossant_black,424373,black_plus_sign,,,,49,,,1,0.9761904761904762,,,,,,,,,,
null,,color_black,424478,black_plus_sign,,,,null,,,,,,,,,,,,,,
null,,learn_phase(without_color),426485,black_plus_sign,,,,null,GW/hat.jpg,GW/snail.jpg,,,,,,,,,,,,
null,,black_cross(without_color),427392,green,,,,null,GW/hat.jpg,GW/snail.jpg,,,,,,,,,,,,
446.9000000357628,,rt_plussign_withcolor,427895,green,,,,50,GW/hat.jpg,GW/snail.jpg,,,,,,,,,,,,
null,,rt_thecrossant_black,428997,black_plus_sign,,,,null,,,1,0.9767441860465116,,,,,,,,,,
null,,color_black,429101,black_plus_sign,,,,null,,,,,,,,,,,,,,
null,,learn_phase(without_color),431107,black_plus_sign,,,,null,GW/basket.jpg,GW/dustpan.jpg,,,,,,,,,,,,
null,,black_cross(without_color),431686,blue,,,,null,GW/basket.jpg,GW/dustpan.jpg,,,,,,,,,,,,
null,,rt_plussign_withcolor,432189,blue,,,,null,GW/basket.jpg,GW/dustpan.jpg,,,,,,,,,,,,
1132,,rt_thecrossant_black,433621,black_plus_sign,,,,49,,,1,0.9772727272727273,,,,,,,,,,
null,,color_black,433726,black_plus_sign,,,,null,,,,,,,,,,,,,,
null,,learn_phase(without_color),435731,black_plus_sign,,,,null,GW/globe.jpg,GW/snail.jpg,,,,,,,,,,,,
null,,black_cross(without_color),436609,blue,,,,null,GW/globe.jpg,GW/snail.jpg,,,,,,,,,,,,
null,,rt_plussign_withcolor,437112,blue,,,,null,GW/globe.jpg,GW/snail.jpg,,,,,,,,,,,,
673.1999999880791,,rt_thecrossant_black,438239,black_plus_sign,,,,49,,,1,0.9777777777777777,,,,,,,,,,
null,,color_black,438343,black_plus_sign,,,,null,,,,,,,,,,,,,,
null,,learn_phase(without_color),440351,black_plus_sign,,,,null,GW/camera.jpg,GW/barrel.jpg,,,,,,,,,,,,
null,,black_cross(without_color),440919,green,,,,null,GW/camera.jpg,GW/barrel.jpg,,,,,,,,,,,,
null,,rt_plussign_withcolor,441422,green,,,,null,GW/camera.jpg,GW/barrel.jpg,,,,,,,,,,,,
1005,,rt_thecrossant_black,442862,black_plus_sign,,,,50,,,1,0.9782608695652174,,,,,,,,,,
null,,color_black,442967,black_plus_sign,,,,null,,,,,,,,,,,,,,
null,,learn_phase(without_color),444972,black_plus_sign,,,,null,GW/basket.jpg,GW/soldier.jpg,,,,,,,,,,,,
null,,black_cross(without_color),445597,blue,,,,null,GW/basket.jpg,GW/soldier.jpg,,,,,,,,,,,,
null,,rt_plussign_withcolor,446101,blue,,,,null,GW/basket.jpg,GW/soldier.jpg,,,,,,,,,,,,
871.6000000238419,,rt_thecrossant_black,447488,black_plus_sign,,,,49,,,1,0.9787234042553191,,,,,,,,,,
null,,color_black,447593,black_plus_sign,,,,null,,,,,,,,,,,,,,
null,,learn_phase(without_color),449603,black_plus_sign,,,,null,GW/snail.jpg,GW/paint.jpg,,,,,,,,,,,,
null,,black_cross(without_color),450694,blue,,,,null,GW/snail.jpg,GW/paint.jpg,,,,,,,,,,,,
461.19999998807907,,rt_plussign_withcolor,451197,blue,,,,49,GW/snail.jpg,GW/paint.jpg,,,,,,,,,,,,
null,,rt_thecrossant_black,452116,black_plus_sign,,,,null,,,1,0.9791666666666666,,,,,,,,,,
null,,color_black,452221,black_plus_sign,,,,null,,,,,,,,,,,,,,
null,,learn_phase(without_color),454227,black_plus_sign,,,,null,GW/globe.jpg,GW/wheelchair.jpg,,,,,,,,,,,,
null,,black_cross(without_color),454951,green,,,,null,GW/globe.jpg,GW/wheelchair.jpg,,,,,,,,,,,,
null,,rt_plussign_withcolor,455461,green,,,,null,GW/globe.jpg,GW/wheelchair.jpg,,,,,,,,,,,,
1197.4000000357628,,rt_thecrossant_black,456746,black_plus_sign,,,,50,,,1,0.9795918367346939,,,,,,,,,,
null,,color_black,456851,black_plus_sign,,,,null,,,,,,,,,,,,,,
null,,learn_phase(without_color),458857,black_plus_sign,,,,null,GW/jukebox.jpg,GW/teeth.jpg,,,,,,,,,,,,
null,,black_cross(without_color),459634,green,,,,null,GW/jukebox.jpg,GW/teeth.jpg,,,,,,,,,,,,
null,,rt_plussign_withcolor,460137,green,,,,null,GW/jukebox.jpg,GW/teeth.jpg,,,,,,,,,,,,
833.1000000238419,,rt_thecrossant_black,461369,black_plus_sign,,,,50,,,1,0.98,,,,,,,,,,
null,,color_black,461480,black_plus_sign,,,,null,,,,,,,,,,,,,,
null,,learn_phase(without_color),463487,black_plus_sign,,,,null,GW/hat.jpg,GW/gong.jpg,,,,,,,,,,,,
null,,black_cross(without_color),464071,blue,,,,null,GW/hat.jpg,GW/gong.jpg,,,,,,,,,,,,
null,,rt_plussign_withcolor,464573,blue,,,,null,GW/hat.jpg,GW/gong.jpg,,,,,,,,,,,,
934.5,,rt_thecrossant_black,465998,black_plus_sign,,,,49,,,1,0.9803921568627451,,,,,,,,,,
null,,color_black,466103,black_plus_sign,,,,null,,,,,,,,,,,,,,
null,,learn_phase(without_color),468110,black_plus_sign,,,,null,GW/camera.jpg,GW/paint.jpg,,,,,,,,,,,,
null,,black_cross(without_color),468544,blue,,,,null,GW/camera.jpg,GW/paint.jpg,,,,,,,,,,,,
null,,rt_plussign_withcolor,469047,blue,,,,null,GW/camera.jpg,GW/paint.jpg,,,,,,,,,,,,
879.5,,rt_thecrossant_black,470621,black_plus_sign,,,,50,,,0,0.9615384615384616,,,,,,,,,,
null,,color_black,470724,black_plus_sign,,,,null,,,,,,,,,,,,,,
null,,learn_phase(without_color),472730,black_plus_sign,,,,null,GW/teeth.jpg,GW/basket.jpg,,,,,,,,,,,,
null,,black_cross(without_color),473699,blue,,,,null,GW/teeth.jpg,GW/basket.jpg,,,,,,,,,,,,
null,,rt_plussign_withcolor,474204,blue,,,,null,GW/teeth.jpg,GW/basket.jpg,,,,,,,,,,,,
560.2000000476837,,rt_thecrossant_black,475249,black_plus_sign,,,,49,,,1,0.9622641509433962,,,,,,,,,,
null,,color_black,475354,black_plus_sign,,,,null,,,,,,,,,,,,,,
null,,learn_phase(without_color),477359,black_plus_sign,,,,null,GW/jukebox.jpg,GW/teeth.jpg,,,,,,,,,,,,
null,,black_cross(without_color),477983,blue,,,,null,GW/jukebox.jpg,GW/teeth.jpg,,,,,,,,,,,,
null,,rt_plussign_withcolor,478486,blue,,,,null,GW/jukebox.jpg,GW/teeth.jpg,,,,,,,,,,,,
1215.800000011921,,rt_thecrossant_black,479873,black_plus_sign,,,,49,,,1,0.9629629629629629,,,,,,,,,,
null,,color_black,479978,black_plus_sign,,,,null,,,,,,,,,,,,,,
null,,learn_phase(without_color),481980,black_plus_sign,,,,null,GW/hat.jpg,GW/globe.jpg,,,,,,,,,,,,
null,,black_cross(without_color),482829,green,,,,null,GW/hat.jpg,GW/globe.jpg,,,,,,,,,,,,
473.39999997615814,,rt_plussign_withcolor,483332,green,,,,50,GW/hat.jpg,GW/globe.jpg,,,,,,,,,,,,
null,,rt_thecrossant_black,484490,black_plus_sign,,,,null,,,1,0.9636363636363636,,,,,,,,,,
null,,color_black,484594,black_plus_sign,,,,null,,,,,,,,,,,,,,
null,,learn_phase(without_color),486599,black_plus_sign,,,,null,GW/snail.jpg,GW/paint.jpg,,,,,,,,,,,,
null,,black_cross(without_color),487110,green,,,,null,GW/snail.jpg,GW/paint.jpg,,,,,,,,,,,,
null,,rt_plussign_withcolor,487612,green,,,,null,GW/snail.jpg,GW/paint.jpg,,,,,,,,,,,,
1010.1999999880791,,rt_thecrossant_black,489106,black_plus_sign,,,,50,,,1,0.9642857142857143,,,,,,,,,,
null,,color_black,489215,black_plus_sign,,,,null,,,,,,,,,,,,,,
null,,learn_phase(without_color),491221,black_plus_sign,,,,null,GW/barrel.jpg,GW/hat.jpg,,,,,,,,,,,,
null,,black_cross(without_color),492297,green,,,,null,GW/barrel.jpg,GW/hat.jpg,,,,,,,,,,,,
null,,rt_plussign_withcolor,492801,green,,,,null,GW/barrel.jpg,GW/hat.jpg,,,,,,,,,,,,
634.0999999642372,,rt_thecrossant_black,493750,black_plus_sign,,,,50,,,1,0.9649122807017544,,,,,,,,,,
null,,color_black,493853,black_plus_sign,,,,null,,,,,,,,,,,,,,
null,,learn_phase(without_color),495857,black_plus_sign,,,,null,GW/hat.jpg,GW/globe.jpg,,,,,,,,,,,,
null,,black_cross(without_color),496449,blue,,,,null,GW/hat.jpg,GW/globe.jpg,,,,,,,,,,,,
null,,rt_plussign_withcolor,496951,blue,,,,null,GW/hat.jpg,GW/globe.jpg,,,,,,,,,,,,
1210.9000000357628,,rt_thecrossant_black,498366,black_plus_sign,,,,49,,,1,0.9655172413793104,,,,,,,,,,
null,,color_black,498481,black_plus_sign,,,,null,,,,,,,,,,,,,,
null,,learn_phase(without_color),500485,black_plus_sign,,,,null,GW/teeth.jpg,GW/camera.jpg,,,,,,,,,,,,
null,,black_cross(without_color),501531,blue,,,,null,GW/teeth.jpg,GW/camera.jpg,,,,,,,,,,,,
470.69999998807907,,rt_plussign_withcolor,502032,blue,,,,49,GW/teeth.jpg,GW/camera.jpg,,,,,,,,,,,,
null,,rt_thecrossant_black,502994,black_plus_sign,,,,null,,,1,0.9661016949152542,,,,,,,,,,
null,,color_black,503112,black_plus_sign,,,,null,,,,,,,,,,,,,,
null,,learn_phase(without_color),505117,black_plus_sign,,,,null,GW/jukebox.jpg,GW/teeth.jpg,,,,,,,,,,,,
null,,black_cross(without_color),505622,green,,,,null,GW/jukebox.jpg,GW/teeth.jpg,,,,,,,,,,,,
null,,rt_plussign_withcolor,506125,green,,,,null,GW/jukebox.jpg,GW/teeth.jpg,,,,,,,,,,,,
1242.5,,rt_thecrossant_black,507629,black_plus_sign,,,,50,,,1,0.9666666666666667,,,,,,,,,,
null,,color_black,507733,black_plus_sign,,,,null,,,,,,,,,,,,,,
null,,learn_phase(without_color),509750,black_plus_sign,,,,null,GW/globe.jpg,GW/wheelchair.jpg,,,,,,,,,,,,
null,,black_cross(without_color),510190,green,,,,null,GW/globe.jpg,GW/wheelchair.jpg,,,,,,,,,,,,
null,,rt_plussign_withcolor,510693,green,,,,null,GW/globe.jpg,GW/wheelchair.jpg,,,,,,,,,,,,
688.2999999523163,,rt_thecrossant_black,512263,black_plus_sign,,,,50,,,1,0.9672131147540983,,,,,,,,,,
null,,color_black,512368,black_plus_sign,,,,null,,,,,,,,,,,,,,
null,,learn_phase(without_color),514375,black_plus_sign,,,,null,GW/globe.jpg,GW/snail.jpg,,,,,,,,,,,,
null,,black_cross(without_color),515180,blue,,,,null,GW/globe.jpg,GW/snail.jpg,,,,,,,,,,,,
null,,rt_plussign_withcolor,515684,blue,,,,null,GW/globe.jpg,GW/snail.jpg,,,,,,,,,,,,
535.5,,rt_thecrossant_black,516888,black_plus_sign,,,,49,,,1,0.967741935483871,,,,,,,,,,
null,,color_black,516992,black_plus_sign,,,,null,,,,,,,,,,,,,,
null,,learn_phase(without_color),518998,black_plus_sign,,,,null,GW/teeth.jpg,GW/basket.jpg,,,,,,,,,,,,
null,,black_cross(without_color),520076,blue,,,,null,GW/teeth.jpg,GW/basket.jpg,,,,,,,,,,,,
null,,rt_plussign_withcolor,520578,blue,,,,null,GW/teeth.jpg,GW/basket.jpg,,,,,,,,,,,,
1026.3999999761581,,rt_thecrossant_black,521509,black_plus_sign,,,,49,,,1,0.9682539682539683,,,,,,,,,,
null,,color_black,521613,black_plus_sign,,,,null,,,,,,,,,,,,,,
null,,learn_phase(without_color),523618,black_plus_sign,,,,null,GW/hat.jpg,GW/globe.jpg,,,,,,,,,,,,
null,,black_cross(without_color),524719,blue,,,,null,GW/hat.jpg,GW/globe.jpg,,,,,,,,,,,,
null,,rt_plussign_withcolor,525222,blue,,,,null,GW/hat.jpg,GW/globe.jpg,,,,,,,,,,,,
1178.3999999761581,,rt_thecrossant_black,526141,black_plus_sign,,,,49,,,1,0.96875,,,,,,,,,,
null,,color_black,526246,black_plus_sign,,,,null,,,,,,,,,,,,,,
null,,learn_phase(without_color),528252,black_plus_sign,,,,null,GW/barrel.jpg,GW/snail.jpg,,,,,,,,,,,,
null,,black_cross(without_color),528924,green,,,,null,GW/barrel.jpg,GW/snail.jpg,,,,,,,,,,,,
null,,rt_plussign_withcolor,529427,green,,,,null,GW/barrel.jpg,GW/snail.jpg,,,,,,,,,,,,
1276.1000000238419,,rt_thecrossant_black,530763,black_plus_sign,,,,50,,,1,0.9692307692307692,,,,,,,,,,
null,,color_black,530868,black_plus_sign,,,,null,,,,,,,,,,,,,,
null,,learn_phase(without_color),532874,black_plus_sign,,,,null,GW/basket.jpg,GW/dustpan.jpg,,,,,,,,,,,,
null,,black_cross(without_color),533768,blue,,,,null,GW/basket.jpg,GW/dustpan.jpg,,,,,,,,,,,,
487.30000001192093,,rt_plussign_withcolor,534270,blue,,,,49,GW/basket.jpg,GW/dustpan.jpg,,,,,,,,,,,,
null,,rt_thecrossant_black,535384,black_plus_sign,,,,null,,,1,0.9696969696969697,,,,,,,,,,
null,,color_black,535489,black_plus_sign,,,,null,,,,,,,,,,,,,,
null,,learn_phase(without_color),537499,black_plus_sign,,,,null,GW/teeth.jpg,GW/camera.jpg,,,,,,,,,,,,
null,,black_cross(without_color),538057,green,,,,null,GW/teeth.jpg,GW/camera.jpg,,,,,,,,,,,,
null,,rt_plussign_withcolor,538559,green,,,,null,GW/teeth.jpg,GW/camera.jpg,,,,,,,,,,,,
1106.300000011921,,rt_thecrossant_black,540009,black_plus_sign,,,,50,,,1,0.9701492537313433,,,,,,,,,,
null,,color_black,540114,black_plus_sign,,,,null,,,,,,,,,,,,,,
null,,learn_phase(without_color),542116,black_plus_sign,,,,null,GW/barrel.jpg,GW/hat.jpg,,,,,,,,,,,,
null,,black_cross(without_color),543049,blue,,,,null,GW/barrel.jpg,GW/hat.jpg,,,,,,,,,,,,
null,,rt_plussign_withcolor,543552,blue,,,,null,GW/barrel.jpg,GW/hat.jpg,,,,,,,,,,,,
658.8000000119209,,rt_thecrossant_black,544627,black_plus_sign,,,,49,,,1,0.9705882352941176,,,,,,,,,,
null,,color_black,544732,black_plus_sign,,,,null,,,,,,,,,,,,,,
null,,learn_phase(without_color),546739,black_plus_sign,,,,null,GW/camera.jpg,GW/paint.jpg,,,,,,,,,,,,
null,,black_cross(without_color),547609,green,,,,null,GW/camera.jpg,GW/paint.jpg,,,,,,,,,,,,
null,,rt_plussign_withcolor,548113,green,,,,null,GW/camera.jpg,GW/paint.jpg,,,,,,,,,,,,
1140.3999999761581,,rt_thecrossant_black,549251,black_plus_sign,,,,50,,,1,0.9710144927536232,,,,,,,,,,
null,,color_black,549355,black_plus_sign,,,,null,,,,,,,,,,,,,,
null,,learn_phase(without_color),551361,black_plus_sign,,,,null,GW/paint.jpg,GW/soldier.jpg,,,,,,,,,,,,
null,,black_cross(without_color),551943,blue,,,,null,GW/paint.jpg,GW/soldier.jpg,,,,,,,,,,,,
490.0999999642372,,rt_plussign_withcolor,552446,blue,,,,49,GW/paint.jpg,GW/soldier.jpg,,,,,,,,,,,,
null,,rt_thecrossant_black,553873,black_plus_sign,,,,null,,,1,0.9714285714285714,,,,,,,,,,
null,,color_black,553976,black_plus_sign,,,,null,,,,,,,,,,,,,,
null,,learn_phase(without_color),555982,black_plus_sign,,,,null,GW/camera.jpg,GW/paint.jpg,,,,,,,,,,,,
null,,black_cross(without_color),556476,blue,,,,null,GW/camera.jpg,GW/paint.jpg,,,,,,,,,,,,
null,,rt_plussign_withcolor,556979,blue,,,,null,GW/camera.jpg,GW/paint.jpg,,,,,,,,,,,,
883.2000000476837,,rt_thecrossant_black,558491,black_plus_sign,,,,49,,,1,0.971830985915493,,,,,,,,,,
null,,color_black,558595,black_plus_sign,,,,null,,,,,,,,,,,,,,
null,,learn_phase(without_color),560603,black_plus_sign,,,,null,GW/globe.jpg,GW/snail.jpg,,,,,,,,,,,,
null,,black_cross(without_color),561459,blue,,,,null,GW/globe.jpg,GW/snail.jpg,,,,,,,,,,,,
466.19999998807907,,rt_plussign_withcolor,561962,blue,,,,49,GW/globe.jpg,GW/snail.jpg,,,,,,,,,,,,
null,,rt_thecrossant_black,563114,black_plus_sign,,,,null,,,1,0.9722222222222222,,,,,,,,,,
null,,color_black,563219,black_plus_sign,,,,null,,,,,,,,,,,,,,
null,,learn_phase(without_color),565227,black_plus_sign,,,,null,GW/paint.jpg,GW/soldier.jpg,,,,,,,,,,,,
null,,black_cross(without_color),565681,green,,,,null,GW/paint.jpg,GW/soldier.jpg,,,,,,,,,,,,
null,,rt_plussign_withcolor,566184,green,,,,null,GW/paint.jpg,GW/soldier.jpg,,,,,,,,,,,,
1191.300000011921,,rt_thecrossant_black,567749,black_plus_sign,,,,50,,,1,0.9726027397260274,,,,,,,,,,
null,,color_black,567855,black_plus_sign,,,,null,,,,,,,,,,,,,,
null,,learn_phase(without_color),569862,black_plus_sign,,,,null,GW/basket.jpg,GW/soldier.jpg,,,,,,,,,,,,
null,,black_cross(without_color),570807,green,,,,null,GW/basket.jpg,GW/soldier.jpg,,,,,,,,,,,,
null,,rt_plussign_withcolor,571310,green,,,,null,GW/basket.jpg,GW/soldier.jpg,,,,,,,,,,,,
627.7000000476837,,rt_thecrossant_black,572376,black_plus_sign,,,,50,,,1,0.972972972972973,,,,,,,,,,
null,,color_black,572493,black_plus_sign,,,,null,,,,,,,,,,,,,,
null,,learn_phase(without_color),574500,black_plus_sign,,,,null,GW/hat.jpg,GW/snail.jpg,,,,,,,,,,,,
null,,black_cross(without_color),575310,green,,,,null,GW/hat.jpg,GW/snail.jpg,,,,,,,,,,,,
null,,rt_plussign_withcolor,575814,green,,,,null,GW/hat.jpg,GW/snail.jpg,,,,,,,,,,,,
1310.4000000357628,,rt_thecrossant_black,577013,black_plus_sign,,,,50,,,1,0.9733333333333334,,,,,,,,,,
null,,color_black,577117,black_plus_sign,,,,null,,,,,,,,,,,,,,
null,,learn_phase(without_color),579122,black_plus_sign,,,,null,GW/basket.jpg,GW/dustpan.jpg,,,,,,,,,,,,
null,,black_cross(without_color),580188,green,,,,null,GW/basket.jpg,GW/dustpan.jpg,,,,,,,,,,,,
null,,rt_plussign_withcolor,580691,green,,,,null,GW/basket.jpg,GW/dustpan.jpg,,,,,,,,,,,,
947,,rt_thecrossant_black,581641,black_plus_sign,,,,50,,,1,0.9736842105263158,,,,,,,,,,
null,,color_black,581746,black_plus_sign,,,,null,,,,,,,,,,,,,,
null,,learn_phase(without_color),583752,black_plus_sign,,,,null,GW/barrel.jpg,GW/snail.jpg,,,,,,,,,,,,
null,,black_cross(without_color),584782,blue,,,,null,GW/barrel.jpg,GW/snail.jpg,,,,,,,,,,,,
493.69999998807907,,rt_plussign_withcolor,585285,blue,,,,49,GW/barrel.jpg,GW/snail.jpg,,,,,,,,,,,,
null,,rt_thecrossant_black,586262,black_plus_sign,,,,null,,,1,0.974025974025974,,,,,,,,,,
null,,color_black,586367,black_plus_sign,,,,null,,,,,,,,,,,,,,
null,,learn_phase(without_color),588374,black_plus_sign,,,,null,GW/hat.jpg,GW/snail.jpg,,,,,,,,,,,,
null,,black_cross(without_color),589462,blue,,,,null,GW/hat.jpg,GW/snail.jpg,,,,,,,,,,,,
null,,rt_plussign_withcolor,589977,blue,,,,null,GW/hat.jpg,GW/snail.jpg,,,,,,,,,,,,
1224.300000011921,,rt_thecrossant_black,590907,black_plus_sign,,,,49,,,1,0.9743589743589743,,,,,,,,,,
null,,color_black,591012,black_plus_sign,,,,null,,,,,,,,,,,,,,
null,,learn_phase(without_color),593018,black_plus_sign,,,,null,GW/paint.jpg,GW/soldier.jpg,,,,,,,,,,,,
null,,black_cross(without_color),593851,blue,,,,null,GW/paint.jpg,GW/soldier.jpg,,,,,,,,,,,,
null,,rt_plussign_withcolor,594354,blue,,,,null,GW/paint.jpg,GW/soldier.jpg,,,,,,,,,,,,
1340.6000000238419,,rt_thecrossant_black,595529,black_plus_sign,,,,49,,,1,0.9746835443037974,,,,,,,,,,
null,,color_black,595634,black_plus_sign,,,,null,,,,,,,,,,,,,,
null,,learn_phase(without_color),597640,black_plus_sign,,,,null,GW/globe.jpg,GW/wheelchair.jpg,,,,,,,,,,,,
null,,black_cross(without_color),598551,green,,,,null,GW/globe.jpg,GW/wheelchair.jpg,,,,,,,,,,,,
null,,rt_plussign_withcolor,599055,green,,,,null,GW/globe.jpg,GW/wheelchair.jpg,,,,,,,,,,,,
1016.5,,rt_thecrossant_black,600156,black_plus_sign,,,,50,,,1,0.975,,,,,,,,,,
null,,color_black,600269,black_plus_sign,,,,null,,,,,,,,,,,,,,
null,,learn_phase(without_color),602274,black_plus_sign,,,,null,GW/snail.jpg,GW/paint.jpg,,,,,,,,,,,,
null,,black_cross(without_color),603215,blue,,,,null,GW/snail.jpg,GW/paint.jpg,,,,,,,,,,,,
null,,rt_plussign_withcolor,603718,blue,,,,null,GW/snail.jpg,GW/paint.jpg,,,,,,,,,,,,
1245.300000011921,,rt_thecrossant_black,604785,black_plus_sign,,,,49,,,1,0.9753086419753086,,,,,,,,,,
null,,color_black,604890,black_plus_sign,,,,null,,,,,,,,,,,,,,
null,,learn_phase(without_color),606897,black_plus_sign,,,,null,GW/barrel.jpg,GW/snail.jpg,,,,,,,,,,,,
null,,black_cross(without_color),607696,blue,,,,null,GW/barrel.jpg,GW/snail.jpg,,,,,,,,,,,,
null,,rt_plussign_withcolor,608199,blue,,,,null,GW/barrel.jpg,GW/snail.jpg,,,,,,,,,,,,
1112.800000011921,,rt_thecrossant_black,609407,black_plus_sign,,,,49,,,1,0.975609756097561,,,,,,,,,,
null,,color_black,609517,black_plus_sign,,,,null,,,,,,,,,,,,,,
null,,learn_phase(without_color),611525,black_plus_sign,,,,null,GW/basket.jpg,GW/soldier.jpg,,,,,,,,,,,,
null,,black_cross(without_color),612564,blue,,,,null,GW/basket.jpg,GW/soldier.jpg,,,,,,,,,,,,
null,,rt_plussign_withcolor,613069,blue,,,,null,GW/basket.jpg,GW/soldier.jpg,,,,,,,,,,,,
953.3000000119209,,rt_thecrossant_black,614039,black_plus_sign,,,,49,,,1,0.9759036144578314,,,,,,,,,,
null,,color_black,614143,black_plus_sign,,,,null,,,,,,,,,,,,,,
null,,learn_phase(without_color),616148,black_plus_sign,,,,null,GW/globe.jpg,GW/wheelchair.jpg,,,,,,,,,,,,
null,,black_cross(without_color),616900,blue,,,,null,GW/globe.jpg,GW/wheelchair.jpg,,,,,,,,,,,,
null,,rt_plussign_withcolor,617402,blue,,,,null,GW/globe.jpg,GW/wheelchair.jpg,,,,,,,,,,,,
1286.5999999642372,,rt_thecrossant_black,618655,black_plus_sign,,,,49,,,1,0.9761904761904762,,,,,,,,,,
null,,color_black,618771,black_plus_sign,,,,null,,,,,,,,,,,,,,
null,,learn_phase(without_color),620777,black_plus_sign,,,,null,GW/teeth.jpg,GW/camera.jpg,,,,,,,,,,,,
null,,black_cross(without_color),621341,green,,,,null,GW/teeth.jpg,GW/camera.jpg,,,,,,,,,,,,
null,,rt_plussign_withcolor,621845,green,,,,null,GW/teeth.jpg,GW/camera.jpg,,,,,,,,,,,,
928.9000000357628,,rt_thecrossant_black,623292,black_plus_sign,,,,50,,,1,0.9764705882352941,,,,,,,,,,
null,,color_black,623397,black_plus_sign,,,,null,,,,,,,,,,,,,,
null,,learn_phase(without_color),625403,black_plus_sign,,,,null,GW/basket.jpg,GW/soldier.jpg,,,,,,,,,,,,
null,,black_cross(without_color),626135,blue,,,,null,GW/basket.jpg,GW/soldier.jpg,,,,,,,,,,,,
445.5,,rt_plussign_withcolor,626638,blue,,,,49,GW/basket.jpg,GW/soldier.jpg,,,,,,,,,,,,
null,,rt_thecrossant_black,627914,black_plus_sign,,,,null,,,1,0.9767441860465116,,,,,,,,,,
null,,color_black,628017,black_plus_sign,,,,null,,,,,,,,,,,,,,
null,,learn_phase(without_color),630024,black_plus_sign,,,,null,GW/jukebox.jpg,GW/teeth.jpg,,,,,,,,,,,,
null,,black_cross(without_color),630716,green,,,,null,GW/jukebox.jpg,GW/teeth.jpg,,,,,,,,,,,,
null,,rt_plussign_withcolor,631220,green,,,,null,GW/jukebox.jpg,GW/teeth.jpg,,,,,,,,,,,,
886.8000000119209,,rt_thecrossant_black,632540,black_plus_sign,,,,50,,,1,0.9770114942528736,,,,,,,,,,
null,,color_black,632644,black_plus_sign,,,,null,,,,,,,,,,,,,,
null,,learn_phase(without_color),634649,black_plus_sign,,,,null,GW/paint.jpg,GW/soldier.jpg,,,,,,,,,,,,
null,,black_cross(without_color),635353,green,,,,null,GW/paint.jpg,GW/soldier.jpg,,,,,,,,,,,,
null,,rt_plussign_withcolor,635855,green,,,,null,GW/paint.jpg,GW/soldier.jpg,,,,,,,,,,,,
844.5,,rt_thecrossant_black,637159,black_plus_sign,,,,50,,,1,0.9772727272727273,,,,,,,,,,
null,,color_black,637263,black_plus_sign,,,,null,,,,,,,,,,,,,,
null,,learn_phase(without_color),639270,black_plus_sign,,,,null,GW/globe.jpg,GW/wheelchair.jpg,,,,,,,,,,,,
null,,black_cross(without_color),639989,green,,,,null,GW/globe.jpg,GW/wheelchair.jpg,,,,,,,,,,,,
469.9000000357628,,rt_plussign_withcolor,640492,green,,,,50,GW/globe.jpg,GW/wheelchair.jpg,,,,,,,,,,,,
null,,rt_thecrossant_black,641789,black_plus_sign,,,,null,,,1,0.9775280898876404,,,,,,,,,,
null,,color_black,641892,black_plus_sign,,,,null,,,,,,,,,,,,,,
null,,learn_phase(without_color),643898,black_plus_sign,,,,null,GW/paint.jpg,GW/soldier.jpg,,,,,,,,,,,,
null,,black_cross(without_color),644377,blue,,,,null,GW/paint.jpg,GW/soldier.jpg,,,,,,,,,,,,
null,,rt_plussign_withcolor,644881,blue,,,,null,GW/paint.jpg,GW/soldier.jpg,,,,,,,,,,,,
817.5,,rt_thecrossant_black,646429,black_plus_sign,,,,49,,,1,0.9777777777777777,,,,,,,,,,
null,,color_black,646538,black_plus_sign,,,,null,,,,,,,,,,,,,,
null,,learn_phase(without_color),648556,black_plus_sign,,,,null,GW/hat.jpg,GW/snail.jpg,,,,,,,,,,,,
null,,black_cross(without_color),649531,blue,,,,null,GW/hat.jpg,GW/snail.jpg,,,,,,,,,,,,
475.10000002384186,,rt_plussign_withcolor,650033,blue,,,,49,GW/hat.jpg,GW/snail.jpg,,,,,,,,,,,,
null,,rt_thecrossant_black,651065,black_plus_sign,,,,null,,,1,0.978021978021978,,,,,,,,,,
null,,color_black,651169,black_plus_sign,,,,null,,,,,,,,,,,,,,
null,,learn_phase(without_color),653177,black_plus_sign,,,,null,GW/barrel.jpg,GW/hat.jpg,,,,,,,,,,,,
null,,black_cross(without_color),653640,green,,,,null,GW/barrel.jpg,GW/hat.jpg,,,,,,,,,,,,
null,,rt_plussign_withcolor,654142,green,,,,null,GW/barrel.jpg,GW/hat.jpg,,,,,,,,,,,,
1247,,rt_thecrossant_black,655689,black_plus_sign,,,,50,,,1,0.9782608695652174,,,,,,,,,,
null,,color_black,655794,black_plus_sign,,,,null,,,,,,,,,,,,,,
null,,learn_phase(without_color),657803,black_plus_sign,,,,null,GW/hat.jpg,GW/gong.jpg,,,,,,,,,,,,
null,,black_cross(without_color),658897,green,,,,null,GW/hat.jpg,GW/gong.jpg,,,,,,,,,,,,
null,,rt_plussign_withcolor,659400,green,,,,null,GW/hat.jpg,GW/gong.jpg,,,,,,,,,,,,
584.1999999880791,,rt_thecrossant_black,660317,black_plus_sign,,,,50,,,1,0.978494623655914,,,,,,,,,,
null,,color_black,660423,black_plus_sign,,,,null,,,,,,,,,,,,,,
null,,learn_phase(without_color),662427,black_plus_sign,,,,null,GW/globe.jpg,GW/wheelchair.jpg,,,,,,,,,,,,
null,,black_cross(without_color),663036,green,,,,null,GW/globe.jpg,GW/wheelchair.jpg,,,,,,,,,,,,
492.60000002384186,,rt_plussign_withcolor,663540,green,,,,50,GW/globe.jpg,GW/wheelchair.jpg,,,,,,,,,,,,
null,,rt_thecrossant_black,664942,black_plus_sign,,,,null,,,1,0.9787234042553191,,,,,,,,,,
null,,color_black,665047,black_plus_sign,,,,null,,,,,,,,,,,,,,
null,,learn_phase(without_color),667053,black_plus_sign,,,,null,GW/globe.jpg,GW/snail.jpg,,,,,,,,,,,,
null,,black_cross(without_color),667997,green,,,,null,GW/globe.jpg,GW/snail.jpg,,,,,,,,,,,,
null,,rt_plussign_withcolor,668500,green,,,,null,GW/globe.jpg,GW/snail.jpg,,,,,,,,,,,,
760.8000000119209,,rt_thecrossant_black,669575,black_plus_sign,,,,49,,,0,0.968421052631579,,,,,,,,,,
null,,color_black,669678,black_plus_sign,,,,null,,,,,,,,,,,,,,
null,,learn_phase(without_color),671684,black_plus_sign,,,,null,GW/globe.jpg,GW/wheelchair.jpg,,,,,,,,,,,,
null,,black_cross(without_color),672274,blue,,,,null,GW/globe.jpg,GW/wheelchair.jpg,,,,,,,,,,,,
null,,rt_plussign_withcolor,672777,blue,,,,null,GW/globe.jpg,GW/wheelchair.jpg,,,,,,,,,,,,
1132.6000000238419,,rt_thecrossant_black,674209,black_plus_sign,,,,49,,,1,0.96875,,,,,,,,,,
null,,color_black,674313,black_plus_sign,,,,null,,,,,,,,,,,,,,
null,,learn_phase(without_color),676320,black_plus_sign,,,,null,GW/hat.jpg,GW/globe.jpg,,,,,,,,,,,,
null,,black_cross(without_color),676893,green,,,,null,GW/hat.jpg,GW/globe.jpg,,,,,,,,,,,,
null,,rt_plussign_withcolor,677395,green,,,,null,GW/hat.jpg,GW/globe.jpg,,,,,,,,,,,,
714.8999999761581,,rt_thecrossant_black,678829,black_plus_sign,,,,50,,,1,0.9690721649484536,,,,,,,,,,
null,,color_black,678937,black_plus_sign,,,,null,,,,,,,,,,,,,,
null,,learn_phase(without_color),680947,black_plus_sign,,,,null,GW/barrel.jpg,GW/hat.jpg,,,,,,,,,,,,
null,,black_cross(without_color),681406,green,,,,null,GW/barrel.jpg,GW/hat.jpg,,,,,,,,,,,,
null,,rt_plussign_withcolor,681909,green,,,,null,GW/barrel.jpg,GW/hat.jpg,,,,,,,,,,,,
684.0999999642372,,rt_thecrossant_black,683466,black_plus_sign,,,,50,,,1,0.9693877551020408,,,,,,,,,,
null,,color_black,683570,black_plus_sign,,,,null,,,,,,,,,,,,,,
null,,learn_phase(without_color),685573,black_plus_sign,,,,null,GW/camera.jpg,GW/paint.jpg,,,,,,,,,,,,
null,,black_cross(without_color),686149,blue,,,,null,GW/camera.jpg,GW/paint.jpg,,,,,,,,,,,,
null,,rt_plussign_withcolor,686652,blue,,,,null,GW/camera.jpg,GW/paint.jpg,,,,,,,,,,,,
781.8999999761581,,rt_thecrossant_black,688084,black_plus_sign,,,,49,,,1,0.9696969696969697,,,,,,,,,,
null,,color_black,688190,black_plus_sign,,,,null,,,,,,,,,,,,,,
null,,learn_phase(without_color),690196,black_plus_sign,,,,null,GW/jukebox.jpg,GW/teeth.jpg,,,,,,,,,,,,
null,,black_cross(without_color),690702,green,,,,null,GW/jukebox.jpg,GW/teeth.jpg,,,,,,,,,,,,
null,,rt_plussign_withcolor,691206,green,,,,null,GW/jukebox.jpg,GW/teeth.jpg,,,,,,,,,,,,
714,,rt_thecrossant_black,692720,black_plus_sign,,,,50,,,1,0.97,,,,,,,,,,
null,,color_black,692824,black_plus_sign,,,,null,,,,,,,,,,,,,,
null,,learn_phase(without_color),694829,black_plus_sign,,,,null,GW/basket.jpg,GW/dustpan.jpg,,,,,,,,,,,,
null,,black_cross(without_color),695919,blue,,,,null,GW/basket.jpg,GW/dustpan.jpg,,,,,,,,,,,,
62.10000002384186,,rt_plussign_withcolor,696422,blue,,,,49,GW/basket.jpg,GW/dustpan.jpg,,,,,,,,,,,,
null,,rt_thecrossant_black,697344,black_plus_sign,,,,null,,,1,0.9702970297029703,,,,,,,,,,
null,,color_black,697448,black_plus_sign,,,,null,,,,,,,,,,,,,,
null,,learn_phase(without_color),699456,black_plus_sign,,,,null,GW/camera.jpg,GW/paint.jpg,,,,,,,,,,,,
null,,black_cross(without_color),700327,green,,,,null,GW/camera.jpg,GW/paint.jpg,,,,,,,,,,,,
null,,rt_plussign_withcolor,700841,green,,,,null,GW/camera.jpg,GW/paint.jpg,,,,,,,,,,,,
1192.5999999642372,,rt_thecrossant_black,701982,black_plus_sign,,,,50,,,1,0.9705882352941176,,,,,,,,,,
null,,color_black,702088,black_plus_sign,,,,null,,,,,,,,,,,,,,
null,,learn_phase(without_color),704094,black_plus_sign,,,,null,GW/globe.jpg,GW/snail.jpg,,,,,,,,,,,,
null,,black_cross(without_color),705104,blue,,,,null,GW/globe.jpg,GW/snail.jpg,,,,,,,,,,,,
null,,rt_plussign_withcolor,705608,blue,,,,null,GW/globe.jpg,GW/snail.jpg,,,,,,,,,,,,
1014.6000000238419,,rt_thecrossant_black,706605,black_plus_sign,,,,49,,,1,0.970873786407767,,,,,,,,,,
null,,color_black,706708,black_plus_sign,,,,null,,,,,,,,,,,,,,
null,,learn_phase(without_color),708715,black_plus_sign,,,,null,GW/teeth.jpg,GW/camera.jpg,,,,,,,,,,,,
null,,black_cross(without_color),709629,blue,,,,null,GW/teeth.jpg,GW/camera.jpg,,,,,,,,,,,,
null,,rt_plussign_withcolor,710132,blue,,,,null,GW/teeth.jpg,GW/camera.jpg,,,,,,,,,,,,
1141.199999988079,,rt_thecrossant_black,711229,black_plus_sign,,,,49,,,1,0.9711538461538461,,,,,,,,,,
null,,color_black,711334,black_plus_sign,,,,null,,,,,,,,,,,,,,
null,,learn_phase(without_color),713341,black_plus_sign,,,,null,GW/barrel.jpg,GW/hat.jpg,,,,,,,,,,,,
null,,black_cross(without_color),714256,blue,,,,null,GW/barrel.jpg,GW/hat.jpg,,,,,,,,,,,,
null,,rt_plussign_withcolor,714760,blue,,,,null,GW/barrel.jpg,GW/hat.jpg,,,,,,,,,,,,
1067.4000000357628,,rt_thecrossant_black,715855,black_plus_sign,,,,49,,,1,0.9714285714285714,,,,,,,,,,
null,,color_black,715960,black_plus_sign,,,,null,,,,,,,,,,,,,,
null,,learn_phase(without_color),717967,black_plus_sign,,,,null,GW/teeth.jpg,GW/camera.jpg,,,,,,,,,,,,
null,,black_cross(without_color),718688,blue,,,,null,GW/teeth.jpg,GW/camera.jpg,,,,,,,,,,,,
367.69999998807907,,rt_plussign_withcolor,719191,blue,,,,49,GW/teeth.jpg,GW/camera.jpg,,,,,,,,,,,,
null,,rt_thecrossant_black,720480,black_plus_sign,,,,null,,,1,0.9716981132075472,,,,,,,,,,
null,,color_black,720582,black_plus_sign,,,,null,,,,,,,,,,,,,,
null,,learn_phase(without_color),722586,black_plus_sign,,,,null,GW/teeth.jpg,GW/basket.jpg,,,,,,,,,,,,
null,,black_cross(without_color),722994,blue,,,,null,GW/teeth.jpg,GW/basket.jpg,,,,,,,,,,,,
460.5,,rt_plussign_withcolor,723497,blue,,,,49,GW/teeth.jpg,GW/basket.jpg,,,,,,,,,,,,
null,,rt_thecrossant_black,725097,black_plus_sign,,,,null,,,1,0.9719626168224299,,,,,,,,,,
null,,color_black,725202,black_plus_sign,,,,null,,,,,,,,,,,,,,
null,,learn_phase(without_color),727210,black_plus_sign,,,,null,GW/globe.jpg,GW/snail.jpg,,,,,,,,,,,,
null,,black_cross(without_color),727640,blue,,,,null,GW/globe.jpg,GW/snail.jpg,,,,,,,,,,,,
null,,rt_plussign_withcolor,728145,blue,,,,null,GW/globe.jpg,GW/snail.jpg,,,,,,,,,,,,
566.6999999880791,,rt_thecrossant_black,729725,black_plus_sign,,,,49,,,1,0.9722222222222222,,,,,,,,,,
null,,color_black,729830,black_plus_sign,,,,null,,,,,,,,,,,,,,
null,,learn_phase(without_color),731836,black_plus_sign,,,,null,GW/jukebox.jpg,GW/teeth.jpg,,,,,,,,,,,,
null,,black_cross(without_color),732809,green,,,,null,GW/jukebox.jpg,GW/teeth.jpg,,,,,,,,,,,,
246.89999997615814,,rt_plussign_withcolor,733312,green,,,,49,GW/jukebox.jpg,GW/teeth.jpg,,,,,,,,,,,,
null,,rt_thecrossant_black,734345,black_plus_sign,,,,null,,,0,0.963302752293578,,,,,,,,,,
null,,color_black,734459,black_plus_sign,,,,null,,,,,,,,,,,,,,
null,,learn_phase(without_color),736463,black_plus_sign,,,,null,GW/barrel.jpg,GW/hat.jpg,,,,,,,,,,,,
null,,black_cross(without_color),737566,blue,,,,null,GW/barrel.jpg,GW/hat.jpg,,,,,,,,,,,,
null,,rt_plussign_withcolor,738073,blue,,,,null,GW/barrel.jpg,GW/hat.jpg,,,,,,,,,,,,
1143.0999999642372,,rt_thecrossant_black,738979,black_plus_sign,,,,49,,,1,0.9636363636363636,,,,,,,,,,
null,,color_black,739086,black_plus_sign,,,,null,,,,,,,,,,,,,,
null,,learn_phase(without_color),741091,black_plus_sign,,,,null,GW/globe.jpg,GW/snail.jpg,,,,,,,,,,,,
null,,black_cross(without_color),741539,blue,,,,null,GW/globe.jpg,GW/snail.jpg,,,,,,,,,,,,
null,,rt_plussign_withcolor,742042,blue,,,,null,GW/globe.jpg,GW/snail.jpg,,,,,,,,,,,,
1376.800000011921,,rt_thecrossant_black,743599,black_plus_sign,,,,49,,,1,0.963963963963964,,,,,,,,,,
null,,color_black,743702,black_plus_sign,,,,null,,,,,,,,,,,,,,
null,,learn_phase(without_color),745708,black_plus_sign,,,,null,GW/basket.jpg,GW/soldier.jpg,,,,,,,,,,,,
null,,black_cross(without_color),746423,blue,,,,null,GW/basket.jpg,GW/soldier.jpg,,,,,,,,,,,,
null,,rt_plussign_withcolor,746927,blue,,,,null,GW/basket.jpg,GW/soldier.jpg,,,,,,,,,,,,
650.6999999880791,,rt_thecrossant_black,748226,black_plus_sign,,,,49,,,1,0.9642857142857143,,,,,,,,,,
null,,color_black,748331,black_plus_sign,,,,null,,,,,,,,,,,,,,
null,,learn_phase(without_color),750336,black_plus_sign,,,,null,GW/teeth.jpg,GW/basket.jpg,,,,,,,,,,,,
null,,black_cross(without_color),751388,blue,,,,null,GW/teeth.jpg,GW/basket.jpg,,,,,,,,,,,,
null,,rt_plussign_withcolor,751892,blue,,,,null,GW/teeth.jpg,GW/basket.jpg,,,,,,,,,,,,
863.5,,rt_thecrossant_black,752849,black_plus_sign,,,,49,,,1,0.9646017699115044,,,,,,,,,,
null,,color_black,752961,black_plus_sign,,,,null,,,,,,,,,,,,,,
null,,learn_phase(without_color),754968,black_plus_sign,,,,null,GW/jukebox.jpg,GW/teeth.jpg,,,,,,,,,,,,
null,,black_cross(without_color),755876,green,,,,null,GW/jukebox.jpg,GW/teeth.jpg,,,,,,,,,,,,
418.19999998807907,,rt_plussign_withcolor,756379,green,,,,50,GW/jukebox.jpg,GW/teeth.jpg,,,,,,,,,,,,
null,,rt_thecrossant_black,757481,black_plus_sign,,,,null,,,1,0.9649122807017544,,,,,,,,,,
null,,color_black,757585,black_plus_sign,,,,null,,,,,,,,,,,,,,
null,,learn_phase(without_color),759590,black_plus_sign,,,,null,GW/basket.jpg,GW/soldier.jpg,,,,,,,,,,,,
null,,black_cross(without_color),760119,green,,,,null,GW/basket.jpg,GW/soldier.jpg,,,,,,,,,,,,
null,,rt_plussign_withcolor,760623,green,,,,null,GW/basket.jpg,GW/soldier.jpg,,,,,,,,,,,,
1221.699999988079,,rt_thecrossant_black,762101,black_plus_sign,,,,50,,,1,0.9652173913043478,,,,,,,,,,
null,,color_black,762206,black_plus_sign,,,,null,,,,,,,,,,,,,,
null,,learn_phase(without_color),764211,black_plus_sign,,,,null,GW/hat.jpg,GW/gong.jpg,,,,,,,,,,,,
null,,black_cross(without_color),765136,green,,,,null,GW/hat.jpg,GW/gong.jpg,,,,,,,,,,,,
null,,rt_plussign_withcolor,765641,green,,,,null,GW/hat.jpg,GW/gong.jpg,,,,,,,,,,,,
654.5999999642372,,rt_thecrossant_black,766726,black_plus_sign,,,,50,,,1,0.9655172413793104,,,,,,,,,,
null,,color_black,766831,black_plus_sign,,,,null,,,,,,,,,,,,,,
null,,learn_phase(without_color),768839,black_plus_sign,,,,null,GW/teeth.jpg,GW/basket.jpg,,,,,,,,,,,,
null,,black_cross(without_color),769487,blue,,,,null,GW/teeth.jpg,GW/basket.jpg,,,,,,,,,,,,
null,,rt_plussign_withcolor,769990,blue,,,,null,GW/teeth.jpg,GW/basket.jpg,,,,,,,,,,,,
1032.7999999523163,,rt_thecrossant_black,771352,black_plus_sign,,,,49,,,1,0.9658119658119658,,,,,,,,,,
null,,color_black,771458,black_plus_sign,,,,null,,,,,,,,,,,,,,
null,,learn_phase(without_color),773472,black_plus_sign,,,,null,GW/teeth.jpg,GW/camera.jpg,,,,,,,,,,,,
null,,black_cross(without_color),774020,green,,,,null,GW/teeth.jpg,GW/camera.jpg,,,,,,,,,,,,
null,,rt_plussign_withcolor,774523,green,,,,null,GW/teeth.jpg,GW/camera.jpg,,,,,,,,,,,,
802,,rt_thecrossant_black,775985,black_plus_sign,,,,50,,,1,0.9661016949152542,,,,,,,,,,
null,,color_black,776089,black_plus_sign,,,,null,,,,,,,,,,,,,,
null,,learn_phase(without_color),778097,black_plus_sign,,,,null,GW/hat.jpg,GW/snail.jpg,,,,,,,,,,,,
null,,black_cross(without_color),779050,blue,,,,null,GW/hat.jpg,GW/snail.jpg,,,,,,,,,,,,
319.0999999642372,,rt_plussign_withcolor,779552,blue,,,,49,GW/hat.jpg,GW/snail.jpg,,,,,,,,,,,,
null,,rt_thecrossant_black,780619,black_plus_sign,,,,null,,,1,0.9663865546218487,,,,,,,,,,
null,,color_black,780722,black_plus_sign,,,,null,,,,,,,,,,,,,,
null,,learn_phase(without_color),782728,black_plus_sign,,,,null,GW/snail.jpg,GW/paint.jpg,,,,,,,,,,,,
null,,black_cross(without_color),783602,blue,,,,null,GW/snail.jpg,GW/paint.jpg,,,,,,,,,,,,
null,,rt_plussign_withcolor,784106,blue,,,,null,GW/snail.jpg,GW/paint.jpg,,,,,,,,,,,,
1121.6000000238419,,rt_thecrossant_black,785258,black_plus_sign,,,,49,,,1,0.9666666666666667,,,,,,,,,,
null,,color_black,785363,black_plus_sign,,,,null,,,,,,,,,,,,,,
null,,learn_phase(without_color),787369,black_plus_sign,,,,null,GW/hat.jpg,GW/snail.jpg,,,,,,,,,,,,
null,,black_cross(without_color),788384,blue,,,,null,GW/hat.jpg,GW/snail.jpg,,,,,,,,,,,,
null,,rt_plussign_withcolor,788887,blue,,,,null,GW/hat.jpg,GW/snail.jpg,,,,,,,,,,,,
1112.5,,rt_thecrossant_black,789883,black_plus_sign,,,,49,,,1,0.9669421487603306,,,,,,,,,,
null,,color_black,789989,black_plus_sign,,,,null,,,,,,,,,,,,,,
null,,learn_phase(without_color),791996,black_plus_sign,,,,null,GW/snail.jpg,GW/paint.jpg,,,,,,,,,,,,
null,,black_cross(without_color),792940,blue,,,,null,GW/snail.jpg,GW/paint.jpg,,,,,,,,,,,,
null,,rt_plussign_withcolor,793443,blue,,,,null,GW/snail.jpg,GW/paint.jpg,,,,,,,,,,,,
1162.300000011921,,rt_thecrossant_black,794505,black_plus_sign,,,,49,,,1,0.9672131147540983,,,,,,,,,,
null,,color_black,794608,black_plus_sign,,,,null,,,,,,,,,,,,,,
null,,learn_phase(without_color),796612,black_plus_sign,,,,null,GW/camera.jpg,GW/paint.jpg,,,,,,,,,,,,
null,,black_cross(without_color),797062,green,,,,null,GW/camera.jpg,GW/paint.jpg,,,,,,,,,,,,
null,,rt_plussign_withcolor,797564,green,,,,null,GW/camera.jpg,GW/paint.jpg,,,,,,,,,,,,
1169.6000000238419,,rt_thecrossant_black,799120,black_plus_sign,,,,50,,,1,0.967479674796748,,,,,,,,,,
null,,color_black,799226,black_plus_sign,,,,null,,,,,,,,,,,,,,
null,,learn_phase(without_color),801233,black_plus_sign,,,,null,GW/globe.jpg,GW/wheelchair.jpg,,,,,,,,,,,,
null,,black_cross(without_color),802274,green,,,,null,GW/globe.jpg,GW/wheelchair.jpg,,,,,,,,,,,,
null,,rt_plussign_withcolor,802777,green,,,,null,GW/globe.jpg,GW/wheelchair.jpg,,,,,,,,,,,,
659.6999999880791,,rt_thecrossant_black,803745,black_plus_sign,,,,50,,,1,0.967741935483871,,,,,,,,,,
null,,color_black,803850,black_plus_sign,,,,null,,,,,,,,,,,,,,
null,,learn_phase(without_color),805856,black_plus_sign,,,,null,GW/camera.jpg,GW/paint.jpg,,,,,,,,,,,,
null,,black_cross(without_color),806643,green,,,,null,GW/camera.jpg,GW/paint.jpg,,,,,,,,,,,,
null,,rt_plussign_withcolor,807147,green,,,,null,GW/camera.jpg,GW/paint.jpg,,,,,,,,,,,,
1158,,rt_thecrossant_black,808380,black_plus_sign,,,,50,,,1,0.968,,,,,,,,,,
null,,color_black,808483,black_plus_sign,,,,null,,,,,,,,,,,,,,
null,,learn_phase(without_color),810491,black_plus_sign,,,,null,GW/teeth.jpg,GW/camera.jpg,,,,,,,,,,,,
null,,black_cross(without_color),811184,blue,,,,null,GW/teeth.jpg,GW/camera.jpg,,,,,,,,,,,,
null,,rt_plussign_withcolor,811687,blue,,,,null,GW/teeth.jpg,GW/camera.jpg,,,,,,,,,,,,
1008.7000000476837,,rt_thecrossant_black,813005,black_plus_sign,,,,49,,,1,0.9682539682539683,,,,,,,,,,
null,,color_black,813110,black_plus_sign,,,,null,,,,,,,,,,,,,,
null,,learn_phase(without_color),815115,black_plus_sign,,,,null,GW/barrel.jpg,GW/snail.jpg,,,,,,,,,,,,
null,,black_cross(without_color),816220,blue,,,,null,GW/barrel.jpg,GW/snail.jpg,,,,,,,,,,,,
467,,rt_plussign_withcolor,816722,blue,,,,49,GW/barrel.jpg,GW/snail.jpg,,,,,,,,,,,,
null,,rt_thecrossant_black,817624,black_plus_sign,,,,null,,,1,0.968503937007874,,,,,,,,,,
null,,color_black,817728,black_plus_sign,,,,null,,,,,,,,,,,,,,
null,,learn_phase(without_color),819735,black_plus_sign,,,,null,GW/hat.jpg,GW/gong.jpg,,,,,,,,,,,,
null,,black_cross(without_color),820425,blue,,,,null,GW/hat.jpg,GW/gong.jpg,,,,,,,,,,,,
null,,rt_plussign_withcolor,820929,blue,,,,null,GW/hat.jpg,GW/gong.jpg,,,,,,,,,,,,
1456.300000011921,,rt_thecrossant_black,822247,black_plus_sign,,,,49,,,1,0.96875,,,,,,,,,,
null,,color_black,822353,black_plus_sign,,,,null,,,,,,,,,,,,,,
51107.89999997616,,intro_1,873470,instruct,,0,Start,,,,,,,,,,,,,,,
3261.600000023842,,directmemory_phase,876738,GW/paint.jpg,,,,51,,,1,1,GW/jukebox.jpg,GW/hat.jpg,GW/snail.jpg,GW/snail.jpg,GW/hat.jpg,GW/jukebox.jpg,1,,,
null,,html-keyboard-response,877745,<p></p>,,,,null,,,,,,,,,,,,,,
1656.3999999761581,,directmemory_phase,879405,GW/globe.jpg,,,,49,,,1,1,GW/wheelchair.jpg,GW/basket.jpg,GW/barrel.jpg,GW/wheelchair.jpg,GW/barrel.jpg,GW/basket.jpg,1,,,
null,,html-keyboard-response,880411,<p></p>,,,,null,,,,,,,,,,,,,,
2200.099999964237,,directmemory_phase,882612,GW/basket.jpg,,,,51,,,1,1,GW/barrel.jpg,GW/jukebox.jpg,GW/soldier.jpg,GW/soldier.jpg,GW/jukebox.jpg,GW/barrel.jpg,1,,,
null,,html-keyboard-response,883615,<p></p>,,,,null,,,,,,,,,,,,,,
2812.800000011921,,directmemory_phase,886431,GW/snail.jpg,,,,51,,,0,0.75,GW/globe.jpg,GW/basket.jpg,GW/soldier.jpg,GW/globe.jpg,GW/soldier.jpg,GW/basket.jpg,0.5,closer,,
null,,html-keyboard-response,887436,<p></p>,,,,null,,,,,,,,,,,,,,
2439.199999988079,,directmemory_phase,889879,GW/gong.jpg,,,,50,,,0,0.6,GW/teeth.jpg,GW/globe.jpg,GW/hat.jpg,GW/hat.jpg,GW/globe.jpg,GW/teeth.jpg,0.5,closer,,
null,,html-keyboard-response,890890,<p></p>,,,,null,,,,,,,,,,,,,,
1985.0999999642372,,directmemory_phase,892877,GW/camera.jpg,,,,51,,,1,0.6666666666666666,GW/globe.jpg,GW/hat.jpg,GW/barrel.jpg,GW/barrel.jpg,GW/hat.jpg,GW/globe.jpg,1,,,
null,,html-keyboard-response,893882,<p></p>,,,,null,,,,,,,,,,,,,,
2310.199999988079,,directmemory_phase,896193,GW/hat.jpg,,,,50,,,1,0.7142857142857143,GW/wheelchair.jpg,GW/gong.jpg,GW/teeth.jpg,GW/gong.jpg,GW/wheelchair.jpg,GW/teeth.jpg,1,,,
null,,html-keyboard-response,897198,<p></p>,,,,null,,,,,,,,,,,,,,
1312.5,,directmemory_phase,898512,GW/dustpan.jpg,,,,49,,,1,0.75,GW/basket.jpg,GW/jukebox.jpg,GW/soldier.jpg,GW/basket.jpg,GW/soldier.jpg,GW/jukebox.jpg,1,,,
null,,html-keyboard-response,899518,<p></p>,,,,null,,,,,,,,,,,,,,
1156,,directmemory_phase,900678,GW/barrel.jpg,,,,51,,,1,0.7777777777777778,GW/dustpan.jpg,GW/gong.jpg,GW/hat.jpg,GW/hat.jpg,GW/gong.jpg,GW/dustpan.jpg,1,,,
null,,html-keyboard-response,901685,<p></p>,,,,null,,,,,,,,,,,,,,
1196.1000000238419,,directmemory_phase,902884,GW/snail.jpg,,,,49,,,1,0.8,GW/paint.jpg,GW/jukebox.jpg,GW/wheelchair.jpg,GW/paint.jpg,GW/wheelchair.jpg,GW/jukebox.jpg,1,,,
null,,html-keyboard-response,903888,<p></p>,,,,null,,,,,,,,,,,,,,
1375.7999999523163,,directmemory_phase,905268,GW/teeth.jpg,,,,51,,,1,0.8181818181818182,GW/snail.jpg,GW/dustpan.jpg,GW/camera.jpg,GW/camera.jpg,GW/dustpan.jpg,GW/snail.jpg,1,,,
null,,html-keyboard-response,906271,<p></p>,,,,null,,,,,,,,,,,,,,
1431.699999988079,,directmemory_phase,907707,GW/wheelchair.jpg,,,,49,,,1,0.8333333333333334,GW/globe.jpg,GW/camera.jpg,GW/snail.jpg,GW/globe.jpg,GW/snail.jpg,GW/camera.jpg,1,,,
null,,html-keyboard-response,908718,<p></p>,,,,null,,,,,,,,,,,,,,
2156.399999976158,,directmemory_phase,910877,GW/basket.jpg,,,,49,,,1,0.8461538461538461,GW/teeth.jpg,GW/snail.jpg,GW/jukebox.jpg,GW/teeth.jpg,GW/jukebox.jpg,GW/snail.jpg,1,,,
null,,html-keyboard-response,911879,<p></p>,,,,null,,,,,,,,,,,,,,
2282.800000011921,,directmemory_phase,914164,GW/paint.jpg,,,,51,,,1,0.8571428571428571,GW/dustpan.jpg,GW/basket.jpg,GW/camera.jpg,GW/camera.jpg,GW/basket.jpg,GW/dustpan.jpg,1,,,
null,,html-keyboard-response,915170,<p></p>,,,,null,,,,,,,,,,,,,,
1702.300000011921,,directmemory_phase,916875,GW/jukebox.jpg,,,,50,,,0,0.8,GW/teeth.jpg,GW/hat.jpg,GW/basket.jpg,GW/teeth.jpg,GW/basket.jpg,GW/hat.jpg,0.5,closer,,
null,,html-keyboard-response,917881,<p></p>,,,,null,,,,,,,,,,,,,,
2117.7999999523163,,directmemory_phase,920003,GW/barrel.jpg,,,,50,,,1,0.8125,GW/paint.jpg,GW/snail.jpg,GW/soldier.jpg,GW/snail.jpg,GW/paint.jpg,GW/soldier.jpg,1,,,
null,,html-keyboard-response,921009,<p></p>,,,,null,,,,,,,,,,,,,,
2207.5,,directmemory_phase,923219,GW/camera.jpg,,,,49,,,1,0.8235294117647058,GW/teeth.jpg,GW/dustpan.jpg,GW/jukebox.jpg,GW/teeth.jpg,GW/jukebox.jpg,GW/dustpan.jpg,1,,,
null,,html-keyboard-response,924223,<p></p>,,,,null,,,,,,,,,,,,,,
1403.9000000357628,,directmemory_phase,925630,GW/paint.jpg,,,,49,,,1,0.8333333333333334,GW/soldier.jpg,GW/dustpan.jpg,GW/barrel.jpg,GW/soldier.jpg,GW/barrel.jpg,GW/dustpan.jpg,1,,,
null,,html-keyboard-response,926636,<p></p>,,,,null,,,,,,,,,,,,,,
1013.1999999880791,,directmemory_phase,927653,GW/basket.jpg,,,,49,,,1,0.8421052631578947,GW/dustpan.jpg,GW/barrel.jpg,GW/jukebox.jpg,GW/dustpan.jpg,GW/jukebox.jpg,GW/barrel.jpg,1,,,
null,,html-keyboard-response,928664,<p></p>,,,,null,,,,,,,,,,,,,,
1270.699999988079,,directmemory_phase,929938,GW/globe.jpg,,,,51,,,1,0.85,GW/soldier.jpg,GW/barrel.jpg,GW/hat.jpg,GW/hat.jpg,GW/barrel.jpg,GW/soldier.jpg,1,,,
null,,html-keyboard-response,930941,<p></p>,,,,null,,,,,,,,,,,,,,
1726.2999999523163,,directmemory_phase,932668,GW/snail.jpg,,,,51,,,1,0.8571428571428571,GW/basket.jpg,GW/soldier.jpg,GW/barrel.jpg,GW/barrel.jpg,GW/soldier.jpg,GW/basket.jpg,1,,,
null,,html-keyboard-response,933673,<p></p>,,,,null,,,,,,,,,,,,,,
1737.6000000238419,,directmemory_phase,935415,GW/teeth.jpg,,,,49,,,0,0.8181818181818182,GW/snail.jpg,GW/dustpan.jpg,GW/basket.jpg,GW/basket.jpg,GW/dustpan.jpg,GW/snail.jpg,0.5,closer,,
null,,html-keyboard-response,936421,<p></p>,,,,null,,,,,,,,,,,,,,
1853.800000011921,,directmemory_phase,938277,GW/hat.jpg,,,,51,,,1,0.8260869565217391,GW/soldier.jpg,GW/wheelchair.jpg,GW/globe.jpg,GW/globe.jpg,GW/wheelchair.jpg,GW/soldier.jpg,1,,,
null,,html-keyboard-response,939282,<p></p>,,,,null,,,,,,,,,,,,,,
1663.5,,directmemory_phase,940947,GW/camera.jpg,,,,49,,,1,0.8333333333333334,GW/paint.jpg,GW/wheelchair.jpg,GW/soldier.jpg,GW/paint.jpg,GW/soldier.jpg,GW/wheelchair.jpg,1,,,
null,,html-keyboard-response,941950,<p></p>,,,,null,,,,,,,,,,,,,,
1378.8999999761581,,directmemory_phase,943332,GW/teeth.jpg,,,,50,,,0,0.8,GW/jukebox.jpg,GW/globe.jpg,GW/barrel.jpg,GW/jukebox.jpg,GW/barrel.jpg,GW/globe.jpg,0.5,closer,,
null,,html-keyboard-response,944336,<p></p>,,,,null,,,,,,,,,,,,,,
1650,,directmemory_phase,945989,GW/globe.jpg,,,,49,,,0,0.7692307692307693,GW/camera.jpg,GW/gong.jpg,GW/snail.jpg,GW/snail.jpg,GW/gong.jpg,GW/camera.jpg,0.5,closer,,
null,,html-keyboard-response,946993,<p></p>,,,,null,,,,,,,,,,,,,,
1886.4000000357628,,directmemory_phase,948882,GW/hat.jpg,,,,50,,,0,0.7407407407407407,GW/teeth.jpg,GW/camera.jpg,GW/barrel.jpg,GW/barrel.jpg,GW/camera.jpg,GW/teeth.jpg,0.5,closer,,
null,,html-keyboard-response,949886,<p></p>,,,,null,,,,,,,,,,,,,,
1261.199999988079,,directmemory_phase,951151,GW/soldier.jpg,,,,51,,,1,0.75,GW/hat.jpg,GW/snail.jpg,GW/paint.jpg,GW/paint.jpg,GW/snail.jpg,GW/hat.jpg,1,,,
null,,html-keyboard-response,952159,<p></p>,,,,null,,,,,,,,,,,,,,
1745.9000000357628,,directmemory_phase,953908,GW/hat.jpg,,,,51,,,0,0.7241379310344828,GW/wheelchair.jpg,GW/snail.jpg,GW/basket.jpg,GW/snail.jpg,GW/wheelchair.jpg,GW/basket.jpg,0.5,closer,,
null,,html-keyboard-response,954910,<p></p>,,,,null,,,,,,,,,,,,,,
1769.5999999642372,,directmemory_phase,956684,GW/barrel.jpg,,,,50,,,1,0.7333333333333333,GW/teeth.jpg,GW/camera.jpg,GW/wheelchair.jpg,GW/camera.jpg,GW/teeth.jpg,GW/wheelchair.jpg,1,,,
null,,html-keyboard-response,957691,<p></p>,,,,null,,,,,,,,,,,,,,
1512.0999999642372,,directmemory_phase,959207,GW/snail.jpg,,,,50,,,0,0.7096774193548387,GW/hat.jpg,GW/jukebox.jpg,GW/wheelchair.jpg,GW/hat.jpg,GW/wheelchair.jpg,GW/jukebox.jpg,0.5,closer,,
null,,html-keyboard-response,960212,<p></p>,,,,null,,,,,,,,,,,,,,
1431.7000000476837,,directmemory_phase,961645,GW/soldier.jpg,,,,50,,,1,0.71875,GW/camera.jpg,GW/basket.jpg,GW/hat.jpg,GW/basket.jpg,GW/camera.jpg,GW/hat.jpg,1,,,
null,,html-keyboard-response,962649,<p></p>,,,,null,,,,,,,,,,,,,,
29550.69999998808,,intro_1,992202,instruct,,0,,,,,,,,,,,,,,,,
10263.399999976158,,intro_2,1002469,instruct,,1,Next,,,,,,,,,,,,,,,
7586.599999964237,,intro_3,1010061,instruct,,1,Next,,,,,,,,,,,,,,,
12740.199999988079,,intro_4,1022805,instruct,,1,Next,,,,,,,,,,,,,,,
29738.69999998808,,intro_5,1052548,instruct,,1,Next,,,,,,,,,,,,,,,
34492.19999998808,,intro_6,1087046,instruct,,1,Next,,,,,,,,,,,,,,,
18848.5,,intro_7,1105898,instruct,,1,Next,,,,,,,,,,,,,,,
56778.19999998808,,intro_8,1162682,instruct,,1,Next,,,,,,,,,,,,,,,
3381.600000023842,,shortestpath_phase,1166068,GW/gong.jpg,,,,49,GW/wheelchair.jpg,GW/basket.jpg,1,1,,,,GW/wheelchair.jpg,,,,,Two Edge Diff,Three Edge Five Edge
null,,html-keyboard-response,1167075,<p></p>,,,,null,,,,,,,,,,,,,,
3701.099999964237,,shortestpath_phase,1170780,GW/camera.jpg,,,,49,GW/wheelchair.jpg,GW/dustpan.jpg,0,0.5,,,,GW/dustpan.jpg,,,,,One Edge Diff,Three Edge Four Edge
null,,html-keyboard-response,1171786,<p></p>,,,,null,,,,,,,,,,,,,,
3292.599999964237,,shortestpath_phase,1175083,GW/gong.jpg,,,,50,GW/dustpan.jpg,GW/snail.jpg,1,0.6666666666666666,,,,GW/snail.jpg,,,,,Four Edge Diff,Two Edge Six Edge
null,,html-keyboard-response,1176089,<p></p>,,,,null,,,,,,,,,,,,,,
2752,,shortestpath_phase,1178845,GW/soldier.jpg,,,,50,GW/gong.jpg,GW/globe.jpg,1,0.75,,,,GW/globe.jpg,,,,,One Edge Diff,Three Edge Four Edge
null,,html-keyboard-response,1179855,<p></p>,,,,null,,,,,,,,,,,,,,
1766.800000011921,,shortestpath_phase,1181625,GW/wheelchair.jpg,,,,49,GW/snail.jpg,GW/paint.jpg,1,0.8,,,,GW/snail.jpg,,,,,One Edge Diff,Two Edge Three Edge
null,,html-keyboard-response,1182635,<p></p>,,,,null,,,,,,,,,,,,,,
2149.2000000476837,,shortestpath_phase,1184788,GW/jukebox.jpg,,,,50,GW/wheelchair.jpg,GW/gong.jpg,1,0.8333333333333334,,,,GW/gong.jpg,,,,,One Edge Diff,Five Edge Six Edge
null,,html-keyboard-response,1185794,<p></p>,,,,null,,,,,,,,,,,,,,
3809.699999988079,,shortestpath_phase,1189606,GW/dustpan.jpg,,,,49,GW/snail.jpg,GW/globe.jpg,1,0.8571428571428571,,,,GW/snail.jpg,,,,,One Edge Diff,Four Edge Five Edge
null,,html-keyboard-response,1190609,<p></p>,,,,null,,,,,,,,,,,,,,
3593.600000023842,,shortestpath_phase,1194205,GW/wheelchair.jpg,,,,50,GW/teeth.jpg,GW/dustpan.jpg,0,0.75,,,,GW/teeth.jpg,,,,,One Edge Diff,Five Edge Six Edge
null,,html-keyboard-response,1195208,<p></p>,,,,null,,,,,,,,,,,,,,
3996.5,,shortestpath_phase,1199208,GW/paint.jpg,,,,50,GW/dustpan.jpg,GW/hat.jpg,1,0.7777777777777778,,,,GW/hat.jpg,,,,,One Edge Diff,Two Edge Three Edge
null,,html-keyboard-response,1200215,<p></p>,,,,null,,,,,,,,,,,,,,
2434.400000035763,,shortestpath_phase,1202653,GW/wheelchair.jpg,,,,49,GW/basket.jpg,GW/dustpan.jpg,1,0.8,,,,GW/basket.jpg,,,,,One Edge Diff,Five Edge Six Edge
null,,html-keyboard-response,1203660,<p></p>,,,,null,,,,,,,,,,,,,,
2431.400000035763,,shortestpath_phase,1206094,GW/gong.jpg,,,,49,GW/teeth.jpg,GW/dustpan.jpg,1,0.8181818181818182,,,,GW/teeth.jpg,,,,,Two Edge Diff,Four Edge Six Edge
null,,html-keyboard-response,1207098,<p></p>,,,,null,,,,,,,,,,,,,,
2379,,shortestpath_phase,1209480,GW/jukebox.jpg,,,,50,GW/gong.jpg,GW/camera.jpg,1,0.8333333333333334,,,,GW/camera.jpg,,,,,Three Edge Diff,Two Edge Five Edge
null,,html-keyboard-response,1210495,<p></p>,,,,null,,,,,,,,,,,,,,
2286.099999964237,,shortestpath_phase,1212786,GW/dustpan.jpg,,,,50,GW/wheelchair.jpg,GW/snail.jpg,1,0.8461538461538461,,,,GW/snail.jpg,,,,,Two Edge Diff,Four Edge Six Edge
null,,html-keyboard-response,1213794,<p></p>,,,,null,,,,,,,,,,,,,,
1779.9000000357628,,shortestpath_phase,1215576,GW/jukebox.jpg,,,,50,GW/basket.jpg,GW/gong.jpg,0,0.7857142857142857,,,,GW/basket.jpg,,,,,Three Edge Diff,Two Edge Five Edge
null,,html-keyboard-response,1216579,<p></p>,,,,null,,,,,,,,,,,,,,
2080.599999964237,,shortestpath_phase,1218662,GW/globe.jpg,,,,49,GW/teeth.jpg,GW/jukebox.jpg,1,0.8,,,,GW/teeth.jpg,,,,,One Edge Diff,Four Edge Five Edge
null,,html-keyboard-response,1219668,<p></p>,,,,null,,,,,,,,,,,,,,
2255.599999964237,,shortestpath_phase,1221927,GW/basket.jpg,,,,49,GW/jukebox.jpg,GW/gong.jpg,1,0.8125,,,,GW/jukebox.jpg,,,,,Three Edge Diff,Two Edge Five Edge
null,,html-keyboard-response,1222930,<p></p>,,,,null,,,,,,,,,,,,,,
1970.9000000357628,,shortestpath_phase,1224905,GW/gong.jpg,,,,49,GW/camera.jpg,GW/basket.jpg,1,0.8235294117647058,,,,GW/camera.jpg,,,,,Two Edge Diff,Three Edge Five Edge
null,,html-keyboard-response,1225907,<p></p>,,,,null,,,,,,,,,,,,,,
2284.5,,shortestpath_phase,1228193,GW/soldier.jpg,,,,50,GW/wheelchair.jpg,GW/teeth.jpg,1,0.8333333333333334,,,,GW/teeth.jpg,,,,,Two Edge Diff,Two Edge Four Edge
null,,html-keyboard-response,1229199,<p></p>,,,,null,,,,,,,,,,,,,,
2251.699999988079,,shortestpath_phase,1231454,GW/jukebox.jpg,,,,49,GW/gong.jpg,GW/camera.jpg,0,0.7894736842105263,,,,GW/camera.jpg,,,,,Three Edge Diff,Three Edge Six Edge
null,,html-keyboard-response,1232460,<p></p>,,,,null,,,,,,,,,,,,,,
2065.599999964237,,shortestpath_phase,1234529,GW/teeth.jpg,,,,50,GW/gong.jpg,GW/barrel.jpg,1,0.8,,,,GW/barrel.jpg,,,,,Two Edge Diff,Two Edge Four Edge
null,,html-keyboard-response,1235536,<p></p>,,,,null,,,,,,,,,,,,,,
3283.2999999523163,,shortestpath_phase,1238824,GW/basket.jpg,,,,49,GW/camera.jpg,GW/wheelchair.jpg,1,0.8095238095238095,,,,GW/camera.jpg,,,,,Three Edge Diff,Two Edge Five Edge
null,,html-keyboard-response,1239829,<p></p>,,,,null,,,,,,,,,,,,,,
2197.7000000476837,,shortestpath_phase,1242029,GW/teeth.jpg,,,,50,GW/hat.jpg,GW/globe.jpg,0,0.7727272727272727,,,,GW/hat.jpg,,,,,One Edge Diff,Three Edge Four Edge
null,,html-keyboard-response,1243036,<p></p>,,,,null,,,,,,,,,,,,,,
2266.400000035763,,shortestpath_phase,1245306,GW/wheelchair.jpg,,,,50,GW/paint.jpg,GW/teeth.jpg,0,0.7391304347826086,,,,GW/paint.jpg,,,,,Two Edge Diff,Three Edge Five Edge
null,,html-keyboard-response,1246310,<p></p>,,,,null,,,,,,,,,,,,,,
3777.699999988079,,shortestpath_phase,1250090,GW/basket.jpg,,,,50,GW/wheelchair.jpg,GW/barrel.jpg,1,0.75,,,,GW/barrel.jpg,,,,,Two Edge Diff,Three Edge Five Edge
null,,html-keyboard-response,1251093,<p></p>,,,,null,,,,,,,,,,,,,,
2091.7999999523163,,shortestpath_phase,1253189,GW/gong.jpg,,,,49,GW/teeth.jpg,GW/basket.jpg,1,0.76,,,,GW/teeth.jpg,,,,,One Edge Diff,Four Edge Five Edge
null,,html-keyboard-response,1254195,<p></p>,,,,null,,,,,,,,,,,,,,
2065,,shortestpath_phase,1256264,GW/globe.jpg,,,,49,GW/barrel.jpg,GW/jukebox.jpg,1,0.7692307692307693,,,,GW/barrel.jpg,,,,,Three Edge Diff,Three Edge Six Edge
null,,html-keyboard-response,1257273,<p></p>,,,,null,,,,,,,,,,,,,,
2170,,shortestpath_phase,1259447,GW/basket.jpg,,,,49,GW/paint.jpg,GW/globe.jpg,1,0.7777777777777778,,,,GW/paint.jpg,,,,,Two Edge Diff,Two Edge Four Edge
null,,html-keyboard-response,1260455,<p></p>,,,,null,,,,,,,,,,,,,,
1948.5,,shortestpath_phase,1262406,GW/globe.jpg,,,,50,GW/jukebox.jpg,GW/barrel.jpg,1,0.7857142857142857,,,,GW/barrel.jpg,,,,,Three Edge Diff,Two Edge Five Edge
null,,html-keyboard-response,1263410,<p></p>,,,,null,,,,,,,,,,,,,,
1649.9000000357628,,shortestpath_phase,1265062,GW/jukebox.jpg,,,,50,GW/basket.jpg,GW/wheelchair.jpg,0,0.7586206896551724,,,,GW/basket.jpg,,,,,Four Edge Diff,Two Edge Six Edge
null,,html-keyboard-response,1266066,<p></p>,,,,null,,,,,,,,,,,,,,
2885.699999988079,,shortestpath_phase,1268954,GW/barrel.jpg,,,,49,GW/teeth.jpg,GW/dustpan.jpg,1,0.7666666666666667,,,,GW/teeth.jpg,,,,,Two Edge Diff,Two Edge Four Edge
null,,html-keyboard-response,1269960,<p></p>,,,,null,,,,,,,,,,,,,,
2130.5,,shortestpath_phase,1272093,GW/wheelchair.jpg,,,,50,GW/jukebox.jpg,GW/hat.jpg,1,0.7741935483870968,,,,GW/hat.jpg,,,,,Four Edge Diff,Two Edge Six Edge
null,,html-keyboard-response,1273100,<p></p>,,,,null,,,,,,,,,,,,,,
2623.900000035763,,shortestpath_phase,1275728,GW/soldier.jpg,,,,50,GW/hat.jpg,GW/camera.jpg,1,0.78125,,,,GW/camera.jpg,,,,,One Edge Diff,Two Edge Three Edge
null,,html-keyboard-response,1276731,<p></p>,,,,null,,,,,,,,,,,,,,
2210.900000035763,,shortestpath_phase,1278946,GW/barrel.jpg,,,,49,GW/globe.jpg,GW/soldier.jpg,1,0.7878787878787878,,,,GW/globe.jpg,,,,,One Edge Diff,Two Edge Three Edge
null,,html-keyboard-response,1279952,<p></p>,,,,null,,,,,,,,,,,,,,
1832.699999988079,,shortestpath_phase,1281789,GW/soldier.jpg,,,,49,GW/hat.jpg,GW/gong.jpg,1,0.7941176470588235,,,,GW/hat.jpg,,,,,One Edge Diff,Three Edge Four Edge
null,,html-keyboard-response,1282795,<p></p>,,,,null,,,,,,,,,,,,,,
2198,,shortestpath_phase,1284998,GW/globe.jpg,,,,50,GW/gong.jpg,GW/jukebox.jpg,0,0.7714285714285715,,,,GW/gong.jpg,,,,,Three Edge Diff,Two Edge Five Edge
null,,html-keyboard-response,1286005,<p></p>,,,,null,,,,,,,,,,,,,,
2035,,shortestpath_phase,1288044,GW/snail.jpg,,,,50,GW/camera.jpg,GW/dustpan.jpg,0,0.75,,,,GW/camera.jpg,,,,,Two Edge Diff,Two Edge Four Edge
null,,html-keyboard-response,1289048,<p></p>,,,,null,,,,,,,,,,,,,,
3015,,shortestpath_phase,1292067,GW/basket.jpg,,,,50,GW/wheelchair.jpg,GW/globe.jpg,1,0.7567567567567568,,,,GW/globe.jpg,,,,,One Edge Diff,Four Edge Five Edge
null,,html-keyboard-response,1293075,<p></p>,,,,null,,,,,,,,,,,,,,
2368.600000023842,,shortestpath_phase,1295447,GW/wheelchair.jpg,,,,50,GW/dustpan.jpg,GW/soldier.jpg,1,0.7631578947368421,,,,GW/soldier.jpg,,,,,Two Edge Diff,Four Edge Six Edge
null,,html-keyboard-response,1296454,<p></p>,,,,null,,,,,,,,,,,,,,
2190.2999999523163,,shortestpath_phase,1298646,GW/gong.jpg,,,,50,GW/dustpan.jpg,GW/globe.jpg,1,0.7692307692307693,,,,GW/globe.jpg,,,,,Four Edge Diff,Two Edge Six Edge
null,,html-keyboard-response,1299656,<p></p>,,,,null,,,,,,,,,,,,,,
1873.9000000357628,,shortestpath_phase,1301535,GW/basket.jpg,,,,49,GW/paint.jpg,GW/gong.jpg,1,0.775,,,,GW/paint.jpg,,,,,Three Edge Diff,Three Edge Six Edge
null,,html-keyboard-response,1302544,<p></p>,,,,null,,,,,,,,,,,,,,
2107.2999999523163,,shortestpath_phase,1304657,GW/globe.jpg,,,,50,GW/jukebox.jpg,GW/gong.jpg,1,0.7804878048780488,,,,GW/gong.jpg,,,,,Three Edge Diff,Three Edge Six Edge
null,,html-keyboard-response,1305664,<p></p>,,,,null,,,,,,,,,,,,,,
2234.099999964237,,shortestpath_phase,1307904,GW/soldier.jpg,,,,50,GW/barrel.jpg,GW/gong.jpg,0,0.7619047619047619,,,,GW/barrel.jpg,,,,,One Edge Diff,Three Edge Four Edge
null,,html-keyboard-response,1308909,<p></p>,,,,null,,,,,,,,,,,,,,
2767.099999964237,,shortestpath_phase,1311679,GW/snail.jpg,,,,50,GW/gong.jpg,GW/dustpan.jpg,0,0.7441860465116279,,,,GW/gong.jpg,,,,,Two Edge Diff,Two Edge Four Edge
null,,html-keyboard-response,1312682,<p></p>,,,,null,,,,,,,,,,,,,,
1957.1000000238419,,shortestpath_phase,1314644,GW/wheelchair.jpg,,,,50,GW/camera.jpg,GW/jukebox.jpg,0,0.7272727272727273,,,,GW/camera.jpg,,,,,Two Edge Diff,Four Edge Six Edge
null,,html-keyboard-response,1315650,<p></p>,,,,null,,,,,,,,,,,,,,
2794.100000023842,,shortestpath_phase,1318448,GW/teeth.jpg,,,,49,GW/hat.jpg,GW/paint.jpg,0,0.7111111111111111,,,,GW/paint.jpg,,,,,One Edge Diff,Two Edge Three Edge
null,,html-keyboard-response,1319454,<p></p>,,,,null,,,,,,,,,,,,,,
1880.7000000476837,,shortestpath_phase,1321338,GW/jukebox.jpg,,,,49,GW/barrel.jpg,GW/gong.jpg,1,0.717391304347826,,,,GW/barrel.jpg,,,,,Two Edge Diff,Three Edge Five Edge
null,,html-keyboard-response,1322341,<p></p>,,,,null,,,,,,,,,,,,,,
2490.300000011921,,shortestpath_phase,1324834,GW/wheelchair.jpg,,,,50,GW/jukebox.jpg,GW/teeth.jpg,1,0.723404255319149,,,,GW/teeth.jpg,,,,,One Edge Diff,Five Edge Six Edge
null,,html-keyboard-response,1325841,<p></p>,,,,null,,,,,,,,,,,,,,
2779.600000023842,,shortestpath_phase,1328624,GW/dustpan.jpg,,,,49,GW/hat.jpg,GW/wheelchair.jpg,1,0.7291666666666666,,,,GW/hat.jpg,,,,,One Edge Diff,Five Edge Six Edge
null,,html-keyboard-response,1329640,<p></p>,,,,null,,,,,,,,,,,,,,
2134.400000035763,,shortestpath_phase,1331778,GW/gong.jpg,,,,50,GW/dustpan.jpg,GW/barrel.jpg,1,0.7346938775510204,,,,GW/barrel.jpg,,,,,Four Edge Diff,Two Edge Six Edge
null,,html-keyboard-response,1332782,<p></p>,,,,null,,,,,,,,,,,,,,
1617.4000000357628,,shortestpath_phase,1334404,GW/globe.jpg,,,,49,GW/basket.jpg,GW/jukebox.jpg,1,0.74,,,,GW/basket.jpg,,,,,One Edge Diff,Four Edge Five Edge
null,,html-keyboard-response,1335409,<p></p>,,,,null,,,,,,,,,,,,,,
2181.199999988079,,shortestpath_phase,1337592,GW/dustpan.jpg,,,,50,GW/barrel.jpg,GW/wheelchair.jpg,0,0.7254901960784313,,,,GW/barrel.jpg,,,,,Two Edge Diff,Four Edge Six Edge
null,,html-keyboard-response,1338595,<p></p>,,,,null,,,,,,,,,,,,,,
2311.199999988079,,shortestpath_phase,1340908,GW/basket.jpg,,,,50,GW/snail.jpg,GW/globe.jpg,0,0.7115384615384616,,,,GW/snail.jpg,,,,,One Edge Diff,Three Edge Four Edge
null,,html-keyboard-response,1341912,<p></p>,,,,null,,,,,,,,,,,,,,
2049.5,,shortestpath_phase,1343966,GW/hat.jpg,,,,49,GW/basket.jpg,GW/wheelchair.jpg,0,0.6981132075471698,,,,GW/wheelchair.jpg,,,,,Two Edge Diff,Two Edge Four Edge
null,,html-keyboard-response,1344975,<p></p>,,,,null,,,,,,,,,,,,,,
2036,,shortestpath_phase,1347014,GW/basket.jpg,,,,50,GW/wheelchair.jpg,GW/paint.jpg,1,0.7037037037037037,,,,GW/paint.jpg,,,,,Three Edge Diff,Three Edge Six Edge
null,,html-keyboard-response,1348019,<p></p>,,,,null,,,,,,,,,,,,,,
1927.800000011921,,shortestpath_phase,1349950,GW/dustpan.jpg,,,,49,GW/teeth.jpg,GW/gong.jpg,1,0.7090909090909091,,,,GW/teeth.jpg,,,,,Four Edge Diff,Two Edge Six Edge
null,,html-keyboard-response,1350954,<p></p>,,,,null,,,,,,,,,,,,,,
1596.9000000357628,,shortestpath_phase,1352555,GW/paint.jpg,,,,49,GW/hat.jpg,GW/gong.jpg,1,0.7142857142857143,,,,GW/hat.jpg,,,,,One Edge Diff,Two Edge Three Edge
null,,html-keyboard-response,1353564,<p></p>,,,,null,,,,,,,,,,,,,,
1338.7999999523163,,shortestpath_phase,1354906,GW/dustpan.jpg,,,,50,GW/gong.jpg,GW/soldier.jpg,1,0.7192982456140351,,,,GW/soldier.jpg,,,,,Four Edge Diff,Two Edge Six Edge
null,,html-keyboard-response,1355910,<p></p>,,,,null,,,,,,,,,,,,,,
2650,,shortestpath_phase,1358562,GW/globe.jpg,,,,49,GW/camera.jpg,GW/teeth.jpg,1,0.7241379310344828,,,,GW/camera.jpg,,,,,One Edge Diff,Three Edge Four Edge
null,,html-keyboard-response,1359567,<p></p>,,,,null,,,,,,,,,,,,,,
1366.5999999642372,,shortestpath_phase,1360938,GW/dustpan.jpg,,,,50,GW/soldier.jpg,GW/wheelchair.jpg,0,0.711864406779661,,,,GW/soldier.jpg,,,,,Four Edge Diff,Two Edge Six Edge
null,,html-keyboard-response,1361945,<p></p>,,,,null,,,,,,,,,,,,,,
2058.300000011921,,shortestpath_phase,1364007,GW/globe.jpg,,,,49,GW/soldier.jpg,GW/paint.jpg,0,0.7,,,,GW/paint.jpg,,,,,One Edge Diff,Two Edge Three Edge
null,,html-keyboard-response,1365012,<p></p>,,,,null,,,,,,,,,,,,,,
2652,,shortestpath_phase,1367667,GW/dustpan.jpg,,,,50,GW/hat.jpg,GW/gong.jpg,0,0.6885245901639344,,,,GW/hat.jpg,,,,,One Edge Diff,Five Edge Six Edge
null,,html-keyboard-response,1368679,<p></p>,,,,null,,,,,,,,,,,,,,
1604.199999988079,,shortestpath_phase,1370288,GW/wheelchair.jpg,,,,50,GW/basket.jpg,GW/camera.jpg,1,0.6935483870967742,,,,GW/camera.jpg,,,,,One Edge Diff,Four Edge Five Edge
null,,html-keyboard-response,1371293,<p></p>,,,,null,,,,,,,,,,,,,,
1770.8999999761581,,shortestpath_phase,1373067,GW/basket.jpg,,,,50,GW/jukebox.jpg,GW/wheelchair.jpg,0,0.6825396825396826,,,,GW/jukebox.jpg,,,,,Three Edge Diff,Three Edge Six Edge
null,,html-keyboard-response,1374073,<p></p>,,,,null,,,,,,,,,,,,,,
1424.800000011921,,shortestpath_phase,1375502,GW/dustpan.jpg,,,,49,GW/globe.jpg,GW/wheelchair.jpg,1,0.6875,,,,GW/globe.jpg,,,,,One Edge Diff,Five Edge Six Edge
null,,html-keyboard-response,1376518,<p></p>,,,,null,,,,,,,,,,,,,,
1394.3999999761581,,shortestpath_phase,1377915,GW/wheelchair.jpg,,,,49,GW/gong.jpg,GW/teeth.jpg,1,0.6923076923076923,,,,GW/gong.jpg,,,,,Two Edge Diff,Three Edge Five Edge
null,,html-keyboard-response,1378918,<p></p>,,,,null,,,,,,,,,,,,,,
2516.599999964237,,shortestpath_phase,1381439,GW/snail.jpg,,,,49,GW/basket.jpg,GW/dustpan.jpg,1,0.696969696969697,,,,GW/basket.jpg,,,,,One Edge Diff,Three Edge Four Edge
null,,html-keyboard-response,1382443,<p></p>,,,,null,,,,,,,,,,,,,,
1659.5,,shortestpath_phase,1384106,GW/wheelchair.jpg,,,,49,GW/hat.jpg,GW/dustpan.jpg,1,0.7014925373134329,,,,GW/hat.jpg,,,,,Four Edge Diff,Two Edge Six Edge
null,,html-keyboard-response,1385111,<p></p>,,,,null,,,,,,,,,,,,,,
1324.7999999523163,,shortestpath_phase,1386438,GW/gong.jpg,,,,50,GW/jukebox.jpg,GW/barrel.jpg,1,0.7058823529411765,,,,GW/barrel.jpg,,,,,Three Edge Diff,Three Edge Six Edge
null,,html-keyboard-response,1387445,<p></p>,,,,null,,,,,,,,,,,,,,
1443.5,,shortestpath_phase,1388893,GW/wheelchair.jpg,,,,50,GW/teeth.jpg,GW/snail.jpg,1,0.7101449275362319,,,,GW/snail.jpg,,,,,Three Edge Diff,Three Edge Six Edge
null,,html-keyboard-response,1389900,<p></p>,,,,null,,,,,,,,,,,,,,
1906.5999999642372,,shortestpath_phase,1391809,GW/gong.jpg,,,,49,GW/jukebox.jpg,GW/teeth.jpg,0,0.7,,,,GW/teeth.jpg,,,,,One Edge Diff,Four Edge Five Edge
null,,html-keyboard-response,1392812,<p></p>,,,,null,,,,,,,,,,,,,,
1320.800000011921,,shortestpath_phase,1394136,GW/wheelchair.jpg,,,,49,GW/barrel.jpg,GW/teeth.jpg,1,0.704225352112676,,,,GW/barrel.jpg,,,,,Two Edge Diff,Three Edge Five Edge
null,,html-keyboard-response,1395139,<p></p>,,,,null,,,,,,,,,,,,,,
957.8999999761581,,shortestpath_phase,1396098,GW/hat.jpg,,,,50,GW/dustpan.jpg,GW/basket.jpg,1,0.7083333333333334,,,,GW/basket.jpg,,,,,One Edge Diff,Four Edge Five Edge
null,,html-keyboard-response,1397105,<p></p>,,,,null,,,,,,,,,,,,,,
976,,shortestpath_phase,1398086,GW/dustpan.jpg,,,,49,GW/teeth.jpg,GW/hat.jpg,1,0.7123287671232876,,,,GW/teeth.jpg,,,,,Three Edge Diff,Three Edge Six Edge
null,,html-keyboard-response,1399093,<p></p>,,,,null,,,,,,,,,,,,,,
1311.3999999761581,,shortestpath_phase,1400409,GW/hat.jpg,,,,50,GW/dustpan.jpg,GW/jukebox.jpg,1,0.7162162162162162,,,,GW/jukebox.jpg,,,,,One Edge Diff,Four Edge Five Edge
null,,html-keyboard-response,1401416,<p></p>,,,,null,,,,,,,,,,,,,,
1481,,shortestpath_phase,1402901,GW/dustpan.jpg,,,,50,GW/globe.jpg,GW/soldier.jpg,1,0.72,,,,GW/soldier.jpg,,,,,Three Edge Diff,Two Edge Five Edge
null,,html-keyboard-response,1403908,<p></p>,,,,null,,,,,,,,,,,,,,
1713.8999999761581,,shortestpath_phase,1405625,GW/basket.jpg,,,,50,GW/gong.jpg,GW/camera.jpg,1,0.7236842105263158,,,,GW/camera.jpg,,,,,Three Edge Diff,Two Edge Five Edge
null,,html-keyboard-response,1406628,<p></p>,,,,null,,,,,,,,,,,,,,
2466.599999964237,,shortestpath_phase,1409097,GW/teeth.jpg,,,,50,GW/snail.jpg,GW/soldier.jpg,1,0.7272727272727273,,,,GW/soldier.jpg,,,,,One Edge Diff,Two Edge Three Edge
null,,html-keyboard-response,1410100,<p></p>,,,,null,,,,,,,,,,,,,,
1566.199999988079,,shortestpath_phase,1411670,GW/dustpan.jpg,,,,49,GW/hat.jpg,GW/jukebox.jpg,0,0.717948717948718,,,,GW/jukebox.jpg,,,,,Two Edge Diff,Three Edge Five Edge
null,,html-keyboard-response,1412677,<p></p>,,,,null,,,,,,,,,,,,,,
2846.800000011921,,shortestpath_phase,1415526,GW/barrel.jpg,,,,50,GW/paint.jpg,GW/dustpan.jpg,0,0.7088607594936709,,,,GW/paint.jpg,,,,,Two Edge Diff,Two Edge Four Edge
null,,html-keyboard-response,1416545,<p></p>,,,,null,,,,,,,,,,,,,,
1778.3999999761581,,shortestpath_phase,1418325,GW/teeth.jpg,,,,49,GW/globe.jpg,GW/dustpan.jpg,0,0.7,,,,GW/dustpan.jpg,,,,,Two Edge Diff,Two Edge Four Edge
null,,html-keyboard-response,1419330,<p></p>,,,,null,,,,,,,,,,,,,,
1803.6000000238419,,shortestpath_phase,1421138,GW/jukebox.jpg,,,,50,GW/globe.jpg,GW/basket.jpg,1,0.7037037037037037,,,,GW/basket.jpg,,,,,Three Edge Diff,Two Edge Five Edge
null,,html-keyboard-response,1422145,<p></p>,,,,null,,,,,,,,,,,,,,
1614.699999988079,,shortestpath_phase,1423764,GW/dustpan.jpg,,,,50,GW/teeth.jpg,GW/globe.jpg,0,0.6951219512195121,,,,GW/teeth.jpg,,,,,Three Edge Diff,Three Edge Six Edge
null,,html-keyboard-response,1424783,<p></p>,,,,null,,,,,,,,,,,,,,
1443.6000000238419,,shortestpath_phase,1426230,GW/jukebox.jpg,,,,50,GW/globe.jpg,GW/barrel.jpg,1,0.6987951807228916,,,,GW/barrel.jpg,,,,,Two Edge Diff,Three Edge Five Edge
null,,html-keyboard-response,1427234,<p></p>,,,,null,,,,,,,,,,,,,,
1498.6000000238419,,shortestpath_phase,1428736,GW/gong.jpg,,,,50,GW/basket.jpg,GW/dustpan.jpg,0,0.6904761904761905,,,,GW/basket.jpg,,,,,One Edge Diff,Five Edge Six Edge
null,,html-keyboard-response,1429742,<p></p>,,,,null,,,,,,,,,,,,,,
2171.699999988079,,shortestpath_phase,1431916,GW/hat.jpg,,,,50,GW/jukebox.jpg,GW/soldier.jpg,1,0.6941176470588235,,,,GW/soldier.jpg,,,,,One Edge Diff,Three Edge Four Edge
null,,html-keyboard-response,1432921,<p></p>,,,,null,,,,,,,,,,,,,,
3359.100000023842,,shortestpath_phase,1436282,GW/teeth.jpg,,,,50,GW/wheelchair.jpg,GW/gong.jpg,1,0.6976744186046512,,,,GW/gong.jpg,,,,,One Edge Diff,Four Edge Five Edge
null,,html-keyboard-response,1437288,<p></p>,,,,null,,,,,,,,,,,,,,
null,,shortestpath_phase,1444793,GW/dustpan.jpg,,,,null,GW/barrel.jpg,GW/jukebox.jpg,0,0.6896551724137931,,,,GW/jukebox.jpg,,,,,One Edge Diff,Three Edge Four Edge
null,,html-keyboard-response,1445801,<p></p>,,,,null,,,,,,,,,,,,,,
1201.2999999523163,,shortestpath_phase,1447005,GW/gong.jpg,,,,49,GW/soldier.jpg,GW/dustpan.jpg,1,0.6931818181818182,,,,GW/soldier.jpg,,,,,Two Edge Diff,Four Edge Six Edge
null,,html-keyboard-response,1448008,<p></p>,,,,null,,,,,,,,,,,,,,
1224.7999999523163,,shortestpath_phase,1449237,GW/jukebox.jpg,,,,50,GW/camera.jpg,GW/wheelchair.jpg,0,0.6853932584269663,,,,GW/camera.jpg,,,,,Four Edge Diff,Two Edge Six Edge
null,,html-keyboard-response,1450243,<p></p>,,,,null,,,,,,,,,,,,,,
1506.3999999761581,,shortestpath_phase,1451753,GW/wheelchair.jpg,,,,50,GW/jukebox.jpg,GW/snail.jpg,1,0.6888888888888889,,,,GW/snail.jpg,,,,,Four Edge Diff,Two Edge Six Edge
null,,html-keyboard-response,1452757,<p></p>,,,,null,,,,,,,,,,,,,,
2556.5,,shortestpath_phase,1455316,GW/jukebox.jpg,,,,49,GW/wheelchair.jpg,GW/hat.jpg,0,0.6813186813186813,,,,GW/hat.jpg,,,,,Two Edge Diff,Four Edge Six Edge
null,,html-keyboard-response,1456322,<p></p>,,,,null,,,,,,,,,,,,,,
3301.800000011921,,shortestpath_phase,1459627,GW/soldier.jpg,,,,49,GW/barrel.jpg,GW/camera.jpg,0,0.6739130434782609,,,,GW/camera.jpg,,,,,One Edge Diff,Two Edge Three Edge
null,,html-keyboard-response,1460632,<p></p>,,,,null,,,,,,,,,,,,,,
1974.300000011921,,shortestpath_phase,1462608,GW/wheelchair.jpg,,,,50,GW/snail.jpg,GW/dustpan.jpg,0,0.6666666666666666,,,,GW/snail.jpg,,,,,Four Edge Diff,Two Edge Six Edge
null,,html-keyboard-response,1463609,<p></p>,,,,null,,,,,,,,,,,,,,
3207.399999976158,,shortestpath_phase,1466819,GW/jukebox.jpg,,,,49,GW/globe.jpg,GW/wheelchair.jpg,1,0.6702127659574468,,,,GW/globe.jpg,,,,,One Edge Diff,Five Edge Six Edge
null,,html-keyboard-response,1467826,<p></p>,,,,null,,,,,,,,,,,,,,
1617.5999999642372,,shortestpath_phase,1469447,GW/wheelchair.jpg,,,,50,GW/dustpan.jpg,GW/camera.jpg,1,0.6736842105263158,,,,GW/camera.jpg,,,,,Two Edge Diff,Four Edge Six Edge
null,,html-keyboard-response,1470453,<p></p>,,,,null,,,,,,,,,,,,,,
2655.300000011921,,shortestpath_phase,1473112,GW/jukebox.jpg,,,,50,GW/wheelchair.jpg,GW/snail.jpg,1,0.6770833333333334,,,,GW/snail.jpg,,,,,Two Edge Diff,Four Edge Six Edge
null,,html-keyboard-response,1474119,<p></p>,,,,null,,,,,,,,,,,,,,
1596.5,,shortestpath_phase,1475720,GW/dustpan.jpg,,,,50,GW/teeth.jpg,GW/wheelchair.jpg,0,0.6701030927835051,,,,GW/teeth.jpg,,,,,Four Edge Diff,Two Edge Six Edge
null,,html-keyboard-response,1476728,<p></p>,,,,null,,,,,,,,,,,,,,
6515.600000023842,,shortestpath_phase,1483248,GW/hat.jpg,,,,49,GW/jukebox.jpg,GW/camera.jpg,0,0.6632653061224489,,,,GW/camera.jpg,,,,,Two Edge Diff,Two Edge Four Edge
null,,html-keyboard-response,1484254,<p></p>,,,,null,,,,,,,,,,,,,,
2541.600000023842,,shortestpath_phase,1486799,GW/dustpan.jpg,,,,49,GW/globe.jpg,GW/gong.jpg,1,0.6666666666666666,,,,GW/globe.jpg,,,,,One Edge Diff,Five Edge Six Edge
null,,html-keyboard-response,1487806,<p></p>,,,,null,,,,,,,,,,,,,,
2275,,shortestpath_phase,1490085,GW/gong.jpg,,,,50,GW/wheelchair.jpg,GW/snail.jpg,1,0.67,,,,GW/snail.jpg,,,,,One Edge Diff,Two Edge Three Edge
null,,html-keyboard-response,1491092,<p></p>,,,,null,,,,,,,,,,,,,,
1767.5,,shortestpath_phase,1492865,GW/dustpan.jpg,,,,49,GW/barrel.jpg,GW/gong.jpg,1,0.6732673267326733,,,,GW/barrel.jpg,,,,,Two Edge Diff,Four Edge Six Edge
null,,html-keyboard-response,1493872,<p></p>,,,,null,,,,,,,,,,,,,,
1978.6000000238419,,shortestpath_phase,1495856,GW/jukebox.jpg,,,,50,GW/soldier.jpg,GW/globe.jpg,0,0.6666666666666666,,,,GW/soldier.jpg,,,,,Two Edge Diff,Three Edge Five Edge
null,,html-keyboard-response,1496860,<p></p>,,,,null,,,,,,,,,,,,,,
2724.600000023842,,shortestpath_phase,1499588,GW/dustpan.jpg,,,,49,GW/gong.jpg,GW/snail.jpg,0,0.6601941747572816,,,,GW/snail.jpg,,,,,Two Edge Diff,Four Edge Six Edge
null,,html-keyboard-response,1500591,<p></p>,,,,null,,,,,,,,,,,,,,
3809.300000011921,,shortestpath_phase,1504401,GW/wheelchair.jpg,,,,50,GW/basket.jpg,GW/soldier.jpg,1,0.6634615384615384,,,,GW/soldier.jpg,,,,,One Edge Diff,Four Edge Five Edge
null,,html-keyboard-response,1505403,<p></p>,,,,null,,,,,,,,,,,,,,
2432.7000000476837,,shortestpath_phase,1507839,GW/teeth.jpg,,,,50,GW/wheelchair.jpg,GW/barrel.jpg,1,0.6666666666666666,,,,GW/barrel.jpg,,,,,Three Edge Diff,Two Edge Five Edge
null,,html-keyboard-response,1508844,<p></p>,,,,null,,,,,,,,,,,,,,
2516.699999988079,,shortestpath_phase,1511362,GW/wheelchair.jpg,,,,50,GW/jukebox.jpg,GW/basket.jpg,1,0.6698113207547169,,,,GW/basket.jpg,,,,,One Edge Diff,Five Edge Six Edge
null,,html-keyboard-response,1512366,<p></p>,,,,null,,,,,,,,,,,,,,
2095.5,,shortestpath_phase,1514468,GW/globe.jpg,,,,50,GW/soldier.jpg,GW/dustpan.jpg,0,0.6635514018691588,,,,GW/soldier.jpg,,,,,Two Edge Diff,Three Edge Five Edge
null,,html-keyboard-response,1515475,<p></p>,,,,null,,,,,,,,,,,,,,
3808.5,,shortestpath_phase,1519287,GW/basket.jpg,,,,49,GW/wheelchair.jpg,GW/jukebox.jpg,0,0.6574074074074074,,,,GW/jukebox.jpg,,,,,Three Edge Diff,Two Edge Five Edge
null,,html-keyboard-response,1520296,<p></p>,,,,null,,,,,,,,,,,,,,
2579,,shortestpath_phase,1522880,GW/globe.jpg,,,,50,GW/dustpan.jpg,GW/camera.jpg,1,0.6605504587155964,,,,GW/camera.jpg,,,,,Two Edge Diff,Three Edge Five Edge
null,,html-keyboard-response,1523887,<p></p>,,,,null,,,,,,,,,,,,,,
3256.300000011921,,shortestpath_phase,1527146,GW/wheelchair.jpg,,,,49,GW/jukebox.jpg,GW/soldier.jpg,0,0.6545454545454545,,,,GW/soldier.jpg,,,,,Two Edge Diff,Four Edge Six Edge
null,,html-keyboard-response,1528151,<p></p>,,,,null,,,,,,,,,,,,,,
3984.699999988079,,shortestpath_phase,1532139,GW/gong.jpg,,,,49,GW/globe.jpg,GW/basket.jpg,1,0.6576576576576577,,,,GW/globe.jpg,,,,,Three Edge Diff,Three Edge Six Edge
null,,html-keyboard-response,1533143,<p></p>,,,,null,,,,,,,,,,,,,,
1815,,shortestpath_phase,1534962,GW/wheelchair.jpg,,,,50,GW/basket.jpg,GW/hat.jpg,1,0.6607142857142857,,,,GW/hat.jpg,,,,,Three Edge Diff,Two Edge Five Edge
null,,html-keyboard-response,1535966,<p></p>,,,,null,,,,,,,,,,,,,,
1436,,shortestpath_phase,1537407,GW/basket.jpg,,,,49,GW/camera.jpg,GW/hat.jpg,1,0.6637168141592921,,,,GW/camera.jpg,,,,,Two Edge Diff,Two Edge Four Edge
null,,html-keyboard-response,1538412,<p></p>,,,,null,,,,,,,,,,,,,,
1241.300000011921,,shortestpath_phase,1539656,GW/gong.jpg,,,,50,GW/teeth.jpg,GW/wheelchair.jpg,1,0.6666666666666666,,,,GW/wheelchair.jpg,,,,,One Edge Diff,Three Edge Four Edge
null,,html-keyboard-response,1540663,<p></p>,,,,null,,,,,,,,,,,,,,
2108.5,,shortestpath_phase,1542774,GW/hat.jpg,,,,50,GW/soldier.jpg,GW/paint.jpg,1,0.6695652173913044,,,,GW/paint.jpg,,,,,One Edge Diff,Two Edge Three Edge
null,,html-keyboard-response,1543780,<p></p>,,,,null,,,,,,,,,,,,,,
1628.300000011921,,shortestpath_phase,1545412,GW/soldier.jpg,,,,49,GW/globe.jpg,GW/teeth.jpg,0,0.6637931034482759,,,,GW/teeth.jpg,,,,,One Edge Diff,Two Edge Three Edge
null,,html-keyboard-response,1546419,<p></p>,,,,null,,,,,,,,,,,,,,
1820.5999999642372,,shortestpath_phase,1548243,GW/dustpan.jpg,,,,49,GW/snail.jpg,GW/camera.jpg,0,0.6581196581196581,,,,GW/camera.jpg,,,,,One Edge Diff,Three Edge Four Edge
null,,html-keyboard-response,1549247,<p></p>,,,,null,,,,,,,,,,,,,,
1333.6000000238419,,shortestpath_phase,1550584,GW/jukebox.jpg,,,,50,GW/basket.jpg,GW/globe.jpg,0,0.652542372881356,,,,GW/basket.jpg,,,,,Three Edge Diff,Three Edge Six Edge
null,,html-keyboard-response,1551599,<p></p>,,,,null,,,,,,,,,,,,,,
1897.5999999642372,,shortestpath_phase,1553499,GW/soldier.jpg,,,,49,GW/camera.jpg,GW/wheelchair.jpg,1,0.6554621848739496,,,,GW/camera.jpg,,,,,Two Edge Diff,Two Edge Four Edge
null,,html-keyboard-response,1554507,<p></p>,,,,null,,,,,,,,,,,,,,
1212.9000000357628,,shortestpath_phase,1555724,GW/gong.jpg,,,,50,GW/dustpan.jpg,GW/jukebox.jpg,1,0.6583333333333333,,,,GW/jukebox.jpg,,,,,One Edge Diff,Five Edge Six Edge
null,,html-keyboard-response,1556730,<p></p>,,,,null,,,,,,,,,,,,,,
4169.399999976158,,shortestpath_phase,1560903,,,,,50,,,1,0.6611570247933884,,,,,,,,,One Edge Diff,Four Edge Five Edge
null,,html-keyboard-response,1561908,<p></p>,,,,null,,,,,,,,,,,,,,
105973.90000003576,,intro_1,1667888,instruct,,0,,,,,,,,,,,,,,,,
25735.80000001192,,intro_2,1693628,instruct,,1,Next,,,,,,,,,,,,,,,
6695.300000011921,,intro_3,1700328,instruct,,1,Next,,,,,,,,,,,,,,,
