rt,responses,trial_type,time_elapsed,stimulus,graphorder,button_pressed,response,key_press,stimulus_left,stimulus_right,accuracy,cumulative_accuracy,stimulus_down_left,stimulus_down_mid,stimulus_down_right,stimulus_correct,stimulus_short,stimulus_far,weighted_accuracy,missedtrial,condition,specific_pairs
12238.200000047684,{worker_id:66e9d794bd67a9a02ca66a8f},id_enter,12250,id_enter,GW/paint.jpg; GW/teeth.jpg; GW/gong.jpg; GW/barrel.jpg; GW/hat.jpg; GW/camera.jpg; GW/dustpan.jpg; GW/soldier.jpg; GW/globe.jpg; GW/snail.jpg; GW/basket.jpg; GW/wheelchair.jpg; GW/jukebox.jpg,,,,,,,,,,,,,,,,,
24049.799999952316,,fullscreen,36328,fullscreen,,0,,,,,,,,,,,,,,,,
24464.60000014305,,intro_1,60800,instruct,,0,,,,,,,,,,,,,,,,
25778.60000014305,,intro_2,86583,instruct,,1,Next,,,,,,,,,,,,,,,
18475.199999809265,,intro_3,105063,instruct,,1,Next,,,,,,,,,,,,,,,
null,,learn_prac_1,107073,lean_prac_1,,,,null,,,,,,,,,,,,,,
null,,html-keyboard-response,108076,<p></p>,,,,null,,,,,,,,,,,,,,
7564,,intro_1,115642,instruct,,0,,,,,,,,,,,,,,,,
13333.400000095367,,intro_2,128980,instruct,,1,Next,,,,,,,,,,,,,,,
null,,learn_prac_2,130983,lean_prac_2,,,,null,,,,,,,,,,,,,,
null,,html-keyboard-response,131986,<p></p>,,,,null,,,,,,,,,,,,,,
7283.099999904633,,intro_1,139273,instruct,,0,,,,,,,,,,,,,,,,
10943.5,,intro_2,150222,instruct,,1,Next,,,,,,,,,,,,,,,
44403.90000009537,,intro_3,194628,instruct,,1,Next,,,,,,,,,,,,,,,
null,,prac_atten_color_black,195235,black_plus_sign,,,,null,,,,,,,,,,,,,,
790.7999999523163,,prac_atten_color,196038,prac_stop_color,,,,49,,,,,,,,,,,,,,
null,,prac_atten_color_black,198041,black_plus_sign,,,,null,,,,,,,,,,,,,,
null,,prac_atten_color_black,198649,black_plus_sign,,,,null,,,,,,,,,,,,,,
null,,prac_atten_color,199739,prac_stop_color,,,,null,,,,,,,,,,,,,,
null,,prac_atten_color_black,201742,black_plus_sign,,,,null,,,,,,,,,,,,,,
15590.899999856949,,attentioncheck_help,217336,instruct,,,,32,,,,,,,,,,,,,,
null,,prac_atten_color_black,217652,black_plus_sign,,,,null,,,,,,,,,,,,,,
null,,prac_atten_color,218247,prac_stop_color,,,,null,,,,,,,,,,,,,,
null,,prac_atten_color_black,220250,black_plus_sign,,,,null,,,,,,,,,,,,,,
8250.800000190735,,attentioncheck_help,228505,instruct,,,,32,,,,,,,,,,,,,,
null,,prac_atten_color_black,229324,black_plus_sign,,,,null,,,,,,,,,,,,,,
446.90000009536743,,prac_atten_color,230010,prac_stop_color,,,,49,,,,,,,,,,,,,,
null,,prac_atten_color_black,232013,black_plus_sign,,,,null,,,,,,,,,,,,,,
null,,prac_atten_color_black,232737,black_plus_sign,,,,null,,,,,,,,,,,,,,
576.1999998092651,,prac_atten_color,233661,prac_stop_color,,,,50,,,,,,,,,,,,,,
null,,prac_atten_color_black,235665,black_plus_sign,,,,null,,,,,,,,,,,,,,
null,,prac_atten_color_black,236150,black_plus_sign,,,,null,,,,,,,,,,,,,,
null,,prac_atten_color,236555,prac_stop_color,,,,null,,,,,,,,,,,,,,
240.40000009536743,,prac_atten_color_black,238559,black_plus_sign,,,,50,,,,,,,,,,,,,,
null,,prac_atten_color_black,239564,black_plus_sign,,,,null,,,,,,,,,,,,,,
538.7999999523163,,prac_atten_color,240391,prac_stop_color,,,,49,,,,,,,,,,,,,,
null,,prac_atten_color_black,242394,black_plus_sign,,,,null,,,,,,,,,,,,,,
null,,prac_atten_color_black,242977,black_plus_sign,,,,null,,,,,,,,,,,,,,
474.09999990463257,,prac_atten_color,243891,prac_stop_color,,,,50,,,,,,,,,,,,,,
null,,prac_atten_color_black,245903,black_plus_sign,,,,null,,,,,,,,,,,,,,
null,,prac_atten_color_black,246400,black_plus_sign,,,,null,,,,,,,,,,,,,,
635.1000001430511,,prac_atten_color,247154,prac_stop_color,,,,49,,,,,,,,,,,,,,
null,,prac_atten_color_black,249161,black_plus_sign,,,,null,,,,,,,,,,,,,,
null,,prac_atten_color_black,249815,black_plus_sign,,,,null,,,,,,,,,,,,,,
661.2999999523163,,prac_atten_color,250575,prac_stop_color,,,,49,,,,,,,,,,,,,,
null,,prac_atten_color_black,252577,black_plus_sign,,,,null,,,,,,,,,,,,,,
11841.299999952316,,attentioncheck_feedback,264422,cross_check_feedback,,0,,,,,,,,,,,,,,,,
35799.799999952316,,last_instruct,300223,instruct,,,,32,,,,,,,,,,,,,,
null,,learn_phase(without_color),302227,black_plus_sign,,,,null,GW/gong.jpg,GW/basket.jpg,,,,,,,,,,,,
null,,black_cross(without_color),302711,blue,,,,null,GW/gong.jpg,GW/basket.jpg,,,,,,,,,,,,
null,,rt_plussign_withcolor,303213,blue,,,,null,GW/gong.jpg,GW/basket.jpg,,,,,,,,,,,,
806.2000000476837,,rt_thecrossant_black,304734,black_plus_sign,,,,49,,,1,1,,,,,,,,,,
null,,color_black,304838,black_plus_sign,,,,null,,,,,,,,,,,,,,
null,,learn_phase(without_color),306841,black_plus_sign,,,,null,GW/barrel.jpg,GW/hat.jpg,,,,,,,,,,,,
null,,black_cross(without_color),307595,green,,,,null,GW/barrel.jpg,GW/hat.jpg,,,,,,,,,,,,
null,,rt_plussign_withcolor,308097,green,,,,null,GW/barrel.jpg,GW/hat.jpg,,,,,,,,,,,,
1249.3999998569489,,rt_thecrossant_black,309348,black_plus_sign,,,,50,,,1,1,,,,,,,,,,
null,,color_black,309450,black_plus_sign,,,,null,,,,,,,,,,,,,,
null,,learn_phase(without_color),311454,black_plus_sign,,,,null,GW/barrel.jpg,GW/wheelchair.jpg,,,,,,,,,,,,
null,,black_cross(without_color),312128,blue,,,,null,GW/barrel.jpg,GW/wheelchair.jpg,,,,,,,,,,,,
null,,rt_plussign_withcolor,312631,blue,,,,null,GW/barrel.jpg,GW/wheelchair.jpg,,,,,,,,,,,,
1088.7999999523163,,rt_thecrossant_black,313962,black_plus_sign,,,,49,,,1,1,,,,,,,,,,
null,,color_black,314065,black_plus_sign,,,,null,,,,,,,,,,,,,,
null,,learn_phase(without_color),316068,black_plus_sign,,,,null,GW/camera.jpg,GW/globe.jpg,,,,,,,,,,,,
null,,black_cross(without_color),316690,blue,,,,null,GW/camera.jpg,GW/globe.jpg,,,,,,,,,,,,
null,,rt_plussign_withcolor,317194,blue,,,,null,GW/camera.jpg,GW/globe.jpg,,,,,,,,,,,,
970,,rt_thecrossant_black,318580,black_plus_sign,,,,49,,,1,1,,,,,,,,,,
null,,color_black,318685,black_plus_sign,,,,null,,,,,,,,,,,,,,
null,,learn_phase(without_color),320688,black_plus_sign,,,,null,GW/dustpan.jpg,GW/soldier.jpg,,,,,,,,,,,,
null,,black_cross(without_color),321669,green,,,,null,GW/dustpan.jpg,GW/soldier.jpg,,,,,,,,,,,,
null,,rt_plussign_withcolor,322172,green,,,,null,GW/dustpan.jpg,GW/soldier.jpg,,,,,,,,,,,,
914.7999999523163,,rt_thecrossant_black,323198,black_plus_sign,,,,50,,,1,1,,,,,,,,,,
null,,color_black,323301,black_plus_sign,,,,null,,,,,,,,,,,,,,
null,,learn_phase(without_color),325305,black_plus_sign,,,,null,GW/soldier.jpg,GW/globe.jpg,,,,,,,,,,,,
null,,black_cross(without_color),325789,blue,,,,null,GW/soldier.jpg,GW/globe.jpg,,,,,,,,,,,,
null,,rt_plussign_withcolor,326293,blue,,,,null,GW/soldier.jpg,GW/globe.jpg,,,,,,,,,,,,
1196.5999999046326,,rt_thecrossant_black,327817,black_plus_sign,,,,49,,,1,1,,,,,,,,,,
null,,color_black,327922,black_plus_sign,,,,null,,,,,,,,,,,,,,
null,,learn_phase(without_color),329925,black_plus_sign,,,,null,GW/barrel.jpg,GW/wheelchair.jpg,,,,,,,,,,,,
null,,black_cross(without_color),330907,blue,,,,null,GW/barrel.jpg,GW/wheelchair.jpg,,,,,,,,,,,,
null,,rt_plussign_withcolor,331411,blue,,,,null,GW/barrel.jpg,GW/wheelchair.jpg,,,,,,,,,,,,
811.5,,rt_thecrossant_black,332436,black_plus_sign,,,,49,,,1,1,,,,,,,,,,
null,,color_black,332540,black_plus_sign,,,,null,,,,,,,,,,,,,,
null,,learn_phase(without_color),334545,black_plus_sign,,,,null,GW/barrel.jpg,GW/hat.jpg,,,,,,,,,,,,
null,,black_cross(without_color),335134,green,,,,null,GW/barrel.jpg,GW/hat.jpg,,,,,,,,,,,,
null,,rt_plussign_withcolor,335637,green,,,,null,GW/barrel.jpg,GW/hat.jpg,,,,,,,,,,,,
1271,,rt_thecrossant_black,337058,black_plus_sign,,,,50,,,1,1,,,,,,,,,,
null,,color_black,337168,black_plus_sign,,,,null,,,,,,,,,,,,,,
null,,learn_phase(without_color),339185,black_plus_sign,,,,null,GW/soldier.jpg,GW/globe.jpg,,,,,,,,,,,,
null,,black_cross(without_color),339827,green,,,,null,GW/soldier.jpg,GW/globe.jpg,,,,,,,,,,,,
null,,rt_plussign_withcolor,340329,green,,,,null,GW/soldier.jpg,GW/globe.jpg,,,,,,,,,,,,
994.5999999046326,,rt_thecrossant_black,341696,black_plus_sign,,,,50,,,1,1,,,,,,,,,,
null,,color_black,341803,black_plus_sign,,,,null,,,,,,,,,,,,,,
null,,learn_phase(without_color),343809,black_plus_sign,,,,null,GW/dustpan.jpg,GW/globe.jpg,,,,,,,,,,,,
null,,black_cross(without_color),344697,blue,,,,null,GW/dustpan.jpg,GW/globe.jpg,,,,,,,,,,,,
null,,rt_plussign_withcolor,345214,blue,,,,null,GW/dustpan.jpg,GW/globe.jpg,,,,,,,,,,,,
957.5999999046326,,rt_thecrossant_black,346338,black_plus_sign,,,,49,,,1,1,,,,,,,,,,
null,,color_black,346440,black_plus_sign,,,,null,,,,,,,,,,,,,,
null,,learn_phase(without_color),348448,black_plus_sign,,,,null,GW/barrel.jpg,GW/hat.jpg,,,,,,,,,,,,
null,,black_cross(without_color),349511,green,,,,null,GW/barrel.jpg,GW/hat.jpg,,,,,,,,,,,,
434.5,,rt_plussign_withcolor,350013,green,,,,50,GW/barrel.jpg,GW/hat.jpg,,,,,,,,,,,,
null,,rt_thecrossant_black,350974,black_plus_sign,,,,null,,,1,1,,,,,,,,,,
null,,color_black,351076,black_plus_sign,,,,null,,,,,,,,,,,,,,
null,,learn_phase(without_color),353084,black_plus_sign,,,,null,GW/dustpan.jpg,GW/soldier.jpg,,,,,,,,,,,,
null,,black_cross(without_color),354024,green,,,,null,GW/dustpan.jpg,GW/soldier.jpg,,,,,,,,,,,,
null,,rt_plussign_withcolor,354544,green,,,,null,GW/dustpan.jpg,GW/soldier.jpg,,,,,,,,,,,,
1432.8999998569489,,rt_thecrossant_black,355616,black_plus_sign,,,,50,,,1,1,,,,,,,,,,
null,,color_black,355720,black_plus_sign,,,,null,,,,,,,,,,,,,,
null,,learn_phase(without_color),357726,black_plus_sign,,,,null,GW/globe.jpg,GW/basket.jpg,,,,,,,,,,,,
null,,black_cross(without_color),358412,blue,,,,null,GW/globe.jpg,GW/basket.jpg,,,,,,,,,,,,
447.59999990463257,,rt_plussign_withcolor,358916,blue,,,,49,GW/globe.jpg,GW/basket.jpg,,,,,,,,,,,,
null,,rt_thecrossant_black,360240,black_plus_sign,,,,null,,,1,1,,,,,,,,,,
null,,color_black,360370,black_plus_sign,,,,null,,,,,,,,,,,,,,
null,,learn_phase(without_color),362376,black_plus_sign,,,,null,GW/dustpan.jpg,GW/jukebox.jpg,,,,,,,,,,,,
null,,black_cross(without_color),363388,green,,,,null,GW/dustpan.jpg,GW/jukebox.jpg,,,,,,,,,,,,
null,,rt_plussign_withcolor,363901,green,,,,null,GW/dustpan.jpg,GW/jukebox.jpg,,,,,,,,,,,,
824.7999999523163,,rt_thecrossant_black,364899,black_plus_sign,,,,50,,,1,1,,,,,,,,,,
null,,color_black,365002,black_plus_sign,,,,null,,,,,,,,,,,,,,
null,,learn_phase(without_color),367008,black_plus_sign,,,,null,GW/basket.jpg,GW/wheelchair.jpg,,,,,,,,,,,,
null,,black_cross(without_color),367961,green,,,,null,GW/basket.jpg,GW/wheelchair.jpg,,,,,,,,,,,,
471.5,,rt_plussign_withcolor,368463,green,,,,50,GW/basket.jpg,GW/wheelchair.jpg,,,,,,,,,,,,
null,,rt_thecrossant_black,369521,black_plus_sign,,,,null,,,1,1,,,,,,,,,,
null,,color_black,369626,black_plus_sign,,,,null,,,,,,,,,,,,,,
null,,learn_phase(without_color),371629,black_plus_sign,,,,null,GW/gong.jpg,GW/camera.jpg,,,,,,,,,,,,
null,,black_cross(without_color),372091,green,,,,null,GW/gong.jpg,GW/camera.jpg,,,,,,,,,,,,
null,,rt_plussign_withcolor,372593,green,,,,null,GW/gong.jpg,GW/camera.jpg,,,,,,,,,,,,
1060.7999999523163,,rt_thecrossant_black,374136,black_plus_sign,,,,50,,,1,1,,,,,,,,,,
null,,color_black,374239,black_plus_sign,,,,null,,,,,,,,,,,,,,
null,,learn_phase(without_color),376243,black_plus_sign,,,,null,GW/dustpan.jpg,GW/soldier.jpg,,,,,,,,,,,,
null,,black_cross(without_color),377040,green,,,,null,GW/dustpan.jpg,GW/soldier.jpg,,,,,,,,,,,,
null,,rt_plussign_withcolor,377542,green,,,,null,GW/dustpan.jpg,GW/soldier.jpg,,,,,,,,,,,,
660.4000000953674,,rt_thecrossant_black,378749,black_plus_sign,,,,50,,,1,1,,,,,,,,,,
null,,color_black,378851,black_plus_sign,,,,null,,,,,,,,,,,,,,
null,,learn_phase(without_color),380854,black_plus_sign,,,,null,GW/barrel.jpg,GW/hat.jpg,,,,,,,,,,,,
null,,black_cross(without_color),381441,green,,,,null,GW/barrel.jpg,GW/hat.jpg,,,,,,,,,,,,
null,,rt_plussign_withcolor,381944,green,,,,null,GW/barrel.jpg,GW/hat.jpg,,,,,,,,,,,,
1112.5999999046326,,rt_thecrossant_black,383362,black_plus_sign,,,,50,,,1,1,,,,,,,,,,
null,,color_black,383465,black_plus_sign,,,,null,,,,,,,,,,,,,,
null,,learn_phase(without_color),385468,black_plus_sign,,,,null,GW/basket.jpg,GW/wheelchair.jpg,,,,,,,,,,,,
null,,black_cross(without_color),386265,green,,,,null,GW/basket.jpg,GW/wheelchair.jpg,,,,,,,,,,,,
null,,rt_plussign_withcolor,386768,green,,,,null,GW/basket.jpg,GW/wheelchair.jpg,,,,,,,,,,,,
740.8000001907349,,rt_thecrossant_black,387977,black_plus_sign,,,,50,,,1,1,,,,,,,,,,
null,,color_black,388080,black_plus_sign,,,,null,,,,,,,,,,,,,,
null,,learn_phase(without_color),390084,black_plus_sign,,,,null,GW/teeth.jpg,GW/gong.jpg,,,,,,,,,,,,
null,,black_cross(without_color),390579,green,,,,null,GW/teeth.jpg,GW/gong.jpg,,,,,,,,,,,,
null,,rt_plussign_withcolor,391082,green,,,,null,GW/teeth.jpg,GW/gong.jpg,,,,,,,,,,,,
1016.2000000476837,,rt_thecrossant_black,392591,black_plus_sign,,,,50,,,1,1,,,,,,,,,,
null,,color_black,392696,black_plus_sign,,,,null,,,,,,,,,,,,,,
null,,learn_phase(without_color),394702,black_plus_sign,,,,null,GW/soldier.jpg,GW/globe.jpg,,,,,,,,,,,,
null,,black_cross(without_color),395262,blue,,,,null,GW/soldier.jpg,GW/globe.jpg,,,,,,,,,,,,
null,,rt_plussign_withcolor,395765,blue,,,,null,GW/soldier.jpg,GW/globe.jpg,,,,,,,,,,,,
649,,rt_thecrossant_black,397215,black_plus_sign,,,,50,,,0,0.9523809523809523,,,,,,,,,,
null,,color_black,397320,black_plus_sign,,,,null,,,,,,,,,,,,,,
null,,learn_phase(without_color),399336,black_plus_sign,,,,null,GW/dustpan.jpg,GW/jukebox.jpg,,,,,,,,,,,,
null,,black_cross(without_color),400098,blue,,,,null,GW/dustpan.jpg,GW/jukebox.jpg,,,,,,,,,,,,
null,,rt_plussign_withcolor,400602,blue,,,,null,GW/dustpan.jpg,GW/jukebox.jpg,,,,,,,,,,,,
856.0999999046326,,rt_thecrossant_black,401852,black_plus_sign,,,,49,,,1,0.9545454545454546,,,,,,,,,,
null,,color_black,401956,black_plus_sign,,,,null,,,,,,,,,,,,,,
null,,learn_phase(without_color),403961,black_plus_sign,,,,null,GW/camera.jpg,GW/globe.jpg,,,,,,,,,,,,
null,,black_cross(without_color),404829,blue,,,,null,GW/camera.jpg,GW/globe.jpg,,,,,,,,,,,,
null,,rt_plussign_withcolor,405332,blue,,,,null,GW/camera.jpg,GW/globe.jpg,,,,,,,,,,,,
1152.8999998569489,,rt_thecrossant_black,406472,black_plus_sign,,,,49,,,1,0.9565217391304348,,,,,,,,,,
null,,color_black,406577,black_plus_sign,,,,null,,,,,,,,,,,,,,
null,,learn_phase(without_color),408585,black_plus_sign,,,,null,GW/soldier.jpg,GW/snail.jpg,,,,,,,,,,,,
null,,black_cross(without_color),409215,blue,,,,null,GW/soldier.jpg,GW/snail.jpg,,,,,,,,,,,,
null,,rt_plussign_withcolor,409718,blue,,,,null,GW/soldier.jpg,GW/snail.jpg,,,,,,,,,,,,
1185.0999999046326,,rt_thecrossant_black,411101,black_plus_sign,,,,49,,,1,0.9583333333333334,,,,,,,,,,
null,,color_black,411205,black_plus_sign,,,,null,,,,,,,,,,,,,,
null,,learn_phase(without_color),413210,black_plus_sign,,,,null,GW/gong.jpg,GW/basket.jpg,,,,,,,,,,,,
null,,black_cross(without_color),413629,green,,,,null,GW/gong.jpg,GW/basket.jpg,,,,,,,,,,,,
null,,rt_plussign_withcolor,414134,green,,,,null,GW/gong.jpg,GW/basket.jpg,,,,,,,,,,,,
876.3999998569489,,rt_thecrossant_black,415724,black_plus_sign,,,,50,,,1,0.96,,,,,,,,,,
null,,color_black,415829,black_plus_sign,,,,null,,,,,,,,,,,,,,
null,,learn_phase(without_color),417835,black_plus_sign,,,,null,GW/camera.jpg,GW/globe.jpg,,,,,,,,,,,,
null,,black_cross(without_color),418590,green,,,,null,GW/camera.jpg,GW/globe.jpg,,,,,,,,,,,,
null,,rt_plussign_withcolor,419099,green,,,,null,GW/camera.jpg,GW/globe.jpg,,,,,,,,,,,,
805.5,,rt_thecrossant_black,420353,black_plus_sign,,,,50,,,1,0.9615384615384616,,,,,,,,,,
null,,color_black,420458,black_plus_sign,,,,null,,,,,,,,,,,,,,
null,,learn_phase(without_color),422465,black_plus_sign,,,,null,GW/dustpan.jpg,GW/jukebox.jpg,,,,,,,,,,,,
null,,black_cross(without_color),423069,blue,,,,null,GW/dustpan.jpg,GW/jukebox.jpg,,,,,,,,,,,,
null,,rt_plussign_withcolor,423572,blue,,,,null,GW/dustpan.jpg,GW/jukebox.jpg,,,,,,,,,,,,
1148.2000000476837,,rt_thecrossant_black,424976,black_plus_sign,,,,49,,,1,0.9629629629629629,,,,,,,,,,
null,,color_black,425080,black_plus_sign,,,,null,,,,,,,,,,,,,,
null,,learn_phase(without_color),427083,black_plus_sign,,,,null,GW/dustpan.jpg,GW/globe.jpg,,,,,,,,,,,,
null,,black_cross(without_color),427640,blue,,,,null,GW/dustpan.jpg,GW/globe.jpg,,,,,,,,,,,,
null,,rt_plussign_withcolor,428144,blue,,,,null,GW/dustpan.jpg,GW/globe.jpg,,,,,,,,,,,,
821.5,,rt_thecrossant_black,429598,black_plus_sign,,,,49,,,1,0.9642857142857143,,,,,,,,,,
null,,color_black,429704,black_plus_sign,,,,null,,,,,,,,,,,,,,
null,,learn_phase(without_color),431710,black_plus_sign,,,,null,GW/teeth.jpg,GW/gong.jpg,,,,,,,,,,,,
null,,black_cross(without_color),432540,green,,,,null,GW/teeth.jpg,GW/gong.jpg,,,,,,,,,,,,
null,,rt_plussign_withcolor,433043,green,,,,null,GW/teeth.jpg,GW/gong.jpg,,,,,,,,,,,,
705.7000000476837,,rt_thecrossant_black,434223,black_plus_sign,,,,50,,,1,0.9655172413793104,,,,,,,,,,
null,,color_black,434333,black_plus_sign,,,,null,,,,,,,,,,,,,,
null,,learn_phase(without_color),436341,black_plus_sign,,,,null,GW/barrel.jpg,GW/wheelchair.jpg,,,,,,,,,,,,
null,,black_cross(without_color),436918,blue,,,,null,GW/barrel.jpg,GW/wheelchair.jpg,,,,,,,,,,,,
null,,rt_plussign_withcolor,437421,blue,,,,null,GW/barrel.jpg,GW/wheelchair.jpg,,,,,,,,,,,,
1044.4000000953674,,rt_thecrossant_black,438866,black_plus_sign,,,,49,,,1,0.9666666666666667,,,,,,,,,,
null,,color_black,438970,black_plus_sign,,,,null,,,,,,,,,,,,,,
null,,learn_phase(without_color),440988,black_plus_sign,,,,null,GW/teeth.jpg,GW/barrel.jpg,,,,,,,,,,,,
null,,black_cross(without_color),441919,blue,,,,null,GW/teeth.jpg,GW/barrel.jpg,,,,,,,,,,,,
null,,rt_plussign_withcolor,442421,blue,,,,null,GW/teeth.jpg,GW/barrel.jpg,,,,,,,,,,,,
834.2000000476837,,rt_thecrossant_black,443498,black_plus_sign,,,,49,,,1,0.967741935483871,,,,,,,,,,
null,,color_black,443603,black_plus_sign,,,,null,,,,,,,,,,,,,,
null,,learn_phase(without_color),445608,black_plus_sign,,,,null,GW/dustpan.jpg,GW/soldier.jpg,,,,,,,,,,,,
null,,black_cross(without_color),446405,blue,,,,null,GW/dustpan.jpg,GW/soldier.jpg,,,,,,,,,,,,
null,,rt_plussign_withcolor,446910,blue,,,,null,GW/dustpan.jpg,GW/soldier.jpg,,,,,,,,,,,,
1199.3999998569489,,rt_thecrossant_black,448123,black_plus_sign,,,,49,,,1,0.96875,,,,,,,,,,
null,,color_black,448227,black_plus_sign,,,,null,,,,,,,,,,,,,,
null,,learn_phase(without_color),450230,black_plus_sign,,,,null,GW/basket.jpg,GW/wheelchair.jpg,,,,,,,,,,,,
null,,black_cross(without_color),450975,blue,,,,null,GW/basket.jpg,GW/wheelchair.jpg,,,,,,,,,,,,
474.5,,rt_plussign_withcolor,451481,blue,,,,49,GW/basket.jpg,GW/wheelchair.jpg,,,,,,,,,,,,
null,,rt_thecrossant_black,452760,black_plus_sign,,,,null,,,1,0.9696969696969697,,,,,,,,,,
null,,color_black,452868,black_plus_sign,,,,null,,,,,,,,,,,,,,
null,,learn_phase(without_color),454873,black_plus_sign,,,,null,GW/dustpan.jpg,GW/globe.jpg,,,,,,,,,,,,
null,,black_cross(without_color),455965,blue,,,,null,GW/dustpan.jpg,GW/globe.jpg,,,,,,,,,,,,
null,,rt_plussign_withcolor,456468,blue,,,,null,GW/dustpan.jpg,GW/globe.jpg,,,,,,,,,,,,
951.7999999523163,,rt_thecrossant_black,457386,black_plus_sign,,,,49,,,1,0.9705882352941176,,,,,,,,,,
null,,color_black,457492,black_plus_sign,,,,null,,,,,,,,,,,,,,
null,,learn_phase(without_color),459499,black_plus_sign,,,,null,GW/gong.jpg,GW/basket.jpg,,,,,,,,,,,,
null,,black_cross(without_color),460229,green,,,,null,GW/gong.jpg,GW/basket.jpg,,,,,,,,,,,,
null,,rt_plussign_withcolor,460733,green,,,,null,GW/gong.jpg,GW/basket.jpg,,,,,,,,,,,,
1189.5,,rt_thecrossant_black,462013,black_plus_sign,,,,50,,,1,0.9714285714285714,,,,,,,,,,
null,,color_black,462117,black_plus_sign,,,,null,,,,,,,,,,,,,,
null,,learn_phase(without_color),464122,black_plus_sign,,,,null,GW/camera.jpg,GW/globe.jpg,,,,,,,,,,,,
null,,black_cross(without_color),464902,blue,,,,null,GW/camera.jpg,GW/globe.jpg,,,,,,,,,,,,
null,,rt_plussign_withcolor,465406,blue,,,,null,GW/camera.jpg,GW/globe.jpg,,,,,,,,,,,,
1003.7999999523163,,rt_thecrossant_black,466643,black_plus_sign,,,,49,,,1,0.9722222222222222,,,,,,,,,,
null,,color_black,466749,black_plus_sign,,,,null,,,,,,,,,,,,,,
null,,learn_phase(without_color),468755,black_plus_sign,,,,null,GW/camera.jpg,GW/dustpan.jpg,,,,,,,,,,,,
null,,black_cross(without_color),469530,blue,,,,null,GW/camera.jpg,GW/dustpan.jpg,,,,,,,,,,,,
null,,rt_plussign_withcolor,470038,blue,,,,null,GW/camera.jpg,GW/dustpan.jpg,,,,,,,,,,,,
981.5999999046326,,rt_thecrossant_black,471270,black_plus_sign,,,,49,,,1,0.972972972972973,,,,,,,,,,
null,,color_black,471375,black_plus_sign,,,,null,,,,,,,,,,,,,,
null,,learn_phase(without_color),473382,black_plus_sign,,,,null,GW/paint.jpg,GW/teeth.jpg,,,,,,,,,,,,
null,,black_cross(without_color),474466,green,,,,null,GW/paint.jpg,GW/teeth.jpg,,,,,,,,,,,,
null,,rt_plussign_withcolor,474969,green,,,,null,GW/paint.jpg,GW/teeth.jpg,,,,,,,,,,,,
880.7000000476837,,rt_thecrossant_black,475896,black_plus_sign,,,,50,,,1,0.9736842105263158,,,,,,,,,,
null,,color_black,476023,black_plus_sign,,,,null,,,,,,,,,,,,,,
null,,learn_phase(without_color),478028,black_plus_sign,,,,null,GW/camera.jpg,GW/dustpan.jpg,,,,,,,,,,,,
null,,black_cross(without_color),478546,green,,,,null,GW/camera.jpg,GW/dustpan.jpg,,,,,,,,,,,,
null,,rt_plussign_withcolor,479051,green,,,,null,GW/camera.jpg,GW/dustpan.jpg,,,,,,,,,,,,
1415,,rt_thecrossant_black,480543,black_plus_sign,,,,50,,,1,0.9743589743589743,,,,,,,,,,
null,,color_black,480647,black_plus_sign,,,,null,,,,,,,,,,,,,,
null,,learn_phase(without_color),482651,black_plus_sign,,,,null,GW/gong.jpg,GW/camera.jpg,,,,,,,,,,,,
null,,black_cross(without_color),483643,blue,,,,null,GW/gong.jpg,GW/camera.jpg,,,,,,,,,,,,
null,,rt_plussign_withcolor,484149,blue,,,,null,GW/gong.jpg,GW/camera.jpg,,,,,,,,,,,,
811.5,,rt_thecrossant_black,485171,black_plus_sign,,,,49,,,1,0.975,,,,,,,,,,
null,,color_black,485274,black_plus_sign,,,,null,,,,,,,,,,,,,,
null,,learn_phase(without_color),487278,black_plus_sign,,,,null,GW/soldier.jpg,GW/globe.jpg,,,,,,,,,,,,
null,,black_cross(without_color),488358,blue,,,,null,GW/soldier.jpg,GW/globe.jpg,,,,,,,,,,,,
null,,rt_plussign_withcolor,488865,blue,,,,null,GW/soldier.jpg,GW/globe.jpg,,,,,,,,,,,,
1148.0999999046326,,rt_thecrossant_black,489790,black_plus_sign,,,,49,,,1,0.975609756097561,,,,,,,,,,
null,,color_black,489899,black_plus_sign,,,,null,,,,,,,,,,,,,,
null,,learn_phase(without_color),491904,black_plus_sign,,,,null,GW/gong.jpg,GW/camera.jpg,,,,,,,,,,,,
null,,black_cross(without_color),492619,green,,,,null,GW/gong.jpg,GW/camera.jpg,,,,,,,,,,,,
null,,rt_plussign_withcolor,493121,green,,,,null,GW/gong.jpg,GW/camera.jpg,,,,,,,,,,,,
1275.1000001430511,,rt_thecrossant_black,494417,black_plus_sign,,,,50,,,1,0.9761904761904762,,,,,,,,,,
null,,color_black,494524,black_plus_sign,,,,null,,,,,,,,,,,,,,
null,,learn_phase(without_color),496531,black_plus_sign,,,,null,GW/dustpan.jpg,GW/jukebox.jpg,,,,,,,,,,,,
null,,black_cross(without_color),497297,green,,,,null,GW/dustpan.jpg,GW/jukebox.jpg,,,,,,,,,,,,
null,,rt_plussign_withcolor,497803,green,,,,null,GW/dustpan.jpg,GW/jukebox.jpg,,,,,,,,,,,,
944.5,,rt_thecrossant_black,499058,black_plus_sign,,,,50,,,1,0.9767441860465116,,,,,,,,,,
null,,color_black,499161,black_plus_sign,,,,null,,,,,,,,,,,,,,
null,,learn_phase(without_color),501164,black_plus_sign,,,,null,GW/soldier.jpg,GW/globe.jpg,,,,,,,,,,,,
null,,black_cross(without_color),501861,blue,,,,null,GW/soldier.jpg,GW/globe.jpg,,,,,,,,,,,,
null,,rt_plussign_withcolor,502363,blue,,,,null,GW/soldier.jpg,GW/globe.jpg,,,,,,,,,,,,
1110.5,,rt_thecrossant_black,503672,black_plus_sign,,,,50,,,0,0.9545454545454546,,,,,,,,,,
null,,color_black,503775,black_plus_sign,,,,null,,,,,,,,,,,,,,
null,,learn_phase(without_color),505781,black_plus_sign,,,,null,GW/gong.jpg,GW/camera.jpg,,,,,,,,,,,,
null,,black_cross(without_color),506618,green,,,,null,GW/gong.jpg,GW/camera.jpg,,,,,,,,,,,,
null,,rt_plussign_withcolor,507121,green,,,,null,GW/gong.jpg,GW/camera.jpg,,,,,,,,,,,,
1041,,rt_thecrossant_black,508296,black_plus_sign,,,,50,,,1,0.9555555555555556,,,,,,,,,,
null,,color_black,508400,black_plus_sign,,,,null,,,,,,,,,,,,,,
null,,learn_phase(without_color),510419,black_plus_sign,,,,null,GW/gong.jpg,GW/basket.jpg,,,,,,,,,,,,
null,,black_cross(without_color),511494,green,,,,null,GW/gong.jpg,GW/basket.jpg,,,,,,,,,,,,
null,,rt_plussign_withcolor,511997,green,,,,null,GW/gong.jpg,GW/basket.jpg,,,,,,,,,,,,
1006.7999999523163,,rt_thecrossant_black,512945,black_plus_sign,,,,50,,,1,0.9565217391304348,,,,,,,,,,
null,,color_black,513050,black_plus_sign,,,,null,,,,,,,,,,,,,,
null,,learn_phase(without_color),515056,black_plus_sign,,,,null,GW/barrel.jpg,GW/hat.jpg,,,,,,,,,,,,
null,,black_cross(without_color),516074,green,,,,null,GW/barrel.jpg,GW/hat.jpg,,,,,,,,,,,,
null,,rt_plussign_withcolor,516577,green,,,,null,GW/barrel.jpg,GW/hat.jpg,,,,,,,,,,,,
1317.8999998569489,,rt_thecrossant_black,517568,black_plus_sign,,,,50,,,1,0.9574468085106383,,,,,,,,,,
null,,color_black,517672,black_plus_sign,,,,null,,,,,,,,,,,,,,
null,,learn_phase(without_color),519679,black_plus_sign,,,,null,GW/teeth.jpg,GW/barrel.jpg,,,,,,,,,,,,
null,,black_cross(without_color),520400,green,,,,null,GW/teeth.jpg,GW/barrel.jpg,,,,,,,,,,,,
null,,rt_plussign_withcolor,520904,green,,,,null,GW/teeth.jpg,GW/barrel.jpg,,,,,,,,,,,,
1364.7000000476837,,rt_thecrossant_black,522191,black_plus_sign,,,,50,,,1,0.9583333333333334,,,,,,,,,,
null,,color_black,522296,black_plus_sign,,,,null,,,,,,,,,,,,,,
null,,learn_phase(without_color),524302,black_plus_sign,,,,null,GW/paint.jpg,GW/teeth.jpg,,,,,,,,,,,,
null,,black_cross(without_color),524828,green,,,,null,GW/paint.jpg,GW/teeth.jpg,,,,,,,,,,,,
null,,rt_plussign_withcolor,525331,green,,,,null,GW/paint.jpg,GW/teeth.jpg,,,,,,,,,,,,
880.9000000953674,,rt_thecrossant_black,526815,black_plus_sign,,,,50,,,1,0.9591836734693877,,,,,,,,,,
null,,color_black,526920,black_plus_sign,,,,null,,,,,,,,,,,,,,
null,,learn_phase(without_color),528926,black_plus_sign,,,,null,GW/teeth.jpg,GW/barrel.jpg,,,,,,,,,,,,
null,,black_cross(without_color),529379,blue,,,,null,GW/teeth.jpg,GW/barrel.jpg,,,,,,,,,,,,
405.90000009536743,,rt_plussign_withcolor,529883,blue,,,,49,GW/teeth.jpg,GW/barrel.jpg,,,,,,,,,,,,
null,,rt_thecrossant_black,531453,black_plus_sign,,,,null,,,1,0.96,,,,,,,,,,
null,,color_black,531559,black_plus_sign,,,,null,,,,,,,,,,,,,,
null,,learn_phase(without_color),533565,black_plus_sign,,,,null,GW/barrel.jpg,GW/wheelchair.jpg,,,,,,,,,,,,
null,,black_cross(without_color),534096,blue,,,,null,GW/barrel.jpg,GW/wheelchair.jpg,,,,,,,,,,,,
null,,rt_plussign_withcolor,534599,blue,,,,null,GW/barrel.jpg,GW/wheelchair.jpg,,,,,,,,,,,,
580,,rt_thecrossant_black,536078,black_plus_sign,,,,49,,,1,0.9607843137254902,,,,,,,,,,
null,,color_black,536183,black_plus_sign,,,,null,,,,,,,,,,,,,,
null,,learn_phase(without_color),538188,black_plus_sign,,,,null,GW/teeth.jpg,GW/barrel.jpg,,,,,,,,,,,,
null,,black_cross(without_color),538752,blue,,,,null,GW/teeth.jpg,GW/barrel.jpg,,,,,,,,,,,,
null,,rt_plussign_withcolor,539255,blue,,,,null,GW/teeth.jpg,GW/barrel.jpg,,,,,,,,,,,,
720.7999999523163,,rt_thecrossant_black,540703,black_plus_sign,,,,49,,,1,0.9615384615384616,,,,,,,,,,
null,,color_black,540808,black_plus_sign,,,,null,,,,,,,,,,,,,,
null,,learn_phase(without_color),542813,black_plus_sign,,,,null,GW/paint.jpg,GW/teeth.jpg,,,,,,,,,,,,
null,,black_cross(without_color),543610,green,,,,null,GW/paint.jpg,GW/teeth.jpg,,,,,,,,,,,,
null,,rt_plussign_withcolor,544113,green,,,,null,GW/paint.jpg,GW/teeth.jpg,,,,,,,,,,,,
782.4000000953674,,rt_thecrossant_black,545326,black_plus_sign,,,,50,,,1,0.9622641509433962,,,,,,,,,,
null,,color_black,545431,black_plus_sign,,,,null,,,,,,,,,,,,,,
null,,learn_phase(without_color),547436,black_plus_sign,,,,null,GW/globe.jpg,GW/basket.jpg,,,,,,,,,,,,
null,,black_cross(without_color),547993,blue,,,,null,GW/globe.jpg,GW/basket.jpg,,,,,,,,,,,,
null,,rt_plussign_withcolor,548497,blue,,,,null,GW/globe.jpg,GW/basket.jpg,,,,,,,,,,,,
1090.6999998092651,,rt_thecrossant_black,549948,black_plus_sign,,,,49,,,1,0.9629629629629629,,,,,,,,,,
null,,color_black,550052,black_plus_sign,,,,null,,,,,,,,,,,,,,
null,,learn_phase(without_color),552058,black_plus_sign,,,,null,GW/basket.jpg,GW/wheelchair.jpg,,,,,,,,,,,,
null,,black_cross(without_color),552747,green,,,,null,GW/basket.jpg,GW/wheelchair.jpg,,,,,,,,,,,,
null,,rt_plussign_withcolor,553249,green,,,,null,GW/basket.jpg,GW/wheelchair.jpg,,,,,,,,,,,,
714.2000000476837,,rt_thecrossant_black,554567,black_plus_sign,,,,50,,,1,0.9636363636363636,,,,,,,,,,
null,,color_black,554670,black_plus_sign,,,,null,,,,,,,,,,,,,,
null,,learn_phase(without_color),556674,black_plus_sign,,,,null,GW/paint.jpg,GW/teeth.jpg,,,,,,,,,,,,
null,,black_cross(without_color),557647,green,,,,null,GW/paint.jpg,GW/teeth.jpg,,,,,,,,,,,,
455.90000009536743,,rt_plussign_withcolor,558151,green,,,,50,GW/paint.jpg,GW/teeth.jpg,,,,,,,,,,,,
null,,rt_thecrossant_black,559187,black_plus_sign,,,,null,,,1,0.9642857142857143,,,,,,,,,,
null,,color_black,559292,black_plus_sign,,,,null,,,,,,,,,,,,,,
null,,learn_phase(without_color),561298,black_plus_sign,,,,null,GW/teeth.jpg,GW/barrel.jpg,,,,,,,,,,,,
null,,black_cross(without_color),561920,green,,,,null,GW/teeth.jpg,GW/barrel.jpg,,,,,,,,,,,,
null,,rt_plussign_withcolor,562424,green,,,,null,GW/teeth.jpg,GW/barrel.jpg,,,,,,,,,,,,
1153.7999999523163,,rt_thecrossant_black,563810,black_plus_sign,,,,50,,,1,0.9649122807017544,,,,,,,,,,
null,,color_black,563914,black_plus_sign,,,,null,,,,,,,,,,,,,,
null,,learn_phase(without_color),565919,black_plus_sign,,,,null,GW/teeth.jpg,GW/gong.jpg,,,,,,,,,,,,
null,,black_cross(without_color),566878,green,,,,null,GW/teeth.jpg,GW/gong.jpg,,,,,,,,,,,,
null,,rt_plussign_withcolor,567381,green,,,,null,GW/teeth.jpg,GW/gong.jpg,,,,,,,,,,,,
787.9000000953674,,rt_thecrossant_black,568431,black_plus_sign,,,,50,,,1,0.9655172413793104,,,,,,,,,,
null,,color_black,568534,black_plus_sign,,,,null,,,,,,,,,,,,,,
null,,learn_phase(without_color),570537,black_plus_sign,,,,null,GW/dustpan.jpg,GW/globe.jpg,,,,,,,,,,,,
null,,black_cross(without_color),571524,green,,,,null,GW/dustpan.jpg,GW/globe.jpg,,,,,,,,,,,,
null,,rt_plussign_withcolor,572030,green,,,,null,GW/dustpan.jpg,GW/globe.jpg,,,,,,,,,,,,
1201.7000000476837,,rt_thecrossant_black,573053,black_plus_sign,,,,50,,,1,0.9661016949152542,,,,,,,,,,
null,,color_black,573157,black_plus_sign,,,,null,,,,,,,,,,,,,,
null,,learn_phase(without_color),575160,black_plus_sign,,,,null,GW/soldier.jpg,GW/globe.jpg,,,,,,,,,,,,
null,,black_cross(without_color),575759,green,,,,null,GW/soldier.jpg,GW/globe.jpg,,,,,,,,,,,,
null,,rt_plussign_withcolor,576270,green,,,,null,GW/soldier.jpg,GW/globe.jpg,,,,,,,,,,,,
1155.5,,rt_thecrossant_black,577683,black_plus_sign,,,,50,,,1,0.9666666666666667,,,,,,,,,,
null,,color_black,577786,black_plus_sign,,,,null,,,,,,,,,,,,,,
null,,learn_phase(without_color),579790,black_plus_sign,,,,null,GW/barrel.jpg,GW/wheelchair.jpg,,,,,,,,,,,,
null,,black_cross(without_color),580651,green,,,,null,GW/barrel.jpg,GW/wheelchair.jpg,,,,,,,,,,,,
null,,rt_plussign_withcolor,581162,green,,,,null,GW/barrel.jpg,GW/wheelchair.jpg,,,,,,,,,,,,
819.5,,rt_thecrossant_black,582312,black_plus_sign,,,,50,,,1,0.9672131147540983,,,,,,,,,,
null,,color_black,582415,black_plus_sign,,,,null,,,,,,,,,,,,,,
null,,learn_phase(without_color),584423,black_plus_sign,,,,null,GW/camera.jpg,GW/dustpan.jpg,,,,,,,,,,,,
null,,black_cross(without_color),585346,green,,,,null,GW/camera.jpg,GW/dustpan.jpg,,,,,,,,,,,,
null,,rt_plussign_withcolor,585852,green,,,,null,GW/camera.jpg,GW/dustpan.jpg,,,,,,,,,,,,
966.5,,rt_thecrossant_black,586941,black_plus_sign,,,,50,,,1,0.967741935483871,,,,,,,,,,
null,,color_black,587045,black_plus_sign,,,,null,,,,,,,,,,,,,,
null,,learn_phase(without_color),589052,black_plus_sign,,,,null,GW/gong.jpg,GW/camera.jpg,,,,,,,,,,,,
null,,black_cross(without_color),589477,green,,,,null,GW/gong.jpg,GW/camera.jpg,,,,,,,,,,,,
null,,rt_plussign_withcolor,589982,green,,,,null,GW/gong.jpg,GW/camera.jpg,,,,,,,,,,,,
1117.0999999046326,,rt_thecrossant_black,591591,black_plus_sign,,,,50,,,1,0.9682539682539683,,,,,,,,,,
null,,color_black,591694,black_plus_sign,,,,null,,,,,,,,,,,,,,
null,,learn_phase(without_color),593698,black_plus_sign,,,,null,GW/globe.jpg,GW/basket.jpg,,,,,,,,,,,,
null,,black_cross(without_color),594139,green,,,,null,GW/globe.jpg,GW/basket.jpg,,,,,,,,,,,,
null,,rt_plussign_withcolor,594642,green,,,,null,GW/globe.jpg,GW/basket.jpg,,,,,,,,,,,,
641.2999999523163,,rt_thecrossant_black,596210,black_plus_sign,,,,50,,,1,0.96875,,,,,,,,,,
null,,color_black,596314,black_plus_sign,,,,null,,,,,,,,,,,,,,
null,,learn_phase(without_color),598319,black_plus_sign,,,,null,GW/dustpan.jpg,GW/soldier.jpg,,,,,,,,,,,,
null,,black_cross(without_color),599346,green,,,,null,GW/dustpan.jpg,GW/soldier.jpg,,,,,,,,,,,,
null,,rt_plussign_withcolor,599857,green,,,,null,GW/dustpan.jpg,GW/soldier.jpg,,,,,,,,,,,,
644.1000001430511,,rt_thecrossant_black,600837,black_plus_sign,,,,50,,,1,0.9692307692307692,,,,,,,,,,
null,,color_black,600940,black_plus_sign,,,,null,,,,,,,,,,,,,,
null,,learn_phase(without_color),602947,black_plus_sign,,,,null,GW/basket.jpg,GW/wheelchair.jpg,,,,,,,,,,,,
null,,black_cross(without_color),603652,blue,,,,null,GW/basket.jpg,GW/wheelchair.jpg,,,,,,,,,,,,
null,,rt_plussign_withcolor,604155,blue,,,,null,GW/basket.jpg,GW/wheelchair.jpg,,,,,,,,,,,,
1268.0999999046326,,rt_thecrossant_black,605458,black_plus_sign,,,,49,,,1,0.9696969696969697,,,,,,,,,,
null,,color_black,605565,black_plus_sign,,,,null,,,,,,,,,,,,,,
null,,learn_phase(without_color),607570,black_plus_sign,,,,null,GW/globe.jpg,GW/basket.jpg,,,,,,,,,,,,
null,,black_cross(without_color),608282,green,,,,null,GW/globe.jpg,GW/basket.jpg,,,,,,,,,,,,
null,,rt_plussign_withcolor,608786,green,,,,null,GW/globe.jpg,GW/basket.jpg,,,,,,,,,,,,
941.3999998569489,,rt_thecrossant_black,610089,black_plus_sign,,,,50,,,1,0.9701492537313433,,,,,,,,,,
null,,color_black,610194,black_plus_sign,,,,null,,,,,,,,,,,,,,
null,,learn_phase(without_color),612199,black_plus_sign,,,,null,GW/dustpan.jpg,GW/soldier.jpg,,,,,,,,,,,,
null,,black_cross(without_color),613239,green,,,,null,GW/dustpan.jpg,GW/soldier.jpg,,,,,,,,,,,,
null,,rt_plussign_withcolor,613751,green,,,,null,GW/dustpan.jpg,GW/soldier.jpg,,,,,,,,,,,,
961,,rt_thecrossant_black,614731,black_plus_sign,,,,50,,,1,0.9705882352941176,,,,,,,,,,
null,,color_black,614836,black_plus_sign,,,,null,,,,,,,,,,,,,,
null,,learn_phase(without_color),616842,black_plus_sign,,,,null,GW/gong.jpg,GW/basket.jpg,,,,,,,,,,,,
null,,black_cross(without_color),617649,blue,,,,null,GW/gong.jpg,GW/basket.jpg,,,,,,,,,,,,
null,,rt_plussign_withcolor,618151,blue,,,,null,GW/gong.jpg,GW/basket.jpg,,,,,,,,,,,,
1203.7000000476837,,rt_thecrossant_black,619351,black_plus_sign,,,,49,,,1,0.9710144927536232,,,,,,,,,,
null,,color_black,619457,black_plus_sign,,,,null,,,,,,,,,,,,,,
null,,learn_phase(without_color),621463,black_plus_sign,,,,null,GW/teeth.jpg,GW/gong.jpg,,,,,,,,,,,,
null,,black_cross(without_color),622173,green,,,,null,GW/teeth.jpg,GW/gong.jpg,,,,,,,,,,,,
null,,rt_plussign_withcolor,622677,green,,,,null,GW/teeth.jpg,GW/gong.jpg,,,,,,,,,,,,
1005.2000000476837,,rt_thecrossant_black,623975,black_plus_sign,,,,50,,,1,0.9714285714285714,,,,,,,,,,
null,,color_black,624077,black_plus_sign,,,,null,,,,,,,,,,,,,,
null,,learn_phase(without_color),626081,black_plus_sign,,,,null,GW/globe.jpg,GW/basket.jpg,,,,,,,,,,,,
null,,black_cross(without_color),626841,green,,,,null,GW/globe.jpg,GW/basket.jpg,,,,,,,,,,,,
null,,rt_plussign_withcolor,627343,green,,,,null,GW/globe.jpg,GW/basket.jpg,,,,,,,,,,,,
922,,rt_thecrossant_black,628589,black_plus_sign,,,,50,,,1,0.971830985915493,,,,,,,,,,
null,,color_black,628694,black_plus_sign,,,,null,,,,,,,,,,,,,,
null,,learn_phase(without_color),630700,black_plus_sign,,,,null,GW/teeth.jpg,GW/gong.jpg,,,,,,,,,,,,
null,,black_cross(without_color),631485,green,,,,null,GW/teeth.jpg,GW/gong.jpg,,,,,,,,,,,,
null,,rt_plussign_withcolor,631995,green,,,,null,GW/teeth.jpg,GW/gong.jpg,,,,,,,,,,,,
968.1999998092651,,rt_thecrossant_black,633218,black_plus_sign,,,,50,,,1,0.9722222222222222,,,,,,,,,,
null,,color_black,633323,black_plus_sign,,,,null,,,,,,,,,,,,,,
null,,learn_phase(without_color),635327,black_plus_sign,,,,null,GW/barrel.jpg,GW/hat.jpg,,,,,,,,,,,,
null,,black_cross(without_color),636287,blue,,,,null,GW/barrel.jpg,GW/hat.jpg,,,,,,,,,,,,
null,,rt_plussign_withcolor,636792,blue,,,,null,GW/barrel.jpg,GW/hat.jpg,,,,,,,,,,,,
1035.6999998092651,,rt_thecrossant_black,637842,black_plus_sign,,,,50,,,0,0.958904109589041,,,,,,,,,,
null,,color_black,637946,black_plus_sign,,,,null,,,,,,,,,,,,,,
null,,learn_phase(without_color),639951,black_plus_sign,,,,null,GW/dustpan.jpg,GW/jukebox.jpg,,,,,,,,,,,,
null,,black_cross(without_color),640737,green,,,,null,GW/dustpan.jpg,GW/jukebox.jpg,,,,,,,,,,,,
null,,rt_plussign_withcolor,641241,green,,,,null,GW/dustpan.jpg,GW/jukebox.jpg,,,,,,,,,,,,
1213.2999999523163,,rt_thecrossant_black,642465,black_plus_sign,,,,50,,,1,0.9594594594594594,,,,,,,,,,
null,,color_black,642570,black_plus_sign,,,,null,,,,,,,,,,,,,,
null,,learn_phase(without_color),644576,black_plus_sign,,,,null,GW/teeth.jpg,GW/gong.jpg,,,,,,,,,,,,
null,,black_cross(without_color),645571,green,,,,null,GW/teeth.jpg,GW/gong.jpg,,,,,,,,,,,,
null,,rt_plussign_withcolor,646074,green,,,,null,GW/teeth.jpg,GW/gong.jpg,,,,,,,,,,,,
962.6000001430511,,rt_thecrossant_black,647088,black_plus_sign,,,,50,,,1,0.96,,,,,,,,,,
null,,color_black,647200,black_plus_sign,,,,null,,,,,,,,,,,,,,
null,,learn_phase(without_color),649206,black_plus_sign,,,,null,GW/dustpan.jpg,GW/globe.jpg,,,,,,,,,,,,
null,,black_cross(without_color),650180,blue,,,,null,GW/dustpan.jpg,GW/globe.jpg,,,,,,,,,,,,
null,,rt_plussign_withcolor,650684,blue,,,,null,GW/dustpan.jpg,GW/globe.jpg,,,,,,,,,,,,
1266.5,,rt_thecrossant_black,651721,black_plus_sign,,,,49,,,1,0.9605263157894737,,,,,,,,,,
null,,color_black,651826,black_plus_sign,,,,null,,,,,,,,,,,,,,
null,,learn_phase(without_color),653832,black_plus_sign,,,,null,GW/dustpan.jpg,GW/soldier.jpg,,,,,,,,,,,,
null,,black_cross(without_color),654739,blue,,,,null,GW/dustpan.jpg,GW/soldier.jpg,,,,,,,,,,,,
null,,rt_plussign_withcolor,655257,blue,,,,null,GW/dustpan.jpg,GW/soldier.jpg,,,,,,,,,,,,
1205.6999998092651,,rt_thecrossant_black,656360,black_plus_sign,,,,49,,,1,0.961038961038961,,,,,,,,,,
null,,color_black,656465,black_plus_sign,,,,null,,,,,,,,,,,,,,
null,,learn_phase(without_color),658473,black_plus_sign,,,,null,GW/barrel.jpg,GW/wheelchair.jpg,,,,,,,,,,,,
null,,black_cross(without_color),659139,green,,,,null,GW/barrel.jpg,GW/wheelchair.jpg,,,,,,,,,,,,
null,,rt_plussign_withcolor,659644,green,,,,null,GW/barrel.jpg,GW/wheelchair.jpg,,,,,,,,,,,,
1218.2000000476837,,rt_thecrossant_black,660991,black_plus_sign,,,,50,,,1,0.9615384615384616,,,,,,,,,,
null,,color_black,661096,black_plus_sign,,,,null,,,,,,,,,,,,,,
null,,learn_phase(without_color),663100,black_plus_sign,,,,null,GW/dustpan.jpg,GW/globe.jpg,,,,,,,,,,,,
null,,black_cross(without_color),663674,green,,,,null,GW/dustpan.jpg,GW/globe.jpg,,,,,,,,,,,,
null,,rt_plussign_withcolor,664176,green,,,,null,GW/dustpan.jpg,GW/globe.jpg,,,,,,,,,,,,
1092.5999999046326,,rt_thecrossant_black,665608,black_plus_sign,,,,50,,,1,0.9620253164556962,,,,,,,,,,
null,,color_black,665710,black_plus_sign,,,,null,,,,,,,,,,,,,,
null,,learn_phase(without_color),667713,black_plus_sign,,,,null,GW/soldier.jpg,GW/snail.jpg,,,,,,,,,,,,
null,,black_cross(without_color),668412,green,,,,null,GW/soldier.jpg,GW/snail.jpg,,,,,,,,,,,,
null,,rt_plussign_withcolor,668915,green,,,,null,GW/soldier.jpg,GW/snail.jpg,,,,,,,,,,,,
854.2000000476837,,rt_thecrossant_black,670223,black_plus_sign,,,,50,,,1,0.9625,,,,,,,,,,
null,,color_black,670326,black_plus_sign,,,,null,,,,,,,,,,,,,,
null,,learn_phase(without_color),672329,black_plus_sign,,,,null,GW/camera.jpg,GW/dustpan.jpg,,,,,,,,,,,,
null,,black_cross(without_color),672776,blue,,,,null,GW/camera.jpg,GW/dustpan.jpg,,,,,,,,,,,,
null,,rt_plussign_withcolor,673291,blue,,,,null,GW/camera.jpg,GW/dustpan.jpg,,,,,,,,,,,,
1015.4000000953674,,rt_thecrossant_black,674851,black_plus_sign,,,,49,,,1,0.9629629629629629,,,,,,,,,,
null,,color_black,674954,black_plus_sign,,,,null,,,,,,,,,,,,,,
null,,learn_phase(without_color),676961,black_plus_sign,,,,null,GW/dustpan.jpg,GW/soldier.jpg,,,,,,,,,,,,
null,,black_cross(without_color),677431,green,,,,null,GW/dustpan.jpg,GW/soldier.jpg,,,,,,,,,,,,
null,,rt_plussign_withcolor,677933,green,,,,null,GW/dustpan.jpg,GW/soldier.jpg,,,,,,,,,,,,
662.9000000953674,,rt_thecrossant_black,679470,black_plus_sign,,,,50,,,1,0.9634146341463414,,,,,,,,,,
null,,color_black,679577,black_plus_sign,,,,null,,,,,,,,,,,,,,
null,,learn_phase(without_color),681580,black_plus_sign,,,,null,GW/barrel.jpg,GW/hat.jpg,,,,,,,,,,,,
null,,black_cross(without_color),682523,green,,,,null,GW/barrel.jpg,GW/hat.jpg,,,,,,,,,,,,
null,,rt_plussign_withcolor,683033,green,,,,null,GW/barrel.jpg,GW/hat.jpg,,,,,,,,,,,,
944.2000000476837,,rt_thecrossant_black,684096,black_plus_sign,,,,50,,,1,0.963855421686747,,,,,,,,,,
null,,color_black,684199,black_plus_sign,,,,null,,,,,,,,,,,,,,
null,,learn_phase(without_color),686204,black_plus_sign,,,,null,GW/camera.jpg,GW/dustpan.jpg,,,,,,,,,,,,
null,,black_cross(without_color),686778,green,,,,null,GW/camera.jpg,GW/dustpan.jpg,,,,,,,,,,,,
null,,rt_plussign_withcolor,687280,green,,,,null,GW/camera.jpg,GW/dustpan.jpg,,,,,,,,,,,,
1061.7000000476837,,rt_thecrossant_black,688712,black_plus_sign,,,,50,,,1,0.9642857142857143,,,,,,,,,,
null,,color_black,688815,black_plus_sign,,,,null,,,,,,,,,,,,,,
null,,learn_phase(without_color),690827,black_plus_sign,,,,null,GW/teeth.jpg,GW/barrel.jpg,,,,,,,,,,,,
null,,black_cross(without_color),691708,green,,,,null,GW/teeth.jpg,GW/barrel.jpg,,,,,,,,,,,,
null,,rt_plussign_withcolor,692211,green,,,,null,GW/teeth.jpg,GW/barrel.jpg,,,,,,,,,,,,
801.9000000953674,,rt_thecrossant_black,693336,black_plus_sign,,,,50,,,1,0.9647058823529412,,,,,,,,,,
null,,color_black,693440,black_plus_sign,,,,null,,,,,,,,,,,,,,
null,,learn_phase(without_color),695443,black_plus_sign,,,,null,GW/soldier.jpg,GW/snail.jpg,,,,,,,,,,,,
null,,black_cross(without_color),696513,green,,,,null,GW/soldier.jpg,GW/snail.jpg,,,,,,,,,,,,
null,,rt_plussign_withcolor,697014,green,,,,null,GW/soldier.jpg,GW/snail.jpg,,,,,,,,,,,,
1077.5,,rt_thecrossant_black,697950,black_plus_sign,,,,50,,,1,0.9651162790697675,,,,,,,,,,
null,,color_black,698053,black_plus_sign,,,,null,,,,,,,,,,,,,,
null,,learn_phase(without_color),700064,black_plus_sign,,,,null,GW/camera.jpg,GW/dustpan.jpg,,,,,,,,,,,,
null,,black_cross(without_color),700605,green,,,,null,GW/camera.jpg,GW/dustpan.jpg,,,,,,,,,,,,
null,,rt_plussign_withcolor,701116,green,,,,null,GW/camera.jpg,GW/dustpan.jpg,,,,,,,,,,,,
1234.0999999046326,,rt_thecrossant_black,702581,black_plus_sign,,,,50,,,1,0.9655172413793104,,,,,,,,,,
null,,color_black,702684,black_plus_sign,,,,null,,,,,,,,,,,,,,
null,,learn_phase(without_color),704688,black_plus_sign,,,,null,GW/gong.jpg,GW/camera.jpg,,,,,,,,,,,,
null,,black_cross(without_color),705738,blue,,,,null,GW/gong.jpg,GW/camera.jpg,,,,,,,,,,,,
437.7999999523163,,rt_plussign_withcolor,706241,blue,,,,49,GW/gong.jpg,GW/camera.jpg,,,,,,,,,,,,
null,,rt_thecrossant_black,707198,black_plus_sign,,,,null,,,1,0.9659090909090909,,,,,,,,,,
null,,color_black,707303,black_plus_sign,,,,null,,,,,,,,,,,,,,
null,,learn_phase(without_color),709307,black_plus_sign,,,,null,GW/paint.jpg,GW/teeth.jpg,,,,,,,,,,,,
null,,black_cross(without_color),710244,blue,,,,null,GW/paint.jpg,GW/teeth.jpg,,,,,,,,,,,,
null,,rt_plussign_withcolor,710749,blue,,,,null,GW/paint.jpg,GW/teeth.jpg,,,,,,,,,,,,
1148.6999998092651,,rt_thecrossant_black,711823,black_plus_sign,,,,49,,,1,0.9662921348314607,,,,,,,,,,
null,,color_black,711928,black_plus_sign,,,,null,,,,,,,,,,,,,,
null,,learn_phase(without_color),713935,black_plus_sign,,,,null,GW/basket.jpg,GW/wheelchair.jpg,,,,,,,,,,,,
null,,black_cross(without_color),714753,blue,,,,null,GW/basket.jpg,GW/wheelchair.jpg,,,,,,,,,,,,
null,,rt_plussign_withcolor,715256,blue,,,,null,GW/basket.jpg,GW/wheelchair.jpg,,,,,,,,,,,,
1140.5,,rt_thecrossant_black,716447,black_plus_sign,,,,49,,,1,0.9666666666666667,,,,,,,,,,
null,,color_black,716555,black_plus_sign,,,,null,,,,,,,,,,,,,,
null,,learn_phase(without_color),718570,black_plus_sign,,,,null,GW/gong.jpg,GW/camera.jpg,,,,,,,,,,,,
null,,black_cross(without_color),718982,blue,,,,null,GW/gong.jpg,GW/camera.jpg,,,,,,,,,,,,
null,,rt_plussign_withcolor,719487,blue,,,,null,GW/gong.jpg,GW/camera.jpg,,,,,,,,,,,,
1021.7999999523163,,rt_thecrossant_black,721085,black_plus_sign,,,,49,,,1,0.967032967032967,,,,,,,,,,
null,,color_black,721190,black_plus_sign,,,,null,,,,,,,,,,,,,,
null,,learn_phase(without_color),723201,black_plus_sign,,,,null,GW/dustpan.jpg,GW/globe.jpg,,,,,,,,,,,,
null,,black_cross(without_color),724261,blue,,,,null,GW/dustpan.jpg,GW/globe.jpg,,,,,,,,,,,,
null,,rt_plussign_withcolor,724764,blue,,,,null,GW/dustpan.jpg,GW/globe.jpg,,,,,,,,,,,,
554.6000001430511,,rt_thecrossant_black,725716,black_plus_sign,,,,49,,,1,0.967391304347826,,,,,,,,,,
null,,color_black,725821,black_plus_sign,,,,null,,,,,,,,,,,,,,
null,,learn_phase(without_color),727828,black_plus_sign,,,,null,GW/camera.jpg,GW/dustpan.jpg,,,,,,,,,,,,
null,,black_cross(without_color),728702,green,,,,null,GW/camera.jpg,GW/dustpan.jpg,,,,,,,,,,,,
null,,rt_plussign_withcolor,729205,green,,,,null,GW/camera.jpg,GW/dustpan.jpg,,,,,,,,,,,,
1473.2000000476837,,rt_thecrossant_black,730339,black_plus_sign,,,,50,,,1,0.967741935483871,,,,,,,,,,
null,,color_black,730442,black_plus_sign,,,,null,,,,,,,,,,,,,,
null,,learn_phase(without_color),732446,black_plus_sign,,,,null,GW/soldier.jpg,GW/snail.jpg,,,,,,,,,,,,
null,,black_cross(without_color),733162,blue,,,,null,GW/soldier.jpg,GW/snail.jpg,,,,,,,,,,,,
null,,rt_plussign_withcolor,733667,blue,,,,null,GW/soldier.jpg,GW/snail.jpg,,,,,,,,,,,,
1061.4000000953674,,rt_thecrossant_black,734961,black_plus_sign,,,,49,,,1,0.9680851063829787,,,,,,,,,,
null,,color_black,735066,black_plus_sign,,,,null,,,,,,,,,,,,,,
null,,learn_phase(without_color),737071,black_plus_sign,,,,null,GW/gong.jpg,GW/basket.jpg,,,,,,,,,,,,
null,,black_cross(without_color),737522,blue,,,,null,GW/gong.jpg,GW/basket.jpg,,,,,,,,,,,,
null,,rt_plussign_withcolor,738027,blue,,,,null,GW/gong.jpg,GW/basket.jpg,,,,,,,,,,,,
856,,rt_thecrossant_black,739587,black_plus_sign,,,,49,,,1,0.968421052631579,,,,,,,,,,
null,,color_black,739692,black_plus_sign,,,,null,,,,,,,,,,,,,,
null,,learn_phase(without_color),741700,black_plus_sign,,,,null,GW/basket.jpg,GW/wheelchair.jpg,,,,,,,,,,,,
null,,black_cross(without_color),742584,blue,,,,null,GW/basket.jpg,GW/wheelchair.jpg,,,,,,,,,,,,
null,,rt_plussign_withcolor,743088,blue,,,,null,GW/basket.jpg,GW/wheelchair.jpg,,,,,,,,,,,,
718,,rt_thecrossant_black,744213,black_plus_sign,,,,49,,,1,0.96875,,,,,,,,,,
null,,color_black,744319,black_plus_sign,,,,null,,,,,,,,,,,,,,
null,,learn_phase(without_color),746325,black_plus_sign,,,,null,GW/camera.jpg,GW/globe.jpg,,,,,,,,,,,,
null,,black_cross(without_color),747145,blue,,,,null,GW/camera.jpg,GW/globe.jpg,,,,,,,,,,,,
null,,rt_plussign_withcolor,747649,blue,,,,null,GW/camera.jpg,GW/globe.jpg,,,,,,,,,,,,
1050.1000001430511,,rt_thecrossant_black,748839,black_plus_sign,,,,49,,,1,0.9690721649484536,,,,,,,,,,
null,,color_black,748944,black_plus_sign,,,,null,,,,,,,,,,,,,,
null,,learn_phase(without_color),750951,black_plus_sign,,,,null,GW/dustpan.jpg,GW/jukebox.jpg,,,,,,,,,,,,
null,,black_cross(without_color),751963,green,,,,null,GW/dustpan.jpg,GW/jukebox.jpg,,,,,,,,,,,,
null,,rt_plussign_withcolor,752466,green,,,,null,GW/dustpan.jpg,GW/jukebox.jpg,,,,,,,,,,,,
996.2999999523163,,rt_thecrossant_black,753469,black_plus_sign,,,,50,,,1,0.9693877551020408,,,,,,,,,,
null,,color_black,753575,black_plus_sign,,,,null,,,,,,,,,,,,,,
null,,learn_phase(without_color),755583,black_plus_sign,,,,null,GW/soldier.jpg,GW/snail.jpg,,,,,,,,,,,,
null,,black_cross(without_color),756585,green,,,,null,GW/soldier.jpg,GW/snail.jpg,,,,,,,,,,,,
null,,rt_plussign_withcolor,757088,green,,,,null,GW/soldier.jpg,GW/snail.jpg,,,,,,,,,,,,
1226.2000000476837,,rt_thecrossant_black,758097,black_plus_sign,,,,50,,,1,0.9696969696969697,,,,,,,,,,
null,,color_black,758203,black_plus_sign,,,,null,,,,,,,,,,,,,,
null,,learn_phase(without_color),760209,black_plus_sign,,,,null,GW/globe.jpg,GW/basket.jpg,,,,,,,,,,,,
null,,black_cross(without_color),761213,blue,,,,null,GW/globe.jpg,GW/basket.jpg,,,,,,,,,,,,
505,,rt_plussign_withcolor,761729,blue,,,,49,GW/globe.jpg,GW/basket.jpg,,,,,,,,,,,,
null,,rt_thecrossant_black,762736,black_plus_sign,,,,null,,,1,0.97,,,,,,,,,,
null,,color_black,762841,black_plus_sign,,,,null,,,,,,,,,,,,,,
null,,learn_phase(without_color),764849,black_plus_sign,,,,null,GW/soldier.jpg,GW/globe.jpg,,,,,,,,,,,,
null,,black_cross(without_color),765802,green,,,,null,GW/soldier.jpg,GW/globe.jpg,,,,,,,,,,,,
null,,rt_plussign_withcolor,766305,green,,,,null,GW/soldier.jpg,GW/globe.jpg,,,,,,,,,,,,
1220.3999998569489,,rt_thecrossant_black,767360,black_plus_sign,,,,50,,,1,0.9702970297029703,,,,,,,,,,
null,,color_black,767466,black_plus_sign,,,,null,,,,,,,,,,,,,,
null,,learn_phase(without_color),769473,black_plus_sign,,,,null,GW/paint.jpg,GW/teeth.jpg,,,,,,,,,,,,
null,,black_cross(without_color),770290,green,,,,null,GW/paint.jpg,GW/teeth.jpg,,,,,,,,,,,,
null,,rt_plussign_withcolor,770794,green,,,,null,GW/paint.jpg,GW/teeth.jpg,,,,,,,,,,,,
1179.5,,rt_thecrossant_black,771988,black_plus_sign,,,,50,,,1,0.9705882352941176,,,,,,,,,,
null,,color_black,772093,black_plus_sign,,,,null,,,,,,,,,,,,,,
null,,learn_phase(without_color),774101,black_plus_sign,,,,null,GW/barrel.jpg,GW/wheelchair.jpg,,,,,,,,,,,,
null,,black_cross(without_color),774551,blue,,,,null,GW/barrel.jpg,GW/wheelchair.jpg,,,,,,,,,,,,
null,,rt_plussign_withcolor,775054,blue,,,,null,GW/barrel.jpg,GW/wheelchair.jpg,,,,,,,,,,,,
977,,rt_thecrossant_black,776616,black_plus_sign,,,,49,,,1,0.970873786407767,,,,,,,,,,
null,,color_black,776720,black_plus_sign,,,,null,,,,,,,,,,,,,,
null,,learn_phase(without_color),778727,black_plus_sign,,,,null,GW/soldier.jpg,GW/snail.jpg,,,,,,,,,,,,
null,,black_cross(without_color),779316,blue,,,,null,GW/soldier.jpg,GW/snail.jpg,,,,,,,,,,,,
null,,rt_plussign_withcolor,779821,blue,,,,null,GW/soldier.jpg,GW/snail.jpg,,,,,,,,,,,,
791.5999999046326,,rt_thecrossant_black,781240,black_plus_sign,,,,49,,,1,0.9711538461538461,,,,,,,,,,
null,,color_black,781345,black_plus_sign,,,,null,,,,,,,,,,,,,,
null,,learn_phase(without_color),783354,black_plus_sign,,,,null,GW/dustpan.jpg,GW/jukebox.jpg,,,,,,,,,,,,
null,,black_cross(without_color),784095,green,,,,null,GW/dustpan.jpg,GW/jukebox.jpg,,,,,,,,,,,,
null,,rt_plussign_withcolor,784600,green,,,,null,GW/dustpan.jpg,GW/jukebox.jpg,,,,,,,,,,,,
737.2999999523163,,rt_thecrossant_black,785870,black_plus_sign,,,,50,,,1,0.9714285714285714,,,,,,,,,,
null,,color_black,785975,black_plus_sign,,,,null,,,,,,,,,,,,,,
null,,learn_phase(without_color),787983,black_plus_sign,,,,null,GW/gong.jpg,GW/basket.jpg,,,,,,,,,,,,
null,,black_cross(without_color),788530,blue,,,,null,GW/gong.jpg,GW/basket.jpg,,,,,,,,,,,,
null,,rt_plussign_withcolor,789035,blue,,,,null,GW/gong.jpg,GW/basket.jpg,,,,,,,,,,,,
1068.2000000476837,,rt_thecrossant_black,790497,black_plus_sign,,,,49,,,1,0.9716981132075472,,,,,,,,,,
null,,color_black,790599,black_plus_sign,,,,null,,,,,,,,,,,,,,
null,,learn_phase(without_color),792602,black_plus_sign,,,,null,GW/paint.jpg,GW/teeth.jpg,,,,,,,,,,,,
null,,black_cross(without_color),793120,blue,,,,null,GW/paint.jpg,GW/teeth.jpg,,,,,,,,,,,,
null,,rt_plussign_withcolor,793622,blue,,,,null,GW/paint.jpg,GW/teeth.jpg,,,,,,,,,,,,
737.2999999523163,,rt_thecrossant_black,795115,black_plus_sign,,,,49,,,1,0.9719626168224299,,,,,,,,,,
null,,color_black,795219,black_plus_sign,,,,null,,,,,,,,,,,,,,
null,,learn_phase(without_color),797222,black_plus_sign,,,,null,GW/teeth.jpg,GW/gong.jpg,,,,,,,,,,,,
null,,black_cross(without_color),797655,blue,,,,null,GW/teeth.jpg,GW/gong.jpg,,,,,,,,,,,,
null,,rt_plussign_withcolor,798161,blue,,,,null,GW/teeth.jpg,GW/gong.jpg,,,,,,,,,,,,
748.1000001430511,,rt_thecrossant_black,799737,black_plus_sign,,,,49,,,1,0.9722222222222222,,,,,,,,,,
null,,color_black,799840,black_plus_sign,,,,null,,,,,,,,,,,,,,
null,,learn_phase(without_color),801848,black_plus_sign,,,,null,GW/camera.jpg,GW/globe.jpg,,,,,,,,,,,,
null,,black_cross(without_color),802693,green,,,,null,GW/camera.jpg,GW/globe.jpg,,,,,,,,,,,,
null,,rt_plussign_withcolor,803197,green,,,,null,GW/camera.jpg,GW/globe.jpg,,,,,,,,,,,,
771.3000001907349,,rt_thecrossant_black,804363,black_plus_sign,,,,50,,,1,0.9724770642201835,,,,,,,,,,
null,,color_black,804467,black_plus_sign,,,,null,,,,,,,,,,,,,,
null,,learn_phase(without_color),806474,black_plus_sign,,,,null,GW/soldier.jpg,GW/snail.jpg,,,,,,,,,,,,
null,,black_cross(without_color),807330,green,,,,null,GW/soldier.jpg,GW/snail.jpg,,,,,,,,,,,,
null,,rt_plussign_withcolor,807837,green,,,,null,GW/soldier.jpg,GW/snail.jpg,,,,,,,,,,,,
949.2999999523163,,rt_thecrossant_black,808990,black_plus_sign,,,,50,,,1,0.9727272727272728,,,,,,,,,,
null,,color_black,809093,black_plus_sign,,,,null,,,,,,,,,,,,,,
null,,learn_phase(without_color),811101,black_plus_sign,,,,null,GW/barrel.jpg,GW/hat.jpg,,,,,,,,,,,,
null,,black_cross(without_color),811695,green,,,,null,GW/barrel.jpg,GW/hat.jpg,,,,,,,,,,,,
null,,rt_plussign_withcolor,812202,green,,,,null,GW/barrel.jpg,GW/hat.jpg,,,,,,,,,,,,
1203.7999999523163,,rt_thecrossant_black,813618,black_plus_sign,,,,50,,,1,0.972972972972973,,,,,,,,,,
null,,color_black,813722,black_plus_sign,,,,null,,,,,,,,,,,,,,
null,,learn_phase(without_color),815724,black_plus_sign,,,,null,GW/paint.jpg,GW/teeth.jpg,,,,,,,,,,,,
null,,black_cross(without_color),816519,green,,,,null,GW/paint.jpg,GW/teeth.jpg,,,,,,,,,,,,
null,,rt_plussign_withcolor,817025,green,,,,null,GW/paint.jpg,GW/teeth.jpg,,,,,,,,,,,,
759.5999999046326,,rt_thecrossant_black,818239,black_plus_sign,,,,50,,,1,0.9732142857142857,,,,,,,,,,
null,,color_black,818342,black_plus_sign,,,,null,,,,,,,,,,,,,,
null,,learn_phase(without_color),820348,black_plus_sign,,,,null,GW/teeth.jpg,GW/barrel.jpg,,,,,,,,,,,,
null,,black_cross(without_color),821119,blue,,,,null,GW/teeth.jpg,GW/barrel.jpg,,,,,,,,,,,,
null,,rt_plussign_withcolor,821625,blue,,,,null,GW/teeth.jpg,GW/barrel.jpg,,,,,,,,,,,,
1043.0999999046326,,rt_thecrossant_black,822862,black_plus_sign,,,,49,,,1,0.9734513274336283,,,,,,,,,,
null,,color_black,822965,black_plus_sign,,,,null,,,,,,,,,,,,,,
null,,learn_phase(without_color),824969,black_plus_sign,,,,null,GW/gong.jpg,GW/basket.jpg,,,,,,,,,,,,
null,,black_cross(without_color),825864,blue,,,,null,GW/gong.jpg,GW/basket.jpg,,,,,,,,,,,,
null,,rt_plussign_withcolor,826367,blue,,,,null,GW/gong.jpg,GW/basket.jpg,,,,,,,,,,,,
1091.8999998569489,,rt_thecrossant_black,827482,black_plus_sign,,,,49,,,1,0.9736842105263158,,,,,,,,,,
null,,color_black,827588,black_plus_sign,,,,null,,,,,,,,,,,,,,
null,,learn_phase(without_color),829597,black_plus_sign,,,,null,GW/teeth.jpg,GW/gong.jpg,,,,,,,,,,,,
null,,black_cross(without_color),830209,blue,,,,null,GW/teeth.jpg,GW/gong.jpg,,,,,,,,,,,,
null,,rt_plussign_withcolor,830713,blue,,,,null,GW/teeth.jpg,GW/gong.jpg,,,,,,,,,,,,
1275.9000000953674,,rt_thecrossant_black,832111,black_plus_sign,,,,49,,,1,0.9739130434782609,,,,,,,,,,
null,,color_black,832216,black_plus_sign,,,,null,,,,,,,,,,,,,,
null,,learn_phase(without_color),834222,black_plus_sign,,,,null,GW/basket.jpg,GW/wheelchair.jpg,,,,,,,,,,,,
null,,black_cross(without_color),834833,green,,,,null,GW/basket.jpg,GW/wheelchair.jpg,,,,,,,,,,,,
null,,rt_plussign_withcolor,835337,green,,,,null,GW/basket.jpg,GW/wheelchair.jpg,,,,,,,,,,,,
852.4000000953674,,rt_thecrossant_black,836739,black_plus_sign,,,,50,,,1,0.9741379310344828,,,,,,,,,,
null,,color_black,836843,black_plus_sign,,,,null,,,,,,,,,,,,,,
null,,learn_phase(without_color),838848,black_plus_sign,,,,null,GW/soldier.jpg,GW/snail.jpg,,,,,,,,,,,,
null,,black_cross(without_color),839435,green,,,,null,GW/soldier.jpg,GW/snail.jpg,,,,,,,,,,,,
null,,rt_plussign_withcolor,839939,green,,,,null,GW/soldier.jpg,GW/snail.jpg,,,,,,,,,,,,
1123,,rt_thecrossant_black,841363,black_plus_sign,,,,50,,,1,0.9743589743589743,,,,,,,,,,
null,,color_black,841469,black_plus_sign,,,,null,,,,,,,,,,,,,,
null,,learn_phase(without_color),843476,black_plus_sign,,,,null,GW/dustpan.jpg,GW/jukebox.jpg,,,,,,,,,,,,
null,,black_cross(without_color),844040,blue,,,,null,GW/dustpan.jpg,GW/jukebox.jpg,,,,,,,,,,,,
502.40000009536743,,rt_plussign_withcolor,844550,blue,,,,49,GW/dustpan.jpg,GW/jukebox.jpg,,,,,,,,,,,,
null,,rt_thecrossant_black,845995,black_plus_sign,,,,null,,,1,0.9745762711864406,,,,,,,,,,
null,,color_black,846102,black_plus_sign,,,,null,,,,,,,,,,,,,,
null,,learn_phase(without_color),848109,black_plus_sign,,,,null,GW/teeth.jpg,GW/barrel.jpg,,,,,,,,,,,,
null,,black_cross(without_color),848732,green,,,,null,GW/teeth.jpg,GW/barrel.jpg,,,,,,,,,,,,
null,,rt_plussign_withcolor,849237,green,,,,null,GW/teeth.jpg,GW/barrel.jpg,,,,,,,,,,,,
818.0999999046326,,rt_thecrossant_black,850625,black_plus_sign,,,,50,,,1,0.9747899159663865,,,,,,,,,,
null,,color_black,850730,black_plus_sign,,,,null,,,,,,,,,,,,,,
null,,learn_phase(without_color),852737,black_plus_sign,,,,null,GW/barrel.jpg,GW/wheelchair.jpg,,,,,,,,,,,,
null,,black_cross(without_color),853613,blue,,,,null,GW/barrel.jpg,GW/wheelchair.jpg,,,,,,,,,,,,
null,,rt_plussign_withcolor,854116,blue,,,,null,GW/barrel.jpg,GW/wheelchair.jpg,,,,,,,,,,,,
724.2000000476837,,rt_thecrossant_black,855251,black_plus_sign,,,,49,,,1,0.975,,,,,,,,,,
null,,color_black,855356,black_plus_sign,,,,null,,,,,,,,,,,,,,
null,,learn_phase(without_color),857364,black_plus_sign,,,,null,GW/camera.jpg,GW/dustpan.jpg,,,,,,,,,,,,
null,,black_cross(without_color),857952,blue,,,,null,GW/camera.jpg,GW/dustpan.jpg,,,,,,,,,,,,
null,,rt_plussign_withcolor,858455,blue,,,,null,GW/camera.jpg,GW/dustpan.jpg,,,,,,,,,,,,
1159,,rt_thecrossant_black,859878,black_plus_sign,,,,49,,,1,0.9752066115702479,,,,,,,,,,
null,,color_black,859984,black_plus_sign,,,,null,,,,,,,,,,,,,,
null,,learn_phase(without_color),861992,black_plus_sign,,,,null,GW/soldier.jpg,GW/globe.jpg,,,,,,,,,,,,
null,,black_cross(without_color),862468,green,,,,null,GW/soldier.jpg,GW/globe.jpg,,,,,,,,,,,,
null,,rt_plussign_withcolor,862972,green,,,,null,GW/soldier.jpg,GW/globe.jpg,,,,,,,,,,,,
891.2000000476837,,rt_thecrossant_black,864507,black_plus_sign,,,,50,,,1,0.9754098360655737,,,,,,,,,,
null,,color_black,864612,black_plus_sign,,,,null,,,,,,,,,,,,,,
null,,learn_phase(without_color),866620,black_plus_sign,,,,null,GW/gong.jpg,GW/camera.jpg,,,,,,,,,,,,
null,,black_cross(without_color),867329,blue,,,,null,GW/gong.jpg,GW/camera.jpg,,,,,,,,,,,,
null,,rt_plussign_withcolor,867833,blue,,,,null,GW/gong.jpg,GW/camera.jpg,,,,,,,,,,,,
615.6000001430511,,rt_thecrossant_black,869134,black_plus_sign,,,,49,,,1,0.975609756097561,,,,,,,,,,
null,,color_black,869239,black_plus_sign,,,,null,,,,,,,,,,,,,,
null,,learn_phase(without_color),871247,black_plus_sign,,,,null,GW/globe.jpg,GW/basket.jpg,,,,,,,,,,,,
null,,black_cross(without_color),872062,green,,,,null,GW/globe.jpg,GW/basket.jpg,,,,,,,,,,,,
null,,rt_plussign_withcolor,872566,green,,,,null,GW/globe.jpg,GW/basket.jpg,,,,,,,,,,,,
855.7000000476837,,rt_thecrossant_black,873761,black_plus_sign,,,,50,,,1,0.9758064516129032,,,,,,,,,,
null,,color_black,873866,black_plus_sign,,,,null,,,,,,,,,,,,,,
null,,learn_phase(without_color),875873,black_plus_sign,,,,null,GW/camera.jpg,GW/globe.jpg,,,,,,,,,,,,
null,,black_cross(without_color),876764,blue,,,,null,GW/camera.jpg,GW/globe.jpg,,,,,,,,,,,,
null,,rt_plussign_withcolor,877268,blue,,,,null,GW/camera.jpg,GW/globe.jpg,,,,,,,,,,,,
915.5999999046326,,rt_thecrossant_black,878388,black_plus_sign,,,,49,,,1,0.976,,,,,,,,,,
null,,color_black,878494,black_plus_sign,,,,null,,,,,,,,,,,,,,
null,,learn_phase(without_color),880501,black_plus_sign,,,,null,GW/dustpan.jpg,GW/globe.jpg,,,,,,,,,,,,
null,,black_cross(without_color),881034,green,,,,null,GW/dustpan.jpg,GW/globe.jpg,,,,,,,,,,,,
null,,rt_plussign_withcolor,881540,green,,,,null,GW/dustpan.jpg,GW/globe.jpg,,,,,,,,,,,,
1178.2999999523163,,rt_thecrossant_black,883014,black_plus_sign,,,,50,,,1,0.9761904761904762,,,,,,,,,,
null,,color_black,883118,black_plus_sign,,,,null,,,,,,,,,,,,,,
null,,learn_phase(without_color),885127,black_plus_sign,,,,null,GW/globe.jpg,GW/basket.jpg,,,,,,,,,,,,
null,,black_cross(without_color),886179,green,,,,null,GW/globe.jpg,GW/basket.jpg,,,,,,,,,,,,
null,,rt_plussign_withcolor,886682,green,,,,null,GW/globe.jpg,GW/basket.jpg,,,,,,,,,,,,
719.9000000953674,,rt_thecrossant_black,887663,black_plus_sign,,,,50,,,1,0.9763779527559056,,,,,,,,,,
null,,color_black,887767,black_plus_sign,,,,null,,,,,,,,,,,,,,
null,,learn_phase(without_color),889771,black_plus_sign,,,,null,GW/camera.jpg,GW/globe.jpg,,,,,,,,,,,,
null,,black_cross(without_color),890567,green,,,,null,GW/camera.jpg,GW/globe.jpg,,,,,,,,,,,,
null,,rt_plussign_withcolor,891092,green,,,,null,GW/camera.jpg,GW/globe.jpg,,,,,,,,,,,,
1169.5,,rt_thecrossant_black,892308,black_plus_sign,,,,50,,,1,0.9765625,,,,,,,,,,
null,,color_black,892413,black_plus_sign,,,,null,,,,,,,,,,,,,,
26235.299999952316,,intro_1,918652,instruct,,0,Start,,,,,,,,,,,,,,,
2797.5,,directmemory_phase,921456,GW/basket.jpg,,,,51,,,1,1,GW/jukebox.jpg,GW/dustpan.jpg,GW/wheelchair.jpg,GW/wheelchair.jpg,GW/dustpan.jpg,GW/jukebox.jpg,1,,,
null,,html-keyboard-response,922465,<p></p>,,,,null,,,,,,,,,,,,,,
4082.7000000476837,,directmemory_phase,926554,GW/camera.jpg,,,,49,,,0,0.5,GW/teeth.jpg,GW/globe.jpg,GW/hat.jpg,GW/globe.jpg,GW/teeth.jpg,GW/hat.jpg,0.5,closer,,
null,,html-keyboard-response,927561,<p></p>,,,,null,,,,,,,,,,,,,,
4439.099999904633,,directmemory_phase,932004,GW/teeth.jpg,,,,51,,,1,0.6666666666666666,GW/jukebox.jpg,GW/hat.jpg,GW/barrel.jpg,GW/barrel.jpg,GW/hat.jpg,GW/jukebox.jpg,1,,,
null,,html-keyboard-response,933009,<p></p>,,,,null,,,,,,,,,,,,,,
3696.0999999046326,,directmemory_phase,936710,GW/globe.jpg,,,,51,,,1,0.75,GW/barrel.jpg,GW/jukebox.jpg,GW/soldier.jpg,GW/soldier.jpg,GW/jukebox.jpg,GW/barrel.jpg,1,,,
null,,html-keyboard-response,937717,<p></p>,,,,null,,,,,,,,,,,,,,
3105.2000000476837,,directmemory_phase,940827,GW/dustpan.jpg,,,,49,,,0,0.6,GW/gong.jpg,GW/camera.jpg,GW/paint.jpg,GW/camera.jpg,GW/gong.jpg,GW/paint.jpg,0.5,closer,,
null,,html-keyboard-response,941847,<p></p>,,,,null,,,,,,,,,,,,,,
2737.5,,directmemory_phase,944591,GW/globe.jpg,,,,51,,,0,0.5,GW/wheelchair.jpg,GW/basket.jpg,GW/paint.jpg,GW/basket.jpg,GW/wheelchair.jpg,GW/paint.jpg,0.5,closer,,
null,,html-keyboard-response,945605,<p></p>,,,,null,,,,,,,,,,,,,,
2512.9000000953674,,directmemory_phase,948123,GW/teeth.jpg,,,,49,,,1,0.5714285714285714,GW/gong.jpg,GW/soldier.jpg,GW/camera.jpg,GW/gong.jpg,GW/camera.jpg,GW/soldier.jpg,1,,,
null,,html-keyboard-response,949129,<p></p>,,,,null,,,,,,,,,,,,,,
2495.5,,directmemory_phase,951628,GW/soldier.jpg,,,,50,,,1,0.625,GW/jukebox.jpg,GW/globe.jpg,GW/teeth.jpg,GW/globe.jpg,GW/jukebox.jpg,GW/teeth.jpg,1,,,
null,,html-keyboard-response,952632,<p></p>,,,,null,,,,,,,,,,,,,,
2169.2999999523163,,directmemory_phase,954807,GW/barrel.jpg,,,,49,,,1,0.6666666666666666,GW/wheelchair.jpg,GW/dustpan.jpg,GW/gong.jpg,GW/wheelchair.jpg,GW/gong.jpg,GW/dustpan.jpg,1,,,
null,,html-keyboard-response,955813,<p></p>,,,,null,,,,,,,,,,,,,,
2772.2999999523163,,directmemory_phase,958589,GW/dustpan.jpg,,,,50,,,1,0.7,GW/snail.jpg,GW/soldier.jpg,GW/barrel.jpg,GW/soldier.jpg,GW/snail.jpg,GW/barrel.jpg,1,,,
null,,html-keyboard-response,959596,<p></p>,,,,null,,,,,,,,,,,,,,
2884,,directmemory_phase,962485,GW/barrel.jpg,,,,49,,,0,0.6363636363636364,GW/globe.jpg,GW/gong.jpg,GW/teeth.jpg,GW/teeth.jpg,GW/gong.jpg,GW/globe.jpg,0.5,closer,,
null,,html-keyboard-response,963493,<p></p>,,,,null,,,,,,,,,,,,,,
2833.399999856949,,directmemory_phase,966330,GW/globe.jpg,,,,51,,,1,0.6666666666666666,GW/barrel.jpg,GW/snail.jpg,GW/camera.jpg,GW/camera.jpg,GW/snail.jpg,GW/barrel.jpg,1,,,
null,,html-keyboard-response,967335,<p></p>,,,,null,,,,,,,,,,,,,,
1837.5,,directmemory_phase,969177,GW/barrel.jpg,,,,51,,,1,0.6923076923076923,GW/dustpan.jpg,GW/gong.jpg,GW/hat.jpg,GW/hat.jpg,GW/gong.jpg,GW/dustpan.jpg,1,,,
null,,html-keyboard-response,970183,<p></p>,,,,null,,,,,,,,,,,,,,
2017.5999999046326,,directmemory_phase,972205,GW/dustpan.jpg,,,,51,,,1,0.7142857142857143,GW/teeth.jpg,GW/gong.jpg,GW/globe.jpg,GW/globe.jpg,GW/gong.jpg,GW/teeth.jpg,1,,,
null,,html-keyboard-response,973211,<p></p>,,,,null,,,,,,,,,,,,,,
3498,,directmemory_phase,976710,GW/soldier.jpg,,,,50,,,0,0.6666666666666666,GW/snail.jpg,GW/gong.jpg,GW/camera.jpg,GW/snail.jpg,GW/camera.jpg,GW/gong.jpg,0.5,closer,,
null,,html-keyboard-response,977717,<p></p>,,,,null,,,,,,,,,,,,,,
3084.0999999046326,,directmemory_phase,980805,GW/camera.jpg,,,,51,,,1,0.6875,GW/hat.jpg,GW/teeth.jpg,GW/dustpan.jpg,GW/dustpan.jpg,GW/teeth.jpg,GW/hat.jpg,1,,,
null,,html-keyboard-response,981811,<p></p>,,,,null,,,,,,,,,,,,,,
3624.2999999523163,,directmemory_phase,985440,GW/snail.jpg,,,,49,,,0,0.6470588235294118,GW/gong.jpg,GW/dustpan.jpg,GW/soldier.jpg,GW/soldier.jpg,GW/dustpan.jpg,GW/gong.jpg,0.5,closer,,
null,,html-keyboard-response,986447,<p></p>,,,,null,,,,,,,,,,,,,,
3144.2999999523163,,directmemory_phase,989596,GW/dustpan.jpg,,,,51,,,0,0.6111111111111112,GW/jukebox.jpg,GW/teeth.jpg,GW/gong.jpg,GW/jukebox.jpg,GW/gong.jpg,GW/teeth.jpg,0.5,closer,,
null,,html-keyboard-response,990600,<p></p>,,,,null,,,,,,,,,,,,,,
2212.2000000476837,,directmemory_phase,992815,GW/gong.jpg,,,,51,,,0,0.5789473684210527,GW/teeth.jpg,GW/soldier.jpg,GW/wheelchair.jpg,GW/teeth.jpg,GW/wheelchair.jpg,GW/soldier.jpg,0.5,closer,,
null,,html-keyboard-response,993821,<p></p>,,,,null,,,,,,,,,,,,,,
2593.7000000476837,,directmemory_phase,996418,GW/basket.jpg,,,,49,,,1,0.6,GW/globe.jpg,GW/snail.jpg,GW/soldier.jpg,GW/globe.jpg,GW/soldier.jpg,GW/snail.jpg,1,,,
null,,html-keyboard-response,997426,<p></p>,,,,null,,,,,,,,,,,,,,
3258.0999999046326,,directmemory_phase,1000689,GW/gong.jpg,,,,50,,,1,0.6190476190476191,GW/barrel.jpg,GW/camera.jpg,GW/snail.jpg,GW/camera.jpg,GW/barrel.jpg,GW/snail.jpg,1,,,
null,,html-keyboard-response,1001696,<p></p>,,,,null,,,,,,,,,,,,,,
2434,,directmemory_phase,1004134,GW/soldier.jpg,,,,51,,,0,0.5909090909090909,GW/dustpan.jpg,GW/teeth.jpg,GW/basket.jpg,GW/dustpan.jpg,GW/basket.jpg,GW/teeth.jpg,0.5,closer,,
null,,html-keyboard-response,1005140,<p></p>,,,,null,,,,,,,,,,,,,,
3091,,directmemory_phase,1008236,GW/camera.jpg,,,,50,,,0,0.5652173913043478,GW/barrel.jpg,GW/jukebox.jpg,GW/gong.jpg,GW/gong.jpg,GW/jukebox.jpg,GW/barrel.jpg,0.5,closer,,
null,,html-keyboard-response,1009241,<p></p>,,,,null,,,,,,,,,,,,,,
2452.399999856949,,directmemory_phase,1011699,GW/globe.jpg,,,,49,,,0,0.5416666666666666,GW/paint.jpg,GW/jukebox.jpg,GW/dustpan.jpg,GW/dustpan.jpg,GW/jukebox.jpg,GW/paint.jpg,0.5,closer,,
null,,html-keyboard-response,1012705,<p></p>,,,,null,,,,,,,,,,,,,,
3225.0999999046326,,directmemory_phase,1015934,GW/wheelchair.jpg,,,,50,,,1,0.56,GW/globe.jpg,GW/basket.jpg,GW/dustpan.jpg,GW/basket.jpg,GW/globe.jpg,GW/dustpan.jpg,1,,,
null,,html-keyboard-response,1016940,<p></p>,,,,null,,,,,,,,,,,,,,
2777,,directmemory_phase,1019721,GW/teeth.jpg,,,,51,,,0,0.5384615384615384,GW/wheelchair.jpg,GW/paint.jpg,GW/globe.jpg,GW/paint.jpg,GW/wheelchair.jpg,GW/globe.jpg,0.5,closer,,
null,,html-keyboard-response,1020728,<p></p>,,,,null,,,,,,,,,,,,,,
3166,,directmemory_phase,1023896,GW/basket.jpg,,,,51,,,0,0.5185185185185185,GW/teeth.jpg,GW/gong.jpg,GW/jukebox.jpg,GW/gong.jpg,GW/teeth.jpg,GW/jukebox.jpg,0.5,closer,,
null,,html-keyboard-response,1024902,<p></p>,,,,null,,,,,,,,,,,,,,
3306.600000143051,,directmemory_phase,1028213,GW/wheelchair.jpg,,,,51,,,0,0.5,GW/barrel.jpg,GW/soldier.jpg,GW/globe.jpg,GW/barrel.jpg,GW/globe.jpg,GW/soldier.jpg,0.5,closer,,
null,,html-keyboard-response,1029232,<p></p>,,,,null,,,,,,,,,,,,,,
3425.2999999523163,,directmemory_phase,1032661,GW/jukebox.jpg,,,,50,,,1,0.5172413793103449,GW/camera.jpg,GW/dustpan.jpg,GW/wheelchair.jpg,GW/dustpan.jpg,GW/camera.jpg,GW/wheelchair.jpg,1,,,
null,,html-keyboard-response,1033668,<p></p>,,,,null,,,,,,,,,,,,,,
2209.5999999046326,,directmemory_phase,1035883,GW/hat.jpg,,,,49,,,1,0.5333333333333333,GW/barrel.jpg,GW/gong.jpg,GW/teeth.jpg,GW/barrel.jpg,GW/teeth.jpg,GW/gong.jpg,1,,,
null,,html-keyboard-response,1036891,<p></p>,,,,null,,,,,,,,,,,,,,
3479.899999856949,,directmemory_phase,1040375,GW/paint.jpg,,,,50,,,1,0.5483870967741935,GW/barrel.jpg,GW/teeth.jpg,GW/hat.jpg,GW/teeth.jpg,GW/barrel.jpg,GW/hat.jpg,1,,,
null,,html-keyboard-response,1041381,<p></p>,,,,null,,,,,,,,,,,,,,
3272.5,,directmemory_phase,1044658,GW/gong.jpg,,,,49,,,1,0.5625,GW/basket.jpg,GW/snail.jpg,GW/paint.jpg,GW/basket.jpg,GW/paint.jpg,GW/snail.jpg,1,,,
null,,html-keyboard-response,1045665,<p></p>,,,,null,,,,,,,,,,,,,,
44622.90000009537,,intro_1,1090291,instruct,,0,,,,,,,,,,,,,,,,
18964.400000095367,,intro_2,1109259,instruct,,1,Next,,,,,,,,,,,,,,,
15140.900000095367,,intro_3,1124408,instruct,,1,Next,,,,,,,,,,,,,,,
37703.60000014305,,intro_4,1162118,instruct,,1,Next,,,,,,,,,,,,,,,
43429.40000009537,,intro_5,1205550,instruct,,1,Next,,,,,,,,,,,,,,,
30534.5,,intro_6,1236085,instruct,,1,Next,,,,,,,,,,,,,,,
27464.799999952316,,intro_7,1263561,instruct,,1,Next,,,,,,,,,,,,,,,
26211.200000047684,,intro_8,1289779,instruct,,1,Next,,,,,,,,,,,,,,,
3523.2999999523163,,shortestpath_phase,1293311,GW/hat.jpg,,,,49,GW/soldier.jpg,GW/snail.jpg,1,1,,,,GW/soldier.jpg,,,,,One Edge Diff,Five Edge Six Edge
null,,html-keyboard-response,1294316,<p></p>,,,,null,,,,,,,,,,,,,,
2413.4000000953674,,shortestpath_phase,1296735,GW/snail.jpg,,,,49,GW/jukebox.jpg,GW/barrel.jpg,1,1,,,,GW/jukebox.jpg,,,,,Two Edge Diff,Three Edge Five Edge
null,,html-keyboard-response,1297741,<p></p>,,,,null,,,,,,,,,,,,,,
2399.5999999046326,,shortestpath_phase,1300145,GW/soldier.jpg,,,,50,GW/hat.jpg,GW/basket.jpg,1,1,,,,GW/basket.jpg,,,,,Three Edge Diff,Two Edge Five Edge
null,,html-keyboard-response,1301151,<p></p>,,,,null,,,,,,,,,,,,,,
3007.399999856949,,shortestpath_phase,1304162,GW/jukebox.jpg,,,,49,GW/teeth.jpg,GW/snail.jpg,0,0.75,,,,GW/snail.jpg,,,,,One Edge Diff,Three Edge Four Edge
null,,html-keyboard-response,1305169,<p></p>,,,,null,,,,,,,,,,,,,,
1751.5999999046326,,shortestpath_phase,1306925,GW/dustpan.jpg,,,,50,GW/hat.jpg,GW/basket.jpg,1,0.8,,,,GW/basket.jpg,,,,,Three Edge Diff,Three Edge Six Edge
null,,html-keyboard-response,1307934,<p></p>,,,,null,,,,,,,,,,,,,,
2186.7999999523163,,shortestpath_phase,1310126,GW/jukebox.jpg,,,,49,GW/camera.jpg,GW/wheelchair.jpg,1,0.8333333333333334,,,,GW/camera.jpg,,,,,Two Edge Diff,Two Edge Four Edge
null,,html-keyboard-response,1311132,<p></p>,,,,null,,,,,,,,,,,,,,
2014.7999999523163,,shortestpath_phase,1313152,GW/soldier.jpg,,,,49,GW/barrel.jpg,GW/paint.jpg,1,0.8571428571428571,,,,GW/barrel.jpg,,,,,One Edge Diff,Four Edge Five Edge
null,,html-keyboard-response,1314159,<p></p>,,,,null,,,,,,,,,,,,,,
1857,,shortestpath_phase,1316020,GW/paint.jpg,,,,49,GW/soldier.jpg,GW/camera.jpg,0,0.75,,,,GW/camera.jpg,,,,,Two Edge Diff,Three Edge Five Edge
null,,html-keyboard-response,1317027,<p></p>,,,,null,,,,,,,,,,,,,,
2191.9000000953674,,shortestpath_phase,1319223,GW/barrel.jpg,,,,49,GW/basket.jpg,GW/jukebox.jpg,1,0.7777777777777778,,,,GW/basket.jpg,,,,,Three Edge Diff,Two Edge Five Edge
null,,html-keyboard-response,1320231,<p></p>,,,,null,,,,,,,,,,,,,,
2181.5,,shortestpath_phase,1322417,GW/soldier.jpg,,,,50,GW/barrel.jpg,GW/camera.jpg,1,0.8,,,,GW/camera.jpg,,,,,Two Edge Diff,Two Edge Four Edge
null,,html-keyboard-response,1323424,<p></p>,,,,null,,,,,,,,,,,,,,
1877.2000000476837,,shortestpath_phase,1325305,GW/wheelchair.jpg,,,,49,GW/dustpan.jpg,GW/snail.jpg,1,0.8181818181818182,,,,GW/dustpan.jpg,,,,,One Edge Diff,Three Edge Four Edge
null,,html-keyboard-response,1326313,<p></p>,,,,null,,,,,,,,,,,,,,
1774.2000000476837,,shortestpath_phase,1328091,GW/snail.jpg,,,,50,GW/gong.jpg,GW/paint.jpg,0,0.75,,,,GW/gong.jpg,,,,,Two Edge Diff,Four Edge Six Edge
null,,html-keyboard-response,1329097,<p></p>,,,,null,,,,,,,,,,,,,,
1784.1000001430511,,shortestpath_phase,1330886,GW/wheelchair.jpg,,,,50,GW/snail.jpg,GW/soldier.jpg,1,0.7692307692307693,,,,GW/soldier.jpg,,,,,One Edge Diff,Three Edge Four Edge
null,,html-keyboard-response,1331893,<p></p>,,,,null,,,,,,,,,,,,,,
2293,,shortestpath_phase,1334190,GW/hat.jpg,,,,49,GW/jukebox.jpg,GW/dustpan.jpg,0,0.7142857142857143,,,,GW/dustpan.jpg,,,,,One Edge Diff,Five Edge Six Edge
null,,html-keyboard-response,1335195,<p></p>,,,,null,,,,,,,,,,,,,,
1749.3999998569489,,shortestpath_phase,1336946,GW/paint.jpg,,,,49,GW/barrel.jpg,GW/jukebox.jpg,1,0.7333333333333333,,,,GW/barrel.jpg,,,,,Three Edge Diff,Two Edge Five Edge
null,,html-keyboard-response,1337952,<p></p>,,,,null,,,,,,,,,,,,,,
1901.7000000476837,,shortestpath_phase,1339856,GW/snail.jpg,,,,49,GW/dustpan.jpg,GW/jukebox.jpg,1,0.75,,,,GW/dustpan.jpg,,,,,One Edge Diff,Two Edge Three Edge
null,,html-keyboard-response,1340862,<p></p>,,,,null,,,,,,,,,,,,,,
1275.7000000476837,,shortestpath_phase,1342141,GW/soldier.jpg,,,,49,GW/barrel.jpg,GW/wheelchair.jpg,0,0.7058823529411765,,,,GW/wheelchair.jpg,,,,,One Edge Diff,Three Edge Four Edge
null,,html-keyboard-response,1343151,<p></p>,,,,null,,,,,,,,,,,,,,
1677.4000000953674,,shortestpath_phase,1344831,GW/snail.jpg,,,,50,GW/dustpan.jpg,GW/barrel.jpg,0,0.6666666666666666,,,,GW/dustpan.jpg,,,,,Three Edge Diff,Three Edge Six Edge
null,,html-keyboard-response,1345836,<p></p>,,,,null,,,,,,,,,,,,,,
2171.5999999046326,,shortestpath_phase,1348013,GW/camera.jpg,,,,50,GW/barrel.jpg,GW/basket.jpg,1,0.6842105263157895,,,,GW/basket.jpg,,,,,One Edge Diff,Two Edge Three Edge
null,,html-keyboard-response,1349020,<p></p>,,,,null,,,,,,,,,,,,,,
1968.4000000953674,,shortestpath_phase,1350992,GW/jukebox.jpg,,,,49,GW/wheelchair.jpg,GW/hat.jpg,1,0.7,,,,GW/wheelchair.jpg,,,,,Two Edge Diff,Four Edge Six Edge
null,,html-keyboard-response,1351999,<p></p>,,,,null,,,,,,,,,,,,,,
1428.3999998569489,,shortestpath_phase,1353431,GW/hat.jpg,,,,49,GW/dustpan.jpg,GW/snail.jpg,1,0.7142857142857143,,,,GW/dustpan.jpg,,,,,One Edge Diff,Five Edge Six Edge
null,,html-keyboard-response,1354435,<p></p>,,,,null,,,,,,,,,,,,,,
1619.8999998569489,,shortestpath_phase,1356059,GW/barrel.jpg,,,,49,GW/gong.jpg,GW/snail.jpg,1,0.7272727272727273,,,,GW/gong.jpg,,,,,Three Edge Diff,Two Edge Five Edge
null,,html-keyboard-response,1357065,<p></p>,,,,null,,,,,,,,,,,,,,
2230.100000143051,,shortestpath_phase,1359299,GW/teeth.jpg,,,,50,GW/snail.jpg,GW/wheelchair.jpg,1,0.7391304347826086,,,,GW/wheelchair.jpg,,,,,Three Edge Diff,Two Edge Five Edge
null,,html-keyboard-response,1360305,<p></p>,,,,null,,,,,,,,,,,,,,
1933.7999999523163,,shortestpath_phase,1362243,GW/barrel.jpg,,,,49,GW/gong.jpg,GW/snail.jpg,1,0.75,,,,GW/gong.jpg,,,,,Three Edge Diff,Three Edge Six Edge
null,,html-keyboard-response,1363249,<p></p>,,,,null,,,,,,,,,,,,,,
1881.9000000953674,,shortestpath_phase,1365135,GW/hat.jpg,,,,49,GW/camera.jpg,GW/wheelchair.jpg,0,0.72,,,,GW/wheelchair.jpg,,,,,Two Edge Diff,Two Edge Four Edge
null,,html-keyboard-response,1366141,<p></p>,,,,null,,,,,,,,,,,,,,
1234.6000001430511,,shortestpath_phase,1367382,GW/jukebox.jpg,,,,49,GW/barrel.jpg,GW/snail.jpg,0,0.6923076923076923,,,,GW/snail.jpg,,,,,Two Edge Diff,Three Edge Five Edge
null,,html-keyboard-response,1368388,<p></p>,,,,null,,,,,,,,,,,,,,
1842.7999999523163,,shortestpath_phase,1370235,GW/barrel.jpg,,,,49,GW/jukebox.jpg,GW/gong.jpg,0,0.6666666666666666,,,,GW/gong.jpg,,,,,Three Edge Diff,Three Edge Six Edge
null,,html-keyboard-response,1371242,<p></p>,,,,null,,,,,,,,,,,,,,
1667,,shortestpath_phase,1372912,GW/snail.jpg,,,,49,GW/paint.jpg,GW/teeth.jpg,0,0.6428571428571429,,,,GW/teeth.jpg,,,,,One Edge Diff,Five Edge Six Edge
null,,html-keyboard-response,1373916,<p></p>,,,,null,,,,,,,,,,,,,,
1210.9000000953674,,shortestpath_phase,1375131,GW/barrel.jpg,,,,50,GW/snail.jpg,GW/basket.jpg,1,0.6551724137931034,,,,GW/basket.jpg,,,,,Three Edge Diff,Three Edge Six Edge
null,,html-keyboard-response,1376134,<p></p>,,,,null,,,,,,,,,,,,,,
1731.9000000953674,,shortestpath_phase,1377868,GW/snail.jpg,,,,50,GW/wheelchair.jpg,GW/hat.jpg,0,0.6333333333333333,,,,GW/wheelchair.jpg,,,,,Two Edge Diff,Four Edge Six Edge
null,,html-keyboard-response,1378875,<p></p>,,,,null,,,,,,,,,,,,,,
1904.9000000953674,,shortestpath_phase,1380782,GW/jukebox.jpg,,,,49,GW/camera.jpg,GW/paint.jpg,1,0.6451612903225806,,,,GW/camera.jpg,,,,,Three Edge Diff,Three Edge Six Edge
null,,html-keyboard-response,1381786,<p></p>,,,,null,,,,,,,,,,,,,,
1511.0999999046326,,shortestpath_phase,1383299,GW/snail.jpg,,,,50,GW/wheelchair.jpg,GW/globe.jpg,1,0.65625,,,,GW/globe.jpg,,,,,Two Edge Diff,Two Edge Four Edge
null,,html-keyboard-response,1384303,<p></p>,,,,null,,,,,,,,,,,,,,
1444.1000001430511,,shortestpath_phase,1385750,GW/barrel.jpg,,,,50,GW/snail.jpg,GW/dustpan.jpg,1,0.6666666666666666,,,,GW/dustpan.jpg,,,,,One Edge Diff,Four Edge Five Edge
null,,html-keyboard-response,1386754,<p></p>,,,,null,,,,,,,,,,,,,,
1003.3000001907349,,shortestpath_phase,1387760,GW/jukebox.jpg,,,,49,GW/paint.jpg,GW/gong.jpg,0,0.6470588235294118,,,,GW/gong.jpg,,,,,Two Edge Diff,Three Edge Five Edge
null,,html-keyboard-response,1388764,<p></p>,,,,null,,,,,,,,,,,,,,
876.0999999046326,,shortestpath_phase,1389642,GW/camera.jpg,,,,49,GW/basket.jpg,GW/wheelchair.jpg,1,0.6571428571428571,,,,GW/basket.jpg,,,,,One Edge Diff,Two Edge Three Edge
null,,html-keyboard-response,1390647,<p></p>,,,,null,,,,,,,,,,,,,,
1269.8999998569489,,shortestpath_phase,1391919,GW/paint.jpg,,,,49,GW/gong.jpg,GW/snail.jpg,1,0.6666666666666666,,,,GW/gong.jpg,,,,,Four Edge Diff,Two Edge Six Edge
null,,html-keyboard-response,1392922,<p></p>,,,,null,,,,,,,,,,,,,,
1338.7000000476837,,shortestpath_phase,1394264,GW/jukebox.jpg,,,,50,GW/camera.jpg,GW/hat.jpg,0,0.6486486486486487,,,,GW/camera.jpg,,,,,Four Edge Diff,Two Edge Six Edge
null,,html-keyboard-response,1395268,<p></p>,,,,null,,,,,,,,,,,,,,
1294.1000001430511,,shortestpath_phase,1396565,GW/wheelchair.jpg,,,,50,GW/jukebox.jpg,GW/gong.jpg,1,0.6578947368421053,,,,GW/gong.jpg,,,,,Two Edge Diff,Two Edge Four Edge
null,,html-keyboard-response,1397570,<p></p>,,,,null,,,,,,,,,,,,,,
1346.0999999046326,,shortestpath_phase,1398918,GW/teeth.jpg,,,,49,GW/soldier.jpg,GW/basket.jpg,0,0.6410256410256411,,,,GW/basket.jpg,,,,,Two Edge Diff,Two Edge Four Edge
null,,html-keyboard-response,1399922,<p></p>,,,,null,,,,,,,,,,,,,,
1037.3999998569489,,shortestpath_phase,1400962,GW/snail.jpg,,,,49,GW/globe.jpg,GW/paint.jpg,1,0.65,,,,GW/globe.jpg,,,,,Four Edge Diff,Two Edge Six Edge
null,,html-keyboard-response,1401968,<p></p>,,,,null,,,,,,,,,,,,,,
1364.2999999523163,,shortestpath_phase,1403334,GW/paint.jpg,,,,49,GW/jukebox.jpg,GW/gong.jpg,0,0.6341463414634146,,,,GW/gong.jpg,,,,,Three Edge Diff,Two Edge Five Edge
null,,html-keyboard-response,1404338,<p></p>,,,,null,,,,,,,,,,,,,,
1524.5,,shortestpath_phase,1405867,GW/globe.jpg,,,,49,GW/hat.jpg,GW/teeth.jpg,0,0.6190476190476191,,,,GW/teeth.jpg,,,,,One Edge Diff,Three Edge Four Edge
null,,html-keyboard-response,1406878,<p></p>,,,,null,,,,,,,,,,,,,,
1290.4000000953674,,shortestpath_phase,1408171,GW/snail.jpg,,,,50,GW/dustpan.jpg,GW/teeth.jpg,0,0.6046511627906976,,,,GW/dustpan.jpg,,,,,Three Edge Diff,Two Edge Five Edge
null,,html-keyboard-response,1409178,<p></p>,,,,null,,,,,,,,,,,,,,
1094.2999999523163,,shortestpath_phase,1410277,GW/soldier.jpg,,,,50,GW/hat.jpg,GW/teeth.jpg,1,0.6136363636363636,,,,GW/teeth.jpg,,,,,One Edge Diff,Four Edge Five Edge
null,,html-keyboard-response,1411286,<p></p>,,,,null,,,,,,,,,,,,,,
1211.8000001907349,,shortestpath_phase,1412502,GW/paint.jpg,,,,50,GW/snail.jpg,GW/barrel.jpg,1,0.6222222222222222,,,,GW/barrel.jpg,,,,,Four Edge Diff,Two Edge Six Edge
null,,html-keyboard-response,1413508,<p></p>,,,,null,,,,,,,,,,,,,,
1308.9000000953674,,shortestpath_phase,1414817,GW/hat.jpg,,,,49,GW/jukebox.jpg,GW/globe.jpg,0,0.6086956521739131,,,,GW/globe.jpg,,,,,Two Edge Diff,Four Edge Six Edge
null,,html-keyboard-response,1415825,<p></p>,,,,null,,,,,,,,,,,,,,
1466.6000001430511,,shortestpath_phase,1417295,GW/soldier.jpg,,,,49,GW/gong.jpg,GW/hat.jpg,1,0.6170212765957447,,,,GW/gong.jpg,,,,,Two Edge Diff,Three Edge Five Edge
null,,html-keyboard-response,1418303,<p></p>,,,,null,,,,,,,,,,,,,,
1367.7999999523163,,shortestpath_phase,1419675,GW/hat.jpg,,,,49,GW/wheelchair.jpg,GW/jukebox.jpg,1,0.625,,,,GW/wheelchair.jpg,,,,,Four Edge Diff,Two Edge Six Edge
null,,html-keyboard-response,1420681,<p></p>,,,,null,,,,,,,,,,,,,,
1378.0999999046326,,shortestpath_phase,1422064,GW/barrel.jpg,,,,49,GW/gong.jpg,GW/globe.jpg,1,0.6326530612244898,,,,GW/gong.jpg,,,,,One Edge Diff,Two Edge Three Edge
null,,html-keyboard-response,1423070,<p></p>,,,,null,,,,,,,,,,,,,,
1143.8999998569489,,shortestpath_phase,1424220,GW/jukebox.jpg,,,,50,GW/hat.jpg,GW/globe.jpg,1,0.64,,,,GW/globe.jpg,,,,,Four Edge Diff,Two Edge Six Edge
null,,html-keyboard-response,1425226,<p></p>,,,,null,,,,,,,,,,,,,,
1321.0999999046326,,shortestpath_phase,1426552,GW/hat.jpg,,,,50,GW/camera.jpg,GW/jukebox.jpg,0,0.6274509803921569,,,,GW/camera.jpg,,,,,Two Edge Diff,Four Edge Six Edge
null,,html-keyboard-response,1427559,<p></p>,,,,null,,,,,,,,,,,,,,
1124.9000000953674,,shortestpath_phase,1428688,GW/soldier.jpg,,,,50,GW/wheelchair.jpg,GW/jukebox.jpg,1,0.6346153846153846,,,,GW/jukebox.jpg,,,,,One Edge Diff,Two Edge Three Edge
null,,html-keyboard-response,1429695,<p></p>,,,,null,,,,,,,,,,,,,,
1348.1000001430511,,shortestpath_phase,1431047,GW/paint.jpg,,,,49,GW/barrel.jpg,GW/camera.jpg,1,0.6415094339622641,,,,GW/barrel.jpg,,,,,One Edge Diff,Two Edge Three Edge
null,,html-keyboard-response,1432054,<p></p>,,,,null,,,,,,,,,,,,,,
1270.7999999523163,,shortestpath_phase,1433330,GW/soldier.jpg,,,,49,GW/jukebox.jpg,GW/hat.jpg,1,0.6481481481481481,,,,GW/jukebox.jpg,,,,,Three Edge Diff,Three Edge Six Edge
null,,html-keyboard-response,1434336,<p></p>,,,,null,,,,,,,,,,,,,,
1421.5,,shortestpath_phase,1435763,GW/paint.jpg,,,,49,GW/dustpan.jpg,GW/snail.jpg,1,0.6545454545454545,,,,GW/dustpan.jpg,,,,,Two Edge Diff,Four Edge Six Edge
null,,html-keyboard-response,1436769,<p></p>,,,,null,,,,,,,,,,,,,,
1340.2999999523163,,shortestpath_phase,1438114,GW/snail.jpg,,,,49,GW/wheelchair.jpg,GW/teeth.jpg,1,0.6607142857142857,,,,GW/wheelchair.jpg,,,,,One Edge Diff,Four Edge Five Edge
null,,html-keyboard-response,1439123,<p></p>,,,,null,,,,,,,,,,,,,,
1444.7999999523163,,shortestpath_phase,1440572,GW/paint.jpg,,,,50,GW/dustpan.jpg,GW/jukebox.jpg,0,0.6491228070175439,,,,GW/dustpan.jpg,,,,,One Edge Diff,Four Edge Five Edge
null,,html-keyboard-response,1441591,<p></p>,,,,null,,,,,,,,,,,,,,
1053.5,,shortestpath_phase,1442649,GW/wheelchair.jpg,,,,50,GW/gong.jpg,GW/soldier.jpg,0,0.6379310344827587,,,,GW/gong.jpg,,,,,One Edge Diff,Two Edge Three Edge
null,,html-keyboard-response,1443656,<p></p>,,,,null,,,,,,,,,,,,,,
1141.7999999523163,,shortestpath_phase,1444802,GW/paint.jpg,,,,50,GW/jukebox.jpg,GW/basket.jpg,1,0.6440677966101694,,,,GW/basket.jpg,,,,,Two Edge Diff,Three Edge Five Edge
null,,html-keyboard-response,1445810,<p></p>,,,,null,,,,,,,,,,,,,,
1255.7999999523163,,shortestpath_phase,1447070,GW/teeth.jpg,,,,49,GW/dustpan.jpg,GW/snail.jpg,1,0.65,,,,GW/dustpan.jpg,,,,,Two Edge Diff,Three Edge Five Edge
null,,html-keyboard-response,1448076,<p></p>,,,,null,,,,,,,,,,,,,,
1254.0999999046326,,shortestpath_phase,1449334,GW/basket.jpg,,,,50,GW/jukebox.jpg,GW/barrel.jpg,1,0.6557377049180327,,,,GW/barrel.jpg,,,,,One Edge Diff,Two Edge Three Edge
null,,html-keyboard-response,1450343,<p></p>,,,,null,,,,,,,,,,,,,,
896.8000001907349,,shortestpath_phase,1451243,GW/soldier.jpg,,,,49,GW/jukebox.jpg,GW/paint.jpg,1,0.6612903225806451,,,,GW/jukebox.jpg,,,,,Three Edge Diff,Two Edge Five Edge
null,,html-keyboard-response,1452250,<p></p>,,,,null,,,,,,,,,,,,,,
1446.3000001907349,,shortestpath_phase,1453702,GW/paint.jpg,,,,50,GW/wheelchair.jpg,GW/globe.jpg,0,0.6507936507936508,,,,GW/wheelchair.jpg,,,,,One Edge Diff,Three Edge Four Edge
null,,html-keyboard-response,1454709,<p></p>,,,,null,,,,,,,,,,,,,,
1269.7999999523163,,shortestpath_phase,1455983,GW/jukebox.jpg,,,,50,GW/hat.jpg,GW/barrel.jpg,1,0.65625,,,,GW/barrel.jpg,,,,,One Edge Diff,Five Edge Six Edge
null,,html-keyboard-response,1456990,<p></p>,,,,null,,,,,,,,,,,,,,
860.3999998569489,,shortestpath_phase,1457855,GW/soldier.jpg,,,,49,GW/paint.jpg,GW/basket.jpg,0,0.6461538461538462,,,,GW/basket.jpg,,,,,Three Edge Diff,Three Edge Six Edge
null,,html-keyboard-response,1458861,<p></p>,,,,null,,,,,,,,,,,,,,
1269,,shortestpath_phase,1460135,GW/hat.jpg,,,,49,GW/wheelchair.jpg,GW/snail.jpg,1,0.6515151515151515,,,,GW/wheelchair.jpg,,,,,Four Edge Diff,Two Edge Six Edge
null,,html-keyboard-response,1461142,<p></p>,,,,null,,,,,,,,,,,,,,
1119.8999998569489,,shortestpath_phase,1462266,GW/basket.jpg,,,,50,GW/paint.jpg,GW/barrel.jpg,1,0.6567164179104478,,,,GW/barrel.jpg,,,,,One Edge Diff,Two Edge Three Edge
null,,html-keyboard-response,1463271,<p></p>,,,,null,,,,,,,,,,,,,,
1310,,shortestpath_phase,1464583,GW/hat.jpg,,,,50,GW/snail.jpg,GW/globe.jpg,1,0.6617647058823529,,,,GW/globe.jpg,,,,,Two Edge Diff,Four Edge Six Edge
null,,html-keyboard-response,1465587,<p></p>,,,,null,,,,,,,,,,,,,,
1076.5999999046326,,shortestpath_phase,1466666,GW/teeth.jpg,,,,49,GW/wheelchair.jpg,GW/snail.jpg,1,0.6666666666666666,,,,GW/wheelchair.jpg,,,,,Three Edge Diff,Three Edge Six Edge
null,,html-keyboard-response,1467672,<p></p>,,,,null,,,,,,,,,,,,,,
1376.0999999046326,,shortestpath_phase,1469050,GW/snail.jpg,,,,49,GW/hat.jpg,GW/barrel.jpg,0,0.6571428571428571,,,,GW/barrel.jpg,,,,,One Edge Diff,Five Edge Six Edge
null,,html-keyboard-response,1470055,<p></p>,,,,null,,,,,,,,,,,,,,
1031,,shortestpath_phase,1471088,GW/wheelchair.jpg,,,,50,GW/hat.jpg,GW/jukebox.jpg,0,0.647887323943662,,,,GW/hat.jpg,,,,,Two Edge Diff,Two Edge Four Edge
null,,html-keyboard-response,1472093,<p></p>,,,,null,,,,,,,,,,,,,,
1242.1000001430511,,shortestpath_phase,1473337,GW/dustpan.jpg,,,,50,GW/hat.jpg,GW/barrel.jpg,1,0.6527777777777778,,,,GW/barrel.jpg,,,,,One Edge Diff,Four Edge Five Edge
null,,html-keyboard-response,1474342,<p></p>,,,,null,,,,,,,,,,,,,,
1135.7999999523163,,shortestpath_phase,1475478,GW/hat.jpg,,,,50,GW/teeth.jpg,GW/jukebox.jpg,0,0.6438356164383562,,,,GW/teeth.jpg,,,,,Four Edge Diff,Two Edge Six Edge
null,,html-keyboard-response,1476482,<p></p>,,,,null,,,,,,,,,,,,,,
1177.8999998569489,,shortestpath_phase,1477663,GW/paint.jpg,,,,49,GW/dustpan.jpg,GW/barrel.jpg,0,0.6351351351351351,,,,GW/barrel.jpg,,,,,Two Edge Diff,Two Edge Four Edge
null,,html-keyboard-response,1478669,<p></p>,,,,null,,,,,,,,,,,,,,
1096.5,,shortestpath_phase,1479767,GW/jukebox.jpg,,,,50,GW/teeth.jpg,GW/hat.jpg,0,0.6266666666666667,,,,GW/teeth.jpg,,,,,Two Edge Diff,Four Edge Six Edge
null,,html-keyboard-response,1480774,<p></p>,,,,null,,,,,,,,,,,,,,
1381.9000000953674,,shortestpath_phase,1482158,GW/snail.jpg,,,,49,GW/dustpan.jpg,GW/gong.jpg,1,0.631578947368421,,,,GW/dustpan.jpg,,,,,Two Edge Diff,Two Edge Four Edge
null,,html-keyboard-response,1483163,<p></p>,,,,null,,,,,,,,,,,,,,
1123.4000000953674,,shortestpath_phase,1484289,GW/barrel.jpg,,,,50,GW/camera.jpg,GW/soldier.jpg,0,0.6233766233766234,,,,GW/camera.jpg,,,,,One Edge Diff,Three Edge Four Edge
null,,html-keyboard-response,1485293,<p></p>,,,,null,,,,,,,,,,,,,,
1174,,shortestpath_phase,1486469,GW/snail.jpg,,,,50,GW/dustpan.jpg,GW/paint.jpg,0,0.6153846153846154,,,,GW/dustpan.jpg,,,,,Four Edge Diff,Two Edge Six Edge
null,,html-keyboard-response,1487473,<p></p>,,,,null,,,,,,,,,,,,,,
1658,,shortestpath_phase,1489134,GW/paint.jpg,,,,49,GW/snail.jpg,GW/globe.jpg,0,0.6075949367088608,,,,GW/globe.jpg,,,,,Two Edge Diff,Four Edge Six Edge
null,,html-keyboard-response,1490140,<p></p>,,,,null,,,,,,,,,,,,,,
1616.0999999046326,,shortestpath_phase,1491758,GW/jukebox.jpg,,,,50,GW/snail.jpg,GW/wheelchair.jpg,0,0.6,,,,GW/snail.jpg,,,,,One Edge Diff,Three Edge Four Edge
null,,html-keyboard-response,1492764,<p></p>,,,,null,,,,,,,,,,,,,,
1525,,shortestpath_phase,1494291,GW/dustpan.jpg,,,,50,GW/hat.jpg,GW/teeth.jpg,1,0.6049382716049383,,,,GW/teeth.jpg,,,,,Two Edge Diff,Three Edge Five Edge
null,,html-keyboard-response,1495296,<p></p>,,,,null,,,,,,,,,,,,,,
1845.5,,shortestpath_phase,1497145,GW/snail.jpg,,,,49,GW/globe.jpg,GW/barrel.jpg,1,0.6097560975609756,,,,GW/globe.jpg,,,,,Three Edge Diff,Two Edge Five Edge
null,,html-keyboard-response,1498149,<p></p>,,,,null,,,,,,,,,,,,,,
1194.2999999523163,,shortestpath_phase,1499349,GW/paint.jpg,,,,49,GW/barrel.jpg,GW/soldier.jpg,1,0.6144578313253012,,,,GW/barrel.jpg,,,,,Three Edge Diff,Three Edge Six Edge
null,,html-keyboard-response,1500358,<p></p>,,,,null,,,,,,,,,,,,,,
1565.4000000953674,,shortestpath_phase,1501927,GW/snail.jpg,,,,49,GW/hat.jpg,GW/gong.jpg,0,0.6071428571428571,,,,GW/gong.jpg,,,,,Two Edge Diff,Four Edge Six Edge
null,,html-keyboard-response,1502935,<p></p>,,,,null,,,,,,,,,,,,,,
1418.6000001430511,,shortestpath_phase,1504358,GW/jukebox.jpg,,,,50,GW/globe.jpg,GW/paint.jpg,0,0.6,,,,GW/globe.jpg,,,,,Three Edge Diff,Two Edge Five Edge
null,,html-keyboard-response,1505365,<p></p>,,,,null,,,,,,,,,,,,,,
1372.3999998569489,,shortestpath_phase,1506743,GW/snail.jpg,,,,49,GW/teeth.jpg,GW/hat.jpg,1,0.6046511627906976,,,,GW/teeth.jpg,,,,,One Edge Diff,Five Edge Six Edge
null,,html-keyboard-response,1507749,<p></p>,,,,null,,,,,,,,,,,,,,
1589.3999998569489,,shortestpath_phase,1509344,GW/soldier.jpg,,,,49,GW/hat.jpg,GW/jukebox.jpg,0,0.5977011494252874,,,,GW/jukebox.jpg,,,,,Three Edge Diff,Two Edge Five Edge
null,,html-keyboard-response,1510351,<p></p>,,,,null,,,,,,,,,,,,,,
913.8999998569489,,shortestpath_phase,1511269,GW/snail.jpg,,,,50,GW/globe.jpg,GW/hat.jpg,0,0.5909090909090909,,,,GW/globe.jpg,,,,,Four Edge Diff,Two Edge Six Edge
null,,html-keyboard-response,1512276,<p></p>,,,,null,,,,,,,,,,,,,,
1150.3999998569489,,shortestpath_phase,1513431,GW/barrel.jpg,,,,49,GW/basket.jpg,GW/soldier.jpg,1,0.5955056179775281,,,,GW/basket.jpg,,,,,Two Edge Diff,Two Edge Four Edge
null,,html-keyboard-response,1514438,<p></p>,,,,null,,,,,,,,,,,,,,
1058,,shortestpath_phase,1515500,GW/hat.jpg,,,,49,GW/dustpan.jpg,GW/globe.jpg,0,0.5888888888888889,,,,GW/globe.jpg,,,,,One Edge Diff,Four Edge Five Edge
null,,html-keyboard-response,1516503,<p></p>,,,,null,,,,,,,,,,,,,,
1046.7000000476837,,shortestpath_phase,1517553,GW/jukebox.jpg,,,,49,GW/soldier.jpg,GW/hat.jpg,1,0.5934065934065934,,,,GW/soldier.jpg,,,,,Four Edge Diff,Two Edge Six Edge
null,,html-keyboard-response,1518560,<p></p>,,,,null,,,,,,,,,,,,,,
1221.9000000953674,,shortestpath_phase,1519786,GW/teeth.jpg,,,,50,GW/snail.jpg,GW/globe.jpg,1,0.5978260869565217,,,,GW/globe.jpg,,,,,Two Edge Diff,Three Edge Five Edge
null,,html-keyboard-response,1520794,<p></p>,,,,null,,,,,,,,,,,,,,
1127.7000000476837,,shortestpath_phase,1521926,GW/jukebox.jpg,,,,50,GW/paint.jpg,GW/basket.jpg,1,0.6021505376344086,,,,GW/basket.jpg,,,,,Two Edge Diff,Three Edge Five Edge
null,,html-keyboard-response,1522934,<p></p>,,,,null,,,,,,,,,,,,,,
1385.7999999523163,,shortestpath_phase,1524324,GW/paint.jpg,,,,50,GW/gong.jpg,GW/jukebox.jpg,0,0.5957446808510638,,,,GW/gong.jpg,,,,,Three Edge Diff,Three Edge Six Edge
null,,html-keyboard-response,1525330,<p></p>,,,,null,,,,,,,,,,,,,,
1105.2999999523163,,shortestpath_phase,1526437,GW/snail.jpg,,,,49,GW/dustpan.jpg,GW/teeth.jpg,1,0.6,,,,GW/dustpan.jpg,,,,,Three Edge Diff,Three Edge Six Edge
null,,html-keyboard-response,1527442,<p></p>,,,,null,,,,,,,,,,,,,,
1242.7999999523163,,shortestpath_phase,1528689,GW/jukebox.jpg,,,,49,GW/paint.jpg,GW/wheelchair.jpg,0,0.59375,,,,GW/wheelchair.jpg,,,,,One Edge Diff,Four Edge Five Edge
null,,html-keyboard-response,1529693,<p></p>,,,,null,,,,,,,,,,,,,,
1003.2999999523163,,shortestpath_phase,1530700,GW/barrel.jpg,,,,50,GW/globe.jpg,GW/soldier.jpg,0,0.5876288659793815,,,,GW/globe.jpg,,,,,One Edge Diff,Three Edge Four Edge
null,,html-keyboard-response,1531707,<p></p>,,,,null,,,,,,,,,,,,,,
1035.2999999523163,,shortestpath_phase,1532746,GW/jukebox.jpg,,,,49,GW/barrel.jpg,GW/gong.jpg,0,0.5816326530612245,,,,GW/gong.jpg,,,,,Two Edge Diff,Three Edge Five Edge
null,,html-keyboard-response,1533753,<p></p>,,,,null,,,,,,,,,,,,,,
850.7999999523163,,shortestpath_phase,1534606,GW/hat.jpg,,,,49,GW/jukebox.jpg,GW/soldier.jpg,0,0.5757575757575758,,,,GW/soldier.jpg,,,,,One Edge Diff,Five Edge Six Edge
null,,html-keyboard-response,1535610,<p></p>,,,,null,,,,,,,,,,,,,,
1154.2000000476837,,shortestpath_phase,1536770,GW/snail.jpg,,,,49,GW/hat.jpg,GW/dustpan.jpg,0,0.57,,,,GW/dustpan.jpg,,,,,Four Edge Diff,Two Edge Six Edge
null,,html-keyboard-response,1537778,<p></p>,,,,null,,,,,,,,,,,,,,
1367.2999999523163,,shortestpath_phase,1539148,GW/barrel.jpg,,,,49,GW/soldier.jpg,GW/paint.jpg,0,0.5643564356435643,,,,GW/paint.jpg,,,,,Two Edge Diff,Two Edge Four Edge
null,,html-keyboard-response,1540154,<p></p>,,,,null,,,,,,,,,,,,,,
1587.2000000476837,,shortestpath_phase,1541745,GW/hat.jpg,,,,50,GW/camera.jpg,GW/snail.jpg,0,0.5588235294117647,,,,GW/camera.jpg,,,,,Two Edge Diff,Four Edge Six Edge
null,,html-keyboard-response,1542753,<p></p>,,,,null,,,,,,,,,,,,,,
1091.5,,shortestpath_phase,1543849,GW/snail.jpg,,,,50,GW/wheelchair.jpg,GW/paint.jpg,0,0.5533980582524272,,,,GW/wheelchair.jpg,,,,,Two Edge Diff,Four Edge Six Edge
null,,html-keyboard-response,1544856,<p></p>,,,,null,,,,,,,,,,,,,,
1293.6999998092651,,shortestpath_phase,1546154,GW/paint.jpg,,,,49,GW/snail.jpg,GW/soldier.jpg,0,0.5480769230769231,,,,GW/soldier.jpg,,,,,One Edge Diff,Five Edge Six Edge
null,,html-keyboard-response,1547163,<p></p>,,,,null,,,,,,,,,,,,,,
1358.7999999523163,,shortestpath_phase,1548526,GW/jukebox.jpg,,,,50,GW/barrel.jpg,GW/camera.jpg,1,0.5523809523809524,,,,GW/camera.jpg,,,,,Three Edge Diff,Two Edge Five Edge
null,,html-keyboard-response,1549533,<p></p>,,,,null,,,,,,,,,,,,,,
1309.7999999523163,,shortestpath_phase,1550848,GW/paint.jpg,,,,49,GW/basket.jpg,GW/barrel.jpg,0,0.5471698113207547,,,,GW/barrel.jpg,,,,,One Edge Diff,Two Edge Three Edge
null,,html-keyboard-response,1551854,<p></p>,,,,null,,,,,,,,,,,,,,
1130.5999999046326,,shortestpath_phase,1552988,GW/teeth.jpg,,,,49,GW/dustpan.jpg,GW/jukebox.jpg,1,0.5514018691588785,,,,GW/dustpan.jpg,,,,,One Edge Diff,Three Edge Four Edge
null,,html-keyboard-response,1553999,<p></p>,,,,null,,,,,,,,,,,,,,
1421.5999999046326,,shortestpath_phase,1555424,GW/jukebox.jpg,,,,49,GW/paint.jpg,GW/hat.jpg,1,0.5555555555555556,,,,GW/paint.jpg,,,,,One Edge Diff,Five Edge Six Edge
null,,html-keyboard-response,1556430,<p></p>,,,,null,,,,,,,,,,,,,,
1218.5,,shortestpath_phase,1557653,GW/hat.jpg,,,,50,GW/camera.jpg,GW/soldier.jpg,0,0.5504587155963303,,,,GW/camera.jpg,,,,,One Edge Diff,Four Edge Five Edge
null,,html-keyboard-response,1558664,<p></p>,,,,null,,,,,,,,,,,,,,
1191,,shortestpath_phase,1559859,GW/dustpan.jpg,,,,49,GW/hat.jpg,GW/paint.jpg,0,0.5454545454545454,,,,GW/paint.jpg,,,,,One Edge Diff,Four Edge Five Edge
null,,html-keyboard-response,1560866,<p></p>,,,,null,,,,,,,,,,,,,,
1356.2999999523163,,shortestpath_phase,1562225,GW/gong.jpg,,,,49,GW/globe.jpg,GW/hat.jpg,1,0.5495495495495496,,,,GW/globe.jpg,,,,,One Edge Diff,Two Edge Three Edge
null,,html-keyboard-response,1563232,<p></p>,,,,null,,,,,,,,,,,,,,
1070.6000001430511,,shortestpath_phase,1564305,GW/hat.jpg,,,,49,GW/soldier.jpg,GW/paint.jpg,0,0.5446428571428571,,,,GW/paint.jpg,,,,,Two Edge Diff,Three Edge Five Edge
null,,html-keyboard-response,1565309,<p></p>,,,,null,,,,,,,,,,,,,,
1086.2999999523163,,shortestpath_phase,1566398,GW/snail.jpg,,,,49,GW/dustpan.jpg,GW/wheelchair.jpg,1,0.5486725663716814,,,,GW/dustpan.jpg,,,,,Two Edge Diff,Two Edge Four Edge
null,,html-keyboard-response,1567402,<p></p>,,,,null,,,,,,,,,,,,,,
1128,,shortestpath_phase,1568532,GW/hat.jpg,,,,49,GW/snail.jpg,GW/teeth.jpg,0,0.543859649122807,,,,GW/teeth.jpg,,,,,Four Edge Diff,Two Edge Six Edge
null,,html-keyboard-response,1569535,<p></p>,,,,null,,,,,,,,,,,,,,
1564.7000000476837,,shortestpath_phase,1571102,GW/paint.jpg,,,,50,GW/globe.jpg,GW/jukebox.jpg,0,0.5391304347826087,,,,GW/globe.jpg,,,,,One Edge Diff,Four Edge Five Edge
null,,html-keyboard-response,1572107,<p></p>,,,,null,,,,,,,,,,,,,,
966.9000000953674,,shortestpath_phase,1573077,GW/teeth.jpg,,,,49,GW/snail.jpg,GW/soldier.jpg,0,0.5344827586206896,,,,GW/soldier.jpg,,,,,One Edge Diff,Four Edge Five Edge
null,,html-keyboard-response,1574084,<p></p>,,,,null,,,,,,,,,,,,,,
1218.2000000476837,,shortestpath_phase,1575304,GW/jukebox.jpg,,,,50,GW/gong.jpg,GW/teeth.jpg,0,0.5299145299145299,,,,GW/gong.jpg,,,,,One Edge Diff,Three Edge Four Edge
null,,html-keyboard-response,1576307,<p></p>,,,,null,,,,,,,,,,,,,,
1247.8999998569489,,shortestpath_phase,1577557,GW/globe.jpg,,,,49,GW/teeth.jpg,GW/paint.jpg,1,0.5338983050847458,,,,GW/teeth.jpg,,,,,One Edge Diff,Three Edge Four Edge
null,,html-keyboard-response,1578562,<p></p>,,,,null,,,,,,,,,,,,,,
1559.7999999523163,,shortestpath_phase,1580123,GW/snail.jpg,,,,50,GW/barrel.jpg,GW/paint.jpg,0,0.5294117647058824,,,,GW/barrel.jpg,,,,,One Edge Diff,Five Edge Six Edge
null,,html-keyboard-response,1581127,<p></p>,,,,null,,,,,,,,,,,,,,
1440,,shortestpath_phase,1582569,GW/teeth.jpg,,,,50,GW/dustpan.jpg,GW/basket.jpg,1,0.5333333333333333,,,,GW/basket.jpg,,,,,One Edge Diff,Two Edge Three Edge
null,,html-keyboard-response,1583574,<p></p>,,,,null,,,,,,,,,,,,,,
1054.2000000476837,,shortestpath_phase,1584630,GW/paint.jpg,,,,49,GW/snail.jpg,GW/jukebox.jpg,0,0.5289256198347108,,,,GW/jukebox.jpg,,,,,One Edge Diff,Five Edge Six Edge
null,,html-keyboard-response,1585634,<p></p>,,,,null,,,,,,,,,,,,,,
45833.09999990463,,intro_1,1631466,instruct,,0,,,,,,,,,,,,,,,,
46790,,intro_2,1678261,instruct,,1,Next,,,,,,,,,,,,,,,
7110.399999856949,,intro_3,1685374,instruct,,1,Next,,,,,,,,,,,,,,,
