rt,responses,trial_type,time_elapsed,stimulus,graphorder,button_pressed,response,key_press,stimulus_left,stimulus_right,accuracy,cumulative_accuracy,stimulus_down_left,stimulus_down_mid,stimulus_down_right,stimulus_correct,stimulus_short,stimulus_far,weighted_accuracy,missedtrial,condition,specific_pairs
20296.19999998808,{worker_id:668c85c9f955972065292902},id_enter,20297,id_enter,GW/wheelchair.jpg; GW/barrel.jpg; GW/gong.jpg; GW/snail.jpg; GW/paint.jpg; GW/dustpan.jpg; GW/hat.jpg; GW/globe.jpg; GW/camera.jpg; GW/jukebox.jpg; GW/teeth.jpg; GW/basket.jpg; GW/soldier.jpg,,,,,,,,,,,,,,,,,
83287.80000001192,,fullscreen,103589,fullscreen,,0,,,,,,,,,,,,,,,,
36455.69999998808,,intro_1,140047,instruct,,0,,,,,,,,,,,,,,,,
43780.299999952316,,intro_2,183828,instruct,,1,Next,,,,,,,,,,,,,,,
25060.80000001192,,intro_3,208890,instruct,,1,Next,,,,,,,,,,,,,,,
null,,learn_prac_1,210893,lean_prac_1,,,,null,,,,,,,,,,,,,,
null,,html-keyboard-response,211895,<p></p>,,,,null,,,,,,,,,,,,,,
9206.399999976158,,intro_1,221102,instruct,,0,,,,,,,,,,,,,,,,
15106.899999976158,,intro_2,236210,instruct,,1,Next,,,,,,,,,,,,,,,
null,,learn_prac_2,238213,lean_prac_2,,,,null,,,,,,,,,,,,,,
null,,html-keyboard-response,239215,<p></p>,,,,null,,,,,,,,,,,,,,
10256.200000047684,,intro_1,249473,instruct,,0,,,,,,,,,,,,,,,,
10178.299999952316,,intro_2,259652,instruct,,1,Next,,,,,,,,,,,,,,,
32169.899999976158,,intro_3,291823,instruct,,1,Next,,,,,,,,,,,,,,,
null,,prac_atten_color_black,292250,black_plus_sign,,,,null,,,,,,,,,,,,,,
941.6999999880791,,prac_atten_color,293226,prac_stop_color,,,,49,,,,,,,,,,,,,,
null,,prac_atten_color_black,295227,black_plus_sign,,,,null,,,,,,,,,,,,,,
null,,prac_atten_color_black,295654,black_plus_sign,,,,null,,,,,,,,,,,,,,
469.10000002384186,,prac_atten_color,296219,prac_stop_color,,,,50,,,,,,,,,,,,,,
null,,prac_atten_color_black,298221,black_plus_sign,,,,null,,,,,,,,,,,,,,
null,,prac_atten_color_black,299075,black_plus_sign,,,,null,,,,,,,,,,,,,,
596.0999999642372,,prac_atten_color,299824,prac_stop_color,,,,50,,,,,,,,,,,,,,
null,,prac_atten_color_black,301825,black_plus_sign,,,,null,,,,,,,,,,,,,,
null,,prac_atten_color_black,302479,black_plus_sign,,,,null,,,,,,,,,,,,,,
null,,prac_atten_color,302958,prac_stop_color,,,,null,,,,,,,,,,,,,,
20.799999952316284,,prac_atten_color_black,304960,black_plus_sign,,,,49,,,,,,,,,,,,,,
null,,prac_atten_color_black,305885,black_plus_sign,,,,null,,,,,,,,,,,,,,
334.0999999642372,,prac_atten_color,306779,prac_stop_color,,,,50,,,,,,,,,,,,,,
null,,prac_atten_color_black,308782,black_plus_sign,,,,null,,,,,,,,,,,,,,
null,,prac_atten_color_black,309291,black_plus_sign,,,,null,,,,,,,,,,,,,,
465.4000000357628,,prac_atten_color,309991,prac_stop_color,,,,50,,,,,,,,,,,,,,
null,,prac_atten_color_black,311992,black_plus_sign,,,,null,,,,,,,,,,,,,,
null,,prac_atten_color_black,312695,black_plus_sign,,,,null,,,,,,,,,,,,,,
530.5999999642372,,prac_atten_color,313260,prac_stop_color,,,,49,,,,,,,,,,,,,,
null,,prac_atten_color_black,315262,black_plus_sign,,,,null,,,,,,,,,,,,,,
null,,prac_atten_color_black,316100,black_plus_sign,,,,null,,,,,,,,,,,,,,
368.7999999523163,,prac_atten_color,316516,prac_stop_color,,,,50,,,,,,,,,,,,,,
null,,prac_atten_color_black,318519,black_plus_sign,,,,null,,,,,,,,,,,,,,
null,,prac_atten_color_black,319507,black_plus_sign,,,,null,,,,,,,,,,,,,,
null,,prac_atten_color,320107,prac_stop_color,,,,null,,,,,,,,,,,,,,
124,,prac_atten_color_black,322108,black_plus_sign,,,,49,,,,,,,,,,,,,,
null,,prac_atten_color_black,322911,black_plus_sign,,,,null,,,,,,,,,,,,,,
480.60000002384186,,prac_atten_color,323684,prac_stop_color,,,,49,,,,,,,,,,,,,,
null,,prac_atten_color_black,325684,black_plus_sign,,,,null,,,,,,,,,,,,,,
5069.399999976158,,attentioncheck_feedback,330755,cross_check_feedback,,0,,,,,,,,,,,,,,,,
12487.399999976158,,last_instruct,343243,instruct,,,,32,,,,,,,,,,,,,,
null,,learn_phase(without_color),345245,black_plus_sign,,,,null,GW/barrel.jpg,GW/snail.jpg,,,,,,,,,,,,
null,,black_cross(without_color),346166,green,,,,null,GW/barrel.jpg,GW/snail.jpg,,,,,,,,,,,,
null,,rt_plussign_withcolor,346667,green,,,,null,GW/barrel.jpg,GW/snail.jpg,,,,,,,,,,,,
1607.2000000476837,,rt_thecrossant_black,347750,black_plus_sign,,,,49,,,0,0,,,,,,,,,,
null,,color_black,347852,black_plus_sign,,,,null,,,,,,,,,,,,,,
null,,learn_phase(without_color),349855,black_plus_sign,,,,null,GW/dustpan.jpg,GW/camera.jpg,,,,,,,,,,,,
null,,black_cross(without_color),350576,blue,,,,null,GW/dustpan.jpg,GW/camera.jpg,,,,,,,,,,,,
null,,rt_plussign_withcolor,351077,blue,,,,null,GW/dustpan.jpg,GW/camera.jpg,,,,,,,,,,,,
1425.7000000476837,,rt_thecrossant_black,352361,black_plus_sign,,,,49,,,1,0.5,,,,,,,,,,
null,,color_black,352462,black_plus_sign,,,,null,,,,,,,,,,,,,,
null,,learn_phase(without_color),354464,black_plus_sign,,,,null,GW/globe.jpg,GW/camera.jpg,,,,,,,,,,,,
null,,black_cross(without_color),355508,blue,,,,null,GW/globe.jpg,GW/camera.jpg,,,,,,,,,,,,
null,,rt_plussign_withcolor,356009,blue,,,,null,GW/globe.jpg,GW/camera.jpg,,,,,,,,,,,,
1283.9000000357628,,rt_thecrossant_black,356969,black_plus_sign,,,,49,,,1,0.6666666666666666,,,,,,,,,,
null,,color_black,357071,black_plus_sign,,,,null,,,,,,,,,,,,,,
null,,learn_phase(without_color),359073,black_plus_sign,,,,null,GW/gong.jpg,GW/teeth.jpg,,,,,,,,,,,,
null,,black_cross(without_color),359819,green,,,,null,GW/gong.jpg,GW/teeth.jpg,,,,,,,,,,,,
null,,rt_plussign_withcolor,360320,green,,,,null,GW/gong.jpg,GW/teeth.jpg,,,,,,,,,,,,
1458.300000011921,,rt_thecrossant_black,361580,black_plus_sign,,,,50,,,1,0.75,,,,,,,,,,
null,,color_black,361682,black_plus_sign,,,,null,,,,,,,,,,,,,,
null,,learn_phase(without_color),363684,black_plus_sign,,,,null,GW/dustpan.jpg,GW/camera.jpg,,,,,,,,,,,,
null,,black_cross(without_color),364325,green,,,,null,GW/dustpan.jpg,GW/camera.jpg,,,,,,,,,,,,
376.5999999642372,,rt_plussign_withcolor,364826,green,,,,50,GW/dustpan.jpg,GW/camera.jpg,,,,,,,,,,,,
null,,rt_thecrossant_black,366187,black_plus_sign,,,,null,,,1,0.8,,,,,,,,,,
null,,color_black,366289,black_plus_sign,,,,null,,,,,,,,,,,,,,
null,,learn_phase(without_color),368291,black_plus_sign,,,,null,GW/wheelchair.jpg,GW/barrel.jpg,,,,,,,,,,,,
null,,black_cross(without_color),368856,blue,,,,null,GW/wheelchair.jpg,GW/barrel.jpg,,,,,,,,,,,,
null,,rt_plussign_withcolor,369358,blue,,,,null,GW/wheelchair.jpg,GW/barrel.jpg,,,,,,,,,,,,
876.3999999761581,,rt_thecrossant_black,370795,black_plus_sign,,,,49,,,1,0.8333333333333334,,,,,,,,,,
null,,color_black,370897,black_plus_sign,,,,null,,,,,,,,,,,,,,
null,,learn_phase(without_color),372899,black_plus_sign,,,,null,GW/camera.jpg,GW/teeth.jpg,,,,,,,,,,,,
null,,black_cross(without_color),373582,green,,,,null,GW/camera.jpg,GW/teeth.jpg,,,,,,,,,,,,
null,,rt_plussign_withcolor,374083,green,,,,null,GW/camera.jpg,GW/teeth.jpg,,,,,,,,,,,,
1196.9000000357628,,rt_thecrossant_black,375403,black_plus_sign,,,,50,,,1,0.8571428571428571,,,,,,,,,,
null,,color_black,375505,black_plus_sign,,,,null,,,,,,,,,,,,,,
null,,learn_phase(without_color),377508,black_plus_sign,,,,null,GW/hat.jpg,GW/globe.jpg,,,,,,,,,,,,
null,,black_cross(without_color),378470,blue,,,,null,GW/hat.jpg,GW/globe.jpg,,,,,,,,,,,,
null,,rt_plussign_withcolor,378972,blue,,,,null,GW/hat.jpg,GW/globe.jpg,,,,,,,,,,,,
890.8999999761581,,rt_thecrossant_black,380013,black_plus_sign,,,,49,,,1,0.875,,,,,,,,,,
null,,color_black,380115,black_plus_sign,,,,null,,,,,,,,,,,,,,
null,,learn_phase(without_color),382119,black_plus_sign,,,,null,GW/teeth.jpg,GW/basket.jpg,,,,,,,,,,,,
null,,black_cross(without_color),383220,blue,,,,null,GW/teeth.jpg,GW/basket.jpg,,,,,,,,,,,,
null,,rt_plussign_withcolor,383736,blue,,,,null,GW/teeth.jpg,GW/basket.jpg,,,,,,,,,,,,
1109,,rt_thecrossant_black,384638,black_plus_sign,,,,49,,,1,0.8888888888888888,,,,,,,,,,
null,,color_black,384739,black_plus_sign,,,,null,,,,,,,,,,,,,,
null,,learn_phase(without_color),386741,black_plus_sign,,,,null,GW/camera.jpg,GW/teeth.jpg,,,,,,,,,,,,
null,,black_cross(without_color),387387,blue,,,,null,GW/camera.jpg,GW/teeth.jpg,,,,,,,,,,,,
null,,rt_plussign_withcolor,387889,blue,,,,null,GW/camera.jpg,GW/teeth.jpg,,,,,,,,,,,,
1428.199999988079,,rt_thecrossant_black,389246,black_plus_sign,,,,49,,,1,0.9,,,,,,,,,,
null,,color_black,389348,black_plus_sign,,,,null,,,,,,,,,,,,,,
null,,learn_phase(without_color),391351,black_plus_sign,,,,null,GW/hat.jpg,GW/globe.jpg,,,,,,,,,,,,
null,,black_cross(without_color),392063,blue,,,,null,GW/hat.jpg,GW/globe.jpg,,,,,,,,,,,,
493.5,,rt_plussign_withcolor,392565,blue,,,,49,GW/hat.jpg,GW/globe.jpg,,,,,,,,,,,,
null,,rt_thecrossant_black,393856,black_plus_sign,,,,null,,,1,0.9090909090909091,,,,,,,,,,
null,,color_black,393959,black_plus_sign,,,,null,,,,,,,,,,,,,,
null,,learn_phase(without_color),395961,black_plus_sign,,,,null,GW/teeth.jpg,GW/basket.jpg,,,,,,,,,,,,
null,,black_cross(without_color),396482,blue,,,,null,GW/teeth.jpg,GW/basket.jpg,,,,,,,,,,,,
null,,rt_plussign_withcolor,396984,blue,,,,null,GW/teeth.jpg,GW/basket.jpg,,,,,,,,,,,,
1260.300000011921,,rt_thecrossant_black,398467,black_plus_sign,,,,49,,,1,0.9166666666666666,,,,,,,,,,
null,,color_black,398569,black_plus_sign,,,,null,,,,,,,,,,,,,,
null,,learn_phase(without_color),400571,black_plus_sign,,,,null,GW/hat.jpg,GW/camera.jpg,,,,,,,,,,,,
null,,black_cross(without_color),401163,green,,,,null,GW/hat.jpg,GW/camera.jpg,,,,,,,,,,,,
null,,rt_plussign_withcolor,401664,green,,,,null,GW/hat.jpg,GW/camera.jpg,,,,,,,,,,,,
619.1999999880791,,rt_thecrossant_black,403075,black_plus_sign,,,,50,,,1,0.9230769230769231,,,,,,,,,,
null,,color_black,403177,black_plus_sign,,,,null,,,,,,,,,,,,,,
null,,learn_phase(without_color),405178,black_plus_sign,,,,null,GW/globe.jpg,GW/camera.jpg,,,,,,,,,,,,
null,,black_cross(without_color),405967,green,,,,null,GW/globe.jpg,GW/camera.jpg,,,,,,,,,,,,
null,,rt_plussign_withcolor,406469,green,,,,null,GW/globe.jpg,GW/camera.jpg,,,,,,,,,,,,
745,,rt_thecrossant_black,407683,black_plus_sign,,,,50,,,1,0.9285714285714286,,,,,,,,,,
null,,color_black,407785,black_plus_sign,,,,null,,,,,,,,,,,,,,
null,,learn_phase(without_color),409787,black_plus_sign,,,,null,GW/snail.jpg,GW/basket.jpg,,,,,,,,,,,,
null,,black_cross(without_color),410441,blue,,,,null,GW/snail.jpg,GW/basket.jpg,,,,,,,,,,,,
null,,rt_plussign_withcolor,410943,blue,,,,null,GW/snail.jpg,GW/basket.jpg,,,,,,,,,,,,
1101.5999999642372,,rt_thecrossant_black,412292,black_plus_sign,,,,49,,,1,0.9333333333333333,,,,,,,,,,
null,,color_black,412393,black_plus_sign,,,,null,,,,,,,,,,,,,,
null,,learn_phase(without_color),414395,black_plus_sign,,,,null,GW/camera.jpg,GW/teeth.jpg,,,,,,,,,,,,
null,,black_cross(without_color),415178,blue,,,,null,GW/camera.jpg,GW/teeth.jpg,,,,,,,,,,,,
null,,rt_plussign_withcolor,415680,blue,,,,null,GW/camera.jpg,GW/teeth.jpg,,,,,,,,,,,,
766,,rt_thecrossant_black,416907,black_plus_sign,,,,49,,,1,0.9375,,,,,,,,,,
null,,color_black,417009,black_plus_sign,,,,null,,,,,,,,,,,,,,
null,,learn_phase(without_color),419011,black_plus_sign,,,,null,GW/dustpan.jpg,GW/hat.jpg,,,,,,,,,,,,
null,,black_cross(without_color),419587,green,,,,null,GW/dustpan.jpg,GW/hat.jpg,,,,,,,,,,,,
null,,rt_plussign_withcolor,420089,green,,,,null,GW/dustpan.jpg,GW/hat.jpg,,,,,,,,,,,,
987.6000000238419,,rt_thecrossant_black,421532,black_plus_sign,,,,50,,,1,0.9411764705882353,,,,,,,,,,
null,,color_black,421634,black_plus_sign,,,,null,,,,,,,,,,,,,,
null,,learn_phase(without_color),423636,black_plus_sign,,,,null,GW/barrel.jpg,GW/snail.jpg,,,,,,,,,,,,
null,,black_cross(without_color),424338,blue,,,,null,GW/barrel.jpg,GW/snail.jpg,,,,,,,,,,,,
444.0999999642372,,rt_plussign_withcolor,424840,blue,,,,49,GW/barrel.jpg,GW/snail.jpg,,,,,,,,,,,,
null,,rt_thecrossant_black,426143,black_plus_sign,,,,null,,,1,0.9444444444444444,,,,,,,,,,
null,,color_black,426245,black_plus_sign,,,,null,,,,,,,,,,,,,,
null,,learn_phase(without_color),428246,black_plus_sign,,,,null,GW/globe.jpg,GW/camera.jpg,,,,,,,,,,,,
null,,black_cross(without_color),428845,green,,,,null,GW/globe.jpg,GW/camera.jpg,,,,,,,,,,,,
496.9000000357628,,rt_plussign_withcolor,429347,green,,,,50,GW/globe.jpg,GW/camera.jpg,,,,,,,,,,,,
null,,rt_thecrossant_black,430751,black_plus_sign,,,,null,,,1,0.9473684210526315,,,,,,,,,,
null,,color_black,430853,black_plus_sign,,,,null,,,,,,,,,,,,,,
null,,learn_phase(without_color),432854,black_plus_sign,,,,null,GW/hat.jpg,GW/soldier.jpg,,,,,,,,,,,,
null,,black_cross(without_color),433499,blue,,,,null,GW/hat.jpg,GW/soldier.jpg,,,,,,,,,,,,
null,,rt_plussign_withcolor,434000,blue,,,,null,GW/hat.jpg,GW/soldier.jpg,,,,,,,,,,,,
778.7999999523163,,rt_thecrossant_black,435358,black_plus_sign,,,,49,,,1,0.95,,,,,,,,,,
null,,color_black,435460,black_plus_sign,,,,null,,,,,,,,,,,,,,
null,,learn_phase(without_color),437462,black_plus_sign,,,,null,GW/teeth.jpg,GW/basket.jpg,,,,,,,,,,,,
null,,black_cross(without_color),437980,blue,,,,null,GW/teeth.jpg,GW/basket.jpg,,,,,,,,,,,,
null,,rt_plussign_withcolor,438485,blue,,,,null,GW/teeth.jpg,GW/basket.jpg,,,,,,,,,,,,
829.1000000238419,,rt_thecrossant_black,439972,black_plus_sign,,,,49,,,1,0.9523809523809523,,,,,,,,,,
null,,color_black,440073,black_plus_sign,,,,null,,,,,,,,,,,,,,
null,,learn_phase(without_color),442074,black_plus_sign,,,,null,GW/dustpan.jpg,GW/hat.jpg,,,,,,,,,,,,
null,,black_cross(without_color),443168,green,,,,null,GW/dustpan.jpg,GW/hat.jpg,,,,,,,,,,,,
null,,rt_plussign_withcolor,443670,green,,,,null,GW/dustpan.jpg,GW/hat.jpg,,,,,,,,,,,,
745.7000000476837,,rt_thecrossant_black,444579,black_plus_sign,,,,50,,,1,0.9545454545454546,,,,,,,,,,
null,,color_black,444682,black_plus_sign,,,,null,,,,,,,,,,,,,,
null,,learn_phase(without_color),446684,black_plus_sign,,,,null,GW/barrel.jpg,GW/snail.jpg,,,,,,,,,,,,
null,,black_cross(without_color),447551,blue,,,,null,GW/barrel.jpg,GW/snail.jpg,,,,,,,,,,,,
391.5,,rt_plussign_withcolor,448052,blue,,,,49,GW/barrel.jpg,GW/snail.jpg,,,,,,,,,,,,
null,,rt_thecrossant_black,449189,black_plus_sign,,,,null,,,1,0.9565217391304348,,,,,,,,,,
null,,color_black,449291,black_plus_sign,,,,null,,,,,,,,,,,,,,
null,,learn_phase(without_color),451294,black_plus_sign,,,,null,GW/snail.jpg,GW/basket.jpg,,,,,,,,,,,,
null,,black_cross(without_color),452188,green,,,,null,GW/snail.jpg,GW/basket.jpg,,,,,,,,,,,,
486.80000001192093,,rt_plussign_withcolor,452689,green,,,,50,GW/snail.jpg,GW/basket.jpg,,,,,,,,,,,,
null,,rt_thecrossant_black,453798,black_plus_sign,,,,null,,,1,0.9583333333333334,,,,,,,,,,
null,,color_black,453900,black_plus_sign,,,,null,,,,,,,,,,,,,,
null,,learn_phase(without_color),455903,black_plus_sign,,,,null,GW/snail.jpg,GW/paint.jpg,,,,,,,,,,,,
null,,black_cross(without_color),456543,green,,,,null,GW/snail.jpg,GW/paint.jpg,,,,,,,,,,,,
null,,rt_plussign_withcolor,457044,green,,,,null,GW/snail.jpg,GW/paint.jpg,,,,,,,,,,,,
1138.1000000238419,,rt_thecrossant_black,458407,black_plus_sign,,,,50,,,1,0.96,,,,,,,,,,
null,,color_black,458510,black_plus_sign,,,,null,,,,,,,,,,,,,,
null,,learn_phase(without_color),460511,black_plus_sign,,,,null,GW/barrel.jpg,GW/gong.jpg,,,,,,,,,,,,
null,,black_cross(without_color),461185,green,,,,null,GW/barrel.jpg,GW/gong.jpg,,,,,,,,,,,,
463.19999998807907,,rt_plussign_withcolor,461686,green,,,,50,GW/barrel.jpg,GW/gong.jpg,,,,,,,,,,,,
null,,rt_thecrossant_black,463015,black_plus_sign,,,,null,,,1,0.9615384615384616,,,,,,,,,,
null,,color_black,463118,black_plus_sign,,,,null,,,,,,,,,,,,,,
null,,learn_phase(without_color),465121,black_plus_sign,,,,null,GW/gong.jpg,GW/teeth.jpg,,,,,,,,,,,,
null,,black_cross(without_color),465829,green,,,,null,GW/gong.jpg,GW/teeth.jpg,,,,,,,,,,,,
416.30000001192093,,rt_plussign_withcolor,466331,green,,,,50,GW/gong.jpg,GW/teeth.jpg,,,,,,,,,,,,
null,,rt_thecrossant_black,467630,black_plus_sign,,,,null,,,1,0.9629629629629629,,,,,,,,,,
null,,color_black,467731,black_plus_sign,,,,null,,,,,,,,,,,,,,
null,,learn_phase(without_color),469732,black_plus_sign,,,,null,GW/camera.jpg,GW/teeth.jpg,,,,,,,,,,,,
null,,black_cross(without_color),470527,green,,,,null,GW/camera.jpg,GW/teeth.jpg,,,,,,,,,,,,
453.7999999523163,,rt_plussign_withcolor,471029,green,,,,50,GW/camera.jpg,GW/teeth.jpg,,,,,,,,,,,,
null,,rt_thecrossant_black,472237,black_plus_sign,,,,null,,,1,0.9642857142857143,,,,,,,,,,
null,,color_black,472339,black_plus_sign,,,,null,,,,,,,,,,,,,,
null,,learn_phase(without_color),474341,black_plus_sign,,,,null,GW/globe.jpg,GW/jukebox.jpg,,,,,,,,,,,,
null,,black_cross(without_color),475340,blue,,,,null,GW/globe.jpg,GW/jukebox.jpg,,,,,,,,,,,,
null,,rt_plussign_withcolor,475841,blue,,,,null,GW/globe.jpg,GW/jukebox.jpg,,,,,,,,,,,,
1013.0999999642372,,rt_thecrossant_black,476863,black_plus_sign,,,,49,,,1,0.9655172413793104,,,,,,,,,,
null,,color_black,476965,black_plus_sign,,,,null,,,,,,,,,,,,,,
null,,learn_phase(without_color),478967,black_plus_sign,,,,null,GW/barrel.jpg,GW/gong.jpg,,,,,,,,,,,,
null,,black_cross(without_color),479902,blue,,,,null,GW/barrel.jpg,GW/gong.jpg,,,,,,,,,,,,
null,,rt_plussign_withcolor,480403,blue,,,,null,GW/barrel.jpg,GW/gong.jpg,,,,,,,,,,,,
1150.5,,rt_thecrossant_black,481472,black_plus_sign,,,,50,,,0,0.9333333333333333,,,,,,,,,,
null,,color_black,481573,black_plus_sign,,,,null,,,,,,,,,,,,,,
null,,learn_phase(without_color),483575,black_plus_sign,,,,null,GW/hat.jpg,GW/camera.jpg,,,,,,,,,,,,
null,,black_cross(without_color),484095,blue,,,,null,GW/hat.jpg,GW/camera.jpg,,,,,,,,,,,,
null,,rt_plussign_withcolor,484597,blue,,,,null,GW/hat.jpg,GW/camera.jpg,,,,,,,,,,,,
1156.9000000357628,,rt_thecrossant_black,486080,black_plus_sign,,,,49,,,1,0.9354838709677419,,,,,,,,,,
null,,color_black,486182,black_plus_sign,,,,null,,,,,,,,,,,,,,
null,,learn_phase(without_color),488184,black_plus_sign,,,,null,GW/globe.jpg,GW/jukebox.jpg,,,,,,,,,,,,
null,,black_cross(without_color),488909,green,,,,null,GW/globe.jpg,GW/jukebox.jpg,,,,,,,,,,,,
null,,rt_plussign_withcolor,489410,green,,,,null,GW/globe.jpg,GW/jukebox.jpg,,,,,,,,,,,,
896.6999999880791,,rt_thecrossant_black,490689,black_plus_sign,,,,50,,,1,0.9375,,,,,,,,,,
null,,color_black,490791,black_plus_sign,,,,null,,,,,,,,,,,,,,
null,,learn_phase(without_color),492793,black_plus_sign,,,,null,GW/snail.jpg,GW/basket.jpg,,,,,,,,,,,,
null,,black_cross(without_color),493763,green,,,,null,GW/snail.jpg,GW/basket.jpg,,,,,,,,,,,,
null,,rt_plussign_withcolor,494264,green,,,,null,GW/snail.jpg,GW/basket.jpg,,,,,,,,,,,,
834.8999999761581,,rt_thecrossant_black,495305,black_plus_sign,,,,50,,,1,0.9393939393939394,,,,,,,,,,
null,,color_black,495406,black_plus_sign,,,,null,,,,,,,,,,,,,,
null,,learn_phase(without_color),497408,black_plus_sign,,,,null,GW/hat.jpg,GW/globe.jpg,,,,,,,,,,,,
null,,black_cross(without_color),497850,blue,,,,null,GW/hat.jpg,GW/globe.jpg,,,,,,,,,,,,
495.5,,rt_plussign_withcolor,498352,blue,,,,49,GW/hat.jpg,GW/globe.jpg,,,,,,,,,,,,
null,,rt_thecrossant_black,499914,black_plus_sign,,,,null,,,1,0.9411764705882353,,,,,,,,,,
null,,color_black,500015,black_plus_sign,,,,null,,,,,,,,,,,,,,
null,,learn_phase(without_color),502017,black_plus_sign,,,,null,GW/camera.jpg,GW/teeth.jpg,,,,,,,,,,,,
null,,black_cross(without_color),502582,blue,,,,null,GW/camera.jpg,GW/teeth.jpg,,,,,,,,,,,,
null,,rt_plussign_withcolor,503085,blue,,,,null,GW/camera.jpg,GW/teeth.jpg,,,,,,,,,,,,
555.8999999761581,,rt_thecrossant_black,504524,black_plus_sign,,,,49,,,1,0.9428571428571428,,,,,,,,,,
null,,color_black,504626,black_plus_sign,,,,null,,,,,,,,,,,,,,
null,,learn_phase(without_color),506628,black_plus_sign,,,,null,GW/hat.jpg,GW/soldier.jpg,,,,,,,,,,,,
null,,black_cross(without_color),507658,blue,,,,null,GW/hat.jpg,GW/soldier.jpg,,,,,,,,,,,,
460.7000000476837,,rt_plussign_withcolor,508159,blue,,,,49,GW/hat.jpg,GW/soldier.jpg,,,,,,,,,,,,
null,,rt_thecrossant_black,509132,black_plus_sign,,,,null,,,1,0.9444444444444444,,,,,,,,,,
null,,color_black,509233,black_plus_sign,,,,null,,,,,,,,,,,,,,
null,,learn_phase(without_color),511235,black_plus_sign,,,,null,GW/camera.jpg,GW/teeth.jpg,,,,,,,,,,,,
null,,black_cross(without_color),512310,green,,,,null,GW/camera.jpg,GW/teeth.jpg,,,,,,,,,,,,
387,,rt_plussign_withcolor,512811,green,,,,50,GW/camera.jpg,GW/teeth.jpg,,,,,,,,,,,,
null,,rt_thecrossant_black,513741,black_plus_sign,,,,null,,,1,0.9459459459459459,,,,,,,,,,
null,,color_black,513842,black_plus_sign,,,,null,,,,,,,,,,,,,,
null,,learn_phase(without_color),515844,black_plus_sign,,,,null,GW/gong.jpg,GW/teeth.jpg,,,,,,,,,,,,
null,,black_cross(without_color),516479,blue,,,,null,GW/gong.jpg,GW/teeth.jpg,,,,,,,,,,,,
null,,rt_plussign_withcolor,516996,blue,,,,null,GW/gong.jpg,GW/teeth.jpg,,,,,,,,,,,,
1205.8999999761581,,rt_thecrossant_black,518362,black_plus_sign,,,,49,,,1,0.9473684210526315,,,,,,,,,,
null,,color_black,518464,black_plus_sign,,,,null,,,,,,,,,,,,,,
null,,learn_phase(without_color),520466,black_plus_sign,,,,null,GW/hat.jpg,GW/camera.jpg,,,,,,,,,,,,
null,,black_cross(without_color),521330,blue,,,,null,GW/hat.jpg,GW/camera.jpg,,,,,,,,,,,,
405.9000000357628,,rt_plussign_withcolor,521831,blue,,,,49,GW/hat.jpg,GW/camera.jpg,,,,,,,,,,,,
null,,rt_thecrossant_black,522970,black_plus_sign,,,,null,,,1,0.9487179487179487,,,,,,,,,,
null,,color_black,523072,black_plus_sign,,,,null,,,,,,,,,,,,,,
null,,learn_phase(without_color),525073,black_plus_sign,,,,null,GW/gong.jpg,GW/teeth.jpg,,,,,,,,,,,,
null,,black_cross(without_color),525622,green,,,,null,GW/gong.jpg,GW/teeth.jpg,,,,,,,,,,,,
413.7999999523163,,rt_plussign_withcolor,526123,green,,,,50,GW/gong.jpg,GW/teeth.jpg,,,,,,,,,,,,
null,,rt_thecrossant_black,527578,black_plus_sign,,,,null,,,1,0.95,,,,,,,,,,
null,,color_black,527679,black_plus_sign,,,,null,,,,,,,,,,,,,,
null,,learn_phase(without_color),529690,black_plus_sign,,,,null,GW/dustpan.jpg,GW/hat.jpg,,,,,,,,,,,,
null,,black_cross(without_color),530571,green,,,,null,GW/dustpan.jpg,GW/hat.jpg,,,,,,,,,,,,
426.5,,rt_plussign_withcolor,531072,green,,,,50,GW/dustpan.jpg,GW/hat.jpg,,,,,,,,,,,,
null,,rt_thecrossant_black,532194,black_plus_sign,,,,null,,,1,0.9512195121951219,,,,,,,,,,
null,,color_black,532296,black_plus_sign,,,,null,,,,,,,,,,,,,,
null,,learn_phase(without_color),534297,black_plus_sign,,,,null,GW/hat.jpg,GW/globe.jpg,,,,,,,,,,,,
null,,black_cross(without_color),535256,blue,,,,null,GW/hat.jpg,GW/globe.jpg,,,,,,,,,,,,
487.19999998807907,,rt_plussign_withcolor,535758,blue,,,,49,GW/hat.jpg,GW/globe.jpg,,,,,,,,,,,,
null,,rt_thecrossant_black,536803,black_plus_sign,,,,null,,,1,0.9523809523809523,,,,,,,,,,
null,,color_black,536904,black_plus_sign,,,,null,,,,,,,,,,,,,,
null,,learn_phase(without_color),538907,black_plus_sign,,,,null,GW/globe.jpg,GW/camera.jpg,,,,,,,,,,,,
null,,black_cross(without_color),539816,blue,,,,null,GW/globe.jpg,GW/camera.jpg,,,,,,,,,,,,
369.5,,rt_plussign_withcolor,540318,blue,,,,49,GW/globe.jpg,GW/camera.jpg,,,,,,,,,,,,
null,,rt_thecrossant_black,541414,black_plus_sign,,,,null,,,1,0.9534883720930233,,,,,,,,,,
null,,color_black,541523,black_plus_sign,,,,null,,,,,,,,,,,,,,
null,,learn_phase(without_color),543524,black_plus_sign,,,,null,GW/barrel.jpg,GW/gong.jpg,,,,,,,,,,,,
null,,black_cross(without_color),544505,green,,,,null,GW/barrel.jpg,GW/gong.jpg,,,,,,,,,,,,
347.0999999642372,,rt_plussign_withcolor,545006,green,,,,50,GW/barrel.jpg,GW/gong.jpg,,,,,,,,,,,,
null,,rt_thecrossant_black,546029,black_plus_sign,,,,null,,,1,0.9545454545454546,,,,,,,,,,
null,,color_black,546131,black_plus_sign,,,,null,,,,,,,,,,,,,,
null,,learn_phase(without_color),548134,black_plus_sign,,,,null,GW/snail.jpg,GW/paint.jpg,,,,,,,,,,,,
null,,black_cross(without_color),549036,green,,,,null,GW/snail.jpg,GW/paint.jpg,,,,,,,,,,,,
385.80000001192093,,rt_plussign_withcolor,549537,green,,,,50,GW/snail.jpg,GW/paint.jpg,,,,,,,,,,,,
null,,rt_thecrossant_black,550639,black_plus_sign,,,,null,,,1,0.9555555555555556,,,,,,,,,,
null,,color_black,550741,black_plus_sign,,,,null,,,,,,,,,,,,,,
null,,learn_phase(without_color),552743,black_plus_sign,,,,null,GW/globe.jpg,GW/jukebox.jpg,,,,,,,,,,,,
null,,black_cross(without_color),553209,green,,,,null,GW/globe.jpg,GW/jukebox.jpg,,,,,,,,,,,,
419.39999997615814,,rt_plussign_withcolor,553712,green,,,,50,GW/globe.jpg,GW/jukebox.jpg,,,,,,,,,,,,
null,,rt_thecrossant_black,555250,black_plus_sign,,,,null,,,1,0.9565217391304348,,,,,,,,,,
null,,color_black,555352,black_plus_sign,,,,null,,,,,,,,,,,,,,
null,,learn_phase(without_color),557354,black_plus_sign,,,,null,GW/wheelchair.jpg,GW/barrel.jpg,,,,,,,,,,,,
null,,black_cross(without_color),558012,blue,,,,null,GW/wheelchair.jpg,GW/barrel.jpg,,,,,,,,,,,,
291.19999998807907,,rt_plussign_withcolor,558513,blue,,,,50,GW/wheelchair.jpg,GW/barrel.jpg,,,,,,,,,,,,
null,,rt_thecrossant_black,559860,black_plus_sign,,,,null,,,0,0.9361702127659575,,,,,,,,,,
null,,color_black,559961,black_plus_sign,,,,null,,,,,,,,,,,,,,
null,,learn_phase(without_color),561964,black_plus_sign,,,,null,GW/globe.jpg,GW/jukebox.jpg,,,,,,,,,,,,
null,,black_cross(without_color),562524,blue,,,,null,GW/globe.jpg,GW/jukebox.jpg,,,,,,,,,,,,
null,,rt_plussign_withcolor,563027,blue,,,,null,GW/globe.jpg,GW/jukebox.jpg,,,,,,,,,,,,
916.2999999523163,,rt_thecrossant_black,564468,black_plus_sign,,,,50,,,0,0.9166666666666666,,,,,,,,,,
null,,warning_page,567471,warning,,,,null,,,,,,,,,,,,,,
null,,color_black,567573,black_plus_sign,,,,null,,,,,,,,,,,,,,
null,,learn_phase(without_color),569575,black_plus_sign,,,,null,GW/globe.jpg,GW/camera.jpg,,,,,,,,,,,,
null,,black_cross(without_color),570634,green,,,,null,GW/globe.jpg,GW/camera.jpg,,,,,,,,,,,,
null,,rt_plussign_withcolor,571135,green,,,,null,GW/globe.jpg,GW/camera.jpg,,,,,,,,,,,,
null,,rt_thecrossant_black,572084,black_plus_sign,,,,null,,,,0.9166666666666666,,,,,,,,,,
null,,warning_page,575085,warning,,,,null,,,,,,,,,,,,,,
null,,color_black,575188,black_plus_sign,,,,null,,,,,,,,,,,,,,
null,,learn_phase(without_color),577190,black_plus_sign,,,,null,GW/hat.jpg,GW/soldier.jpg,,,,,,,,,,,,
null,,black_cross(without_color),578030,green,,,,null,GW/hat.jpg,GW/soldier.jpg,,,,,,,,,,,,
361.69999998807907,,rt_plussign_withcolor,578531,green,,,,50,GW/hat.jpg,GW/soldier.jpg,,,,,,,,,,,,
null,,rt_thecrossant_black,579696,black_plus_sign,,,,null,,,1,0.9183673469387755,,,,,,,,,,
null,,color_black,579797,black_plus_sign,,,,null,,,,,,,,,,,,,,
null,,learn_phase(without_color),581799,black_plus_sign,,,,null,GW/hat.jpg,GW/camera.jpg,,,,,,,,,,,,
null,,black_cross(without_color),582299,green,,,,null,GW/hat.jpg,GW/camera.jpg,,,,,,,,,,,,
403.7999999523163,,rt_plussign_withcolor,582800,green,,,,50,GW/hat.jpg,GW/camera.jpg,,,,,,,,,,,,
null,,rt_thecrossant_black,584305,black_plus_sign,,,,null,,,1,0.92,,,,,,,,,,
null,,color_black,584411,black_plus_sign,,,,null,,,,,,,,,,,,,,
null,,learn_phase(without_color),586412,black_plus_sign,,,,null,GW/wheelchair.jpg,GW/barrel.jpg,,,,,,,,,,,,
null,,black_cross(without_color),586815,green,,,,null,GW/wheelchair.jpg,GW/barrel.jpg,,,,,,,,,,,,
390.19999998807907,,rt_plussign_withcolor,587318,green,,,,50,GW/wheelchair.jpg,GW/barrel.jpg,,,,,,,,,,,,
null,,rt_thecrossant_black,588918,black_plus_sign,,,,null,,,1,0.9215686274509803,,,,,,,,,,
null,,color_black,589019,black_plus_sign,,,,null,,,,,,,,,,,,,,
null,,learn_phase(without_color),591021,black_plus_sign,,,,null,GW/snail.jpg,GW/basket.jpg,,,,,,,,,,,,
null,,black_cross(without_color),592101,green,,,,null,GW/snail.jpg,GW/basket.jpg,,,,,,,,,,,,
420.80000001192093,,rt_plussign_withcolor,592602,green,,,,50,GW/snail.jpg,GW/basket.jpg,,,,,,,,,,,,
null,,rt_thecrossant_black,593525,black_plus_sign,,,,null,,,1,0.9230769230769231,,,,,,,,,,
null,,color_black,593627,black_plus_sign,,,,null,,,,,,,,,,,,,,
null,,learn_phase(without_color),595634,black_plus_sign,,,,null,GW/snail.jpg,GW/paint.jpg,,,,,,,,,,,,
null,,black_cross(without_color),596655,green,,,,null,GW/snail.jpg,GW/paint.jpg,,,,,,,,,,,,
345.80000001192093,,rt_plussign_withcolor,597157,green,,,,50,GW/snail.jpg,GW/paint.jpg,,,,,,,,,,,,
null,,rt_thecrossant_black,598139,black_plus_sign,,,,null,,,1,0.9245283018867925,,,,,,,,,,
null,,color_black,598242,black_plus_sign,,,,null,,,,,,,,,,,,,,
null,,learn_phase(without_color),600244,black_plus_sign,,,,null,GW/gong.jpg,GW/dustpan.jpg,,,,,,,,,,,,
null,,black_cross(without_color),601134,blue,,,,null,GW/gong.jpg,GW/dustpan.jpg,,,,,,,,,,,,
421.89999997615814,,rt_plussign_withcolor,601636,blue,,,,49,GW/gong.jpg,GW/dustpan.jpg,,,,,,,,,,,,
null,,rt_thecrossant_black,602748,black_plus_sign,,,,null,,,1,0.9259259259259259,,,,,,,,,,
null,,color_black,602849,black_plus_sign,,,,null,,,,,,,,,,,,,,
null,,learn_phase(without_color),604851,black_plus_sign,,,,null,GW/barrel.jpg,GW/gong.jpg,,,,,,,,,,,,
null,,black_cross(without_color),605855,blue,,,,null,GW/barrel.jpg,GW/gong.jpg,,,,,,,,,,,,
447.39999997615814,,rt_plussign_withcolor,606358,blue,,,,49,GW/barrel.jpg,GW/gong.jpg,,,,,,,,,,,,
null,,rt_thecrossant_black,607357,black_plus_sign,,,,null,,,1,0.9272727272727272,,,,,,,,,,
null,,color_black,607459,black_plus_sign,,,,null,,,,,,,,,,,,,,
null,,learn_phase(without_color),609461,black_plus_sign,,,,null,GW/snail.jpg,GW/paint.jpg,,,,,,,,,,,,
null,,black_cross(without_color),610452,green,,,,null,GW/snail.jpg,GW/paint.jpg,,,,,,,,,,,,
447.80000001192093,,rt_plussign_withcolor,610954,green,,,,50,GW/snail.jpg,GW/paint.jpg,,,,,,,,,,,,
null,,rt_thecrossant_black,611966,black_plus_sign,,,,null,,,1,0.9285714285714286,,,,,,,,,,
null,,color_black,612068,black_plus_sign,,,,null,,,,,,,,,,,,,,
null,,learn_phase(without_color),614072,black_plus_sign,,,,null,GW/hat.jpg,GW/soldier.jpg,,,,,,,,,,,,
null,,black_cross(without_color),614590,green,,,,null,GW/hat.jpg,GW/soldier.jpg,,,,,,,,,,,,
null,,rt_plussign_withcolor,615092,green,,,,null,GW/hat.jpg,GW/soldier.jpg,,,,,,,,,,,,
1112.4000000357628,,rt_thecrossant_black,616587,black_plus_sign,,,,50,,,1,0.9298245614035088,,,,,,,,,,
null,,color_black,616688,black_plus_sign,,,,null,,,,,,,,,,,,,,
null,,learn_phase(without_color),618690,black_plus_sign,,,,null,GW/dustpan.jpg,GW/camera.jpg,,,,,,,,,,,,
null,,black_cross(without_color),619172,blue,,,,null,GW/dustpan.jpg,GW/camera.jpg,,,,,,,,,,,,
455.10000002384186,,rt_plussign_withcolor,619674,blue,,,,49,GW/dustpan.jpg,GW/camera.jpg,,,,,,,,,,,,
null,,rt_thecrossant_black,621195,black_plus_sign,,,,null,,,1,0.9310344827586207,,,,,,,,,,
null,,color_black,621296,black_plus_sign,,,,null,,,,,,,,,,,,,,
null,,learn_phase(without_color),623299,black_plus_sign,,,,null,GW/camera.jpg,GW/teeth.jpg,,,,,,,,,,,,
null,,black_cross(without_color),623927,green,,,,null,GW/camera.jpg,GW/teeth.jpg,,,,,,,,,,,,
null,,rt_plussign_withcolor,624428,green,,,,null,GW/camera.jpg,GW/teeth.jpg,,,,,,,,,,,,
760.4000000357628,,rt_thecrossant_black,625804,black_plus_sign,,,,50,,,1,0.9322033898305084,,,,,,,,,,
null,,color_black,625920,black_plus_sign,,,,null,,,,,,,,,,,,,,
null,,learn_phase(without_color),627922,black_plus_sign,,,,null,GW/snail.jpg,GW/paint.jpg,,,,,,,,,,,,
null,,black_cross(without_color),628396,blue,,,,null,GW/snail.jpg,GW/paint.jpg,,,,,,,,,,,,
null,,rt_plussign_withcolor,628898,blue,,,,null,GW/snail.jpg,GW/paint.jpg,,,,,,,,,,,,
761.5999999642372,,rt_thecrossant_black,630427,black_plus_sign,,,,49,,,1,0.9333333333333333,,,,,,,,,,
null,,color_black,630530,black_plus_sign,,,,null,,,,,,,,,,,,,,
null,,learn_phase(without_color),632532,black_plus_sign,,,,null,GW/dustpan.jpg,GW/camera.jpg,,,,,,,,,,,,
null,,black_cross(without_color),633138,green,,,,null,GW/dustpan.jpg,GW/camera.jpg,,,,,,,,,,,,
null,,rt_plussign_withcolor,633639,green,,,,null,GW/dustpan.jpg,GW/camera.jpg,,,,,,,,,,,,
643.9000000357628,,rt_thecrossant_black,635046,black_plus_sign,,,,50,,,1,0.9344262295081968,,,,,,,,,,
null,,color_black,635148,black_plus_sign,,,,null,,,,,,,,,,,,,,
null,,learn_phase(without_color),637150,black_plus_sign,,,,null,GW/wheelchair.jpg,GW/barrel.jpg,,,,,,,,,,,,
null,,black_cross(without_color),638027,blue,,,,null,GW/wheelchair.jpg,GW/barrel.jpg,,,,,,,,,,,,
463.4000000357628,,rt_plussign_withcolor,638530,blue,,,,49,GW/wheelchair.jpg,GW/barrel.jpg,,,,,,,,,,,,
null,,rt_thecrossant_black,639656,black_plus_sign,,,,null,,,1,0.9354838709677419,,,,,,,,,,
null,,color_black,639757,black_plus_sign,,,,null,,,,,,,,,,,,,,
null,,learn_phase(without_color),641764,black_plus_sign,,,,null,GW/hat.jpg,GW/globe.jpg,,,,,,,,,,,,
null,,black_cross(without_color),642677,green,,,,null,GW/hat.jpg,GW/globe.jpg,,,,,,,,,,,,
null,,rt_plussign_withcolor,643179,green,,,,null,GW/hat.jpg,GW/globe.jpg,,,,,,,,,,,,
1050.0999999642372,,rt_thecrossant_black,644270,black_plus_sign,,,,50,,,1,0.9365079365079365,,,,,,,,,,
null,,color_black,644371,black_plus_sign,,,,null,,,,,,,,,,,,,,
null,,learn_phase(without_color),646374,black_plus_sign,,,,null,GW/barrel.jpg,GW/snail.jpg,,,,,,,,,,,,
null,,black_cross(without_color),647319,green,,,,null,GW/barrel.jpg,GW/snail.jpg,,,,,,,,,,,,
null,,rt_plussign_withcolor,647821,green,,,,null,GW/barrel.jpg,GW/snail.jpg,,,,,,,,,,,,
1046,,rt_thecrossant_black,648878,black_plus_sign,,,,50,,,1,0.9375,,,,,,,,,,
null,,color_black,648980,black_plus_sign,,,,null,,,,,,,,,,,,,,
null,,learn_phase(without_color),650982,black_plus_sign,,,,null,GW/snail.jpg,GW/basket.jpg,,,,,,,,,,,,
null,,black_cross(without_color),651612,blue,,,,null,GW/snail.jpg,GW/basket.jpg,,,,,,,,,,,,
392.60000002384186,,rt_plussign_withcolor,652113,blue,,,,49,GW/snail.jpg,GW/basket.jpg,,,,,,,,,,,,
null,,rt_thecrossant_black,653487,black_plus_sign,,,,null,,,1,0.9384615384615385,,,,,,,,,,
null,,color_black,653588,black_plus_sign,,,,null,,,,,,,,,,,,,,
null,,learn_phase(without_color),655590,black_plus_sign,,,,null,GW/barrel.jpg,GW/snail.jpg,,,,,,,,,,,,
null,,black_cross(without_color),656562,blue,,,,null,GW/barrel.jpg,GW/snail.jpg,,,,,,,,,,,,
448.89999997615814,,rt_plussign_withcolor,657063,blue,,,,49,GW/barrel.jpg,GW/snail.jpg,,,,,,,,,,,,
null,,rt_thecrossant_black,658095,black_plus_sign,,,,null,,,1,0.9393939393939394,,,,,,,,,,
null,,color_black,658205,black_plus_sign,,,,null,,,,,,,,,,,,,,
null,,learn_phase(without_color),660208,black_plus_sign,,,,null,GW/dustpan.jpg,GW/hat.jpg,,,,,,,,,,,,
null,,black_cross(without_color),661214,blue,,,,null,GW/dustpan.jpg,GW/hat.jpg,,,,,,,,,,,,
null,,rt_plussign_withcolor,661716,blue,,,,null,GW/dustpan.jpg,GW/hat.jpg,,,,,,,,,,,,
1147.699999988079,,rt_thecrossant_black,662712,black_plus_sign,,,,49,,,1,0.9402985074626866,,,,,,,,,,
null,,color_black,662814,black_plus_sign,,,,null,,,,,,,,,,,,,,
null,,learn_phase(without_color),664817,black_plus_sign,,,,null,GW/barrel.jpg,GW/snail.jpg,,,,,,,,,,,,
null,,black_cross(without_color),665904,blue,,,,null,GW/barrel.jpg,GW/snail.jpg,,,,,,,,,,,,
null,,rt_plussign_withcolor,666405,blue,,,,null,GW/barrel.jpg,GW/snail.jpg,,,,,,,,,,,,
1321.5,,rt_thecrossant_black,667321,black_plus_sign,,,,49,,,1,0.9411764705882353,,,,,,,,,,
null,,color_black,667423,black_plus_sign,,,,null,,,,,,,,,,,,,,
null,,learn_phase(without_color),669424,black_plus_sign,,,,null,GW/hat.jpg,GW/globe.jpg,,,,,,,,,,,,
null,,black_cross(without_color),670071,green,,,,null,GW/hat.jpg,GW/globe.jpg,,,,,,,,,,,,
466.7999999523163,,rt_plussign_withcolor,670572,green,,,,50,GW/hat.jpg,GW/globe.jpg,,,,,,,,,,,,
null,,rt_thecrossant_black,671931,black_plus_sign,,,,null,,,1,0.9420289855072463,,,,,,,,,,
null,,color_black,672036,black_plus_sign,,,,null,,,,,,,,,,,,,,
null,,learn_phase(without_color),674041,black_plus_sign,,,,null,GW/dustpan.jpg,GW/camera.jpg,,,,,,,,,,,,
null,,black_cross(without_color),674770,green,,,,null,GW/dustpan.jpg,GW/camera.jpg,,,,,,,,,,,,
439.5999999642372,,rt_plussign_withcolor,675271,green,,,,50,GW/dustpan.jpg,GW/camera.jpg,,,,,,,,,,,,
null,,rt_thecrossant_black,676545,black_plus_sign,,,,null,,,1,0.9428571428571428,,,,,,,,,,
null,,color_black,676647,black_plus_sign,,,,null,,,,,,,,,,,,,,
null,,learn_phase(without_color),678649,black_plus_sign,,,,null,GW/globe.jpg,GW/jukebox.jpg,,,,,,,,,,,,
null,,black_cross(without_color),679268,blue,,,,null,GW/globe.jpg,GW/jukebox.jpg,,,,,,,,,,,,
450.89999997615814,,rt_plussign_withcolor,679770,blue,,,,49,GW/globe.jpg,GW/jukebox.jpg,,,,,,,,,,,,
null,,rt_thecrossant_black,681156,black_plus_sign,,,,null,,,1,0.9436619718309859,,,,,,,,,,
null,,color_black,681270,black_plus_sign,,,,null,,,,,,,,,,,,,,
null,,learn_phase(without_color),683272,black_plus_sign,,,,null,GW/barrel.jpg,GW/gong.jpg,,,,,,,,,,,,
null,,black_cross(without_color),684155,blue,,,,null,GW/barrel.jpg,GW/gong.jpg,,,,,,,,,,,,
411.10000002384186,,rt_plussign_withcolor,684656,blue,,,,49,GW/barrel.jpg,GW/gong.jpg,,,,,,,,,,,,
null,,rt_thecrossant_black,685776,black_plus_sign,,,,null,,,1,0.9444444444444444,,,,,,,,,,
null,,color_black,685878,black_plus_sign,,,,null,,,,,,,,,,,,,,
null,,learn_phase(without_color),687881,black_plus_sign,,,,null,GW/dustpan.jpg,GW/hat.jpg,,,,,,,,,,,,
null,,black_cross(without_color),688831,blue,,,,null,GW/dustpan.jpg,GW/hat.jpg,,,,,,,,,,,,
null,,rt_plussign_withcolor,689332,blue,,,,null,GW/dustpan.jpg,GW/hat.jpg,,,,,,,,,,,,
1075.5,,rt_thecrossant_black,690386,black_plus_sign,,,,49,,,1,0.9452054794520548,,,,,,,,,,
null,,color_black,690488,black_plus_sign,,,,null,,,,,,,,,,,,,,
null,,learn_phase(without_color),692490,black_plus_sign,,,,null,GW/globe.jpg,GW/camera.jpg,,,,,,,,,,,,
null,,black_cross(without_color),693285,blue,,,,null,GW/globe.jpg,GW/camera.jpg,,,,,,,,,,,,
417.0999999642372,,rt_plussign_withcolor,693787,blue,,,,49,GW/globe.jpg,GW/camera.jpg,,,,,,,,,,,,
null,,rt_thecrossant_black,695000,black_plus_sign,,,,null,,,1,0.9459459459459459,,,,,,,,,,
null,,color_black,695102,black_plus_sign,,,,null,,,,,,,,,,,,,,
null,,learn_phase(without_color),697104,black_plus_sign,,,,null,GW/barrel.jpg,GW/snail.jpg,,,,,,,,,,,,
null,,black_cross(without_color),698003,blue,,,,null,GW/barrel.jpg,GW/snail.jpg,,,,,,,,,,,,
null,,rt_plussign_withcolor,698504,blue,,,,null,GW/barrel.jpg,GW/snail.jpg,,,,,,,,,,,,
1121.6000000238419,,rt_thecrossant_black,699607,black_plus_sign,,,,49,,,1,0.9466666666666667,,,,,,,,,,
null,,color_black,699709,black_plus_sign,,,,null,,,,,,,,,,,,,,
null,,learn_phase(without_color),701711,black_plus_sign,,,,null,GW/barrel.jpg,GW/gong.jpg,,,,,,,,,,,,
null,,black_cross(without_color),702225,green,,,,null,GW/barrel.jpg,GW/gong.jpg,,,,,,,,,,,,
null,,rt_plussign_withcolor,702727,green,,,,null,GW/barrel.jpg,GW/gong.jpg,,,,,,,,,,,,
1807.4000000357628,,rt_thecrossant_black,704217,black_plus_sign,,,,50,,,1,0.9473684210526315,,,,,,,,,,
null,,color_black,704318,black_plus_sign,,,,null,,,,,,,,,,,,,,
null,,learn_phase(without_color),706320,black_plus_sign,,,,null,GW/snail.jpg,GW/basket.jpg,,,,,,,,,,,,
null,,black_cross(without_color),706965,green,,,,null,GW/snail.jpg,GW/basket.jpg,,,,,,,,,,,,
493.19999998807907,,rt_plussign_withcolor,707466,green,,,,50,GW/snail.jpg,GW/basket.jpg,,,,,,,,,,,,
null,,rt_thecrossant_black,708825,black_plus_sign,,,,null,,,1,0.948051948051948,,,,,,,,,,
null,,color_black,708927,black_plus_sign,,,,null,,,,,,,,,,,,,,
null,,learn_phase(without_color),710929,black_plus_sign,,,,null,GW/hat.jpg,GW/camera.jpg,,,,,,,,,,,,
null,,black_cross(without_color),711612,blue,,,,null,GW/hat.jpg,GW/camera.jpg,,,,,,,,,,,,
433,,rt_plussign_withcolor,712118,blue,,,,49,GW/hat.jpg,GW/camera.jpg,,,,,,,,,,,,
null,,rt_thecrossant_black,713438,black_plus_sign,,,,null,,,1,0.9487179487179487,,,,,,,,,,
null,,color_black,713540,black_plus_sign,,,,null,,,,,,,,,,,,,,
null,,learn_phase(without_color),715542,black_plus_sign,,,,null,GW/snail.jpg,GW/paint.jpg,,,,,,,,,,,,
null,,black_cross(without_color),715985,blue,,,,null,GW/snail.jpg,GW/paint.jpg,,,,,,,,,,,,
null,,rt_plussign_withcolor,716486,blue,,,,null,GW/snail.jpg,GW/paint.jpg,,,,,,,,,,,,
794.3000000119209,,rt_thecrossant_black,718047,black_plus_sign,,,,49,,,1,0.9493670886075949,,,,,,,,,,
null,,color_black,718149,black_plus_sign,,,,null,,,,,,,,,,,,,,
null,,learn_phase(without_color),720151,black_plus_sign,,,,null,GW/globe.jpg,GW/camera.jpg,,,,,,,,,,,,
null,,black_cross(without_color),720805,green,,,,null,GW/globe.jpg,GW/camera.jpg,,,,,,,,,,,,
374.69999998807907,,rt_plussign_withcolor,721307,green,,,,50,GW/globe.jpg,GW/camera.jpg,,,,,,,,,,,,
null,,rt_thecrossant_black,722657,black_plus_sign,,,,null,,,1,0.95,,,,,,,,,,
null,,color_black,722759,black_plus_sign,,,,null,,,,,,,,,,,,,,
null,,learn_phase(without_color),724761,black_plus_sign,,,,null,GW/hat.jpg,GW/camera.jpg,,,,,,,,,,,,
null,,black_cross(without_color),725486,green,,,,null,GW/hat.jpg,GW/camera.jpg,,,,,,,,,,,,
null,,rt_plussign_withcolor,725988,green,,,,null,GW/hat.jpg,GW/camera.jpg,,,,,,,,,,,,
880,,rt_thecrossant_black,727267,black_plus_sign,,,,50,,,1,0.9506172839506173,,,,,,,,,,
null,,color_black,727369,black_plus_sign,,,,null,,,,,,,,,,,,,,
null,,learn_phase(without_color),729372,black_plus_sign,,,,null,GW/dustpan.jpg,GW/hat.jpg,,,,,,,,,,,,
null,,black_cross(without_color),730396,blue,,,,null,GW/dustpan.jpg,GW/hat.jpg,,,,,,,,,,,,
405.39999997615814,,rt_plussign_withcolor,730896,blue,,,,49,GW/dustpan.jpg,GW/hat.jpg,,,,,,,,,,,,
null,,rt_thecrossant_black,731878,black_plus_sign,,,,null,,,1,0.9512195121951219,,,,,,,,,,
null,,color_black,731980,black_plus_sign,,,,null,,,,,,,,,,,,,,
null,,learn_phase(without_color),733981,black_plus_sign,,,,null,GW/wheelchair.jpg,GW/barrel.jpg,,,,,,,,,,,,
null,,black_cross(without_color),734762,green,,,,null,GW/wheelchair.jpg,GW/barrel.jpg,,,,,,,,,,,,
376.10000002384186,,rt_plussign_withcolor,735277,green,,,,50,GW/wheelchair.jpg,GW/barrel.jpg,,,,,,,,,,,,
null,,rt_thecrossant_black,736510,black_plus_sign,,,,null,,,1,0.9518072289156626,,,,,,,,,,
null,,color_black,736612,black_plus_sign,,,,null,,,,,,,,,,,,,,
null,,learn_phase(without_color),738614,black_plus_sign,,,,null,GW/snail.jpg,GW/paint.jpg,,,,,,,,,,,,
null,,black_cross(without_color),739140,blue,,,,null,GW/snail.jpg,GW/paint.jpg,,,,,,,,,,,,
442.0999999642372,,rt_plussign_withcolor,739642,blue,,,,49,GW/snail.jpg,GW/paint.jpg,,,,,,,,,,,,
null,,rt_thecrossant_black,741127,black_plus_sign,,,,null,,,1,0.9523809523809523,,,,,,,,,,
null,,color_black,741229,black_plus_sign,,,,null,,,,,,,,,,,,,,
null,,learn_phase(without_color),743231,black_plus_sign,,,,null,GW/snail.jpg,GW/basket.jpg,,,,,,,,,,,,
null,,black_cross(without_color),743893,green,,,,null,GW/snail.jpg,GW/basket.jpg,,,,,,,,,,,,
364.89999997615814,,rt_plussign_withcolor,744394,green,,,,50,GW/snail.jpg,GW/basket.jpg,,,,,,,,,,,,
null,,rt_thecrossant_black,745735,black_plus_sign,,,,null,,,1,0.9529411764705882,,,,,,,,,,
null,,color_black,745837,black_plus_sign,,,,null,,,,,,,,,,,,,,
null,,learn_phase(without_color),747839,black_plus_sign,,,,null,GW/wheelchair.jpg,GW/barrel.jpg,,,,,,,,,,,,
null,,black_cross(without_color),748348,blue,,,,null,GW/wheelchair.jpg,GW/barrel.jpg,,,,,,,,,,,,
373,,rt_plussign_withcolor,748850,blue,,,,49,GW/wheelchair.jpg,GW/barrel.jpg,,,,,,,,,,,,
null,,rt_thecrossant_black,750345,black_plus_sign,,,,null,,,1,0.9534883720930233,,,,,,,,,,
null,,color_black,750446,black_plus_sign,,,,null,,,,,,,,,,,,,,
null,,learn_phase(without_color),752448,black_plus_sign,,,,null,GW/dustpan.jpg,GW/hat.jpg,,,,,,,,,,,,
null,,black_cross(without_color),753194,blue,,,,null,GW/dustpan.jpg,GW/hat.jpg,,,,,,,,,,,,
null,,rt_plussign_withcolor,753695,blue,,,,null,GW/dustpan.jpg,GW/hat.jpg,,,,,,,,,,,,
698.0999999642372,,rt_thecrossant_black,754953,black_plus_sign,,,,50,,,0,0.9425287356321839,,,,,,,,,,
null,,color_black,755056,black_plus_sign,,,,null,,,,,,,,,,,,,,
null,,learn_phase(without_color),757057,black_plus_sign,,,,null,GW/hat.jpg,GW/soldier.jpg,,,,,,,,,,,,
null,,black_cross(without_color),758079,green,,,,null,GW/hat.jpg,GW/soldier.jpg,,,,,,,,,,,,
null,,rt_plussign_withcolor,758582,green,,,,null,GW/hat.jpg,GW/soldier.jpg,,,,,,,,,,,,
865.6000000238419,,rt_thecrossant_black,759564,black_plus_sign,,,,49,,,0,0.9318181818181818,,,,,,,,,,
null,,warning_page,762565,warning,,,,null,,,,,,,,,,,,,,
null,,color_black,762667,black_plus_sign,,,,null,,,,,,,,,,,,,,
null,,learn_phase(without_color),764669,black_plus_sign,,,,null,GW/dustpan.jpg,GW/camera.jpg,,,,,,,,,,,,
null,,black_cross(without_color),765123,green,,,,null,GW/dustpan.jpg,GW/camera.jpg,,,,,,,,,,,,
null,,rt_plussign_withcolor,765625,green,,,,null,GW/dustpan.jpg,GW/camera.jpg,,,,,,,,,,,,
1318.199999988079,,rt_thecrossant_black,767175,black_plus_sign,,,,50,,,1,0.9325842696629213,,,,,,,,,,
null,,color_black,767277,black_plus_sign,,,,null,,,,,,,,,,,,,,
null,,learn_phase(without_color),769280,black_plus_sign,,,,null,GW/hat.jpg,GW/soldier.jpg,,,,,,,,,,,,
null,,black_cross(without_color),770290,blue,,,,null,GW/hat.jpg,GW/soldier.jpg,,,,,,,,,,,,
466.10000002384186,,rt_plussign_withcolor,770792,blue,,,,49,GW/hat.jpg,GW/soldier.jpg,,,,,,,,,,,,
null,,rt_thecrossant_black,771790,black_plus_sign,,,,null,,,1,0.9333333333333333,,,,,,,,,,
null,,color_black,771892,black_plus_sign,,,,null,,,,,,,,,,,,,,
null,,learn_phase(without_color),773894,black_plus_sign,,,,null,GW/dustpan.jpg,GW/hat.jpg,,,,,,,,,,,,
null,,black_cross(without_color),774990,blue,,,,null,GW/dustpan.jpg,GW/hat.jpg,,,,,,,,,,,,
null,,rt_plussign_withcolor,775492,blue,,,,null,GW/dustpan.jpg,GW/hat.jpg,,,,,,,,,,,,
1412.300000011921,,rt_thecrossant_black,776400,black_plus_sign,,,,49,,,1,0.9340659340659341,,,,,,,,,,
null,,color_black,776502,black_plus_sign,,,,null,,,,,,,,,,,,,,
null,,learn_phase(without_color),778503,black_plus_sign,,,,null,GW/dustpan.jpg,GW/camera.jpg,,,,,,,,,,,,
null,,black_cross(without_color),779334,green,,,,null,GW/dustpan.jpg,GW/camera.jpg,,,,,,,,,,,,
482.0999999642372,,rt_plussign_withcolor,779836,green,,,,50,GW/dustpan.jpg,GW/camera.jpg,,,,,,,,,,,,
null,,rt_thecrossant_black,781010,black_plus_sign,,,,null,,,1,0.9347826086956522,,,,,,,,,,
null,,color_black,781112,black_plus_sign,,,,null,,,,,,,,,,,,,,
null,,learn_phase(without_color),783116,black_plus_sign,,,,null,GW/snail.jpg,GW/paint.jpg,,,,,,,,,,,,
null,,black_cross(without_color),784007,blue,,,,null,GW/snail.jpg,GW/paint.jpg,,,,,,,,,,,,
null,,rt_plussign_withcolor,784509,blue,,,,null,GW/snail.jpg,GW/paint.jpg,,,,,,,,,,,,
1048.4000000357628,,rt_thecrossant_black,785623,black_plus_sign,,,,49,,,1,0.9354838709677419,,,,,,,,,,
null,,color_black,785725,black_plus_sign,,,,null,,,,,,,,,,,,,,
null,,learn_phase(without_color),787728,black_plus_sign,,,,null,GW/hat.jpg,GW/globe.jpg,,,,,,,,,,,,
null,,black_cross(without_color),788424,blue,,,,null,GW/hat.jpg,GW/globe.jpg,,,,,,,,,,,,
null,,rt_plussign_withcolor,788925,blue,,,,null,GW/hat.jpg,GW/globe.jpg,,,,,,,,,,,,
1002.6000000238419,,rt_thecrossant_black,790234,black_plus_sign,,,,49,,,1,0.9361702127659575,,,,,,,,,,
null,,color_black,790335,black_plus_sign,,,,null,,,,,,,,,,,,,,
null,,learn_phase(without_color),792337,black_plus_sign,,,,null,GW/wheelchair.jpg,GW/barrel.jpg,,,,,,,,,,,,
null,,black_cross(without_color),792786,green,,,,null,GW/wheelchair.jpg,GW/barrel.jpg,,,,,,,,,,,,
null,,rt_plussign_withcolor,793288,green,,,,null,GW/wheelchair.jpg,GW/barrel.jpg,,,,,,,,,,,,
997.8000000119209,,rt_thecrossant_black,794852,black_plus_sign,,,,50,,,1,0.9368421052631579,,,,,,,,,,
null,,color_black,794954,black_plus_sign,,,,null,,,,,,,,,,,,,,
null,,learn_phase(without_color),796956,black_plus_sign,,,,null,GW/hat.jpg,GW/camera.jpg,,,,,,,,,,,,
null,,black_cross(without_color),797476,blue,,,,null,GW/hat.jpg,GW/camera.jpg,,,,,,,,,,,,
null,,rt_plussign_withcolor,797978,blue,,,,null,GW/hat.jpg,GW/camera.jpg,,,,,,,,,,,,
893.1999999880791,,rt_thecrossant_black,799462,black_plus_sign,,,,50,,,0,0.9270833333333334,,,,,,,,,,
null,,color_black,799563,black_plus_sign,,,,null,,,,,,,,,,,,,,
null,,learn_phase(without_color),801566,black_plus_sign,,,,null,GW/gong.jpg,GW/dustpan.jpg,,,,,,,,,,,,
null,,black_cross(without_color),802409,blue,,,,null,GW/gong.jpg,GW/dustpan.jpg,,,,,,,,,,,,
null,,rt_plussign_withcolor,802911,blue,,,,null,GW/gong.jpg,GW/dustpan.jpg,,,,,,,,,,,,
654.9000000357628,,rt_thecrossant_black,804072,black_plus_sign,,,,49,,,1,0.9278350515463918,,,,,,,,,,
null,,color_black,804173,black_plus_sign,,,,null,,,,,,,,,,,,,,
null,,learn_phase(without_color),806187,black_plus_sign,,,,null,GW/hat.jpg,GW/globe.jpg,,,,,,,,,,,,
null,,black_cross(without_color),806687,blue,,,,null,GW/hat.jpg,GW/globe.jpg,,,,,,,,,,,,
369.80000001192093,,rt_plussign_withcolor,807188,blue,,,,49,GW/hat.jpg,GW/globe.jpg,,,,,,,,,,,,
null,,rt_thecrossant_black,808693,black_plus_sign,,,,null,,,1,0.9285714285714286,,,,,,,,,,
null,,color_black,808795,black_plus_sign,,,,null,,,,,,,,,,,,,,
null,,learn_phase(without_color),810800,black_plus_sign,,,,null,GW/gong.jpg,GW/dustpan.jpg,,,,,,,,,,,,
null,,black_cross(without_color),811331,green,,,,null,GW/gong.jpg,GW/dustpan.jpg,,,,,,,,,,,,
null,,rt_plussign_withcolor,811833,green,,,,null,GW/gong.jpg,GW/dustpan.jpg,,,,,,,,,,,,
679.9000000357628,,rt_thecrossant_black,813305,black_plus_sign,,,,50,,,1,0.9292929292929293,,,,,,,,,,
null,,color_black,813407,black_plus_sign,,,,null,,,,,,,,,,,,,,
null,,learn_phase(without_color),815409,black_plus_sign,,,,null,GW/gong.jpg,GW/teeth.jpg,,,,,,,,,,,,
null,,black_cross(without_color),816177,blue,,,,null,GW/gong.jpg,GW/teeth.jpg,,,,,,,,,,,,
411.69999998807907,,rt_plussign_withcolor,816679,blue,,,,49,GW/gong.jpg,GW/teeth.jpg,,,,,,,,,,,,
null,,rt_thecrossant_black,817914,black_plus_sign,,,,null,,,1,0.93,,,,,,,,,,
null,,color_black,818017,black_plus_sign,,,,null,,,,,,,,,,,,,,
null,,learn_phase(without_color),820023,black_plus_sign,,,,null,GW/globe.jpg,GW/jukebox.jpg,,,,,,,,,,,,
null,,black_cross(without_color),820630,green,,,,null,GW/globe.jpg,GW/jukebox.jpg,,,,,,,,,,,,
null,,rt_plussign_withcolor,821132,green,,,,null,GW/globe.jpg,GW/jukebox.jpg,,,,,,,,,,,,
1197.3999999761581,,rt_thecrossant_black,822529,black_plus_sign,,,,50,,,1,0.9306930693069307,,,,,,,,,,
null,,color_black,822631,black_plus_sign,,,,null,,,,,,,,,,,,,,
null,,learn_phase(without_color),824633,black_plus_sign,,,,null,GW/teeth.jpg,GW/basket.jpg,,,,,,,,,,,,
null,,black_cross(without_color),825129,green,,,,null,GW/teeth.jpg,GW/basket.jpg,,,,,,,,,,,,
null,,rt_plussign_withcolor,825631,green,,,,null,GW/teeth.jpg,GW/basket.jpg,,,,,,,,,,,,
829.9000000357628,,rt_thecrossant_black,827139,black_plus_sign,,,,50,,,1,0.9313725490196079,,,,,,,,,,
null,,color_black,827240,black_plus_sign,,,,null,,,,,,,,,,,,,,
null,,learn_phase(without_color),829242,black_plus_sign,,,,null,GW/globe.jpg,GW/camera.jpg,,,,,,,,,,,,
null,,black_cross(without_color),829752,blue,,,,null,GW/globe.jpg,GW/camera.jpg,,,,,,,,,,,,
null,,rt_plussign_withcolor,830254,blue,,,,null,GW/globe.jpg,GW/camera.jpg,,,,,,,,,,,,
702.4000000357628,,rt_thecrossant_black,831749,black_plus_sign,,,,49,,,1,0.9320388349514563,,,,,,,,,,
null,,color_black,831851,black_plus_sign,,,,null,,,,,,,,,,,,,,
null,,learn_phase(without_color),833853,black_plus_sign,,,,null,GW/gong.jpg,GW/teeth.jpg,,,,,,,,,,,,
null,,black_cross(without_color),834854,blue,,,,null,GW/gong.jpg,GW/teeth.jpg,,,,,,,,,,,,
481,,rt_plussign_withcolor,835355,blue,,,,49,GW/gong.jpg,GW/teeth.jpg,,,,,,,,,,,,
null,,rt_thecrossant_black,836358,black_plus_sign,,,,null,,,1,0.9326923076923077,,,,,,,,,,
null,,color_black,836460,black_plus_sign,,,,null,,,,,,,,,,,,,,
null,,learn_phase(without_color),838461,black_plus_sign,,,,null,GW/teeth.jpg,GW/basket.jpg,,,,,,,,,,,,
null,,black_cross(without_color),839491,blue,,,,null,GW/teeth.jpg,GW/basket.jpg,,,,,,,,,,,,
447,,rt_plussign_withcolor,839994,blue,,,,49,GW/teeth.jpg,GW/basket.jpg,,,,,,,,,,,,
null,,rt_thecrossant_black,840967,black_plus_sign,,,,null,,,1,0.9333333333333333,,,,,,,,,,
null,,color_black,841070,black_plus_sign,,,,null,,,,,,,,,,,,,,
null,,learn_phase(without_color),843080,black_plus_sign,,,,null,GW/gong.jpg,GW/dustpan.jpg,,,,,,,,,,,,
null,,black_cross(without_color),843518,green,,,,null,GW/gong.jpg,GW/dustpan.jpg,,,,,,,,,,,,
null,,rt_plussign_withcolor,844020,green,,,,null,GW/gong.jpg,GW/dustpan.jpg,,,,,,,,,,,,
1307.7000000476837,,rt_thecrossant_black,845585,black_plus_sign,,,,50,,,1,0.9339622641509434,,,,,,,,,,
null,,color_black,845689,black_plus_sign,,,,null,,,,,,,,,,,,,,
null,,learn_phase(without_color),847691,black_plus_sign,,,,null,GW/barrel.jpg,GW/gong.jpg,,,,,,,,,,,,
null,,black_cross(without_color),848241,blue,,,,null,GW/barrel.jpg,GW/gong.jpg,,,,,,,,,,,,
null,,rt_plussign_withcolor,848742,blue,,,,null,GW/barrel.jpg,GW/gong.jpg,,,,,,,,,,,,
832.5,,rt_thecrossant_black,850211,black_plus_sign,,,,49,,,1,0.9345794392523364,,,,,,,,,,
null,,color_black,850313,black_plus_sign,,,,null,,,,,,,,,,,,,,
null,,learn_phase(without_color),852315,black_plus_sign,,,,null,GW/dustpan.jpg,GW/camera.jpg,,,,,,,,,,,,
null,,black_cross(without_color),853184,green,,,,null,GW/dustpan.jpg,GW/camera.jpg,,,,,,,,,,,,
null,,rt_plussign_withcolor,853684,green,,,,null,GW/dustpan.jpg,GW/camera.jpg,,,,,,,,,,,,
693.3000000119209,,rt_thecrossant_black,854820,black_plus_sign,,,,50,,,1,0.9351851851851852,,,,,,,,,,
null,,color_black,854924,black_plus_sign,,,,null,,,,,,,,,,,,,,
null,,learn_phase(without_color),856926,black_plus_sign,,,,null,GW/gong.jpg,GW/dustpan.jpg,,,,,,,,,,,,
null,,black_cross(without_color),857642,green,,,,null,GW/gong.jpg,GW/dustpan.jpg,,,,,,,,,,,,
null,,rt_plussign_withcolor,858144,green,,,,null,GW/gong.jpg,GW/dustpan.jpg,,,,,,,,,,,,
1008,,rt_thecrossant_black,859432,black_plus_sign,,,,50,,,1,0.9357798165137615,,,,,,,,,,
null,,color_black,859533,black_plus_sign,,,,null,,,,,,,,,,,,,,
null,,learn_phase(without_color),861535,black_plus_sign,,,,null,GW/hat.jpg,GW/camera.jpg,,,,,,,,,,,,
null,,black_cross(without_color),862570,green,,,,null,GW/hat.jpg,GW/camera.jpg,,,,,,,,,,,,
null,,rt_plussign_withcolor,863072,green,,,,null,GW/hat.jpg,GW/camera.jpg,,,,,,,,,,,,
1020.3999999761581,,rt_thecrossant_black,864040,black_plus_sign,,,,50,,,1,0.9363636363636364,,,,,,,,,,
null,,color_black,864142,black_plus_sign,,,,null,,,,,,,,,,,,,,
null,,learn_phase(without_color),866144,black_plus_sign,,,,null,GW/barrel.jpg,GW/gong.jpg,,,,,,,,,,,,
null,,black_cross(without_color),867188,green,,,,null,GW/barrel.jpg,GW/gong.jpg,,,,,,,,,,,,
null,,rt_plussign_withcolor,867689,green,,,,null,GW/barrel.jpg,GW/gong.jpg,,,,,,,,,,,,
1162.4000000357628,,rt_thecrossant_black,868650,black_plus_sign,,,,50,,,1,0.9369369369369369,,,,,,,,,,
null,,color_black,868752,black_plus_sign,,,,null,,,,,,,,,,,,,,
null,,learn_phase(without_color),870754,black_plus_sign,,,,null,GW/gong.jpg,GW/teeth.jpg,,,,,,,,,,,,
null,,black_cross(without_color),871829,blue,,,,null,GW/gong.jpg,GW/teeth.jpg,,,,,,,,,,,,
null,,rt_plussign_withcolor,872330,blue,,,,null,GW/gong.jpg,GW/teeth.jpg,,,,,,,,,,,,
1161.7999999523163,,rt_thecrossant_black,873260,black_plus_sign,,,,49,,,1,0.9375,,,,,,,,,,
null,,color_black,873362,black_plus_sign,,,,null,,,,,,,,,,,,,,
null,,learn_phase(without_color),875364,black_plus_sign,,,,null,GW/hat.jpg,GW/soldier.jpg,,,,,,,,,,,,
null,,black_cross(without_color),876348,green,,,,null,GW/hat.jpg,GW/soldier.jpg,,,,,,,,,,,,
null,,rt_plussign_withcolor,876850,green,,,,null,GW/hat.jpg,GW/soldier.jpg,,,,,,,,,,,,
1266,,rt_thecrossant_black,877869,black_plus_sign,,,,50,,,1,0.9380530973451328,,,,,,,,,,
null,,color_black,877972,black_plus_sign,,,,null,,,,,,,,,,,,,,
null,,learn_phase(without_color),879974,black_plus_sign,,,,null,GW/wheelchair.jpg,GW/barrel.jpg,,,,,,,,,,,,
null,,black_cross(without_color),880481,blue,,,,null,GW/wheelchair.jpg,GW/barrel.jpg,,,,,,,,,,,,
481.60000002384186,,rt_plussign_withcolor,880984,blue,,,,50,GW/wheelchair.jpg,GW/barrel.jpg,,,,,,,,,,,,
null,,rt_thecrossant_black,882485,black_plus_sign,,,,null,,,0,0.9298245614035088,,,,,,,,,,
null,,color_black,882592,black_plus_sign,,,,null,,,,,,,,,,,,,,
null,,learn_phase(without_color),884595,black_plus_sign,,,,null,GW/snail.jpg,GW/basket.jpg,,,,,,,,,,,,
null,,black_cross(without_color),885544,green,,,,null,GW/snail.jpg,GW/basket.jpg,,,,,,,,,,,,
null,,rt_plussign_withcolor,886046,green,,,,null,GW/snail.jpg,GW/basket.jpg,,,,,,,,,,,,
716.3000000119209,,rt_thecrossant_black,887103,black_plus_sign,,,,50,,,1,0.9304347826086956,,,,,,,,,,
null,,color_black,887205,black_plus_sign,,,,null,,,,,,,,,,,,,,
null,,learn_phase(without_color),889207,black_plus_sign,,,,null,GW/teeth.jpg,GW/basket.jpg,,,,,,,,,,,,
null,,black_cross(without_color),889848,blue,,,,null,GW/teeth.jpg,GW/basket.jpg,,,,,,,,,,,,
null,,rt_plussign_withcolor,890349,blue,,,,null,GW/teeth.jpg,GW/basket.jpg,,,,,,,,,,,,
1200.300000011921,,rt_thecrossant_black,891721,black_plus_sign,,,,49,,,1,0.9310344827586207,,,,,,,,,,
null,,color_black,891822,black_plus_sign,,,,null,,,,,,,,,,,,,,
null,,learn_phase(without_color),893836,black_plus_sign,,,,null,GW/gong.jpg,GW/dustpan.jpg,,,,,,,,,,,,
null,,black_cross(without_color),894544,blue,,,,null,GW/gong.jpg,GW/dustpan.jpg,,,,,,,,,,,,
null,,rt_plussign_withcolor,895045,blue,,,,null,GW/gong.jpg,GW/dustpan.jpg,,,,,,,,,,,,
803.7000000476837,,rt_thecrossant_black,896340,black_plus_sign,,,,49,,,1,0.9316239316239316,,,,,,,,,,
null,,color_black,896442,black_plus_sign,,,,null,,,,,,,,,,,,,,
null,,learn_phase(without_color),898444,black_plus_sign,,,,null,GW/hat.jpg,GW/soldier.jpg,,,,,,,,,,,,
null,,black_cross(without_color),898879,green,,,,null,GW/hat.jpg,GW/soldier.jpg,,,,,,,,,,,,
null,,rt_plussign_withcolor,899381,green,,,,null,GW/hat.jpg,GW/soldier.jpg,,,,,,,,,,,,
900.0999999642372,,rt_thecrossant_black,900949,black_plus_sign,,,,50,,,1,0.9322033898305084,,,,,,,,,,
null,,color_black,901051,black_plus_sign,,,,null,,,,,,,,,,,,,,
null,,learn_phase(without_color),903053,black_plus_sign,,,,null,GW/teeth.jpg,GW/basket.jpg,,,,,,,,,,,,
null,,black_cross(without_color),903776,blue,,,,null,GW/teeth.jpg,GW/basket.jpg,,,,,,,,,,,,
null,,rt_plussign_withcolor,904277,blue,,,,null,GW/teeth.jpg,GW/basket.jpg,,,,,,,,,,,,
594.1999999880791,,rt_thecrossant_black,905559,black_plus_sign,,,,49,,,1,0.9327731092436975,,,,,,,,,,
null,,color_black,905661,black_plus_sign,,,,null,,,,,,,,,,,,,,
null,,learn_phase(without_color),907664,black_plus_sign,,,,null,GW/gong.jpg,GW/dustpan.jpg,,,,,,,,,,,,
null,,black_cross(without_color),908573,green,,,,null,GW/gong.jpg,GW/dustpan.jpg,,,,,,,,,,,,
425.19999998807907,,rt_plussign_withcolor,909074,green,,,,50,GW/gong.jpg,GW/dustpan.jpg,,,,,,,,,,,,
null,,rt_thecrossant_black,910169,black_plus_sign,,,,null,,,1,0.9333333333333333,,,,,,,,,,
null,,color_black,910271,black_plus_sign,,,,null,,,,,,,,,,,,,,
null,,learn_phase(without_color),912274,black_plus_sign,,,,null,GW/globe.jpg,GW/jukebox.jpg,,,,,,,,,,,,
null,,black_cross(without_color),912756,blue,,,,null,GW/globe.jpg,GW/jukebox.jpg,,,,,,,,,,,,
500.60000002384186,,rt_plussign_withcolor,913258,blue,,,,49,GW/globe.jpg,GW/jukebox.jpg,,,,,,,,,,,,
null,,rt_thecrossant_black,914778,black_plus_sign,,,,null,,,1,0.9338842975206612,,,,,,,,,,
null,,color_black,914880,black_plus_sign,,,,null,,,,,,,,,,,,,,
null,,learn_phase(without_color),916881,black_plus_sign,,,,null,GW/teeth.jpg,GW/basket.jpg,,,,,,,,,,,,
null,,black_cross(without_color),917941,green,,,,null,GW/teeth.jpg,GW/basket.jpg,,,,,,,,,,,,
431.69999998807907,,rt_plussign_withcolor,918442,green,,,,50,GW/teeth.jpg,GW/basket.jpg,,,,,,,,,,,,
null,,rt_thecrossant_black,919387,black_plus_sign,,,,null,,,1,0.9344262295081968,,,,,,,,,,
null,,color_black,919488,black_plus_sign,,,,null,,,,,,,,,,,,,,
null,,learn_phase(without_color),921491,black_plus_sign,,,,null,GW/gong.jpg,GW/dustpan.jpg,,,,,,,,,,,,
null,,black_cross(without_color),921981,blue,,,,null,GW/gong.jpg,GW/dustpan.jpg,,,,,,,,,,,,
null,,rt_plussign_withcolor,922484,blue,,,,null,GW/gong.jpg,GW/dustpan.jpg,,,,,,,,,,,,
1291.5,,rt_thecrossant_black,923996,black_plus_sign,,,,49,,,1,0.9349593495934959,,,,,,,,,,
null,,color_black,924098,black_plus_sign,,,,null,,,,,,,,,,,,,,
null,,learn_phase(without_color),926101,black_plus_sign,,,,null,GW/globe.jpg,GW/jukebox.jpg,,,,,,,,,,,,
null,,black_cross(without_color),927010,blue,,,,null,GW/globe.jpg,GW/jukebox.jpg,,,,,,,,,,,,
null,,rt_plussign_withcolor,927513,blue,,,,null,GW/globe.jpg,GW/jukebox.jpg,,,,,,,,,,,,
589.3999999761581,,rt_thecrossant_black,928609,black_plus_sign,,,,49,,,1,0.9354838709677419,,,,,,,,,,
null,,color_black,928712,black_plus_sign,,,,null,,,,,,,,,,,,,,
null,,learn_phase(without_color),930714,black_plus_sign,,,,null,GW/barrel.jpg,GW/snail.jpg,,,,,,,,,,,,
null,,black_cross(without_color),931262,green,,,,null,GW/barrel.jpg,GW/snail.jpg,,,,,,,,,,,,
null,,rt_plussign_withcolor,931764,green,,,,null,GW/barrel.jpg,GW/snail.jpg,,,,,,,,,,,,
1053.5,,rt_thecrossant_black,933220,black_plus_sign,,,,50,,,1,0.936,,,,,,,,,,
null,,color_black,933321,black_plus_sign,,,,null,,,,,,,,,,,,,,
null,,learn_phase(without_color),935323,black_plus_sign,,,,null,GW/gong.jpg,GW/teeth.jpg,,,,,,,,,,,,
null,,black_cross(without_color),935868,blue,,,,null,GW/gong.jpg,GW/teeth.jpg,,,,,,,,,,,,
412.39999997615814,,rt_plussign_withcolor,936369,blue,,,,49,GW/gong.jpg,GW/teeth.jpg,,,,,,,,,,,,
null,,rt_thecrossant_black,937829,black_plus_sign,,,,null,,,1,0.9365079365079365,,,,,,,,,,
null,,color_black,937931,black_plus_sign,,,,null,,,,,,,,,,,,,,
null,,learn_phase(without_color),939933,black_plus_sign,,,,null,GW/camera.jpg,GW/teeth.jpg,,,,,,,,,,,,
null,,black_cross(without_color),940871,blue,,,,null,GW/camera.jpg,GW/teeth.jpg,,,,,,,,,,,,
null,,rt_plussign_withcolor,941385,blue,,,,null,GW/camera.jpg,GW/teeth.jpg,,,,,,,,,,,,
1146.9000000357628,,rt_thecrossant_black,942456,black_plus_sign,,,,49,,,1,0.937007874015748,,,,,,,,,,
null,,color_black,942558,black_plus_sign,,,,null,,,,,,,,,,,,,,
30683.30000001192,,intro_1,973243,instruct,,0,Start,,,,,,,,,,,,,,,
1958.199999988079,,directmemory_phase,975203,GW/hat.jpg,,,,49,,,0,0,GW/basket.jpg,GW/jukebox.jpg,GW/soldier.jpg,GW/soldier.jpg,GW/jukebox.jpg,GW/basket.jpg,0.5,closer,,
null,,html-keyboard-response,976204,<p></p>,,,,null,,,,,,,,,,,,,,
2007.800000011921,,directmemory_phase,978213,GW/camera.jpg,,,,50,,,0,0,GW/globe.jpg,GW/snail.jpg,GW/gong.jpg,GW/globe.jpg,GW/gong.jpg,GW/snail.jpg,0.5,closer,,
null,,html-keyboard-response,979216,<p></p>,,,,null,,,,,,,,,,,,,,
3523.100000023842,,directmemory_phase,982740,GW/hat.jpg,,,,49,,,0,0,GW/snail.jpg,GW/jukebox.jpg,GW/dustpan.jpg,GW/dustpan.jpg,GW/jukebox.jpg,GW/snail.jpg,0.5,closer,,
null,,html-keyboard-response,983742,<p></p>,,,,null,,,,,,,,,,,,,,
2032.300000011921,,directmemory_phase,985775,GW/teeth.jpg,,,,51,,,1,0.25,GW/wheelchair.jpg,GW/hat.jpg,GW/basket.jpg,GW/basket.jpg,GW/hat.jpg,GW/wheelchair.jpg,1,,,
null,,html-keyboard-response,986777,<p></p>,,,,null,,,,,,,,,,,,,,
1676.0999999642372,,directmemory_phase,988454,GW/hat.jpg,,,,50,,,0,0.2,GW/basket.jpg,GW/teeth.jpg,GW/globe.jpg,GW/globe.jpg,GW/teeth.jpg,GW/basket.jpg,0.5,closer,,
null,,html-keyboard-response,989457,<p></p>,,,,null,,,,,,,,,,,,,,
1706.5999999642372,,directmemory_phase,991164,GW/teeth.jpg,,,,49,,,1,0.3333333333333333,GW/camera.jpg,GW/wheelchair.jpg,GW/dustpan.jpg,GW/camera.jpg,GW/dustpan.jpg,GW/wheelchair.jpg,1,,,
null,,html-keyboard-response,992166,<p></p>,,,,null,,,,,,,,,,,,,,
1702.9000000357628,,directmemory_phase,993870,GW/globe.jpg,,,,51,,,0,0.2857142857142857,GW/soldier.jpg,GW/jukebox.jpg,GW/gong.jpg,GW/jukebox.jpg,GW/soldier.jpg,GW/gong.jpg,0.5,closer,,
null,,html-keyboard-response,994871,<p></p>,,,,null,,,,,,,,,,,,,,
1843.9000000357628,,directmemory_phase,996716,GW/camera.jpg,,,,51,,,1,0.375,GW/paint.jpg,GW/soldier.jpg,GW/hat.jpg,GW/hat.jpg,GW/soldier.jpg,GW/paint.jpg,1,,,
null,,html-keyboard-response,997718,<p></p>,,,,null,,,,,,,,,,,,,,
2277.100000023842,,directmemory_phase,999996,GW/snail.jpg,,,,50,,,0,0.3333333333333333,GW/paint.jpg,GW/camera.jpg,GW/gong.jpg,GW/paint.jpg,GW/gong.jpg,GW/camera.jpg,0.5,closer,,
null,,html-keyboard-response,1001003,<p></p>,,,,null,,,,,,,,,,,,,,
2341.399999976158,,directmemory_phase,1003345,GW/dustpan.jpg,,,,51,,,0,0.3,GW/teeth.jpg,GW/gong.jpg,GW/snail.jpg,GW/gong.jpg,GW/teeth.jpg,GW/snail.jpg,0.5,closer,,
null,,html-keyboard-response,1004347,<p></p>,,,,null,,,,,,,,,,,,,,
2542.199999988079,,directmemory_phase,1006890,GW/barrel.jpg,,,,49,,,0,0.2727272727272727,GW/teeth.jpg,GW/wheelchair.jpg,GW/globe.jpg,GW/wheelchair.jpg,GW/teeth.jpg,GW/globe.jpg,0.5,closer,,
null,,html-keyboard-response,1007892,<p></p>,,,,null,,,,,,,,,,,,,,
2426.899999976158,,directmemory_phase,1010320,GW/camera.jpg,,,,50,,,0,0.25,GW/dustpan.jpg,GW/snail.jpg,GW/gong.jpg,GW/dustpan.jpg,GW/gong.jpg,GW/snail.jpg,0.5,closer,,
null,,html-keyboard-response,1011322,<p></p>,,,,null,,,,,,,,,,,,,,
1932.199999988079,,directmemory_phase,1013256,GW/jukebox.jpg,,,,49,,,1,0.3076923076923077,GW/globe.jpg,GW/dustpan.jpg,GW/camera.jpg,GW/globe.jpg,GW/camera.jpg,GW/dustpan.jpg,1,,,
null,,html-keyboard-response,1014258,<p></p>,,,,null,,,,,,,,,,,,,,
2629.800000011921,,directmemory_phase,1016888,GW/paint.jpg,,,,49,,,1,0.35714285714285715,GW/snail.jpg,GW/teeth.jpg,GW/basket.jpg,GW/snail.jpg,GW/basket.jpg,GW/teeth.jpg,1,,,
null,,html-keyboard-response,1017890,<p></p>,,,,null,,,,,,,,,,,,,,
1915.9000000357628,,directmemory_phase,1019807,GW/globe.jpg,,,,50,,,0,0.3333333333333333,GW/hat.jpg,GW/basket.jpg,GW/teeth.jpg,GW/hat.jpg,GW/teeth.jpg,GW/basket.jpg,0.5,closer,,
null,,html-keyboard-response,1020809,<p></p>,,,,null,,,,,,,,,,,,,,
1911.699999988079,,directmemory_phase,1022722,GW/wheelchair.jpg,,,,49,,,1,0.375,GW/barrel.jpg,GW/camera.jpg,GW/snail.jpg,GW/barrel.jpg,GW/snail.jpg,GW/camera.jpg,1,,,
null,,html-keyboard-response,1023734,<p></p>,,,,null,,,,,,,,,,,,,,
1905,,directmemory_phase,1025640,GW/gong.jpg,,,,50,,,0,0.35294117647058826,GW/globe.jpg,GW/basket.jpg,GW/teeth.jpg,GW/teeth.jpg,GW/basket.jpg,GW/globe.jpg,0.5,closer,,
null,,html-keyboard-response,1026642,<p></p>,,,,null,,,,,,,,,,,,,,
2564.800000011921,,directmemory_phase,1029208,GW/hat.jpg,,,,49,,,1,0.3888888888888889,GW/camera.jpg,GW/barrel.jpg,GW/gong.jpg,GW/camera.jpg,GW/gong.jpg,GW/barrel.jpg,1,,,
null,,html-keyboard-response,1030210,<p></p>,,,,null,,,,,,,,,,,,,,
1841.199999988079,,directmemory_phase,1032052,GW/basket.jpg,,,,49,,,1,0.42105263157894735,GW/teeth.jpg,GW/dustpan.jpg,GW/paint.jpg,GW/teeth.jpg,GW/paint.jpg,GW/dustpan.jpg,1,,,
null,,html-keyboard-response,1033054,<p></p>,,,,null,,,,,,,,,,,,,,
1737,,directmemory_phase,1034792,GW/barrel.jpg,,,,50,,,0,0.4,GW/gong.jpg,GW/hat.jpg,GW/teeth.jpg,GW/gong.jpg,GW/teeth.jpg,GW/hat.jpg,0.5,closer,,
null,,html-keyboard-response,1035794,<p></p>,,,,null,,,,,,,,,,,,,,
1446.8999999761581,,directmemory_phase,1037242,GW/camera.jpg,,,,50,,,1,0.42857142857142855,GW/gong.jpg,GW/teeth.jpg,GW/snail.jpg,GW/teeth.jpg,GW/gong.jpg,GW/snail.jpg,1,,,
null,,html-keyboard-response,1038244,<p></p>,,,,null,,,,,,,,,,,,,,
2343.300000011921,,directmemory_phase,1040588,GW/snail.jpg,,,,49,,,0,0.4090909090909091,GW/hat.jpg,GW/teeth.jpg,GW/barrel.jpg,GW/barrel.jpg,GW/teeth.jpg,GW/hat.jpg,0.5,closer,,
null,,html-keyboard-response,1041598,<p></p>,,,,null,,,,,,,,,,,,,,
1607.199999988079,,directmemory_phase,1043206,GW/dustpan.jpg,,,,50,,,0,0.391304347826087,GW/paint.jpg,GW/teeth.jpg,GW/camera.jpg,GW/camera.jpg,GW/teeth.jpg,GW/paint.jpg,0.5,closer,,
null,,html-keyboard-response,1044208,<p></p>,,,,null,,,,,,,,,,,,,,
1829.699999988079,,directmemory_phase,1046039,GW/gong.jpg,,,,51,,,1,0.4166666666666667,GW/globe.jpg,GW/camera.jpg,GW/barrel.jpg,GW/barrel.jpg,GW/camera.jpg,GW/globe.jpg,1,,,
null,,html-keyboard-response,1047041,<p></p>,,,,null,,,,,,,,,,,,,,
1873.5,,directmemory_phase,1048915,GW/soldier.jpg,,,,50,,,0,0.4,GW/gong.jpg,GW/dustpan.jpg,GW/hat.jpg,GW/hat.jpg,GW/dustpan.jpg,GW/gong.jpg,0.5,closer,,
null,,html-keyboard-response,1049916,<p></p>,,,,null,,,,,,,,,,,,,,
1390.300000011921,,directmemory_phase,1051308,GW/gong.jpg,,,,49,,,1,0.4230769230769231,GW/dustpan.jpg,GW/paint.jpg,GW/camera.jpg,GW/dustpan.jpg,GW/camera.jpg,GW/paint.jpg,1,,,
null,,html-keyboard-response,1052309,<p></p>,,,,null,,,,,,,,,,,,,,
1858.300000011921,,directmemory_phase,1054169,GW/snail.jpg,,,,49,,,1,0.4444444444444444,GW/basket.jpg,GW/globe.jpg,GW/teeth.jpg,GW/basket.jpg,GW/teeth.jpg,GW/globe.jpg,1,,,
null,,html-keyboard-response,1055172,<p></p>,,,,null,,,,,,,,,,,,,,
2082.199999988079,,directmemory_phase,1057255,GW/teeth.jpg,,,,50,,,0,0.42857142857142855,GW/wheelchair.jpg,GW/barrel.jpg,GW/gong.jpg,GW/gong.jpg,GW/barrel.jpg,GW/wheelchair.jpg,0.5,closer,,
null,,html-keyboard-response,1058258,<p></p>,,,,null,,,,,,,,,,,,,,
1888.8999999761581,,directmemory_phase,1060148,GW/basket.jpg,,,,49,,,1,0.4482758620689655,GW/snail.jpg,GW/jukebox.jpg,GW/barrel.jpg,GW/snail.jpg,GW/barrel.jpg,GW/jukebox.jpg,1,,,
null,,html-keyboard-response,1061151,<p></p>,,,,null,,,,,,,,,,,,,,
1605.4000000357628,,directmemory_phase,1062757,GW/dustpan.jpg,,,,51,,,1,0.4666666666666667,GW/wheelchair.jpg,GW/soldier.jpg,GW/hat.jpg,GW/hat.jpg,GW/soldier.jpg,GW/wheelchair.jpg,1,,,
null,,html-keyboard-response,1063774,<p></p>,,,,null,,,,,,,,,,,,,,
1511.7000000476837,,directmemory_phase,1065287,GW/barrel.jpg,,,,50,,,0,0.45161290322580644,GW/camera.jpg,GW/teeth.jpg,GW/snail.jpg,GW/snail.jpg,GW/teeth.jpg,GW/camera.jpg,0.5,closer,,
null,,html-keyboard-response,1066289,<p></p>,,,,null,,,,,,,,,,,,,,
1677.2000000476837,,directmemory_phase,1067967,GW/globe.jpg,,,,50,,,0,0.4375,GW/snail.jpg,GW/soldier.jpg,GW/camera.jpg,GW/camera.jpg,GW/soldier.jpg,GW/snail.jpg,0.5,closer,,
null,,html-keyboard-response,1068969,<p></p>,,,,null,,,,,,,,,,,,,,
33333.10000002384,,intro_1,1102303,instruct,,0,,,,,,,,,,,,,,,,
9220.800000011921,,intro_2,1111525,instruct,,1,Next,,,,,,,,,,,,,,,
2539.099999964237,,intro_3,1114065,instruct,,1,Next,,,,,,,,,,,,,,,
2548.5,,intro_4,1116615,instruct,,1,Next,,,,,,,,,,,,,,,
22692.69999998808,,intro_5,1139309,instruct,,1,Next,,,,,,,,,,,,,,,
14482.300000011921,,intro_6,1153793,instruct,,1,Next,,,,,,,,,,,,,,,
6639.900000035763,,intro_7,1160434,instruct,,1,Next,,,,,,,,,,,,,,,
13920.300000011921,,intro_8,1174357,instruct,,1,Next,,,,,,,,,,,,,,,
1081.800000011921,,shortestpath_phase,1175440,GW/barrel.jpg,,,,50,GW/paint.jpg,GW/globe.jpg,0,0,,,,GW/paint.jpg,,,,,Two Edge Diff,Two Edge Four Edge
null,,html-keyboard-response,1176442,<p></p>,,,,null,,,,,,,,,,,,,,
1110.5999999642372,,shortestpath_phase,1177554,GW/basket.jpg,,,,49,GW/soldier.jpg,GW/wheelchair.jpg,0,0,,,,GW/wheelchair.jpg,,,,,One Edge Diff,Three Edge Four Edge
null,,html-keyboard-response,1178556,<p></p>,,,,null,,,,,,,,,,,,,,
1136,,shortestpath_phase,1179693,GW/jukebox.jpg,,,,50,GW/gong.jpg,GW/soldier.jpg,1,0.3333333333333333,,,,GW/soldier.jpg,,,,,One Edge Diff,Three Edge Four Edge
null,,html-keyboard-response,1180694,<p></p>,,,,null,,,,,,,,,,,,,,
1245,,shortestpath_phase,1181940,GW/paint.jpg,,,,49,GW/basket.jpg,GW/jukebox.jpg,1,0.5,,,,GW/basket.jpg,,,,,Four Edge Diff,Two Edge Six Edge
null,,html-keyboard-response,1182942,<p></p>,,,,null,,,,,,,,,,,,,,
1116,,shortestpath_phase,1184059,GW/camera.jpg,,,,50,GW/wheelchair.jpg,GW/barrel.jpg,1,0.6,,,,GW/barrel.jpg,,,,,One Edge Diff,Three Edge Four Edge
null,,html-keyboard-response,1185061,<p></p>,,,,null,,,,,,,,,,,,,,
1377.300000011921,,shortestpath_phase,1186439,GW/paint.jpg,,,,49,GW/soldier.jpg,GW/globe.jpg,0,0.5,,,,GW/globe.jpg,,,,,One Edge Diff,Five Edge Six Edge
null,,html-keyboard-response,1187441,<p></p>,,,,null,,,,,,,,,,,,,,
1050.4000000357628,,shortestpath_phase,1188493,GW/wheelchair.jpg,,,,49,GW/snail.jpg,GW/soldier.jpg,1,0.5714285714285714,,,,GW/snail.jpg,,,,,Three Edge Diff,Two Edge Five Edge
null,,html-keyboard-response,1189494,<p></p>,,,,null,,,,,,,,,,,,,,
1353.2999999523163,,shortestpath_phase,1190848,GW/globe.jpg,,,,50,GW/paint.jpg,GW/dustpan.jpg,1,0.625,,,,GW/dustpan.jpg,,,,,Three Edge Diff,Three Edge Six Edge
null,,html-keyboard-response,1191850,<p></p>,,,,null,,,,,,,,,,,,,,
1301.5,,shortestpath_phase,1193153,GW/paint.jpg,,,,50,GW/jukebox.jpg,GW/barrel.jpg,1,0.6666666666666666,,,,GW/barrel.jpg,,,,,Four Edge Diff,Two Edge Six Edge
null,,html-keyboard-response,1194155,<p></p>,,,,null,,,,,,,,,,,,,,
1369.5,,shortestpath_phase,1195525,GW/snail.jpg,,,,50,GW/soldier.jpg,GW/wheelchair.jpg,1,0.7,,,,GW/wheelchair.jpg,,,,,Three Edge Diff,Three Edge Six Edge
null,,html-keyboard-response,1196528,<p></p>,,,,null,,,,,,,,,,,,,,
1236.6000000238419,,shortestpath_phase,1197765,GW/paint.jpg,,,,49,GW/jukebox.jpg,GW/dustpan.jpg,0,0.6363636363636364,,,,GW/dustpan.jpg,,,,,Two Edge Diff,Four Edge Six Edge
null,,html-keyboard-response,1198767,<p></p>,,,,null,,,,,,,,,,,,,,
1250.699999988079,,shortestpath_phase,1200019,GW/gong.jpg,,,,50,GW/basket.jpg,GW/globe.jpg,0,0.5833333333333334,,,,GW/basket.jpg,,,,,One Edge Diff,Two Edge Three Edge
null,,html-keyboard-response,1201025,<p></p>,,,,null,,,,,,,,,,,,,,
1315.3999999761581,,shortestpath_phase,1202342,GW/snail.jpg,,,,49,GW/soldier.jpg,GW/dustpan.jpg,0,0.5384615384615384,,,,GW/dustpan.jpg,,,,,Two Edge Diff,Three Edge Five Edge
null,,html-keyboard-response,1203344,<p></p>,,,,null,,,,,,,,,,,,,,
1424,,shortestpath_phase,1204769,GW/jukebox.jpg,,,,50,GW/paint.jpg,GW/gong.jpg,1,0.5714285714285714,,,,GW/gong.jpg,,,,,Two Edge Diff,Four Edge Six Edge
null,,html-keyboard-response,1205771,<p></p>,,,,null,,,,,,,,,,,,,,
1754.1000000238419,,shortestpath_phase,1207526,GW/snail.jpg,,,,49,GW/soldier.jpg,GW/teeth.jpg,0,0.5333333333333333,,,,GW/teeth.jpg,,,,,Three Edge Diff,Two Edge Five Edge
null,,html-keyboard-response,1208529,<p></p>,,,,null,,,,,,,,,,,,,,
1582.199999988079,,shortestpath_phase,1210112,GW/globe.jpg,,,,49,GW/soldier.jpg,GW/paint.jpg,1,0.5625,,,,GW/soldier.jpg,,,,,Three Edge Diff,Three Edge Six Edge
null,,html-keyboard-response,1211114,<p></p>,,,,null,,,,,,,,,,,,,,
1352.699999988079,,shortestpath_phase,1212468,GW/jukebox.jpg,,,,49,GW/teeth.jpg,GW/barrel.jpg,1,0.5882352941176471,,,,GW/teeth.jpg,,,,,Two Edge Diff,Three Edge Five Edge
null,,html-keyboard-response,1213471,<p></p>,,,,null,,,,,,,,,,,,,,
1318.699999988079,,shortestpath_phase,1214791,GW/paint.jpg,,,,49,GW/camera.jpg,GW/gong.jpg,0,0.5555555555555556,,,,GW/gong.jpg,,,,,One Edge Diff,Three Edge Four Edge
null,,html-keyboard-response,1215792,<p></p>,,,,null,,,,,,,,,,,,,,
1183.699999988079,,shortestpath_phase,1216976,GW/barrel.jpg,,,,50,GW/soldier.jpg,GW/hat.jpg,1,0.5789473684210527,,,,GW/hat.jpg,,,,,One Edge Diff,Three Edge Four Edge
null,,html-keyboard-response,1217978,<p></p>,,,,null,,,,,,,,,,,,,,
1320.7999999523163,,shortestpath_phase,1219300,GW/jukebox.jpg,,,,49,GW/barrel.jpg,GW/gong.jpg,0,0.55,,,,GW/gong.jpg,,,,,One Edge Diff,Four Edge Five Edge
null,,html-keyboard-response,1220317,<p></p>,,,,null,,,,,,,,,,,,,,
1469.5,,shortestpath_phase,1221787,GW/snail.jpg,,,,50,GW/hat.jpg,GW/soldier.jpg,0,0.5238095238095238,,,,GW/hat.jpg,,,,,One Edge Diff,Four Edge Five Edge
null,,html-keyboard-response,1222790,<p></p>,,,,null,,,,,,,,,,,,,,
1571.199999988079,,shortestpath_phase,1224362,GW/globe.jpg,,,,50,GW/barrel.jpg,GW/teeth.jpg,1,0.5454545454545454,,,,GW/teeth.jpg,,,,,Two Edge Diff,Two Edge Four Edge
null,,html-keyboard-response,1225364,<p></p>,,,,null,,,,,,,,,,,,,,
1427.0999999642372,,shortestpath_phase,1226792,GW/gong.jpg,,,,49,GW/globe.jpg,GW/wheelchair.jpg,0,0.5217391304347826,,,,GW/wheelchair.jpg,,,,,One Edge Diff,Two Edge Three Edge
null,,html-keyboard-response,1227794,<p></p>,,,,null,,,,,,,,,,,,,,
1353.3999999761581,,shortestpath_phase,1229148,GW/jukebox.jpg,,,,50,GW/dustpan.jpg,GW/barrel.jpg,0,0.5,,,,GW/dustpan.jpg,,,,,Two Edge Diff,Three Edge Five Edge
null,,html-keyboard-response,1230151,<p></p>,,,,null,,,,,,,,,,,,,,
1280.300000011921,,shortestpath_phase,1231432,GW/wheelchair.jpg,,,,49,GW/dustpan.jpg,GW/gong.jpg,0,0.48,,,,GW/gong.jpg,,,,,One Edge Diff,Two Edge Three Edge
null,,html-keyboard-response,1232434,<p></p>,,,,null,,,,,,,,,,,,,,
1493.9000000357628,,shortestpath_phase,1233929,GW/soldier.jpg,,,,49,GW/basket.jpg,GW/globe.jpg,0,0.46153846153846156,,,,GW/globe.jpg,,,,,Two Edge Diff,Two Edge Four Edge
null,,html-keyboard-response,1234931,<p></p>,,,,null,,,,,,,,,,,,,,
1930.800000011921,,shortestpath_phase,1236863,GW/hat.jpg,,,,50,GW/paint.jpg,GW/wheelchair.jpg,1,0.48148148148148145,,,,GW/wheelchair.jpg,,,,,One Edge Diff,Four Edge Five Edge
null,,html-keyboard-response,1237866,<p></p>,,,,null,,,,,,,,,,,,,,
1071.8999999761581,,shortestpath_phase,1238939,GW/paint.jpg,,,,49,GW/basket.jpg,GW/soldier.jpg,1,0.5,,,,GW/basket.jpg,,,,,Four Edge Diff,Two Edge Six Edge
null,,html-keyboard-response,1239941,<p></p>,,,,null,,,,,,,,,,,,,,
442.89999997615814,,shortestpath_phase,1240386,GW/soldier.jpg,,,,49,GW/wheelchair.jpg,GW/paint.jpg,1,0.5172413793103449,,,,GW/wheelchair.jpg,,,,,One Edge Diff,Five Edge Six Edge
null,,html-keyboard-response,1241388,<p></p>,,,,null,,,,,,,,,,,,,,
1638.300000011921,,shortestpath_phase,1243027,GW/barrel.jpg,,,,49,GW/basket.jpg,GW/jukebox.jpg,1,0.5333333333333333,,,,GW/basket.jpg,,,,,Three Edge Diff,Three Edge Six Edge
null,,html-keyboard-response,1244030,<p></p>,,,,null,,,,,,,,,,,,,,
1175.3999999761581,,shortestpath_phase,1245206,GW/soldier.jpg,,,,50,GW/wheelchair.jpg,GW/camera.jpg,1,0.5483870967741935,,,,GW/camera.jpg,,,,,Three Edge Diff,Two Edge Five Edge
null,,html-keyboard-response,1246208,<p></p>,,,,null,,,,,,,,,,,,,,
1478.5,,shortestpath_phase,1247688,GW/jukebox.jpg,,,,50,GW/wheelchair.jpg,GW/barrel.jpg,1,0.5625,,,,GW/barrel.jpg,,,,,One Edge Diff,Five Edge Six Edge
null,,html-keyboard-response,1248691,<p></p>,,,,null,,,,,,,,,,,,,,
1229.8999999761581,,shortestpath_phase,1249923,GW/soldier.jpg,,,,50,GW/dustpan.jpg,GW/paint.jpg,0,0.5454545454545454,,,,GW/dustpan.jpg,,,,,Four Edge Diff,Two Edge Six Edge
null,,html-keyboard-response,1250925,<p></p>,,,,null,,,,,,,,,,,,,,
1741.800000011921,,shortestpath_phase,1252668,GW/paint.jpg,,,,49,GW/hat.jpg,GW/barrel.jpg,0,0.5294117647058824,,,,GW/barrel.jpg,,,,,Three Edge Diff,Two Edge Five Edge
null,,html-keyboard-response,1253671,<p></p>,,,,null,,,,,,,,,,,,,,
1378.2000000476837,,shortestpath_phase,1255050,GW/soldier.jpg,,,,50,GW/snail.jpg,GW/gong.jpg,1,0.5428571428571428,,,,GW/gong.jpg,,,,,Two Edge Diff,Three Edge Five Edge
null,,html-keyboard-response,1256052,<p></p>,,,,null,,,,,,,,,,,,,,
1650,,shortestpath_phase,1257703,GW/snail.jpg,,,,49,GW/globe.jpg,GW/soldier.jpg,1,0.5555555555555556,,,,GW/globe.jpg,,,,,One Edge Diff,Four Edge Five Edge
null,,html-keyboard-response,1258705,<p></p>,,,,null,,,,,,,,,,,,,,
1519.5,,shortestpath_phase,1260225,GW/barrel.jpg,,,,49,GW/basket.jpg,GW/camera.jpg,1,0.5675675675675675,,,,GW/basket.jpg,,,,,One Edge Diff,Two Edge Three Edge
null,,html-keyboard-response,1261230,<p></p>,,,,null,,,,,,,,,,,,,,
1464.1000000238419,,shortestpath_phase,1262695,GW/wheelchair.jpg,,,,49,GW/snail.jpg,GW/jukebox.jpg,1,0.5789473684210527,,,,GW/snail.jpg,,,,,Four Edge Diff,Two Edge Six Edge
null,,html-keyboard-response,1263696,<p></p>,,,,null,,,,,,,,,,,,,,
1324.800000011921,,shortestpath_phase,1265022,GW/globe.jpg,,,,49,GW/soldier.jpg,GW/snail.jpg,1,0.5897435897435898,,,,GW/soldier.jpg,,,,,Two Edge Diff,Two Edge Four Edge
null,,html-keyboard-response,1266025,<p></p>,,,,null,,,,,,,,,,,,,,
1850.1000000238419,,shortestpath_phase,1267876,GW/snail.jpg,,,,49,GW/teeth.jpg,GW/soldier.jpg,1,0.6,,,,GW/teeth.jpg,,,,,Three Edge Diff,Three Edge Six Edge
null,,html-keyboard-response,1268878,<p></p>,,,,null,,,,,,,,,,,,,,
1651.6000000238419,,shortestpath_phase,1270531,GW/wheelchair.jpg,,,,49,GW/basket.jpg,GW/gong.jpg,0,0.5853658536585366,,,,GW/gong.jpg,,,,,One Edge Diff,Two Edge Three Edge
null,,html-keyboard-response,1271534,<p></p>,,,,null,,,,,,,,,,,,,,
2215.5,,shortestpath_phase,1273750,GW/jukebox.jpg,,,,50,GW/paint.jpg,GW/camera.jpg,1,0.5952380952380952,,,,GW/camera.jpg,,,,,Four Edge Diff,Two Edge Six Edge
null,,html-keyboard-response,1274753,<p></p>,,,,null,,,,,,,,,,,,,,
2221.2000000476837,,shortestpath_phase,1276975,GW/snail.jpg,,,,49,GW/gong.jpg,GW/hat.jpg,1,0.6046511627906976,,,,GW/gong.jpg,,,,,Two Edge Diff,Two Edge Four Edge
null,,html-keyboard-response,1277978,<p></p>,,,,null,,,,,,,,,,,,,,
2043,,shortestpath_phase,1280022,GW/soldier.jpg,,,,49,GW/gong.jpg,GW/dustpan.jpg,0,0.5909090909090909,,,,GW/dustpan.jpg,,,,,One Edge Diff,Two Edge Three Edge
null,,html-keyboard-response,1281024,<p></p>,,,,null,,,,,,,,,,,,,,
2486.400000035763,,shortestpath_phase,1283512,GW/globe.jpg,,,,50,GW/paint.jpg,GW/barrel.jpg,1,0.6,,,,GW/barrel.jpg,,,,,One Edge Diff,Four Edge Five Edge
null,,html-keyboard-response,1284513,<p></p>,,,,null,,,,,,,,,,,,,,
1474.9000000357628,,shortestpath_phase,1285989,GW/hat.jpg,,,,49,GW/paint.jpg,GW/gong.jpg,0,0.5869565217391305,,,,GW/gong.jpg,,,,,Three Edge Diff,Three Edge Six Edge
null,,html-keyboard-response,1286991,<p></p>,,,,null,,,,,,,,,,,,,,
1211.699999988079,,shortestpath_phase,1288204,GW/wheelchair.jpg,,,,50,GW/globe.jpg,GW/snail.jpg,1,0.5957446808510638,,,,GW/snail.jpg,,,,,Three Edge Diff,Two Edge Five Edge
null,,html-keyboard-response,1289206,<p></p>,,,,null,,,,,,,,,,,,,,
2800.900000035763,,shortestpath_phase,1292008,GW/camera.jpg,,,,50,GW/paint.jpg,GW/gong.jpg,1,0.6041666666666666,,,,GW/gong.jpg,,,,,Two Edge Diff,Two Edge Four Edge
null,,html-keyboard-response,1293010,<p></p>,,,,null,,,,,,,,,,,,,,
1467.800000011921,,shortestpath_phase,1294478,GW/barrel.jpg,,,,49,GW/jukebox.jpg,GW/paint.jpg,0,0.5918367346938775,,,,GW/paint.jpg,,,,,Three Edge Diff,Two Edge Five Edge
null,,html-keyboard-response,1295481,<p></p>,,,,null,,,,,,,,,,,,,,
1408.800000011921,,shortestpath_phase,1296891,GW/jukebox.jpg,,,,49,GW/gong.jpg,GW/wheelchair.jpg,1,0.6,,,,GW/gong.jpg,,,,,Two Edge Diff,Four Edge Six Edge
null,,html-keyboard-response,1297893,<p></p>,,,,null,,,,,,,,,,,,,,
1597.3999999761581,,shortestpath_phase,1299491,GW/wheelchair.jpg,,,,49,GW/soldier.jpg,GW/hat.jpg,0,0.5882352941176471,,,,GW/hat.jpg,,,,,One Edge Diff,Four Edge Five Edge
null,,html-keyboard-response,1300493,<p></p>,,,,null,,,,,,,,,,,,,,
2938.800000011921,,shortestpath_phase,1303433,GW/soldier.jpg,,,,50,GW/snail.jpg,GW/barrel.jpg,1,0.5961538461538461,,,,GW/barrel.jpg,,,,,One Edge Diff,Four Edge Five Edge
null,,html-keyboard-response,1304436,<p></p>,,,,null,,,,,,,,,,,,,,
1733.199999988079,,shortestpath_phase,1306170,GW/snail.jpg,,,,49,GW/jukebox.jpg,GW/dustpan.jpg,0,0.5849056603773585,,,,GW/dustpan.jpg,,,,,Two Edge Diff,Three Edge Five Edge
null,,html-keyboard-response,1307173,<p></p>,,,,null,,,,,,,,,,,,,,
2177.800000011921,,shortestpath_phase,1309352,GW/paint.jpg,,,,49,GW/globe.jpg,GW/jukebox.jpg,1,0.5925925925925926,,,,GW/globe.jpg,,,,,One Edge Diff,Five Edge Six Edge
null,,html-keyboard-response,1310354,<p></p>,,,,null,,,,,,,,,,,,,,
1988.6000000238419,,shortestpath_phase,1312343,GW/jukebox.jpg,,,,50,GW/basket.jpg,GW/paint.jpg,0,0.5818181818181818,,,,GW/basket.jpg,,,,,Two Edge Diff,Four Edge Six Edge
null,,html-keyboard-response,1313345,<p></p>,,,,null,,,,,,,,,,,,,,
2571.100000023842,,shortestpath_phase,1315917,GW/wheelchair.jpg,,,,50,GW/paint.jpg,GW/hat.jpg,0,0.5714285714285714,,,,GW/paint.jpg,,,,,One Edge Diff,Three Edge Four Edge
null,,html-keyboard-response,1316919,<p></p>,,,,null,,,,,,,,,,,,,,
862.1999999880791,,shortestpath_phase,1317782,GW/globe.jpg,,,,49,GW/teeth.jpg,GW/paint.jpg,1,0.5789473684210527,,,,GW/teeth.jpg,,,,,Three Edge Diff,Two Edge Five Edge
null,,html-keyboard-response,1318784,<p></p>,,,,null,,,,,,,,,,,,,,
1913.0999999642372,,shortestpath_phase,1320698,GW/paint.jpg,,,,49,GW/hat.jpg,GW/basket.jpg,0,0.5689655172413793,,,,GW/basket.jpg,,,,,Three Edge Diff,Three Edge Six Edge
null,,html-keyboard-response,1321706,<p></p>,,,,null,,,,,,,,,,,,,,
1997.5,,shortestpath_phase,1323707,GW/gong.jpg,,,,50,GW/camera.jpg,GW/soldier.jpg,0,0.559322033898305,,,,GW/camera.jpg,,,,,One Edge Diff,Two Edge Three Edge
null,,html-keyboard-response,1324709,<p></p>,,,,null,,,,,,,,,,,,,,
1689.9000000357628,,shortestpath_phase,1326400,GW/wheelchair.jpg,,,,49,GW/globe.jpg,GW/basket.jpg,0,0.55,,,,GW/basket.jpg,,,,,Two Edge Diff,Three Edge Five Edge
null,,html-keyboard-response,1327403,<p></p>,,,,null,,,,,,,,,,,,,,
1366.5,,shortestpath_phase,1328770,GW/paint.jpg,,,,50,GW/camera.jpg,GW/soldier.jpg,0,0.5409836065573771,,,,GW/camera.jpg,,,,,Two Edge Diff,Four Edge Six Edge
null,,html-keyboard-response,1329772,<p></p>,,,,null,,,,,,,,,,,,,,
1229.5,,shortestpath_phase,1331003,GW/jukebox.jpg,,,,49,GW/wheelchair.jpg,GW/snail.jpg,0,0.532258064516129,,,,GW/snail.jpg,,,,,One Edge Diff,Five Edge Six Edge
null,,html-keyboard-response,1332005,<p></p>,,,,null,,,,,,,,,,,,,,
1353.5,,shortestpath_phase,1333360,GW/barrel.jpg,,,,49,GW/paint.jpg,GW/jukebox.jpg,1,0.5396825396825397,,,,GW/paint.jpg,,,,,Three Edge Diff,Three Edge Six Edge
null,,html-keyboard-response,1334362,<p></p>,,,,null,,,,,,,,,,,,,,
1480.199999988079,,shortestpath_phase,1335843,GW/gong.jpg,,,,49,GW/globe.jpg,GW/snail.jpg,0,0.53125,,,,GW/snail.jpg,,,,,One Edge Diff,Two Edge Three Edge
null,,html-keyboard-response,1336845,<p></p>,,,,null,,,,,,,,,,,,,,
1808.3999999761581,,shortestpath_phase,1338655,GW/barrel.jpg,,,,49,GW/paint.jpg,GW/soldier.jpg,1,0.5384615384615384,,,,GW/paint.jpg,,,,,Two Edge Diff,Two Edge Four Edge
null,,html-keyboard-response,1339659,<p></p>,,,,null,,,,,,,,,,,,,,
2224.399999976158,,shortestpath_phase,1341885,GW/jukebox.jpg,,,,50,GW/hat.jpg,GW/gong.jpg,0,0.5303030303030303,,,,GW/hat.jpg,,,,,Two Edge Diff,Two Edge Four Edge
null,,html-keyboard-response,1342887,<p></p>,,,,null,,,,,,,,,,,,,,
351.30000001192093,,shortestpath_phase,1343239,GW/paint.jpg,,,,49,GW/globe.jpg,GW/basket.jpg,0,0.5223880597014925,,,,GW/basket.jpg,,,,,Three Edge Diff,Two Edge Five Edge
null,,html-keyboard-response,1344241,<p></p>,,,,null,,,,,,,,,,,,,,
5401.699999988079,,shortestpath_phase,1349644,GW/jukebox.jpg,,,,50,GW/hat.jpg,GW/snail.jpg,0,0.5147058823529411,,,,GW/hat.jpg,,,,,Three Edge Diff,Two Edge Five Edge
null,,html-keyboard-response,1350646,<p></p>,,,,null,,,,,,,,,,,,,,
882.5,,shortestpath_phase,1351529,GW/soldier.jpg,,,,49,GW/paint.jpg,GW/snail.jpg,0,0.5072463768115942,,,,GW/snail.jpg,,,,,One Edge Diff,Five Edge Six Edge
null,,html-keyboard-response,1352531,<p></p>,,,,null,,,,,,,,,,,,,,
1705.2000000476837,,shortestpath_phase,1354238,GW/jukebox.jpg,,,,49,GW/snail.jpg,GW/camera.jpg,0,0.5,,,,GW/camera.jpg,,,,,Three Edge Diff,Three Edge Six Edge
null,,html-keyboard-response,1355240,<p></p>,,,,null,,,,,,,,,,,,,,
1019.3999999761581,,shortestpath_phase,1356260,GW/snail.jpg,,,,50,GW/jukebox.jpg,GW/wheelchair.jpg,1,0.5070422535211268,,,,GW/wheelchair.jpg,,,,,Three Edge Diff,Three Edge Six Edge
null,,html-keyboard-response,1357262,<p></p>,,,,null,,,,,,,,,,,,,,
198.80000001192093,,shortestpath_phase,1357462,GW/soldier.jpg,,,,49,GW/paint.jpg,GW/barrel.jpg,0,0.5,,,,GW/barrel.jpg,,,,,Two Edge Diff,Four Edge Six Edge
null,,html-keyboard-response,1358464,<p></p>,,,,null,,,,,,,,,,,,,,
38.90000003576279,,shortestpath_phase,1358503,GW/jukebox.jpg,,,,49,GW/snail.jpg,GW/paint.jpg,1,0.5068493150684932,,,,GW/snail.jpg,,,,,One Edge Diff,Five Edge Six Edge
null,,html-keyboard-response,1359506,<p></p>,,,,null,,,,,,,,,,,,,,
53.40000003576279,,shortestpath_phase,1359560,GW/soldier.jpg,,,,49,GW/wheelchair.jpg,GW/barrel.jpg,0,0.5,,,,GW/barrel.jpg,,,,,One Edge Diff,Four Edge Five Edge
null,,html-keyboard-response,1360562,<p></p>,,,,null,,,,,,,,,,,,,,
763.8000000119209,,shortestpath_phase,1361327,GW/wheelchair.jpg,,,,49,GW/dustpan.jpg,GW/soldier.jpg,1,0.5066666666666667,,,,GW/dustpan.jpg,,,,,Two Edge Diff,Three Edge Five Edge
null,,html-keyboard-response,1362340,<p></p>,,,,null,,,,,,,,,,,,,,
4048.599999964237,,shortestpath_phase,1366390,GW/jukebox.jpg,,,,49,GW/paint.jpg,GW/barrel.jpg,0,0.5,,,,GW/barrel.jpg,,,,,One Edge Diff,Five Edge Six Edge
null,,html-keyboard-response,1367392,<p></p>,,,,null,,,,,,,,,,,,,,
1332.800000011921,,shortestpath_phase,1368725,GW/globe.jpg,,,,49,GW/gong.jpg,GW/snail.jpg,1,0.5064935064935064,,,,GW/gong.jpg,,,,,One Edge Diff,Three Edge Four Edge
null,,html-keyboard-response,1369727,<p></p>,,,,null,,,,,,,,,,,,,,
1336.8999999761581,,shortestpath_phase,1371065,GW/jukebox.jpg,,,,49,GW/paint.jpg,GW/hat.jpg,0,0.5,,,,GW/hat.jpg,,,,,Four Edge Diff,Two Edge Six Edge
null,,html-keyboard-response,1372070,<p></p>,,,,null,,,,,,,,,,,,,,
1265.699999988079,,shortestpath_phase,1373337,GW/basket.jpg,,,,50,GW/hat.jpg,GW/gong.jpg,1,0.5063291139240507,,,,GW/gong.jpg,,,,,One Edge Diff,Two Edge Three Edge
null,,html-keyboard-response,1374353,<p></p>,,,,null,,,,,,,,,,,,,,
1481.5999999642372,,shortestpath_phase,1375835,GW/paint.jpg,,,,50,GW/jukebox.jpg,GW/hat.jpg,1,0.5125,,,,GW/hat.jpg,,,,,One Edge Diff,Five Edge Six Edge
null,,html-keyboard-response,1376838,<p></p>,,,,null,,,,,,,,,,,,,,
1299.8999999761581,,shortestpath_phase,1378138,GW/wheelchair.jpg,,,,50,GW/jukebox.jpg,GW/soldier.jpg,1,0.5185185185185185,,,,GW/soldier.jpg,,,,,One Edge Diff,Five Edge Six Edge
null,,html-keyboard-response,1379141,<p></p>,,,,null,,,,,,,,,,,,,,
1816.699999988079,,shortestpath_phase,1380959,GW/snail.jpg,,,,49,GW/dustpan.jpg,GW/hat.jpg,1,0.524390243902439,,,,GW/dustpan.jpg,,,,,One Edge Diff,Three Edge Four Edge
null,,html-keyboard-response,1381961,<p></p>,,,,null,,,,,,,,,,,,,,
1980.699999988079,,shortestpath_phase,1383943,GW/jukebox.jpg,,,,49,GW/camera.jpg,GW/wheelchair.jpg,1,0.5301204819277109,,,,GW/camera.jpg,,,,,Four Edge Diff,Two Edge Six Edge
null,,html-keyboard-response,1384948,<p></p>,,,,null,,,,,,,,,,,,,,
1540,,shortestpath_phase,1386489,GW/globe.jpg,,,,50,GW/gong.jpg,GW/paint.jpg,0,0.5238095238095238,,,,GW/gong.jpg,,,,,Two Edge Diff,Three Edge Five Edge
null,,html-keyboard-response,1387492,<p></p>,,,,null,,,,,,,,,,,,,,
1478.800000011921,,shortestpath_phase,1388972,GW/basket.jpg,,,,50,GW/jukebox.jpg,GW/camera.jpg,1,0.5294117647058824,,,,GW/camera.jpg,,,,,Two Edge Diff,Two Edge Four Edge
null,,html-keyboard-response,1389974,<p></p>,,,,null,,,,,,,,,,,,,,
1292.699999988079,,shortestpath_phase,1391268,GW/paint.jpg,,,,49,GW/barrel.jpg,GW/wheelchair.jpg,1,0.5348837209302325,,,,GW/barrel.jpg,,,,,One Edge Diff,Two Edge Three Edge
null,,html-keyboard-response,1392270,<p></p>,,,,null,,,,,,,,,,,,,,
161.19999998807907,,shortestpath_phase,1392432,GW/jukebox.jpg,,,,49,GW/barrel.jpg,GW/camera.jpg,0,0.5287356321839081,,,,GW/camera.jpg,,,,,Three Edge Diff,Three Edge Six Edge
null,,html-keyboard-response,1393434,<p></p>,,,,null,,,,,,,,,,,,,,
224.80000001192093,,shortestpath_phase,1393660,GW/soldier.jpg,,,,49,GW/snail.jpg,GW/globe.jpg,0,0.5227272727272727,,,,GW/globe.jpg,,,,,Three Edge Diff,Three Edge Six Edge
null,,html-keyboard-response,1394662,<p></p>,,,,null,,,,,,,,,,,,,,
1293.300000011921,,shortestpath_phase,1395957,GW/paint.jpg,,,,50,GW/camera.jpg,GW/jukebox.jpg,0,0.5168539325842697,,,,GW/camera.jpg,,,,,Two Edge Diff,Four Edge Six Edge
null,,html-keyboard-response,1396959,<p></p>,,,,null,,,,,,,,,,,,,,
147.80000001192093,,shortestpath_phase,1397108,GW/soldier.jpg,,,,49,GW/jukebox.jpg,GW/barrel.jpg,1,0.5222222222222223,,,,GW/jukebox.jpg,,,,,One Edge Diff,Three Edge Four Edge
null,,html-keyboard-response,1398122,<p></p>,,,,null,,,,,,,,,,,,,,
3114,,shortestpath_phase,1401241,GW/wheelchair.jpg,,,,49,GW/soldier.jpg,GW/paint.jpg,0,0.5164835164835165,,,,GW/paint.jpg,,,,,Two Edge Diff,Three Edge Five Edge
null,,html-keyboard-response,1402243,<p></p>,,,,null,,,,,,,,,,,,,,
1206.800000011921,,shortestpath_phase,1403451,GW/soldier.jpg,,,,50,GW/dustpan.jpg,GW/basket.jpg,0,0.5108695652173914,,,,GW/dustpan.jpg,,,,,Two Edge Diff,Two Edge Four Edge
null,,html-keyboard-response,1404453,<p></p>,,,,null,,,,,,,,,,,,,,
2945.5,,shortestpath_phase,1407400,GW/globe.jpg,,,,49,GW/barrel.jpg,GW/gong.jpg,0,0.5053763440860215,,,,GW/gong.jpg,,,,,One Edge Diff,Three Edge Four Edge
null,,html-keyboard-response,1408402,<p></p>,,,,null,,,,,,,,,,,,,,
2171.7999999523163,,shortestpath_phase,1410575,GW/wheelchair.jpg,,,,49,GW/soldier.jpg,GW/teeth.jpg,0,0.5,,,,GW/teeth.jpg,,,,,Two Edge Diff,Three Edge Five Edge
null,,html-keyboard-response,1411577,<p></p>,,,,null,,,,,,,,,,,,,,
1172.699999988079,,shortestpath_phase,1412751,GW/jukebox.jpg,,,,50,GW/wheelchair.jpg,GW/hat.jpg,1,0.5052631578947369,,,,GW/hat.jpg,,,,,Four Edge Diff,Two Edge Six Edge
null,,html-keyboard-response,1413762,<p></p>,,,,null,,,,,,,,,,,,,,
1679.2000000476837,,shortestpath_phase,1415442,GW/globe.jpg,,,,49,GW/soldier.jpg,GW/wheelchair.jpg,1,0.5104166666666666,,,,GW/soldier.jpg,,,,,Three Edge Diff,Two Edge Five Edge
null,,html-keyboard-response,1416444,<p></p>,,,,null,,,,,,,,,,,,,,
1651.5999999642372,,shortestpath_phase,1418096,GW/dustpan.jpg,,,,49,GW/barrel.jpg,GW/jukebox.jpg,1,0.5154639175257731,,,,GW/barrel.jpg,,,,,One Edge Diff,Two Edge Three Edge
null,,html-keyboard-response,1419098,<p></p>,,,,null,,,,,,,,,,,,,,
1490.0999999642372,,shortestpath_phase,1420589,GW/camera.jpg,,,,50,GW/jukebox.jpg,GW/paint.jpg,0,0.5102040816326531,,,,GW/jukebox.jpg,,,,,Two Edge Diff,Two Edge Four Edge
null,,html-keyboard-response,1421591,<p></p>,,,,null,,,,,,,,,,,,,,
1404.5,,shortestpath_phase,1422997,GW/soldier.jpg,,,,50,GW/paint.jpg,GW/basket.jpg,1,0.5151515151515151,,,,GW/basket.jpg,,,,,Two Edge Diff,Four Edge Six Edge
null,,html-keyboard-response,1424000,<p></p>,,,,null,,,,,,,,,,,,,,
1338.2999999523163,,shortestpath_phase,1425339,GW/wheelchair.jpg,,,,49,GW/camera.jpg,GW/jukebox.jpg,1,0.52,,,,GW/camera.jpg,,,,,Two Edge Diff,Four Edge Six Edge
null,,html-keyboard-response,1426342,<p></p>,,,,null,,,,,,,,,,,,,,
1565.5999999642372,,shortestpath_phase,1427908,GW/dustpan.jpg,,,,49,GW/paint.jpg,GW/teeth.jpg,0,0.5148514851485149,,,,GW/teeth.jpg,,,,,Two Edge Diff,Two Edge Four Edge
null,,html-keyboard-response,1428910,<p></p>,,,,null,,,,,,,,,,,,,,
5237.400000035763,,shortestpath_phase,1434149,GW/soldier.jpg,,,,49,GW/camera.jpg,GW/paint.jpg,1,0.5196078431372549,,,,GW/camera.jpg,,,,,Four Edge Diff,Two Edge Six Edge
null,,html-keyboard-response,1435152,<p></p>,,,,null,,,,,,,,,,,,,,
689.6999999880791,,shortestpath_phase,1435843,GW/paint.jpg,,,,49,GW/dustpan.jpg,GW/hat.jpg,1,0.5242718446601942,,,,GW/dustpan.jpg,,,,,One Edge Diff,Four Edge Five Edge
null,,html-keyboard-response,1436846,<p></p>,,,,null,,,,,,,,,,,,,,
907,,shortestpath_phase,1437755,GW/barrel.jpg,,,,49,GW/globe.jpg,GW/jukebox.jpg,1,0.5288461538461539,,,,GW/globe.jpg,,,,,One Edge Diff,Four Edge Five Edge
null,,html-keyboard-response,1438757,<p></p>,,,,null,,,,,,,,,,,,,,
3302,,shortestpath_phase,1442060,GW/jukebox.jpg,,,,49,GW/teeth.jpg,GW/basket.jpg,1,0.5333333333333333,,,,GW/teeth.jpg,,,,,One Edge Diff,Three Edge Four Edge
null,,html-keyboard-response,1443063,<p></p>,,,,null,,,,,,,,,,,,,,
2881.5,,shortestpath_phase,1445945,GW/globe.jpg,,,,49,GW/snail.jpg,GW/wheelchair.jpg,1,0.5377358490566038,,,,GW/snail.jpg,,,,,One Edge Diff,Four Edge Five Edge
null,,html-keyboard-response,1446947,<p></p>,,,,null,,,,,,,,,,,,,,
1096.6000000238419,,shortestpath_phase,1448045,GW/paint.jpg,,,,49,GW/barrel.jpg,GW/soldier.jpg,1,0.5420560747663551,,,,GW/barrel.jpg,,,,,Four Edge Diff,Two Edge Six Edge
null,,html-keyboard-response,1449047,<p></p>,,,,null,,,,,,,,,,,,,,
null,,shortestpath_phase,1456550,GW/snail.jpg,,,,null,GW/jukebox.jpg,GW/teeth.jpg,0,0.5370370370370371,,,,GW/teeth.jpg,,,,,Three Edge Diff,Two Edge Five Edge
null,,html-keyboard-response,1457552,<p></p>,,,,null,,,,,,,,,,,,,,
null,,shortestpath_phase,1465054,GW/soldier.jpg,,,,null,GW/paint.jpg,GW/globe.jpg,0,0.5321100917431193,,,,GW/globe.jpg,,,,,Four Edge Diff,Two Edge Six Edge
null,,html-keyboard-response,1466056,<p></p>,,,,null,,,,,,,,,,,,,,
null,,shortestpath_phase,1473557,GW/jukebox.jpg,,,,null,GW/teeth.jpg,GW/snail.jpg,0,0.5272727272727272,,,,GW/teeth.jpg,,,,,Two Edge Diff,Three Edge Five Edge
null,,html-keyboard-response,1474560,<p></p>,,,,null,,,,,,,,,,,,,,
null,,shortestpath_phase,1482062,GW/paint.jpg,,,,null,GW/soldier.jpg,GW/dustpan.jpg,0,0.5225225225225225,,,,GW/dustpan.jpg,,,,,Two Edge Diff,Four Edge Six Edge
null,,html-keyboard-response,1483063,<p></p>,,,,null,,,,,,,,,,,,,,
null,,shortestpath_phase,1490566,GW/soldier.jpg,,,,null,GW/teeth.jpg,GW/snail.jpg,0,0.5178571428571429,,,,GW/teeth.jpg,,,,,Two Edge Diff,Three Edge Five Edge
null,,html-keyboard-response,1491569,<p></p>,,,,null,,,,,,,,,,,,,,
null,,shortestpath_phase,1499071,GW/globe.jpg,,,,null,GW/snail.jpg,GW/paint.jpg,0,0.5132743362831859,,,,GW/snail.jpg,,,,,One Edge Diff,Four Edge Five Edge
null,,html-keyboard-response,1500073,<p></p>,,,,null,,,,,,,,,,,,,,
null,,shortestpath_phase,1507575,GW/soldier.jpg,,,,null,GW/gong.jpg,GW/barrel.jpg,0,0.5087719298245614,,,,GW/gong.jpg,,,,,One Edge Diff,Three Edge Four Edge
null,,html-keyboard-response,1508578,<p></p>,,,,null,,,,,,,,,,,,,,
null,,shortestpath_phase,1516080,GW/wheelchair.jpg,,,,null,GW/globe.jpg,GW/jukebox.jpg,0,0.5043478260869565,,,,GW/globe.jpg,,,,,One Edge Diff,Five Edge Six Edge
null,,html-keyboard-response,1517081,<p></p>,,,,null,,,,,,,,,,,,,,
null,,shortestpath_phase,1524583,GW/paint.jpg,,,,null,GW/hat.jpg,GW/soldier.jpg,0,0.5,,,,GW/hat.jpg,,,,,One Edge Diff,Five Edge Six Edge
null,,html-keyboard-response,1525585,<p></p>,,,,null,,,,,,,,,,,,,,
null,,shortestpath_phase,1533087,GW/wheelchair.jpg,,,,null,GW/jukebox.jpg,GW/gong.jpg,0,0.49572649572649574,,,,GW/gong.jpg,,,,,Four Edge Diff,Two Edge Six Edge
null,,html-keyboard-response,1534089,<p></p>,,,,null,,,,,,,,,,,,,,
null,,shortestpath_phase,1541592,GW/soldier.jpg,,,,null,GW/snail.jpg,GW/globe.jpg,0,0.4915254237288136,,,,GW/globe.jpg,,,,,Three Edge Diff,Two Edge Five Edge
null,,html-keyboard-response,1542595,<p></p>,,,,null,,,,,,,,,,,,,,
null,,shortestpath_phase,1550096,GW/jukebox.jpg,,,,null,GW/basket.jpg,GW/wheelchair.jpg,0,0.48739495798319327,,,,GW/basket.jpg,,,,,Two Edge Diff,Four Edge Six Edge
null,,html-keyboard-response,1551098,<p></p>,,,,null,,,,,,,,,,,,,,
301.30000001192093,,shortestpath_phase,1551400,GW/wheelchair.jpg,,,,49,GW/jukebox.jpg,GW/hat.jpg,0,0.48333333333333334,,,,GW/hat.jpg,,,,,Two Edge Diff,Four Edge Six Edge
null,,html-keyboard-response,1552402,<p></p>,,,,null,,,,,,,,,,,,,,
1868.300000011921,,shortestpath_phase,1554272,,,,,49,,,1,0.48760330578512395,,,,,,,,,One Edge Diff,Two Edge Three Edge
null,,html-keyboard-response,1555274,<p></p>,,,,null,,,,,,,,,,,,,,
30356.100000023842,,intro_1,1585631,instruct,,0,,,,,,,,,,,,,,,,
85974,,intro_2,1671607,instruct,,1,Next,,,,,,,,,,,,,,,
4368.300000011921,,intro_3,1675977,instruct,,1,Next,,,,,,,,,,,,,,,
