rt,responses,trial_type,time_elapsed,stimulus,graphorder,button_pressed,response,key_press,stimulus_left,stimulus_right,accuracy,cumulative_accuracy,stimulus_down_left,stimulus_down_mid,stimulus_down_right,stimulus_correct,stimulus_short,stimulus_far,weighted_accuracy,missedtrial,condition,specific_pairs
6159,{worker_id:66436e0c091888a5fc85584e},id_enter,6163,id_enter,GW/wheelchair.jpg; GW/soldier.jpg; GW/jukebox.jpg; GW/dustpan.jpg; GW/teeth.jpg; GW/barrel.jpg; GW/camera.jpg; GW/snail.jpg; GW/globe.jpg; GW/gong.jpg; GW/hat.jpg; GW/basket.jpg; GW/paint.jpg,,,,,,,,,,,,,,,,,
16534.100000023842,,fullscreen,22704,fullscreen,,0,,,,,,,,,,,,,,,,
12915,,intro_1,35625,instruct,,0,,,,,,,,,,,,,,,,
22389,,intro_2,58017,instruct,,1,Next,,,,,,,,,,,,,,,
12517.5,,intro_3,70537,instruct,,1,Next,,,,,,,,,,,,,,,
null,,learn_prac_1,72542,lean_prac_1,,,,null,,,,,,,,,,,,,,
null,,html-keyboard-response,73545,<p></p>,,,,null,,,,,,,,,,,,,,
4853.699999928474,,intro_1,78400,instruct,,0,,,,,,,,,,,,,,,,
6025.900000095367,,intro_2,84429,instruct,,1,Next,,,,,,,,,,,,,,,
null,,learn_prac_2,86432,lean_prac_2,,,,null,,,,,,,,,,,,,,
null,,html-keyboard-response,87434,<p></p>,,,,null,,,,,,,,,,,,,,
3500.1999999284744,,intro_1,90936,instruct,,0,,,,,,,,,,,,,,,,
5548.799999952316,,intro_2,96489,instruct,,1,Next,,,,,,,,,,,,,,,
34696.699999928474,,intro_3,131189,instruct,,1,Next,,,,,,,,,,,,,,,
null,,prac_atten_color_black,131670,black_plus_sign,,,,null,,,,,,,,,,,,,,
null,,prac_atten_color,132596,prac_stop_color,,,,null,,,,,,,,,,,,,,
null,,prac_atten_color_black,134598,black_plus_sign,,,,null,,,,,,,,,,,,,,
15399,,attentioncheck_help,149999,instruct,,,,32,,,,,,,,,,,,,,
null,,prac_atten_color_black,150477,black_plus_sign,,,,null,,,,,,,,,,,,,,
null,,prac_atten_color,151528,prac_stop_color,,,,null,,,,,,,,,,,,,,
291.7000000476837,,prac_atten_color_black,153530,black_plus_sign,,,,50,,,,,,,,,,,,,,
null,,prac_atten_color_black,153885,black_plus_sign,,,,null,,,,,,,,,,,,,,
null,,prac_atten_color,154353,prac_stop_color,,,,null,,,,,,,,,,,,,,
190.10000002384186,,prac_atten_color_black,156356,black_plus_sign,,,,50,,,,,,,,,,,,,,
null,,prac_atten_color_black,157302,black_plus_sign,,,,null,,,,,,,,,,,,,,
null,,prac_atten_color,158226,prac_stop_color,,,,null,,,,,,,,,,,,,,
545.6000000238419,,prac_atten_color_black,160228,black_plus_sign,,,,49,,,,,,,,,,,,,,
null,,prac_atten_color_black,160708,black_plus_sign,,,,null,,,,,,,,,,,,,,
416.5,,prac_atten_color,161495,prac_stop_color,,,,50,,,,,,,,,,,,,,
null,,prac_atten_color_black,163497,black_plus_sign,,,,null,,,,,,,,,,,,,,
null,,prac_atten_color_black,164116,black_plus_sign,,,,null,,,,,,,,,,,,,,
647.2999999523163,,prac_atten_color,164846,prac_stop_color,,,,50,,,,,,,,,,,,,,
null,,prac_atten_color_black,166847,black_plus_sign,,,,null,,,,,,,,,,,,,,
null,,prac_atten_color_black,167523,black_plus_sign,,,,null,,,,,,,,,,,,,,
573.8000000715256,,prac_atten_color,168490,prac_stop_color,,,,49,,,,,,,,,,,,,,
null,,prac_atten_color_black,170491,black_plus_sign,,,,null,,,,,,,,,,,,,,
null,,prac_atten_color_black,170929,black_plus_sign,,,,null,,,,,,,,,,,,,,
550.8999999761581,,prac_atten_color,171622,prac_stop_color,,,,50,,,,,,,,,,,,,,
null,,prac_atten_color_black,173624,black_plus_sign,,,,null,,,,,,,,,,,,,,
null,,prac_atten_color_black,174346,black_plus_sign,,,,null,,,,,,,,,,,,,,
null,,prac_atten_color,174960,prac_stop_color,,,,null,,,,,,,,,,,,,,
54.300000071525574,,prac_atten_color_black,176962,black_plus_sign,,,,49,,,,,,,,,,,,,,
null,,prac_atten_color_black,177753,black_plus_sign,,,,null,,,,,,,,,,,,,,
null,,prac_atten_color,178304,prac_stop_color,,,,null,,,,,,,,,,,,,,
284.40000009536743,,prac_atten_color_black,180305,black_plus_sign,,,,49,,,,,,,,,,,,,,
8211.199999928474,,attentioncheck_feedback,188520,cross_check_feedback,,0,,,,,,,,,,,,,,,,
15719.700000047684,,last_instruct,204241,instruct,,,,32,,,,,,,,,,,,,,
null,,learn_phase(without_color),206244,black_plus_sign,,,,null,GW/camera.jpg,GW/globe.jpg,,,,,,,,,,,,
null,,black_cross(without_color),206906,blue,,,,null,GW/camera.jpg,GW/globe.jpg,,,,,,,,,,,,
null,,rt_plussign_withcolor,207408,blue,,,,null,GW/camera.jpg,GW/globe.jpg,,,,,,,,,,,,
1061.3999999761581,,rt_thecrossant_black,208750,black_plus_sign,,,,49,,,1,1,,,,,,,,,,
null,,color_black,208852,black_plus_sign,,,,null,,,,,,,,,,,,,,
null,,learn_phase(without_color),210854,black_plus_sign,,,,null,GW/jukebox.jpg,GW/barrel.jpg,,,,,,,,,,,,
null,,black_cross(without_color),211696,blue,,,,null,GW/jukebox.jpg,GW/barrel.jpg,,,,,,,,,,,,
null,,rt_plussign_withcolor,212197,blue,,,,null,GW/jukebox.jpg,GW/barrel.jpg,,,,,,,,,,,,
1124,,rt_thecrossant_black,213360,black_plus_sign,,,,49,,,1,1,,,,,,,,,,
null,,color_black,213462,black_plus_sign,,,,null,,,,,,,,,,,,,,
null,,learn_phase(without_color),215465,black_plus_sign,,,,null,GW/globe.jpg,GW/hat.jpg,,,,,,,,,,,,
null,,black_cross(without_color),216166,blue,,,,null,GW/globe.jpg,GW/hat.jpg,,,,,,,,,,,,
null,,rt_plussign_withcolor,216668,blue,,,,null,GW/globe.jpg,GW/hat.jpg,,,,,,,,,,,,
1181.8000000715256,,rt_thecrossant_black,217974,black_plus_sign,,,,49,,,1,1,,,,,,,,,,
null,,color_black,218076,black_plus_sign,,,,null,,,,,,,,,,,,,,
null,,learn_phase(without_color),220078,black_plus_sign,,,,null,GW/soldier.jpg,GW/jukebox.jpg,,,,,,,,,,,,
null,,black_cross(without_color),221099,green,,,,null,GW/soldier.jpg,GW/jukebox.jpg,,,,,,,,,,,,
null,,rt_plussign_withcolor,221601,green,,,,null,GW/soldier.jpg,GW/jukebox.jpg,,,,,,,,,,,,
811.6999999284744,,rt_thecrossant_black,222584,black_plus_sign,,,,50,,,1,1,,,,,,,,,,
null,,color_black,222686,black_plus_sign,,,,null,,,,,,,,,,,,,,
null,,learn_phase(without_color),224689,black_plus_sign,,,,null,GW/snail.jpg,GW/gong.jpg,,,,,,,,,,,,
null,,black_cross(without_color),225615,green,,,,null,GW/snail.jpg,GW/gong.jpg,,,,,,,,,,,,
null,,rt_plussign_withcolor,226117,green,,,,null,GW/snail.jpg,GW/gong.jpg,,,,,,,,,,,,
1292.5,,rt_thecrossant_black,227195,black_plus_sign,,,,50,,,1,1,,,,,,,,,,
null,,color_black,227297,black_plus_sign,,,,null,,,,,,,,,,,,,,
null,,learn_phase(without_color),229300,black_plus_sign,,,,null,GW/wheelchair.jpg,GW/soldier.jpg,,,,,,,,,,,,
null,,black_cross(without_color),229743,green,,,,null,GW/wheelchair.jpg,GW/soldier.jpg,,,,,,,,,,,,
null,,rt_plussign_withcolor,230245,green,,,,null,GW/wheelchair.jpg,GW/soldier.jpg,,,,,,,,,,,,
1213.3999999761581,,rt_thecrossant_black,231806,black_plus_sign,,,,50,,,1,1,,,,,,,,,,
null,,color_black,231909,black_plus_sign,,,,null,,,,,,,,,,,,,,
null,,learn_phase(without_color),233913,black_plus_sign,,,,null,GW/camera.jpg,GW/snail.jpg,,,,,,,,,,,,
null,,black_cross(without_color),234566,green,,,,null,GW/camera.jpg,GW/snail.jpg,,,,,,,,,,,,
null,,rt_plussign_withcolor,235068,green,,,,null,GW/camera.jpg,GW/snail.jpg,,,,,,,,,,,,
613.5999999046326,,rt_thecrossant_black,236422,black_plus_sign,,,,50,,,1,1,,,,,,,,,,
null,,color_black,236525,black_plus_sign,,,,null,,,,,,,,,,,,,,
null,,learn_phase(without_color),238527,black_plus_sign,,,,null,GW/barrel.jpg,GW/globe.jpg,,,,,,,,,,,,
null,,black_cross(without_color),239296,blue,,,,null,GW/barrel.jpg,GW/globe.jpg,,,,,,,,,,,,
null,,rt_plussign_withcolor,239807,blue,,,,null,GW/barrel.jpg,GW/globe.jpg,,,,,,,,,,,,
835.5,,rt_thecrossant_black,241042,black_plus_sign,,,,49,,,1,1,,,,,,,,,,
null,,color_black,241145,black_plus_sign,,,,null,,,,,,,,,,,,,,
null,,learn_phase(without_color),243148,black_plus_sign,,,,null,GW/globe.jpg,GW/hat.jpg,,,,,,,,,,,,
null,,black_cross(without_color),244143,blue,,,,null,GW/globe.jpg,GW/hat.jpg,,,,,,,,,,,,
null,,rt_plussign_withcolor,244644,blue,,,,null,GW/globe.jpg,GW/hat.jpg,,,,,,,,,,,,
928.5,,rt_thecrossant_black,245653,black_plus_sign,,,,49,,,1,1,,,,,,,,,,
null,,color_black,245755,black_plus_sign,,,,null,,,,,,,,,,,,,,
null,,learn_phase(without_color),247757,black_plus_sign,,,,null,GW/jukebox.jpg,GW/barrel.jpg,,,,,,,,,,,,
null,,black_cross(without_color),248213,green,,,,null,GW/jukebox.jpg,GW/barrel.jpg,,,,,,,,,,,,
null,,rt_plussign_withcolor,248717,green,,,,null,GW/jukebox.jpg,GW/barrel.jpg,,,,,,,,,,,,
1641.4000000953674,,rt_thecrossant_black,250266,black_plus_sign,,,,50,,,1,1,,,,,,,,,,
null,,color_black,250369,black_plus_sign,,,,null,,,,,,,,,,,,,,
null,,learn_phase(without_color),252373,black_plus_sign,,,,null,GW/snail.jpg,GW/gong.jpg,,,,,,,,,,,,
null,,black_cross(without_color),253186,blue,,,,null,GW/snail.jpg,GW/gong.jpg,,,,,,,,,,,,
null,,rt_plussign_withcolor,253689,blue,,,,null,GW/snail.jpg,GW/gong.jpg,,,,,,,,,,,,
842.5,,rt_thecrossant_black,254879,black_plus_sign,,,,49,,,1,1,,,,,,,,,,
null,,color_black,254982,black_plus_sign,,,,null,,,,,,,,,,,,,,
null,,learn_phase(without_color),256987,black_plus_sign,,,,null,GW/barrel.jpg,GW/camera.jpg,,,,,,,,,,,,
null,,black_cross(without_color),257840,blue,,,,null,GW/barrel.jpg,GW/camera.jpg,,,,,,,,,,,,
null,,rt_plussign_withcolor,258341,blue,,,,null,GW/barrel.jpg,GW/camera.jpg,,,,,,,,,,,,
1039.2000000476837,,rt_thecrossant_black,259492,black_plus_sign,,,,49,,,1,1,,,,,,,,,,
null,,color_black,259595,black_plus_sign,,,,null,,,,,,,,,,,,,,
null,,learn_phase(without_color),261597,black_plus_sign,,,,null,GW/dustpan.jpg,GW/teeth.jpg,,,,,,,,,,,,
null,,black_cross(without_color),262644,blue,,,,null,GW/dustpan.jpg,GW/teeth.jpg,,,,,,,,,,,,
null,,rt_plussign_withcolor,263146,blue,,,,null,GW/dustpan.jpg,GW/teeth.jpg,,,,,,,,,,,,
1202.7999999523163,,rt_thecrossant_black,264104,black_plus_sign,,,,49,,,1,1,,,,,,,,,,
null,,color_black,264215,black_plus_sign,,,,null,,,,,,,,,,,,,,
null,,learn_phase(without_color),266217,black_plus_sign,,,,null,GW/wheelchair.jpg,GW/soldier.jpg,,,,,,,,,,,,
null,,black_cross(without_color),266995,blue,,,,null,GW/wheelchair.jpg,GW/soldier.jpg,,,,,,,,,,,,
null,,rt_plussign_withcolor,267496,blue,,,,null,GW/wheelchair.jpg,GW/soldier.jpg,,,,,,,,,,,,
1503.6999999284744,,rt_thecrossant_black,268724,black_plus_sign,,,,49,,,1,1,,,,,,,,,,
null,,color_black,268827,black_plus_sign,,,,null,,,,,,,,,,,,,,
null,,learn_phase(without_color),270831,black_plus_sign,,,,null,GW/barrel.jpg,GW/camera.jpg,,,,,,,,,,,,
null,,black_cross(without_color),271328,green,,,,null,GW/barrel.jpg,GW/camera.jpg,,,,,,,,,,,,
null,,rt_plussign_withcolor,271830,green,,,,null,GW/barrel.jpg,GW/camera.jpg,,,,,,,,,,,,
1461.6000000238419,,rt_thecrossant_black,273338,black_plus_sign,,,,50,,,1,1,,,,,,,,,,
null,,color_black,273440,black_plus_sign,,,,null,,,,,,,,,,,,,,
null,,learn_phase(without_color),275447,black_plus_sign,,,,null,GW/jukebox.jpg,GW/hat.jpg,,,,,,,,,,,,
null,,black_cross(without_color),276422,green,,,,null,GW/jukebox.jpg,GW/hat.jpg,,,,,,,,,,,,
null,,rt_plussign_withcolor,276924,green,,,,null,GW/jukebox.jpg,GW/hat.jpg,,,,,,,,,,,,
698.3999999761581,,rt_thecrossant_black,277952,black_plus_sign,,,,50,,,1,1,,,,,,,,,,
null,,color_black,278055,black_plus_sign,,,,null,,,,,,,,,,,,,,
null,,learn_phase(without_color),280057,black_plus_sign,,,,null,GW/barrel.jpg,GW/camera.jpg,,,,,,,,,,,,
null,,black_cross(without_color),281137,green,,,,null,GW/barrel.jpg,GW/camera.jpg,,,,,,,,,,,,
null,,rt_plussign_withcolor,281640,green,,,,null,GW/barrel.jpg,GW/camera.jpg,,,,,,,,,,,,
1402.1999999284744,,rt_thecrossant_black,282564,black_plus_sign,,,,50,,,1,1,,,,,,,,,,
null,,color_black,282667,black_plus_sign,,,,null,,,,,,,,,,,,,,
null,,learn_phase(without_color),284670,black_plus_sign,,,,null,GW/soldier.jpg,GW/jukebox.jpg,,,,,,,,,,,,
null,,black_cross(without_color),285361,green,,,,null,GW/soldier.jpg,GW/jukebox.jpg,,,,,,,,,,,,
481.8000000715256,,rt_plussign_withcolor,285864,green,,,,50,GW/soldier.jpg,GW/jukebox.jpg,,,,,,,,,,,,
null,,rt_thecrossant_black,287175,black_plus_sign,,,,null,,,1,1,,,,,,,,,,
null,,color_black,287278,black_plus_sign,,,,null,,,,,,,,,,,,,,
null,,learn_phase(without_color),289280,black_plus_sign,,,,null,GW/barrel.jpg,GW/camera.jpg,,,,,,,,,,,,
null,,black_cross(without_color),289800,green,,,,null,GW/barrel.jpg,GW/camera.jpg,,,,,,,,,,,,
null,,rt_plussign_withcolor,290302,green,,,,null,GW/barrel.jpg,GW/camera.jpg,,,,,,,,,,,,
887,,rt_thecrossant_black,291788,black_plus_sign,,,,50,,,1,1,,,,,,,,,,
null,,color_black,291891,black_plus_sign,,,,null,,,,,,,,,,,,,,
null,,learn_phase(without_color),293894,black_plus_sign,,,,null,GW/camera.jpg,GW/snail.jpg,,,,,,,,,,,,
null,,black_cross(without_color),294517,green,,,,null,GW/camera.jpg,GW/snail.jpg,,,,,,,,,,,,
null,,rt_plussign_withcolor,295019,green,,,,null,GW/camera.jpg,GW/snail.jpg,,,,,,,,,,,,
744.6000000238419,,rt_thecrossant_black,296400,black_plus_sign,,,,50,,,1,1,,,,,,,,,,
null,,color_black,296503,black_plus_sign,,,,null,,,,,,,,,,,,,,
null,,learn_phase(without_color),298505,black_plus_sign,,,,null,GW/soldier.jpg,GW/dustpan.jpg,,,,,,,,,,,,
null,,black_cross(without_color),299248,blue,,,,null,GW/soldier.jpg,GW/dustpan.jpg,,,,,,,,,,,,
null,,rt_plussign_withcolor,299750,blue,,,,null,GW/soldier.jpg,GW/dustpan.jpg,,,,,,,,,,,,
1165.3999999761581,,rt_thecrossant_black,301011,black_plus_sign,,,,49,,,1,1,,,,,,,,,,
null,,color_black,301113,black_plus_sign,,,,null,,,,,,,,,,,,,,
null,,learn_phase(without_color),303117,black_plus_sign,,,,null,GW/camera.jpg,GW/paint.jpg,,,,,,,,,,,,
null,,black_cross(without_color),304170,green,,,,null,GW/camera.jpg,GW/paint.jpg,,,,,,,,,,,,
null,,rt_plussign_withcolor,304672,green,,,,null,GW/camera.jpg,GW/paint.jpg,,,,,,,,,,,,
1153.9000000953674,,rt_thecrossant_black,305625,black_plus_sign,,,,50,,,1,1,,,,,,,,,,
null,,color_black,305728,black_plus_sign,,,,null,,,,,,,,,,,,,,
null,,learn_phase(without_color),307731,black_plus_sign,,,,null,GW/jukebox.jpg,GW/barrel.jpg,,,,,,,,,,,,
null,,black_cross(without_color),308741,green,,,,null,GW/jukebox.jpg,GW/barrel.jpg,,,,,,,,,,,,
null,,rt_plussign_withcolor,309243,green,,,,null,GW/jukebox.jpg,GW/barrel.jpg,,,,,,,,,,,,
1155,,rt_thecrossant_black,310237,black_plus_sign,,,,50,,,1,1,,,,,,,,,,
null,,color_black,310342,black_plus_sign,,,,null,,,,,,,,,,,,,,
null,,learn_phase(without_color),312345,black_plus_sign,,,,null,GW/soldier.jpg,GW/jukebox.jpg,,,,,,,,,,,,
null,,black_cross(without_color),313132,blue,,,,null,GW/soldier.jpg,GW/jukebox.jpg,,,,,,,,,,,,
459.7000000476837,,rt_plussign_withcolor,313635,blue,,,,49,GW/soldier.jpg,GW/jukebox.jpg,,,,,,,,,,,,
null,,rt_thecrossant_black,314851,black_plus_sign,,,,null,,,1,1,,,,,,,,,,
null,,color_black,314954,black_plus_sign,,,,null,,,,,,,,,,,,,,
null,,learn_phase(without_color),316956,black_plus_sign,,,,null,GW/camera.jpg,GW/paint.jpg,,,,,,,,,,,,
null,,black_cross(without_color),317919,blue,,,,null,GW/camera.jpg,GW/paint.jpg,,,,,,,,,,,,
null,,rt_plussign_withcolor,318422,blue,,,,null,GW/camera.jpg,GW/paint.jpg,,,,,,,,,,,,
938.3000000715256,,rt_thecrossant_black,319464,black_plus_sign,,,,49,,,1,1,,,,,,,,,,
null,,color_black,319567,black_plus_sign,,,,null,,,,,,,,,,,,,,
null,,learn_phase(without_color),321569,black_plus_sign,,,,null,GW/dustpan.jpg,GW/basket.jpg,,,,,,,,,,,,
null,,black_cross(without_color),322302,green,,,,null,GW/dustpan.jpg,GW/basket.jpg,,,,,,,,,,,,
null,,rt_plussign_withcolor,322804,green,,,,null,GW/dustpan.jpg,GW/basket.jpg,,,,,,,,,,,,
1258.3000000715256,,rt_thecrossant_black,324074,black_plus_sign,,,,50,,,1,1,,,,,,,,,,
null,,color_black,324177,black_plus_sign,,,,null,,,,,,,,,,,,,,
null,,learn_phase(without_color),326179,black_plus_sign,,,,null,GW/jukebox.jpg,GW/hat.jpg,,,,,,,,,,,,
null,,black_cross(without_color),326583,green,,,,null,GW/jukebox.jpg,GW/hat.jpg,,,,,,,,,,,,
null,,rt_plussign_withcolor,327084,green,,,,null,GW/jukebox.jpg,GW/hat.jpg,,,,,,,,,,,,
897.8999999761581,,rt_thecrossant_black,328685,black_plus_sign,,,,50,,,1,1,,,,,,,,,,
null,,color_black,328788,black_plus_sign,,,,null,,,,,,,,,,,,,,
null,,learn_phase(without_color),330792,black_plus_sign,,,,null,GW/soldier.jpg,GW/jukebox.jpg,,,,,,,,,,,,
null,,black_cross(without_color),331481,blue,,,,null,GW/soldier.jpg,GW/jukebox.jpg,,,,,,,,,,,,
null,,rt_plussign_withcolor,331983,blue,,,,null,GW/soldier.jpg,GW/jukebox.jpg,,,,,,,,,,,,
689.6000000238419,,rt_thecrossant_black,333300,black_plus_sign,,,,50,,,0,0.9642857142857143,,,,,,,,,,
null,,color_black,333413,black_plus_sign,,,,null,,,,,,,,,,,,,,
null,,learn_phase(without_color),335416,black_plus_sign,,,,null,GW/dustpan.jpg,GW/basket.jpg,,,,,,,,,,,,
null,,black_cross(without_color),336355,green,,,,null,GW/dustpan.jpg,GW/basket.jpg,,,,,,,,,,,,
null,,rt_plussign_withcolor,336856,green,,,,null,GW/dustpan.jpg,GW/basket.jpg,,,,,,,,,,,,
1018.8999999761581,,rt_thecrossant_black,337922,black_plus_sign,,,,50,,,1,0.9655172413793104,,,,,,,,,,
null,,color_black,338024,black_plus_sign,,,,null,,,,,,,,,,,,,,
null,,learn_phase(without_color),340026,black_plus_sign,,,,null,GW/snail.jpg,GW/gong.jpg,,,,,,,,,,,,
null,,black_cross(without_color),340630,green,,,,null,GW/snail.jpg,GW/gong.jpg,,,,,,,,,,,,
null,,rt_plussign_withcolor,341138,green,,,,null,GW/snail.jpg,GW/gong.jpg,,,,,,,,,,,,
1220,,rt_thecrossant_black,342539,black_plus_sign,,,,50,,,1,0.9666666666666667,,,,,,,,,,
null,,color_black,342642,black_plus_sign,,,,null,,,,,,,,,,,,,,
null,,learn_phase(without_color),344645,black_plus_sign,,,,null,GW/jukebox.jpg,GW/hat.jpg,,,,,,,,,,,,
null,,black_cross(without_color),345628,blue,,,,null,GW/jukebox.jpg,GW/hat.jpg,,,,,,,,,,,,
null,,rt_plussign_withcolor,346129,blue,,,,null,GW/jukebox.jpg,GW/hat.jpg,,,,,,,,,,,,
1030.8999999761581,,rt_thecrossant_black,347155,black_plus_sign,,,,49,,,1,0.967741935483871,,,,,,,,,,
null,,color_black,347257,black_plus_sign,,,,null,,,,,,,,,,,,,,
null,,learn_phase(without_color),349260,black_plus_sign,,,,null,GW/camera.jpg,GW/globe.jpg,,,,,,,,,,,,
null,,black_cross(without_color),350026,green,,,,null,GW/camera.jpg,GW/globe.jpg,,,,,,,,,,,,
null,,rt_plussign_withcolor,350528,green,,,,null,GW/camera.jpg,GW/globe.jpg,,,,,,,,,,,,
1386.8999999761581,,rt_thecrossant_black,351767,black_plus_sign,,,,50,,,1,0.96875,,,,,,,,,,
null,,color_black,351870,black_plus_sign,,,,null,,,,,,,,,,,,,,
null,,learn_phase(without_color),353873,black_plus_sign,,,,null,GW/jukebox.jpg,GW/hat.jpg,,,,,,,,,,,,
null,,black_cross(without_color),354802,green,,,,null,GW/jukebox.jpg,GW/hat.jpg,,,,,,,,,,,,
null,,rt_plussign_withcolor,355304,green,,,,null,GW/jukebox.jpg,GW/hat.jpg,,,,,,,,,,,,
988.2000000476837,,rt_thecrossant_black,356380,black_plus_sign,,,,50,,,1,0.9696969696969697,,,,,,,,,,
null,,color_black,356482,black_plus_sign,,,,null,,,,,,,,,,,,,,
null,,learn_phase(without_color),358485,black_plus_sign,,,,null,GW/globe.jpg,GW/hat.jpg,,,,,,,,,,,,
null,,black_cross(without_color),359505,green,,,,null,GW/globe.jpg,GW/hat.jpg,,,,,,,,,,,,
null,,rt_plussign_withcolor,360007,green,,,,null,GW/globe.jpg,GW/hat.jpg,,,,,,,,,,,,
1224.1999999284744,,rt_thecrossant_black,360991,black_plus_sign,,,,50,,,1,0.9705882352941176,,,,,,,,,,
null,,color_black,361095,black_plus_sign,,,,null,,,,,,,,,,,,,,
null,,learn_phase(without_color),363098,black_plus_sign,,,,null,GW/hat.jpg,GW/basket.jpg,,,,,,,,,,,,
null,,black_cross(without_color),363990,blue,,,,null,GW/hat.jpg,GW/basket.jpg,,,,,,,,,,,,
null,,rt_plussign_withcolor,364492,blue,,,,null,GW/hat.jpg,GW/basket.jpg,,,,,,,,,,,,
1264.6999999284744,,rt_thecrossant_black,365606,black_plus_sign,,,,49,,,1,0.9714285714285714,,,,,,,,,,
null,,color_black,365708,black_plus_sign,,,,null,,,,,,,,,,,,,,
null,,learn_phase(without_color),367710,black_plus_sign,,,,null,GW/dustpan.jpg,GW/teeth.jpg,,,,,,,,,,,,
null,,black_cross(without_color),368358,blue,,,,null,GW/dustpan.jpg,GW/teeth.jpg,,,,,,,,,,,,
null,,rt_plussign_withcolor,368862,blue,,,,null,GW/dustpan.jpg,GW/teeth.jpg,,,,,,,,,,,,
1495.7999999523163,,rt_thecrossant_black,370218,black_plus_sign,,,,49,,,1,0.9722222222222222,,,,,,,,,,
null,,color_black,370321,black_plus_sign,,,,null,,,,,,,,,,,,,,
null,,learn_phase(without_color),372324,black_plus_sign,,,,null,GW/barrel.jpg,GW/globe.jpg,,,,,,,,,,,,
null,,black_cross(without_color),372732,green,,,,null,GW/barrel.jpg,GW/globe.jpg,,,,,,,,,,,,
null,,rt_plussign_withcolor,373234,green,,,,null,GW/barrel.jpg,GW/globe.jpg,,,,,,,,,,,,
1316.2999999523163,,rt_thecrossant_black,374832,black_plus_sign,,,,50,,,1,0.972972972972973,,,,,,,,,,
null,,color_black,374935,black_plus_sign,,,,null,,,,,,,,,,,,,,
null,,learn_phase(without_color),376939,black_plus_sign,,,,null,GW/camera.jpg,GW/globe.jpg,,,,,,,,,,,,
null,,black_cross(without_color),377620,blue,,,,null,GW/camera.jpg,GW/globe.jpg,,,,,,,,,,,,
null,,rt_plussign_withcolor,378122,blue,,,,null,GW/camera.jpg,GW/globe.jpg,,,,,,,,,,,,
781.6000000238419,,rt_thecrossant_black,379445,black_plus_sign,,,,49,,,1,0.9736842105263158,,,,,,,,,,
null,,color_black,379547,black_plus_sign,,,,null,,,,,,,,,,,,,,
null,,learn_phase(without_color),381549,black_plus_sign,,,,null,GW/soldier.jpg,GW/dustpan.jpg,,,,,,,,,,,,
null,,black_cross(without_color),382639,blue,,,,null,GW/soldier.jpg,GW/dustpan.jpg,,,,,,,,,,,,
null,,rt_plussign_withcolor,383140,blue,,,,null,GW/soldier.jpg,GW/dustpan.jpg,,,,,,,,,,,,
1115.2000000476837,,rt_thecrossant_black,384055,black_plus_sign,,,,49,,,1,0.9743589743589743,,,,,,,,,,
null,,color_black,384158,black_plus_sign,,,,null,,,,,,,,,,,,,,
null,,learn_phase(without_color),386161,black_plus_sign,,,,null,GW/camera.jpg,GW/snail.jpg,,,,,,,,,,,,
null,,black_cross(without_color),387151,green,,,,null,GW/camera.jpg,GW/snail.jpg,,,,,,,,,,,,
null,,rt_plussign_withcolor,387653,green,,,,null,GW/camera.jpg,GW/snail.jpg,,,,,,,,,,,,
1391.0999999046326,,rt_thecrossant_black,388667,black_plus_sign,,,,50,,,1,0.975,,,,,,,,,,
null,,color_black,388769,black_plus_sign,,,,null,,,,,,,,,,,,,,
null,,learn_phase(without_color),390772,black_plus_sign,,,,null,GW/camera.jpg,GW/paint.jpg,,,,,,,,,,,,
null,,black_cross(without_color),391625,blue,,,,null,GW/camera.jpg,GW/paint.jpg,,,,,,,,,,,,
null,,rt_plussign_withcolor,392127,blue,,,,null,GW/camera.jpg,GW/paint.jpg,,,,,,,,,,,,
1696.3000000715256,,rt_thecrossant_black,393278,black_plus_sign,,,,49,,,1,0.975609756097561,,,,,,,,,,
null,,color_black,393380,black_plus_sign,,,,null,,,,,,,,,,,,,,
null,,learn_phase(without_color),395383,black_plus_sign,,,,null,GW/barrel.jpg,GW/camera.jpg,,,,,,,,,,,,
null,,black_cross(without_color),396356,green,,,,null,GW/barrel.jpg,GW/camera.jpg,,,,,,,,,,,,
null,,rt_plussign_withcolor,396859,green,,,,null,GW/barrel.jpg,GW/camera.jpg,,,,,,,,,,,,
1262.1999999284744,,rt_thecrossant_black,397892,black_plus_sign,,,,50,,,1,0.9761904761904762,,,,,,,,,,
null,,color_black,397995,black_plus_sign,,,,null,,,,,,,,,,,,,,
null,,learn_phase(without_color),399997,black_plus_sign,,,,null,GW/globe.jpg,GW/hat.jpg,,,,,,,,,,,,
null,,black_cross(without_color),400558,blue,,,,null,GW/globe.jpg,GW/hat.jpg,,,,,,,,,,,,
null,,rt_plussign_withcolor,401073,blue,,,,null,GW/globe.jpg,GW/hat.jpg,,,,,,,,,,,,
1357,,rt_thecrossant_black,402517,black_plus_sign,,,,49,,,1,0.9767441860465116,,,,,,,,,,
null,,color_black,402620,black_plus_sign,,,,null,,,,,,,,,,,,,,
null,,learn_phase(without_color),404624,black_plus_sign,,,,null,GW/wheelchair.jpg,GW/soldier.jpg,,,,,,,,,,,,
null,,black_cross(without_color),405408,green,,,,null,GW/wheelchair.jpg,GW/soldier.jpg,,,,,,,,,,,,
null,,rt_plussign_withcolor,405909,green,,,,null,GW/wheelchair.jpg,GW/soldier.jpg,,,,,,,,,,,,
945.7000000476837,,rt_thecrossant_black,407130,black_plus_sign,,,,50,,,1,0.9772727272727273,,,,,,,,,,
null,,color_black,407233,black_plus_sign,,,,null,,,,,,,,,,,,,,
null,,learn_phase(without_color),409235,black_plus_sign,,,,null,GW/camera.jpg,GW/globe.jpg,,,,,,,,,,,,
null,,black_cross(without_color),410208,blue,,,,null,GW/camera.jpg,GW/globe.jpg,,,,,,,,,,,,
null,,rt_plussign_withcolor,410710,blue,,,,null,GW/camera.jpg,GW/globe.jpg,,,,,,,,,,,,
1149.2000000476837,,rt_thecrossant_black,411740,black_plus_sign,,,,49,,,1,0.9777777777777777,,,,,,,,,,
null,,color_black,411843,black_plus_sign,,,,null,,,,,,,,,,,,,,
null,,learn_phase(without_color),413845,black_plus_sign,,,,null,GW/barrel.jpg,GW/camera.jpg,,,,,,,,,,,,
null,,black_cross(without_color),414524,green,,,,null,GW/barrel.jpg,GW/camera.jpg,,,,,,,,,,,,
null,,rt_plussign_withcolor,415026,green,,,,null,GW/barrel.jpg,GW/camera.jpg,,,,,,,,,,,,
1418.8999999761581,,rt_thecrossant_black,416351,black_plus_sign,,,,50,,,1,0.9782608695652174,,,,,,,,,,
null,,color_black,416453,black_plus_sign,,,,null,,,,,,,,,,,,,,
null,,learn_phase(without_color),418456,black_plus_sign,,,,null,GW/barrel.jpg,GW/globe.jpg,,,,,,,,,,,,
null,,black_cross(without_color),418861,green,,,,null,GW/barrel.jpg,GW/globe.jpg,,,,,,,,,,,,
null,,rt_plussign_withcolor,419362,green,,,,null,GW/barrel.jpg,GW/globe.jpg,,,,,,,,,,,,
890.1000000238419,,rt_thecrossant_black,420963,black_plus_sign,,,,50,,,1,0.9787234042553191,,,,,,,,,,
null,,color_black,421066,black_plus_sign,,,,null,,,,,,,,,,,,,,
null,,learn_phase(without_color),423069,black_plus_sign,,,,null,GW/camera.jpg,GW/snail.jpg,,,,,,,,,,,,
null,,black_cross(without_color),423574,blue,,,,null,GW/camera.jpg,GW/snail.jpg,,,,,,,,,,,,
null,,rt_plussign_withcolor,424075,blue,,,,null,GW/camera.jpg,GW/snail.jpg,,,,,,,,,,,,
650.1999999284744,,rt_thecrossant_black,425576,black_plus_sign,,,,49,,,1,0.9791666666666666,,,,,,,,,,
null,,color_black,425679,black_plus_sign,,,,null,,,,,,,,,,,,,,
null,,learn_phase(without_color),427681,black_plus_sign,,,,null,GW/snail.jpg,GW/gong.jpg,,,,,,,,,,,,
null,,black_cross(without_color),428265,blue,,,,null,GW/snail.jpg,GW/gong.jpg,,,,,,,,,,,,
null,,rt_plussign_withcolor,428766,blue,,,,null,GW/snail.jpg,GW/gong.jpg,,,,,,,,,,,,
758.5,,rt_thecrossant_black,430186,black_plus_sign,,,,49,,,1,0.9795918367346939,,,,,,,,,,
null,,color_black,430288,black_plus_sign,,,,null,,,,,,,,,,,,,,
null,,learn_phase(without_color),432290,black_plus_sign,,,,null,GW/dustpan.jpg,GW/teeth.jpg,,,,,,,,,,,,
null,,black_cross(without_color),432777,blue,,,,null,GW/dustpan.jpg,GW/teeth.jpg,,,,,,,,,,,,
null,,rt_plussign_withcolor,433289,blue,,,,null,GW/dustpan.jpg,GW/teeth.jpg,,,,,,,,,,,,
820.5,,rt_thecrossant_black,434807,black_plus_sign,,,,49,,,1,0.98,,,,,,,,,,
null,,color_black,434909,black_plus_sign,,,,null,,,,,,,,,,,,,,
null,,learn_phase(without_color),436912,black_plus_sign,,,,null,GW/barrel.jpg,GW/globe.jpg,,,,,,,,,,,,
null,,black_cross(without_color),437680,green,,,,null,GW/barrel.jpg,GW/globe.jpg,,,,,,,,,,,,
null,,rt_plussign_withcolor,438182,green,,,,null,GW/barrel.jpg,GW/globe.jpg,,,,,,,,,,,,
640.6000000238419,,rt_thecrossant_black,439418,black_plus_sign,,,,50,,,1,0.9803921568627451,,,,,,,,,,
null,,color_black,439520,black_plus_sign,,,,null,,,,,,,,,,,,,,
null,,learn_phase(without_color),441523,black_plus_sign,,,,null,GW/snail.jpg,GW/globe.jpg,,,,,,,,,,,,
null,,black_cross(without_color),442314,blue,,,,null,GW/snail.jpg,GW/globe.jpg,,,,,,,,,,,,
null,,rt_plussign_withcolor,442817,blue,,,,null,GW/snail.jpg,GW/globe.jpg,,,,,,,,,,,,
963.2999999523163,,rt_thecrossant_black,444029,black_plus_sign,,,,49,,,1,0.9807692307692307,,,,,,,,,,
null,,color_black,444132,black_plus_sign,,,,null,,,,,,,,,,,,,,
null,,learn_phase(without_color),446135,black_plus_sign,,,,null,GW/dustpan.jpg,GW/basket.jpg,,,,,,,,,,,,
null,,black_cross(without_color),446722,blue,,,,null,GW/dustpan.jpg,GW/basket.jpg,,,,,,,,,,,,
496.5,,rt_plussign_withcolor,447224,blue,,,,49,GW/dustpan.jpg,GW/basket.jpg,,,,,,,,,,,,
null,,rt_thecrossant_black,448641,black_plus_sign,,,,null,,,1,0.9811320754716981,,,,,,,,,,
null,,color_black,448745,black_plus_sign,,,,null,,,,,,,,,,,,,,
null,,learn_phase(without_color),450749,black_plus_sign,,,,null,GW/snail.jpg,GW/globe.jpg,,,,,,,,,,,,
null,,black_cross(without_color),451349,blue,,,,null,GW/snail.jpg,GW/globe.jpg,,,,,,,,,,,,
null,,rt_plussign_withcolor,451850,blue,,,,null,GW/snail.jpg,GW/globe.jpg,,,,,,,,,,,,
828.8999999761581,,rt_thecrossant_black,453254,black_plus_sign,,,,49,,,1,0.9814814814814815,,,,,,,,,,
null,,color_black,453356,black_plus_sign,,,,null,,,,,,,,,,,,,,
null,,learn_phase(without_color),455359,black_plus_sign,,,,null,GW/soldier.jpg,GW/dustpan.jpg,,,,,,,,,,,,
null,,black_cross(without_color),455937,blue,,,,null,GW/soldier.jpg,GW/dustpan.jpg,,,,,,,,,,,,
null,,rt_plussign_withcolor,456439,blue,,,,null,GW/soldier.jpg,GW/dustpan.jpg,,,,,,,,,,,,
776.7000000476837,,rt_thecrossant_black,457865,black_plus_sign,,,,49,,,1,0.9818181818181818,,,,,,,,,,
null,,color_black,457967,black_plus_sign,,,,null,,,,,,,,,,,,,,
null,,learn_phase(without_color),459970,black_plus_sign,,,,null,GW/camera.jpg,GW/snail.jpg,,,,,,,,,,,,
null,,black_cross(without_color),460422,blue,,,,null,GW/camera.jpg,GW/snail.jpg,,,,,,,,,,,,
null,,rt_plussign_withcolor,460924,blue,,,,null,GW/camera.jpg,GW/snail.jpg,,,,,,,,,,,,
867.5999999046326,,rt_thecrossant_black,462477,black_plus_sign,,,,49,,,1,0.9821428571428571,,,,,,,,,,
null,,color_black,462580,black_plus_sign,,,,null,,,,,,,,,,,,,,
null,,learn_phase(without_color),464584,black_plus_sign,,,,null,GW/jukebox.jpg,GW/barrel.jpg,,,,,,,,,,,,
null,,black_cross(without_color),465028,blue,,,,null,GW/jukebox.jpg,GW/barrel.jpg,,,,,,,,,,,,
null,,rt_plussign_withcolor,465530,blue,,,,null,GW/jukebox.jpg,GW/barrel.jpg,,,,,,,,,,,,
828.7999999523163,,rt_thecrossant_black,467090,black_plus_sign,,,,49,,,1,0.9824561403508771,,,,,,,,,,
null,,color_black,467192,black_plus_sign,,,,null,,,,,,,,,,,,,,
null,,learn_phase(without_color),469195,black_plus_sign,,,,null,GW/globe.jpg,GW/hat.jpg,,,,,,,,,,,,
null,,black_cross(without_color),469948,green,,,,null,GW/globe.jpg,GW/hat.jpg,,,,,,,,,,,,
null,,rt_plussign_withcolor,470449,green,,,,null,GW/globe.jpg,GW/hat.jpg,,,,,,,,,,,,
695.3000000715256,,rt_thecrossant_black,471699,black_plus_sign,,,,50,,,1,0.9827586206896551,,,,,,,,,,
null,,color_black,471801,black_plus_sign,,,,null,,,,,,,,,,,,,,
null,,learn_phase(without_color),473803,black_plus_sign,,,,null,GW/barrel.jpg,GW/camera.jpg,,,,,,,,,,,,
null,,black_cross(without_color),474307,blue,,,,null,GW/barrel.jpg,GW/camera.jpg,,,,,,,,,,,,
null,,rt_plussign_withcolor,474820,blue,,,,null,GW/barrel.jpg,GW/camera.jpg,,,,,,,,,,,,
995.2000000476837,,rt_thecrossant_black,476321,black_plus_sign,,,,49,,,1,0.9830508474576272,,,,,,,,,,
null,,color_black,476422,black_plus_sign,,,,null,,,,,,,,,,,,,,
null,,learn_phase(without_color),478426,black_plus_sign,,,,null,GW/soldier.jpg,GW/jukebox.jpg,,,,,,,,,,,,
null,,black_cross(without_color),479036,blue,,,,null,GW/soldier.jpg,GW/jukebox.jpg,,,,,,,,,,,,
null,,rt_plussign_withcolor,479550,blue,,,,null,GW/soldier.jpg,GW/jukebox.jpg,,,,,,,,,,,,
726.8000000715256,,rt_thecrossant_black,480945,black_plus_sign,,,,49,,,1,0.9833333333333333,,,,,,,,,,
null,,color_black,481048,black_plus_sign,,,,null,,,,,,,,,,,,,,
null,,learn_phase(without_color),483054,black_plus_sign,,,,null,GW/barrel.jpg,GW/camera.jpg,,,,,,,,,,,,
null,,black_cross(without_color),483480,blue,,,,null,GW/barrel.jpg,GW/camera.jpg,,,,,,,,,,,,
null,,rt_plussign_withcolor,483983,blue,,,,null,GW/barrel.jpg,GW/camera.jpg,,,,,,,,,,,,
889.3000000715256,,rt_thecrossant_black,485563,black_plus_sign,,,,49,,,1,0.9836065573770492,,,,,,,,,,
null,,color_black,485666,black_plus_sign,,,,null,,,,,,,,,,,,,,
null,,learn_phase(without_color),487668,black_plus_sign,,,,null,GW/jukebox.jpg,GW/barrel.jpg,,,,,,,,,,,,
null,,black_cross(without_color),488138,blue,,,,null,GW/jukebox.jpg,GW/barrel.jpg,,,,,,,,,,,,
null,,rt_plussign_withcolor,488639,blue,,,,null,GW/jukebox.jpg,GW/barrel.jpg,,,,,,,,,,,,
667.4000000953674,,rt_thecrossant_black,490175,black_plus_sign,,,,49,,,1,0.9838709677419355,,,,,,,,,,
null,,color_black,490277,black_plus_sign,,,,null,,,,,,,,,,,,,,
null,,learn_phase(without_color),492281,black_plus_sign,,,,null,GW/snail.jpg,GW/globe.jpg,,,,,,,,,,,,
null,,black_cross(without_color),492761,green,,,,null,GW/snail.jpg,GW/globe.jpg,,,,,,,,,,,,
null,,rt_plussign_withcolor,493263,green,,,,null,GW/snail.jpg,GW/globe.jpg,,,,,,,,,,,,
1347.5,,rt_thecrossant_black,494787,black_plus_sign,,,,50,,,1,0.9841269841269841,,,,,,,,,,
null,,color_black,494890,black_plus_sign,,,,null,,,,,,,,,,,,,,
null,,learn_phase(without_color),496892,black_plus_sign,,,,null,GW/snail.jpg,GW/gong.jpg,,,,,,,,,,,,
null,,black_cross(without_color),497335,green,,,,null,GW/snail.jpg,GW/gong.jpg,,,,,,,,,,,,
null,,rt_plussign_withcolor,497836,green,,,,null,GW/snail.jpg,GW/gong.jpg,,,,,,,,,,,,
666,,rt_thecrossant_black,499401,black_plus_sign,,,,50,,,1,0.984375,,,,,,,,,,
null,,color_black,499506,black_plus_sign,,,,null,,,,,,,,,,,,,,
null,,learn_phase(without_color),501510,black_plus_sign,,,,null,GW/wheelchair.jpg,GW/soldier.jpg,,,,,,,,,,,,
null,,black_cross(without_color),502233,blue,,,,null,GW/wheelchair.jpg,GW/soldier.jpg,,,,,,,,,,,,
null,,rt_plussign_withcolor,502734,blue,,,,null,GW/wheelchair.jpg,GW/soldier.jpg,,,,,,,,,,,,
645,,rt_thecrossant_black,504017,black_plus_sign,,,,49,,,1,0.9846153846153847,,,,,,,,,,
null,,color_black,504119,black_plus_sign,,,,null,,,,,,,,,,,,,,
null,,learn_phase(without_color),506122,black_plus_sign,,,,null,GW/snail.jpg,GW/globe.jpg,,,,,,,,,,,,
null,,black_cross(without_color),507113,blue,,,,null,GW/snail.jpg,GW/globe.jpg,,,,,,,,,,,,
null,,rt_plussign_withcolor,507616,blue,,,,null,GW/snail.jpg,GW/globe.jpg,,,,,,,,,,,,
987.8999999761581,,rt_thecrossant_black,508630,black_plus_sign,,,,49,,,1,0.9848484848484849,,,,,,,,,,
null,,color_black,508732,black_plus_sign,,,,null,,,,,,,,,,,,,,
null,,learn_phase(without_color),510737,black_plus_sign,,,,null,GW/dustpan.jpg,GW/basket.jpg,,,,,,,,,,,,
null,,black_cross(without_color),511529,blue,,,,null,GW/dustpan.jpg,GW/basket.jpg,,,,,,,,,,,,
null,,rt_plussign_withcolor,512032,blue,,,,null,GW/dustpan.jpg,GW/basket.jpg,,,,,,,,,,,,
1400.2999999523163,,rt_thecrossant_black,513246,black_plus_sign,,,,49,,,1,0.9850746268656716,,,,,,,,,,
null,,color_black,513348,black_plus_sign,,,,null,,,,,,,,,,,,,,
null,,learn_phase(without_color),515354,black_plus_sign,,,,null,GW/snail.jpg,GW/globe.jpg,,,,,,,,,,,,
null,,black_cross(without_color),516063,green,,,,null,GW/snail.jpg,GW/globe.jpg,,,,,,,,,,,,
null,,rt_plussign_withcolor,516565,green,,,,null,GW/snail.jpg,GW/globe.jpg,,,,,,,,,,,,
1007.2000000476837,,rt_thecrossant_black,517860,black_plus_sign,,,,50,,,1,0.9852941176470589,,,,,,,,,,
null,,color_black,517963,black_plus_sign,,,,null,,,,,,,,,,,,,,
null,,learn_phase(without_color),519965,black_plus_sign,,,,null,GW/globe.jpg,GW/hat.jpg,,,,,,,,,,,,
null,,black_cross(without_color),520736,green,,,,null,GW/globe.jpg,GW/hat.jpg,,,,,,,,,,,,
null,,rt_plussign_withcolor,521239,green,,,,null,GW/globe.jpg,GW/hat.jpg,,,,,,,,,,,,
923.8000000715256,,rt_thecrossant_black,522472,black_plus_sign,,,,50,,,1,0.9855072463768116,,,,,,,,,,
null,,color_black,522575,black_plus_sign,,,,null,,,,,,,,,,,,,,
null,,learn_phase(without_color),524579,black_plus_sign,,,,null,GW/camera.jpg,GW/globe.jpg,,,,,,,,,,,,
null,,black_cross(without_color),525639,green,,,,null,GW/camera.jpg,GW/globe.jpg,,,,,,,,,,,,
null,,rt_plussign_withcolor,526142,green,,,,null,GW/camera.jpg,GW/globe.jpg,,,,,,,,,,,,
884.6000000238419,,rt_thecrossant_black,527087,black_plus_sign,,,,50,,,1,0.9857142857142858,,,,,,,,,,
null,,color_black,527189,black_plus_sign,,,,null,,,,,,,,,,,,,,
null,,learn_phase(without_color),529205,black_plus_sign,,,,null,GW/soldier.jpg,GW/dustpan.jpg,,,,,,,,,,,,
null,,black_cross(without_color),530309,blue,,,,null,GW/soldier.jpg,GW/dustpan.jpg,,,,,,,,,,,,
null,,rt_plussign_withcolor,530811,blue,,,,null,GW/soldier.jpg,GW/dustpan.jpg,,,,,,,,,,,,
1250.6999999284744,,rt_thecrossant_black,531713,black_plus_sign,,,,49,,,1,0.9859154929577465,,,,,,,,,,
null,,color_black,531816,black_plus_sign,,,,null,,,,,,,,,,,,,,
null,,learn_phase(without_color),533820,black_plus_sign,,,,null,GW/camera.jpg,GW/snail.jpg,,,,,,,,,,,,
null,,black_cross(without_color),534404,green,,,,null,GW/camera.jpg,GW/snail.jpg,,,,,,,,,,,,
null,,rt_plussign_withcolor,534905,green,,,,null,GW/camera.jpg,GW/snail.jpg,,,,,,,,,,,,
1289.3999999761581,,rt_thecrossant_black,536325,black_plus_sign,,,,50,,,1,0.9861111111111112,,,,,,,,,,
null,,color_black,536428,black_plus_sign,,,,null,,,,,,,,,,,,,,
null,,learn_phase(without_color),538430,black_plus_sign,,,,null,GW/camera.jpg,GW/globe.jpg,,,,,,,,,,,,
null,,black_cross(without_color),538870,blue,,,,null,GW/camera.jpg,GW/globe.jpg,,,,,,,,,,,,
null,,rt_plussign_withcolor,539372,blue,,,,null,GW/camera.jpg,GW/globe.jpg,,,,,,,,,,,,
885.1999999284744,,rt_thecrossant_black,540939,black_plus_sign,,,,49,,,1,0.9863013698630136,,,,,,,,,,
null,,color_black,541043,black_plus_sign,,,,null,,,,,,,,,,,,,,
null,,learn_phase(without_color),543045,black_plus_sign,,,,null,GW/soldier.jpg,GW/dustpan.jpg,,,,,,,,,,,,
null,,black_cross(without_color),543829,green,,,,null,GW/soldier.jpg,GW/dustpan.jpg,,,,,,,,,,,,
null,,rt_plussign_withcolor,544331,green,,,,null,GW/soldier.jpg,GW/dustpan.jpg,,,,,,,,,,,,
608.6999999284744,,rt_thecrossant_black,545553,black_plus_sign,,,,50,,,1,0.9864864864864865,,,,,,,,,,
null,,color_black,545656,black_plus_sign,,,,null,,,,,,,,,,,,,,
null,,learn_phase(without_color),547659,black_plus_sign,,,,null,GW/barrel.jpg,GW/globe.jpg,,,,,,,,,,,,
null,,black_cross(without_color),548497,green,,,,null,GW/barrel.jpg,GW/globe.jpg,,,,,,,,,,,,
null,,rt_plussign_withcolor,548999,green,,,,null,GW/barrel.jpg,GW/globe.jpg,,,,,,,,,,,,
1232.5,,rt_thecrossant_black,550166,black_plus_sign,,,,50,,,1,0.9866666666666667,,,,,,,,,,
null,,color_black,550269,black_plus_sign,,,,null,,,,,,,,,,,,,,
null,,learn_phase(without_color),552272,black_plus_sign,,,,null,GW/jukebox.jpg,GW/hat.jpg,,,,,,,,,,,,
null,,black_cross(without_color),552776,green,,,,null,GW/jukebox.jpg,GW/hat.jpg,,,,,,,,,,,,
null,,rt_plussign_withcolor,553278,green,,,,null,GW/jukebox.jpg,GW/hat.jpg,,,,,,,,,,,,
1019,,rt_thecrossant_black,554778,black_plus_sign,,,,50,,,1,0.9868421052631579,,,,,,,,,,
null,,color_black,554880,black_plus_sign,,,,null,,,,,,,,,,,,,,
null,,learn_phase(without_color),556882,black_plus_sign,,,,null,GW/soldier.jpg,GW/dustpan.jpg,,,,,,,,,,,,
null,,black_cross(without_color),557629,green,,,,null,GW/soldier.jpg,GW/dustpan.jpg,,,,,,,,,,,,
null,,rt_plussign_withcolor,558131,green,,,,null,GW/soldier.jpg,GW/dustpan.jpg,,,,,,,,,,,,
620.6000000238419,,rt_thecrossant_black,559388,black_plus_sign,,,,50,,,1,0.987012987012987,,,,,,,,,,
null,,color_black,559490,black_plus_sign,,,,null,,,,,,,,,,,,,,
null,,learn_phase(without_color),561492,black_plus_sign,,,,null,GW/barrel.jpg,GW/globe.jpg,,,,,,,,,,,,
null,,black_cross(without_color),562483,green,,,,null,GW/barrel.jpg,GW/globe.jpg,,,,,,,,,,,,
null,,rt_plussign_withcolor,562986,green,,,,null,GW/barrel.jpg,GW/globe.jpg,,,,,,,,,,,,
1024.7000000476837,,rt_thecrossant_black,564001,black_plus_sign,,,,50,,,1,0.9871794871794872,,,,,,,,,,
null,,color_black,564121,black_plus_sign,,,,null,,,,,,,,,,,,,,
null,,learn_phase(without_color),566123,black_plus_sign,,,,null,GW/globe.jpg,GW/hat.jpg,,,,,,,,,,,,
null,,black_cross(without_color),566930,green,,,,null,GW/globe.jpg,GW/hat.jpg,,,,,,,,,,,,
null,,rt_plussign_withcolor,567432,green,,,,null,GW/globe.jpg,GW/hat.jpg,,,,,,,,,,,,
1299.6000000238419,,rt_thecrossant_black,568631,black_plus_sign,,,,50,,,1,0.9873417721518988,,,,,,,,,,
null,,color_black,568734,black_plus_sign,,,,null,,,,,,,,,,,,,,
null,,learn_phase(without_color),570738,black_plus_sign,,,,null,GW/hat.jpg,GW/basket.jpg,,,,,,,,,,,,
null,,black_cross(without_color),571392,blue,,,,null,GW/hat.jpg,GW/basket.jpg,,,,,,,,,,,,
null,,rt_plussign_withcolor,571894,blue,,,,null,GW/hat.jpg,GW/basket.jpg,,,,,,,,,,,,
1064.8999999761581,,rt_thecrossant_black,573244,black_plus_sign,,,,49,,,1,0.9875,,,,,,,,,,
null,,color_black,573346,black_plus_sign,,,,null,,,,,,,,,,,,,,
null,,learn_phase(without_color),575350,black_plus_sign,,,,null,GW/camera.jpg,GW/paint.jpg,,,,,,,,,,,,
null,,black_cross(without_color),576143,green,,,,null,GW/camera.jpg,GW/paint.jpg,,,,,,,,,,,,
null,,rt_plussign_withcolor,576645,green,,,,null,GW/camera.jpg,GW/paint.jpg,,,,,,,,,,,,
977.3999999761581,,rt_thecrossant_black,577856,black_plus_sign,,,,50,,,1,0.9876543209876543,,,,,,,,,,
null,,color_black,577959,black_plus_sign,,,,null,,,,,,,,,,,,,,
null,,learn_phase(without_color),579963,black_plus_sign,,,,null,GW/snail.jpg,GW/gong.jpg,,,,,,,,,,,,
null,,black_cross(without_color),580922,blue,,,,null,GW/snail.jpg,GW/gong.jpg,,,,,,,,,,,,
null,,rt_plussign_withcolor,581426,blue,,,,null,GW/snail.jpg,GW/gong.jpg,,,,,,,,,,,,
979.6999999284744,,rt_thecrossant_black,582473,black_plus_sign,,,,49,,,1,0.9878048780487805,,,,,,,,,,
null,,color_black,582575,black_plus_sign,,,,null,,,,,,,,,,,,,,
null,,learn_phase(without_color),584578,black_plus_sign,,,,null,GW/camera.jpg,GW/snail.jpg,,,,,,,,,,,,
null,,black_cross(without_color),585231,blue,,,,null,GW/camera.jpg,GW/snail.jpg,,,,,,,,,,,,
null,,rt_plussign_withcolor,585733,blue,,,,null,GW/camera.jpg,GW/snail.jpg,,,,,,,,,,,,
1514.5999999046326,,rt_thecrossant_black,587085,black_plus_sign,,,,49,,,1,0.9879518072289156,,,,,,,,,,
null,,color_black,587187,black_plus_sign,,,,null,,,,,,,,,,,,,,
null,,learn_phase(without_color),589190,black_plus_sign,,,,null,GW/soldier.jpg,GW/jukebox.jpg,,,,,,,,,,,,
null,,black_cross(without_color),590034,green,,,,null,GW/soldier.jpg,GW/jukebox.jpg,,,,,,,,,,,,
null,,rt_plussign_withcolor,590536,green,,,,null,GW/soldier.jpg,GW/jukebox.jpg,,,,,,,,,,,,
865.5,,rt_thecrossant_black,591698,black_plus_sign,,,,50,,,1,0.9880952380952381,,,,,,,,,,
null,,color_black,591801,black_plus_sign,,,,null,,,,,,,,,,,,,,
null,,learn_phase(without_color),593805,black_plus_sign,,,,null,GW/jukebox.jpg,GW/hat.jpg,,,,,,,,,,,,
null,,black_cross(without_color),594854,green,,,,null,GW/jukebox.jpg,GW/hat.jpg,,,,,,,,,,,,
null,,rt_plussign_withcolor,595355,green,,,,null,GW/jukebox.jpg,GW/hat.jpg,,,,,,,,,,,,
982.2000000476837,,rt_thecrossant_black,596311,black_plus_sign,,,,50,,,1,0.9882352941176471,,,,,,,,,,
null,,color_black,596413,black_plus_sign,,,,null,,,,,,,,,,,,,,
null,,learn_phase(without_color),598416,black_plus_sign,,,,null,GW/wheelchair.jpg,GW/soldier.jpg,,,,,,,,,,,,
null,,black_cross(without_color),598834,blue,,,,null,GW/wheelchair.jpg,GW/soldier.jpg,,,,,,,,,,,,
null,,rt_plussign_withcolor,599335,blue,,,,null,GW/wheelchair.jpg,GW/soldier.jpg,,,,,,,,,,,,
1309.1999999284744,,rt_thecrossant_black,600924,black_plus_sign,,,,49,,,1,0.9883720930232558,,,,,,,,,,
null,,color_black,601027,black_plus_sign,,,,null,,,,,,,,,,,,,,
null,,learn_phase(without_color),603030,black_plus_sign,,,,null,GW/dustpan.jpg,GW/basket.jpg,,,,,,,,,,,,
null,,black_cross(without_color),603958,blue,,,,null,GW/dustpan.jpg,GW/basket.jpg,,,,,,,,,,,,
null,,rt_plussign_withcolor,604460,blue,,,,null,GW/dustpan.jpg,GW/basket.jpg,,,,,,,,,,,,
698.1000000238419,,rt_thecrossant_black,605538,black_plus_sign,,,,49,,,1,0.9885057471264368,,,,,,,,,,
null,,color_black,605640,black_plus_sign,,,,null,,,,,,,,,,,,,,
null,,learn_phase(without_color),607642,black_plus_sign,,,,null,GW/barrel.jpg,GW/globe.jpg,,,,,,,,,,,,
null,,black_cross(without_color),608373,green,,,,null,GW/barrel.jpg,GW/globe.jpg,,,,,,,,,,,,
null,,rt_plussign_withcolor,608875,green,,,,null,GW/barrel.jpg,GW/globe.jpg,,,,,,,,,,,,
1187.5,,rt_thecrossant_black,610158,black_plus_sign,,,,50,,,1,0.9886363636363636,,,,,,,,,,
null,,color_black,610260,black_plus_sign,,,,null,,,,,,,,,,,,,,
null,,learn_phase(without_color),612264,black_plus_sign,,,,null,GW/hat.jpg,GW/basket.jpg,,,,,,,,,,,,
null,,black_cross(without_color),613330,blue,,,,null,GW/hat.jpg,GW/basket.jpg,,,,,,,,,,,,
null,,rt_plussign_withcolor,613831,blue,,,,null,GW/hat.jpg,GW/basket.jpg,,,,,,,,,,,,
908.8999999761581,,rt_thecrossant_black,614772,black_plus_sign,,,,49,,,1,0.9887640449438202,,,,,,,,,,
null,,color_black,614875,black_plus_sign,,,,null,,,,,,,,,,,,,,
null,,learn_phase(without_color),616879,black_plus_sign,,,,null,GW/snail.jpg,GW/globe.jpg,,,,,,,,,,,,
null,,black_cross(without_color),617909,blue,,,,null,GW/snail.jpg,GW/globe.jpg,,,,,,,,,,,,
null,,rt_plussign_withcolor,618412,blue,,,,null,GW/snail.jpg,GW/globe.jpg,,,,,,,,,,,,
1223.6000000238419,,rt_thecrossant_black,619387,black_plus_sign,,,,49,,,1,0.9888888888888889,,,,,,,,,,
null,,color_black,619489,black_plus_sign,,,,null,,,,,,,,,,,,,,
null,,learn_phase(without_color),621492,black_plus_sign,,,,null,GW/hat.jpg,GW/basket.jpg,,,,,,,,,,,,
null,,black_cross(without_color),622535,green,,,,null,GW/hat.jpg,GW/basket.jpg,,,,,,,,,,,,
null,,rt_plussign_withcolor,623036,green,,,,null,GW/hat.jpg,GW/basket.jpg,,,,,,,,,,,,
1367,,rt_thecrossant_black,623997,black_plus_sign,,,,50,,,1,0.989010989010989,,,,,,,,,,
null,,color_black,624100,black_plus_sign,,,,null,,,,,,,,,,,,,,
null,,learn_phase(without_color),626102,black_plus_sign,,,,null,GW/camera.jpg,GW/snail.jpg,,,,,,,,,,,,
null,,black_cross(without_color),626601,blue,,,,null,GW/camera.jpg,GW/snail.jpg,,,,,,,,,,,,
null,,rt_plussign_withcolor,627104,blue,,,,null,GW/camera.jpg,GW/snail.jpg,,,,,,,,,,,,
1206.3000000715256,,rt_thecrossant_black,628612,black_plus_sign,,,,49,,,1,0.9891304347826086,,,,,,,,,,
null,,color_black,628715,black_plus_sign,,,,null,,,,,,,,,,,,,,
null,,learn_phase(without_color),630720,black_plus_sign,,,,null,GW/jukebox.jpg,GW/hat.jpg,,,,,,,,,,,,
null,,black_cross(without_color),631725,green,,,,null,GW/jukebox.jpg,GW/hat.jpg,,,,,,,,,,,,
null,,rt_plussign_withcolor,632228,green,,,,null,GW/jukebox.jpg,GW/hat.jpg,,,,,,,,,,,,
601.7999999523163,,rt_thecrossant_black,633228,black_plus_sign,,,,50,,,1,0.989247311827957,,,,,,,,,,
null,,color_black,633331,black_plus_sign,,,,null,,,,,,,,,,,,,,
null,,learn_phase(without_color),635335,black_plus_sign,,,,null,GW/camera.jpg,GW/paint.jpg,,,,,,,,,,,,
null,,black_cross(without_color),636345,blue,,,,null,GW/camera.jpg,GW/paint.jpg,,,,,,,,,,,,
null,,rt_plussign_withcolor,636847,blue,,,,null,GW/camera.jpg,GW/paint.jpg,,,,,,,,,,,,
1503.1999999284744,,rt_thecrossant_black,637848,black_plus_sign,,,,49,,,1,0.9893617021276596,,,,,,,,,,
null,,color_black,637949,black_plus_sign,,,,null,,,,,,,,,,,,,,
null,,learn_phase(without_color),639952,black_plus_sign,,,,null,GW/hat.jpg,GW/basket.jpg,,,,,,,,,,,,
null,,black_cross(without_color),640660,blue,,,,null,GW/hat.jpg,GW/basket.jpg,,,,,,,,,,,,
null,,rt_plussign_withcolor,641163,blue,,,,null,GW/hat.jpg,GW/basket.jpg,,,,,,,,,,,,
1277.3000000715256,,rt_thecrossant_black,642459,black_plus_sign,,,,49,,,1,0.9894736842105263,,,,,,,,,,
null,,color_black,642563,black_plus_sign,,,,null,,,,,,,,,,,,,,
null,,learn_phase(without_color),644566,black_plus_sign,,,,null,GW/soldier.jpg,GW/dustpan.jpg,,,,,,,,,,,,
null,,black_cross(without_color),645547,green,,,,null,GW/soldier.jpg,GW/dustpan.jpg,,,,,,,,,,,,
null,,rt_plussign_withcolor,646051,green,,,,null,GW/soldier.jpg,GW/dustpan.jpg,,,,,,,,,,,,
1026.2000000476837,,rt_thecrossant_black,647075,black_plus_sign,,,,50,,,1,0.9895833333333334,,,,,,,,,,
null,,color_black,647178,black_plus_sign,,,,null,,,,,,,,,,,,,,
null,,learn_phase(without_color),649181,black_plus_sign,,,,null,GW/camera.jpg,GW/globe.jpg,,,,,,,,,,,,
null,,black_cross(without_color),650169,green,,,,null,GW/camera.jpg,GW/globe.jpg,,,,,,,,,,,,
null,,rt_plussign_withcolor,650671,green,,,,null,GW/camera.jpg,GW/globe.jpg,,,,,,,,,,,,
1247.2000000476837,,rt_thecrossant_black,651689,black_plus_sign,,,,50,,,1,0.9896907216494846,,,,,,,,,,
null,,color_black,651792,black_plus_sign,,,,null,,,,,,,,,,,,,,
null,,learn_phase(without_color),653796,black_plus_sign,,,,null,GW/dustpan.jpg,GW/basket.jpg,,,,,,,,,,,,
null,,black_cross(without_color),654587,green,,,,null,GW/dustpan.jpg,GW/basket.jpg,,,,,,,,,,,,
null,,rt_plussign_withcolor,655089,green,,,,null,GW/dustpan.jpg,GW/basket.jpg,,,,,,,,,,,,
1214.1999999284744,,rt_thecrossant_black,656304,black_plus_sign,,,,50,,,1,0.9897959183673469,,,,,,,,,,
null,,color_black,656406,black_plus_sign,,,,null,,,,,,,,,,,,,,
null,,learn_phase(without_color),658409,black_plus_sign,,,,null,GW/barrel.jpg,GW/globe.jpg,,,,,,,,,,,,
null,,black_cross(without_color),659026,blue,,,,null,GW/barrel.jpg,GW/globe.jpg,,,,,,,,,,,,
null,,rt_plussign_withcolor,659529,blue,,,,null,GW/barrel.jpg,GW/globe.jpg,,,,,,,,,,,,
944.3000000715256,,rt_thecrossant_black,660916,black_plus_sign,,,,49,,,1,0.98989898989899,,,,,,,,,,
null,,color_black,661018,black_plus_sign,,,,null,,,,,,,,,,,,,,
null,,learn_phase(without_color),663021,black_plus_sign,,,,null,GW/soldier.jpg,GW/jukebox.jpg,,,,,,,,,,,,
null,,black_cross(without_color),663990,blue,,,,null,GW/soldier.jpg,GW/jukebox.jpg,,,,,,,,,,,,
null,,rt_plussign_withcolor,664492,blue,,,,null,GW/soldier.jpg,GW/jukebox.jpg,,,,,,,,,,,,
903.3999999761581,,rt_thecrossant_black,665528,black_plus_sign,,,,49,,,1,0.99,,,,,,,,,,
null,,color_black,665629,black_plus_sign,,,,null,,,,,,,,,,,,,,
null,,learn_phase(without_color),667632,black_plus_sign,,,,null,GW/snail.jpg,GW/gong.jpg,,,,,,,,,,,,
null,,black_cross(without_color),668696,green,,,,null,GW/snail.jpg,GW/gong.jpg,,,,,,,,,,,,
null,,rt_plussign_withcolor,669198,green,,,,null,GW/snail.jpg,GW/gong.jpg,,,,,,,,,,,,
1305.6000000238419,,rt_thecrossant_black,670138,black_plus_sign,,,,50,,,1,0.9900990099009901,,,,,,,,,,
null,,color_black,670241,black_plus_sign,,,,null,,,,,,,,,,,,,,
null,,learn_phase(without_color),672243,black_plus_sign,,,,null,GW/jukebox.jpg,GW/hat.jpg,,,,,,,,,,,,
null,,black_cross(without_color),673149,green,,,,null,GW/jukebox.jpg,GW/hat.jpg,,,,,,,,,,,,
null,,rt_plussign_withcolor,673651,green,,,,null,GW/jukebox.jpg,GW/hat.jpg,,,,,,,,,,,,
1510.7999999523163,,rt_thecrossant_black,674753,black_plus_sign,,,,50,,,1,0.9901960784313726,,,,,,,,,,
null,,color_black,674856,black_plus_sign,,,,null,,,,,,,,,,,,,,
null,,learn_phase(without_color),676859,black_plus_sign,,,,null,GW/snail.jpg,GW/globe.jpg,,,,,,,,,,,,
null,,black_cross(without_color),677415,green,,,,null,GW/snail.jpg,GW/globe.jpg,,,,,,,,,,,,
null,,rt_plussign_withcolor,677917,green,,,,null,GW/snail.jpg,GW/globe.jpg,,,,,,,,,,,,
1229.3999999761581,,rt_thecrossant_black,679365,black_plus_sign,,,,50,,,1,0.9902912621359223,,,,,,,,,,
null,,color_black,679469,black_plus_sign,,,,null,,,,,,,,,,,,,,
null,,learn_phase(without_color),681472,black_plus_sign,,,,null,GW/dustpan.jpg,GW/teeth.jpg,,,,,,,,,,,,
null,,black_cross(without_color),681958,green,,,,null,GW/dustpan.jpg,GW/teeth.jpg,,,,,,,,,,,,
null,,rt_plussign_withcolor,682466,green,,,,null,GW/dustpan.jpg,GW/teeth.jpg,,,,,,,,,,,,
915.7000000476837,,rt_thecrossant_black,683987,black_plus_sign,,,,50,,,1,0.9903846153846154,,,,,,,,,,
null,,color_black,684091,black_plus_sign,,,,null,,,,,,,,,,,,,,
null,,learn_phase(without_color),686095,black_plus_sign,,,,null,GW/camera.jpg,GW/paint.jpg,,,,,,,,,,,,
null,,black_cross(without_color),687151,blue,,,,null,GW/camera.jpg,GW/paint.jpg,,,,,,,,,,,,
null,,rt_plussign_withcolor,687654,blue,,,,null,GW/camera.jpg,GW/paint.jpg,,,,,,,,,,,,
614.6000000238419,,rt_thecrossant_black,688604,black_plus_sign,,,,49,,,1,0.9904761904761905,,,,,,,,,,
null,,color_black,688709,black_plus_sign,,,,null,,,,,,,,,,,,,,
null,,learn_phase(without_color),690713,black_plus_sign,,,,null,GW/jukebox.jpg,GW/barrel.jpg,,,,,,,,,,,,
null,,black_cross(without_color),691566,blue,,,,null,GW/jukebox.jpg,GW/barrel.jpg,,,,,,,,,,,,
null,,rt_plussign_withcolor,692067,blue,,,,null,GW/jukebox.jpg,GW/barrel.jpg,,,,,,,,,,,,
1358.8999999761581,,rt_thecrossant_black,693220,black_plus_sign,,,,49,,,1,0.9905660377358491,,,,,,,,,,
null,,color_black,693322,black_plus_sign,,,,null,,,,,,,,,,,,,,
null,,learn_phase(without_color),695325,black_plus_sign,,,,null,GW/camera.jpg,GW/paint.jpg,,,,,,,,,,,,
null,,black_cross(without_color),695889,blue,,,,null,GW/camera.jpg,GW/paint.jpg,,,,,,,,,,,,
null,,rt_plussign_withcolor,696390,blue,,,,null,GW/camera.jpg,GW/paint.jpg,,,,,,,,,,,,
1413.7000000476837,,rt_thecrossant_black,697837,black_plus_sign,,,,49,,,1,0.9906542056074766,,,,,,,,,,
null,,color_black,697940,black_plus_sign,,,,null,,,,,,,,,,,,,,
null,,learn_phase(without_color),699944,black_plus_sign,,,,null,GW/globe.jpg,GW/hat.jpg,,,,,,,,,,,,
null,,black_cross(without_color),700892,green,,,,null,GW/globe.jpg,GW/hat.jpg,,,,,,,,,,,,
null,,rt_plussign_withcolor,701401,green,,,,null,GW/globe.jpg,GW/hat.jpg,,,,,,,,,,,,
741.3999999761581,,rt_thecrossant_black,702458,black_plus_sign,,,,50,,,1,0.9907407407407407,,,,,,,,,,
null,,color_black,702561,black_plus_sign,,,,null,,,,,,,,,,,,,,
null,,learn_phase(without_color),704564,black_plus_sign,,,,null,GW/wheelchair.jpg,GW/soldier.jpg,,,,,,,,,,,,
null,,black_cross(without_color),705014,blue,,,,null,GW/wheelchair.jpg,GW/soldier.jpg,,,,,,,,,,,,
null,,rt_plussign_withcolor,705516,blue,,,,null,GW/wheelchair.jpg,GW/soldier.jpg,,,,,,,,,,,,
1242.1000000238419,,rt_thecrossant_black,707071,black_plus_sign,,,,49,,,1,0.9908256880733946,,,,,,,,,,
null,,color_black,707176,black_plus_sign,,,,null,,,,,,,,,,,,,,
null,,learn_phase(without_color),709185,black_plus_sign,,,,null,GW/snail.jpg,GW/gong.jpg,,,,,,,,,,,,
null,,black_cross(without_color),709787,blue,,,,null,GW/snail.jpg,GW/gong.jpg,,,,,,,,,,,,
null,,rt_plussign_withcolor,710292,blue,,,,null,GW/snail.jpg,GW/gong.jpg,,,,,,,,,,,,
599.6000000238419,,rt_thecrossant_black,711696,black_plus_sign,,,,49,,,1,0.990909090909091,,,,,,,,,,
null,,color_black,711799,black_plus_sign,,,,null,,,,,,,,,,,,,,
null,,learn_phase(without_color),713802,black_plus_sign,,,,null,GW/dustpan.jpg,GW/basket.jpg,,,,,,,,,,,,
null,,black_cross(without_color),714691,blue,,,,null,GW/dustpan.jpg,GW/basket.jpg,,,,,,,,,,,,
null,,rt_plussign_withcolor,715194,blue,,,,null,GW/dustpan.jpg,GW/basket.jpg,,,,,,,,,,,,
825.2000000476837,,rt_thecrossant_black,716310,black_plus_sign,,,,49,,,1,0.990990990990991,,,,,,,,,,
null,,color_black,716428,black_plus_sign,,,,null,,,,,,,,,,,,,,
null,,learn_phase(without_color),718432,black_plus_sign,,,,null,GW/soldier.jpg,GW/jukebox.jpg,,,,,,,,,,,,
null,,black_cross(without_color),719286,blue,,,,null,GW/soldier.jpg,GW/jukebox.jpg,,,,,,,,,,,,
null,,rt_plussign_withcolor,719787,blue,,,,null,GW/soldier.jpg,GW/jukebox.jpg,,,,,,,,,,,,
1074,,rt_thecrossant_black,720938,black_plus_sign,,,,49,,,1,0.9910714285714286,,,,,,,,,,
null,,color_black,721041,black_plus_sign,,,,null,,,,,,,,,,,,,,
null,,learn_phase(without_color),723044,black_plus_sign,,,,null,GW/snail.jpg,GW/globe.jpg,,,,,,,,,,,,
null,,black_cross(without_color),723788,green,,,,null,GW/snail.jpg,GW/globe.jpg,,,,,,,,,,,,
null,,rt_plussign_withcolor,724291,green,,,,null,GW/snail.jpg,GW/globe.jpg,,,,,,,,,,,,
1328.6999999284744,,rt_thecrossant_black,725551,black_plus_sign,,,,50,,,1,0.9911504424778761,,,,,,,,,,
null,,color_black,725655,black_plus_sign,,,,null,,,,,,,,,,,,,,
null,,learn_phase(without_color),727660,black_plus_sign,,,,null,GW/hat.jpg,GW/basket.jpg,,,,,,,,,,,,
null,,black_cross(without_color),728103,blue,,,,null,GW/hat.jpg,GW/basket.jpg,,,,,,,,,,,,
null,,rt_plussign_withcolor,728604,blue,,,,null,GW/hat.jpg,GW/basket.jpg,,,,,,,,,,,,
1047.2999999523163,,rt_thecrossant_black,730165,black_plus_sign,,,,49,,,1,0.9912280701754386,,,,,,,,,,
null,,color_black,730268,black_plus_sign,,,,null,,,,,,,,,,,,,,
null,,learn_phase(without_color),732271,black_plus_sign,,,,null,GW/wheelchair.jpg,GW/soldier.jpg,,,,,,,,,,,,
null,,black_cross(without_color),732880,blue,,,,null,GW/wheelchair.jpg,GW/soldier.jpg,,,,,,,,,,,,
null,,rt_plussign_withcolor,733382,blue,,,,null,GW/wheelchair.jpg,GW/soldier.jpg,,,,,,,,,,,,
647.2999999523163,,rt_thecrossant_black,734778,black_plus_sign,,,,49,,,1,0.991304347826087,,,,,,,,,,
null,,color_black,734880,black_plus_sign,,,,null,,,,,,,,,,,,,,
null,,learn_phase(without_color),736884,black_plus_sign,,,,null,GW/soldier.jpg,GW/dustpan.jpg,,,,,,,,,,,,
null,,black_cross(without_color),737389,blue,,,,null,GW/soldier.jpg,GW/dustpan.jpg,,,,,,,,,,,,
null,,rt_plussign_withcolor,737891,blue,,,,null,GW/soldier.jpg,GW/dustpan.jpg,,,,,,,,,,,,
814.1000000238419,,rt_thecrossant_black,739392,black_plus_sign,,,,49,,,1,0.9913793103448276,,,,,,,,,,
null,,color_black,739509,black_plus_sign,,,,null,,,,,,,,,,,,,,
null,,learn_phase(without_color),741511,black_plus_sign,,,,null,GW/hat.jpg,GW/basket.jpg,,,,,,,,,,,,
null,,black_cross(without_color),742450,blue,,,,null,GW/hat.jpg,GW/basket.jpg,,,,,,,,,,,,
null,,rt_plussign_withcolor,742953,blue,,,,null,GW/hat.jpg,GW/basket.jpg,,,,,,,,,,,,
637.5,,rt_thecrossant_black,744020,black_plus_sign,,,,49,,,1,0.9914529914529915,,,,,,,,,,
null,,color_black,744122,black_plus_sign,,,,null,,,,,,,,,,,,,,
null,,learn_phase(without_color),746125,black_plus_sign,,,,null,GW/jukebox.jpg,GW/barrel.jpg,,,,,,,,,,,,
null,,black_cross(without_color),746842,blue,,,,null,GW/jukebox.jpg,GW/barrel.jpg,,,,,,,,,,,,
null,,rt_plussign_withcolor,747345,blue,,,,null,GW/jukebox.jpg,GW/barrel.jpg,,,,,,,,,,,,
1110,,rt_thecrossant_black,748632,black_plus_sign,,,,49,,,1,0.9915254237288136,,,,,,,,,,
null,,color_black,748735,black_plus_sign,,,,null,,,,,,,,,,,,,,
null,,learn_phase(without_color),750738,black_plus_sign,,,,null,GW/dustpan.jpg,GW/teeth.jpg,,,,,,,,,,,,
null,,black_cross(without_color),751511,green,,,,null,GW/dustpan.jpg,GW/teeth.jpg,,,,,,,,,,,,
null,,rt_plussign_withcolor,752013,green,,,,null,GW/dustpan.jpg,GW/teeth.jpg,,,,,,,,,,,,
1059.7999999523163,,rt_thecrossant_black,753247,black_plus_sign,,,,50,,,1,0.9915966386554622,,,,,,,,,,
null,,color_black,753349,black_plus_sign,,,,null,,,,,,,,,,,,,,
null,,learn_phase(without_color),755352,black_plus_sign,,,,null,GW/wheelchair.jpg,GW/soldier.jpg,,,,,,,,,,,,
null,,black_cross(without_color),756053,blue,,,,null,GW/wheelchair.jpg,GW/soldier.jpg,,,,,,,,,,,,
null,,rt_plussign_withcolor,756555,blue,,,,null,GW/wheelchair.jpg,GW/soldier.jpg,,,,,,,,,,,,
1180,,rt_thecrossant_black,757860,black_plus_sign,,,,49,,,1,0.9916666666666667,,,,,,,,,,
null,,color_black,757963,black_plus_sign,,,,null,,,,,,,,,,,,,,
null,,learn_phase(without_color),759966,black_plus_sign,,,,null,GW/camera.jpg,GW/globe.jpg,,,,,,,,,,,,
null,,black_cross(without_color),760689,blue,,,,null,GW/camera.jpg,GW/globe.jpg,,,,,,,,,,,,
null,,rt_plussign_withcolor,761192,blue,,,,null,GW/camera.jpg,GW/globe.jpg,,,,,,,,,,,,
1157.3999999761581,,rt_thecrossant_black,762472,black_plus_sign,,,,49,,,1,0.9917355371900827,,,,,,,,,,
null,,color_black,762575,black_plus_sign,,,,null,,,,,,,,,,,,,,
null,,learn_phase(without_color),764577,black_plus_sign,,,,null,GW/dustpan.jpg,GW/teeth.jpg,,,,,,,,,,,,
null,,black_cross(without_color),765399,blue,,,,null,GW/dustpan.jpg,GW/teeth.jpg,,,,,,,,,,,,
null,,rt_plussign_withcolor,765900,blue,,,,null,GW/dustpan.jpg,GW/teeth.jpg,,,,,,,,,,,,
855.5,,rt_thecrossant_black,767083,black_plus_sign,,,,49,,,1,0.9918032786885246,,,,,,,,,,
null,,color_black,767187,black_plus_sign,,,,null,,,,,,,,,,,,,,
null,,learn_phase(without_color),769191,black_plus_sign,,,,null,GW/hat.jpg,GW/basket.jpg,,,,,,,,,,,,
null,,black_cross(without_color),769654,blue,,,,null,GW/hat.jpg,GW/basket.jpg,,,,,,,,,,,,
null,,rt_plussign_withcolor,770155,blue,,,,null,GW/hat.jpg,GW/basket.jpg,,,,,,,,,,,,
1010.1000000238419,,rt_thecrossant_black,771698,black_plus_sign,,,,49,,,1,0.991869918699187,,,,,,,,,,
null,,color_black,771801,black_plus_sign,,,,null,,,,,,,,,,,,,,
null,,learn_phase(without_color),773804,black_plus_sign,,,,null,GW/dustpan.jpg,GW/teeth.jpg,,,,,,,,,,,,
null,,black_cross(without_color),774347,blue,,,,null,GW/dustpan.jpg,GW/teeth.jpg,,,,,,,,,,,,
null,,rt_plussign_withcolor,774849,blue,,,,null,GW/dustpan.jpg,GW/teeth.jpg,,,,,,,,,,,,
855.1000000238419,,rt_thecrossant_black,776311,black_plus_sign,,,,49,,,1,0.9919354838709677,,,,,,,,,,
null,,color_black,776423,black_plus_sign,,,,null,,,,,,,,,,,,,,
null,,learn_phase(without_color),778426,black_plus_sign,,,,null,GW/camera.jpg,GW/paint.jpg,,,,,,,,,,,,
null,,black_cross(without_color),779138,blue,,,,null,GW/camera.jpg,GW/paint.jpg,,,,,,,,,,,,
null,,rt_plussign_withcolor,779640,blue,,,,null,GW/camera.jpg,GW/paint.jpg,,,,,,,,,,,,
746.1000000238419,,rt_thecrossant_black,780934,black_plus_sign,,,,49,,,1,0.992,,,,,,,,,,
null,,color_black,781037,black_plus_sign,,,,null,,,,,,,,,,,,,,
null,,learn_phase(without_color),783040,black_plus_sign,,,,null,GW/dustpan.jpg,GW/basket.jpg,,,,,,,,,,,,
null,,black_cross(without_color),783813,blue,,,,null,GW/dustpan.jpg,GW/basket.jpg,,,,,,,,,,,,
468.3000000715256,,rt_plussign_withcolor,784314,blue,,,,49,GW/dustpan.jpg,GW/basket.jpg,,,,,,,,,,,,
null,,rt_thecrossant_black,785547,black_plus_sign,,,,null,,,1,0.9920634920634921,,,,,,,,,,
null,,color_black,785651,black_plus_sign,,,,null,,,,,,,,,,,,,,
null,,learn_phase(without_color),787654,black_plus_sign,,,,null,GW/dustpan.jpg,GW/teeth.jpg,,,,,,,,,,,,
null,,black_cross(without_color),788362,green,,,,null,GW/dustpan.jpg,GW/teeth.jpg,,,,,,,,,,,,
null,,rt_plussign_withcolor,788870,green,,,,null,GW/dustpan.jpg,GW/teeth.jpg,,,,,,,,,,,,
921.2999999523163,,rt_thecrossant_black,790167,black_plus_sign,,,,50,,,1,0.9921259842519685,,,,,,,,,,
null,,color_black,790271,black_plus_sign,,,,null,,,,,,,,,,,,,,
null,,learn_phase(without_color),792275,black_plus_sign,,,,null,GW/jukebox.jpg,GW/barrel.jpg,,,,,,,,,,,,
null,,black_cross(without_color),793110,blue,,,,null,GW/jukebox.jpg,GW/barrel.jpg,,,,,,,,,,,,
null,,rt_plussign_withcolor,793613,blue,,,,null,GW/jukebox.jpg,GW/barrel.jpg,,,,,,,,,,,,
881.7999999523163,,rt_thecrossant_black,794786,black_plus_sign,,,,49,,,1,0.9921875,,,,,,,,,,
null,,color_black,794889,black_plus_sign,,,,null,,,,,,,,,,,,,,
25413.300000071526,,intro_1,820305,instruct,,0,Start,,,,,,,,,,,,,,,
null,,directmemory_phase,826810,GW/globe.jpg,,,,null,,,0,0,GW/paint.jpg,GW/hat.jpg,GW/wheelchair.jpg,GW/hat.jpg,GW/paint.jpg,GW/wheelchair.jpg,0,,,
null,,html-keyboard-response,827813,<p></p>,,,,null,,,,,,,,,,,,,,
2505.5,,directmemory_phase,830321,GW/barrel.jpg,,,,50,,,0,0,GW/dustpan.jpg,GW/paint.jpg,GW/jukebox.jpg,GW/jukebox.jpg,GW/paint.jpg,GW/dustpan.jpg,0.5,closer,,
null,,html-keyboard-response,831324,<p></p>,,,,null,,,,,,,,,,,,,,
2228.600000023842,,directmemory_phase,833556,GW/snail.jpg,,,,50,,,0,0,GW/basket.jpg,GW/barrel.jpg,GW/gong.jpg,GW/gong.jpg,GW/barrel.jpg,GW/basket.jpg,0.5,closer,,
null,,html-keyboard-response,834562,<p></p>,,,,null,,,,,,,,,,,,,,
2795.4000000953674,,directmemory_phase,837359,GW/teeth.jpg,,,,50,,,0,0,GW/hat.jpg,GW/soldier.jpg,GW/dustpan.jpg,GW/dustpan.jpg,GW/soldier.jpg,GW/hat.jpg,0.5,closer,,
null,,html-keyboard-response,838361,<p></p>,,,,null,,,,,,,,,,,,,,
3549.899999976158,,directmemory_phase,841913,GW/camera.jpg,,,,49,,,1,0.2,GW/paint.jpg,GW/soldier.jpg,GW/hat.jpg,GW/paint.jpg,GW/hat.jpg,GW/soldier.jpg,1,,,
null,,html-keyboard-response,842918,<p></p>,,,,null,,,,,,,,,,,,,,
2511.8000000715256,,directmemory_phase,845431,GW/hat.jpg,,,,49,,,0,0.16666666666666666,GW/camera.jpg,GW/basket.jpg,GW/gong.jpg,GW/basket.jpg,GW/camera.jpg,GW/gong.jpg,0.5,closer,,
null,,html-keyboard-response,846433,<p></p>,,,,null,,,,,,,,,,,,,,
2150.0999999046326,,directmemory_phase,848586,GW/barrel.jpg,,,,50,,,0,0.14285714285714285,GW/wheelchair.jpg,GW/paint.jpg,GW/globe.jpg,GW/globe.jpg,GW/paint.jpg,GW/wheelchair.jpg,0.5,closer,,
null,,html-keyboard-response,849588,<p></p>,,,,null,,,,,,,,,,,,,,
2514,,directmemory_phase,852105,GW/dustpan.jpg,,,,51,,,0,0.125,GW/soldier.jpg,GW/snail.jpg,GW/hat.jpg,GW/soldier.jpg,GW/hat.jpg,GW/snail.jpg,0.5,closer,,
null,,html-keyboard-response,853110,<p></p>,,,,null,,,,,,,,,,,,,,
2661.1999999284744,,directmemory_phase,855773,GW/barrel.jpg,,,,50,,,0,0.1111111111111111,GW/camera.jpg,GW/teeth.jpg,GW/soldier.jpg,GW/camera.jpg,GW/soldier.jpg,GW/teeth.jpg,0.5,closer,,
null,,html-keyboard-response,856775,<p></p>,,,,null,,,,,,,,,,,,,,
2738.1999999284744,,directmemory_phase,859516,GW/dustpan.jpg,,,,51,,,1,0.2,GW/snail.jpg,GW/wheelchair.jpg,GW/basket.jpg,GW/basket.jpg,GW/wheelchair.jpg,GW/snail.jpg,1,,,
null,,html-keyboard-response,860519,<p></p>,,,,null,,,,,,,,,,,,,,
2408.6999999284744,,directmemory_phase,862930,GW/snail.jpg,,,,50,,,1,0.2727272727272727,GW/barrel.jpg,GW/globe.jpg,GW/soldier.jpg,GW/globe.jpg,GW/barrel.jpg,GW/soldier.jpg,1,,,
null,,html-keyboard-response,863933,<p></p>,,,,null,,,,,,,,,,,,,,
2621.5,,directmemory_phase,866556,GW/dustpan.jpg,,,,51,,,1,0.3333333333333333,GW/globe.jpg,GW/wheelchair.jpg,GW/teeth.jpg,GW/teeth.jpg,GW/wheelchair.jpg,GW/globe.jpg,1,,,
null,,html-keyboard-response,867559,<p></p>,,,,null,,,,,,,,,,,,,,
2058.600000023842,,directmemory_phase,869620,GW/gong.jpg,,,,50,,,1,0.38461538461538464,GW/globe.jpg,GW/snail.jpg,GW/basket.jpg,GW/snail.jpg,GW/globe.jpg,GW/basket.jpg,1,,,
null,,html-keyboard-response,870622,<p></p>,,,,null,,,,,,,,,,,,,,
1790.2000000476837,,directmemory_phase,872414,GW/globe.jpg,,,,50,,,1,0.42857142857142855,GW/jukebox.jpg,GW/barrel.jpg,GW/dustpan.jpg,GW/barrel.jpg,GW/jukebox.jpg,GW/dustpan.jpg,1,,,
null,,html-keyboard-response,873418,<p></p>,,,,null,,,,,,,,,,,,,,
2729.600000023842,,directmemory_phase,876149,GW/basket.jpg,,,,49,,,1,0.4666666666666667,GW/hat.jpg,GW/barrel.jpg,GW/globe.jpg,GW/hat.jpg,GW/globe.jpg,GW/barrel.jpg,1,,,
null,,html-keyboard-response,877153,<p></p>,,,,null,,,,,,,,,,,,,,
2047.5,,directmemory_phase,879202,GW/soldier.jpg,,,,49,,,1,0.5,GW/wheelchair.jpg,GW/camera.jpg,GW/teeth.jpg,GW/wheelchair.jpg,GW/teeth.jpg,GW/camera.jpg,1,,,
null,,html-keyboard-response,880206,<p></p>,,,,null,,,,,,,,,,,,,,
1990.1000000238419,,directmemory_phase,882198,GW/hat.jpg,,,,49,,,1,0.5294117647058824,GW/globe.jpg,GW/teeth.jpg,GW/camera.jpg,GW/globe.jpg,GW/camera.jpg,GW/teeth.jpg,1,,,
null,,html-keyboard-response,883202,<p></p>,,,,null,,,,,,,,,,,,,,
1406.8999999761581,,directmemory_phase,884610,GW/paint.jpg,,,,49,,,1,0.5555555555555556,GW/camera.jpg,GW/gong.jpg,GW/globe.jpg,GW/camera.jpg,GW/globe.jpg,GW/gong.jpg,1,,,
null,,html-keyboard-response,885615,<p></p>,,,,null,,,,,,,,,,,,,,
1392.1999999284744,,directmemory_phase,887008,GW/wheelchair.jpg,,,,49,,,1,0.5789473684210527,GW/soldier.jpg,GW/barrel.jpg,GW/dustpan.jpg,GW/soldier.jpg,GW/dustpan.jpg,GW/barrel.jpg,1,,,
null,,html-keyboard-response,888013,<p></p>,,,,null,,,,,,,,,,,,,,
2057.899999976158,,directmemory_phase,890072,GW/globe.jpg,,,,49,,,1,0.6,GW/camera.jpg,GW/soldier.jpg,GW/gong.jpg,GW/camera.jpg,GW/gong.jpg,GW/soldier.jpg,1,,,
null,,html-keyboard-response,891075,<p></p>,,,,null,,,,,,,,,,,,,,
2310.5,,directmemory_phase,893388,GW/soldier.jpg,,,,49,,,1,0.6190476190476191,GW/jukebox.jpg,GW/snail.jpg,GW/teeth.jpg,GW/jukebox.jpg,GW/teeth.jpg,GW/snail.jpg,1,,,
null,,html-keyboard-response,894391,<p></p>,,,,null,,,,,,,,,,,,,,
2354.2999999523163,,directmemory_phase,896747,GW/camera.jpg,,,,50,,,0,0.5909090909090909,GW/basket.jpg,GW/hat.jpg,GW/barrel.jpg,GW/barrel.jpg,GW/hat.jpg,GW/basket.jpg,0.5,closer,,
null,,html-keyboard-response,897750,<p></p>,,,,null,,,,,,,,,,,,,,
2234.7000000476837,,directmemory_phase,899986,GW/jukebox.jpg,,,,49,,,0,0.5652173913043478,GW/paint.jpg,GW/basket.jpg,GW/hat.jpg,GW/hat.jpg,GW/basket.jpg,GW/paint.jpg,0.5,closer,,
null,,html-keyboard-response,900989,<p></p>,,,,null,,,,,,,,,,,,,,
4218.100000023842,,directmemory_phase,905210,GW/globe.jpg,,,,50,,,1,0.5833333333333334,GW/gong.jpg,GW/snail.jpg,GW/soldier.jpg,GW/snail.jpg,GW/gong.jpg,GW/soldier.jpg,1,,,
null,,html-keyboard-response,906213,<p></p>,,,,null,,,,,,,,,,,,,,
3001.899999976158,,directmemory_phase,909216,GW/jukebox.jpg,,,,49,,,1,0.6,GW/barrel.jpg,GW/gong.jpg,GW/globe.jpg,GW/barrel.jpg,GW/globe.jpg,GW/gong.jpg,1,,,
null,,html-keyboard-response,910221,<p></p>,,,,null,,,,,,,,,,,,,,
2064.5,,directmemory_phase,912287,GW/soldier.jpg,,,,49,,,1,0.6153846153846154,GW/dustpan.jpg,GW/snail.jpg,GW/basket.jpg,GW/dustpan.jpg,GW/basket.jpg,GW/snail.jpg,1,,,
null,,html-keyboard-response,913292,<p></p>,,,,null,,,,,,,,,,,,,,
1417.8000000715256,,directmemory_phase,914711,GW/hat.jpg,,,,49,,,1,0.6296296296296297,GW/jukebox.jpg,GW/gong.jpg,GW/soldier.jpg,GW/jukebox.jpg,GW/soldier.jpg,GW/gong.jpg,1,,,
null,,html-keyboard-response,915715,<p></p>,,,,null,,,,,,,,,,,,,,
3578.5,,directmemory_phase,919295,GW/basket.jpg,,,,51,,,0,0.6071428571428571,GW/teeth.jpg,GW/dustpan.jpg,GW/snail.jpg,GW/dustpan.jpg,GW/teeth.jpg,GW/snail.jpg,0.5,closer,,
null,,html-keyboard-response,920299,<p></p>,,,,null,,,,,,,,,,,,,,
2942.2000000476837,,directmemory_phase,923242,GW/camera.jpg,,,,51,,,0,0.5862068965517241,GW/gong.jpg,GW/globe.jpg,GW/basket.jpg,GW/globe.jpg,GW/gong.jpg,GW/basket.jpg,0.5,closer,,
null,,html-keyboard-response,924246,<p></p>,,,,null,,,,,,,,,,,,,,
2403,,directmemory_phase,926651,GW/jukebox.jpg,,,,50,,,0,0.5666666666666667,GW/paint.jpg,GW/globe.jpg,GW/soldier.jpg,GW/soldier.jpg,GW/globe.jpg,GW/paint.jpg,0.5,closer,,
null,,html-keyboard-response,927655,<p></p>,,,,null,,,,,,,,,,,,,,
2194.600000023842,,directmemory_phase,929851,GW/snail.jpg,,,,49,,,1,0.5806451612903226,GW/camera.jpg,GW/soldier.jpg,GW/hat.jpg,GW/camera.jpg,GW/hat.jpg,GW/soldier.jpg,1,,,
null,,html-keyboard-response,930855,<p></p>,,,,null,,,,,,,,,,,,,,
null,,directmemory_phase,937357,,,,,null,,,0,0.5625,,,,,,,0,,,
null,,html-keyboard-response,938360,<p></p>,,,,null,,,,,,,,,,,,,,
37690.5,,intro_1,976053,instruct,,0,,,,,,,,,,,,,,,,
11375.699999928474,,intro_2,987431,instruct,,1,Next,,,,,,,,,,,,,,,
11953.700000047684,,intro_3,999389,instruct,,1,Next,,,,,,,,,,,,,,,
9183.199999928474,,intro_4,1008575,instruct,,1,Next,,,,,,,,,,,,,,,
30778,,intro_5,1039357,instruct,,1,Next,,,,,,,,,,,,,,,
33595.89999997616,,intro_6,1072957,instruct,,1,Next,,,,,,,,,,,,,,,
56516.89999997616,,intro_7,1129477,instruct,,1,Next,,,,,,,,,,,,,,,
35493.700000047684,,intro_8,1164974,instruct,,1,Next,,,,,,,,,,,,,,,
3623.5,,shortestpath_phase,1168601,GW/paint.jpg,,,,49,GW/teeth.jpg,GW/snail.jpg,0,0,,,,GW/snail.jpg,,,,,Four Edge Diff,Two Edge Six Edge
null,,html-keyboard-response,1169606,<p></p>,,,,null,,,,,,,,,,,,,,
3620.100000023842,,shortestpath_phase,1173228,GW/basket.jpg,,,,49,GW/wheelchair.jpg,GW/gong.jpg,1,0.5,,,,GW/wheelchair.jpg,,,,,One Edge Diff,Three Edge Four Edge
null,,html-keyboard-response,1174230,<p></p>,,,,null,,,,,,,,,,,,,,
2907.899999976158,,shortestpath_phase,1177141,GW/gong.jpg,,,,50,GW/paint.jpg,GW/jukebox.jpg,0,0.3333333333333333,,,,GW/paint.jpg,,,,,One Edge Diff,Three Edge Four Edge
null,,html-keyboard-response,1178144,<p></p>,,,,null,,,,,,,,,,,,,,
2494.7000000476837,,shortestpath_phase,1180640,GW/wheelchair.jpg,,,,49,GW/globe.jpg,GW/snail.jpg,1,0.5,,,,GW/globe.jpg,,,,,One Edge Diff,Four Edge Five Edge
null,,html-keyboard-response,1181643,<p></p>,,,,null,,,,,,,,,,,,,,
2308.100000023842,,shortestpath_phase,1183952,GW/camera.jpg,,,,49,GW/teeth.jpg,GW/gong.jpg,0,0.4,,,,GW/gong.jpg,,,,,Three Edge Diff,Two Edge Five Edge
null,,html-keyboard-response,1184955,<p></p>,,,,null,,,,,,,,,,,,,,
2290.100000023842,,shortestpath_phase,1187246,GW/soldier.jpg,,,,49,GW/snail.jpg,GW/gong.jpg,1,0.5,,,,GW/snail.jpg,,,,,One Edge Diff,Four Edge Five Edge
null,,html-keyboard-response,1188251,<p></p>,,,,null,,,,,,,,,,,,,,
2422.7000000476837,,shortestpath_phase,1190675,GW/basket.jpg,,,,50,GW/gong.jpg,GW/teeth.jpg,1,0.5714285714285714,,,,GW/teeth.jpg,,,,,Two Edge Diff,Two Edge Four Edge
null,,html-keyboard-response,1191680,<p></p>,,,,null,,,,,,,,,,,,,,
3334.7999999523163,,shortestpath_phase,1195016,GW/gong.jpg,,,,49,GW/soldier.jpg,GW/teeth.jpg,1,0.625,,,,GW/soldier.jpg,,,,,One Edge Diff,Five Edge Six Edge
null,,html-keyboard-response,1196020,<p></p>,,,,null,,,,,,,,,,,,,,
2377.7999999523163,,shortestpath_phase,1198399,GW/wheelchair.jpg,,,,49,GW/jukebox.jpg,GW/gong.jpg,1,0.6666666666666666,,,,GW/jukebox.jpg,,,,,Four Edge Diff,Two Edge Six Edge
null,,html-keyboard-response,1199402,<p></p>,,,,null,,,,,,,,,,,,,,
2506.600000023842,,shortestpath_phase,1201910,GW/gong.jpg,,,,50,GW/camera.jpg,GW/wheelchair.jpg,0,0.6,,,,GW/camera.jpg,,,,,Four Edge Diff,Two Edge Six Edge
null,,html-keyboard-response,1202913,<p></p>,,,,null,,,,,,,,,,,,,,
2877.2000000476837,,shortestpath_phase,1205791,GW/soldier.jpg,,,,50,GW/paint.jpg,GW/hat.jpg,1,0.6363636363636364,,,,GW/hat.jpg,,,,,Two Edge Diff,Two Edge Four Edge
null,,html-keyboard-response,1206794,<p></p>,,,,null,,,,,,,,,,,,,,
3186.8000000715256,,shortestpath_phase,1209983,GW/teeth.jpg,,,,50,GW/gong.jpg,GW/basket.jpg,1,0.6666666666666666,,,,GW/basket.jpg,,,,,Four Edge Diff,Two Edge Six Edge
null,,html-keyboard-response,1210985,<p></p>,,,,null,,,,,,,,,,,,,,
2319.2999999523163,,shortestpath_phase,1213307,GW/barrel.jpg,,,,50,GW/basket.jpg,GW/soldier.jpg,1,0.6923076923076923,,,,GW/soldier.jpg,,,,,One Edge Diff,Two Edge Three Edge
null,,html-keyboard-response,1214309,<p></p>,,,,null,,,,,,,,,,,,,,
2265.9000000953674,,shortestpath_phase,1216576,GW/globe.jpg,,,,50,GW/soldier.jpg,GW/gong.jpg,1,0.7142857142857143,,,,GW/gong.jpg,,,,,One Edge Diff,Two Edge Three Edge
null,,html-keyboard-response,1217579,<p></p>,,,,null,,,,,,,,,,,,,,
2159.2999999523163,,shortestpath_phase,1219740,GW/teeth.jpg,,,,49,GW/snail.jpg,GW/soldier.jpg,0,0.6666666666666666,,,,GW/soldier.jpg,,,,,Three Edge Diff,Three Edge Six Edge
null,,html-keyboard-response,1220744,<p></p>,,,,null,,,,,,,,,,,,,,
2311,,shortestpath_phase,1223057,GW/camera.jpg,,,,49,GW/gong.jpg,GW/teeth.jpg,1,0.6875,,,,GW/gong.jpg,,,,,Three Edge Diff,Three Edge Six Edge
null,,html-keyboard-response,1224059,<p></p>,,,,null,,,,,,,,,,,,,,
2459.1999999284744,,shortestpath_phase,1226520,GW/teeth.jpg,,,,50,GW/hat.jpg,GW/barrel.jpg,0,0.6470588235294118,,,,GW/hat.jpg,,,,,One Edge Diff,Three Edge Four Edge
null,,html-keyboard-response,1227523,<p></p>,,,,null,,,,,,,,,,,,,,
1855.1000000238419,,shortestpath_phase,1229379,GW/globe.jpg,,,,50,GW/wheelchair.jpg,GW/jukebox.jpg,1,0.6666666666666666,,,,GW/jukebox.jpg,,,,,Two Edge Diff,Two Edge Four Edge
null,,html-keyboard-response,1230382,<p></p>,,,,null,,,,,,,,,,,,,,
1602.1000000238419,,shortestpath_phase,1231986,GW/dustpan.jpg,,,,50,GW/gong.jpg,GW/wheelchair.jpg,1,0.6842105263157895,,,,GW/wheelchair.jpg,,,,,Three Edge Diff,Three Edge Six Edge
null,,html-keyboard-response,1232989,<p></p>,,,,null,,,,,,,,,,,,,,
2287.899999976158,,shortestpath_phase,1235280,GW/paint.jpg,,,,50,GW/dustpan.jpg,GW/snail.jpg,1,0.7,,,,GW/snail.jpg,,,,,Three Edge Diff,Two Edge Five Edge
null,,html-keyboard-response,1236284,<p></p>,,,,null,,,,,,,,,,,,,,
1966,,shortestpath_phase,1238252,GW/teeth.jpg,,,,49,GW/camera.jpg,GW/wheelchair.jpg,0,0.6666666666666666,,,,GW/wheelchair.jpg,,,,,Two Edge Diff,Three Edge Five Edge
null,,html-keyboard-response,1239255,<p></p>,,,,null,,,,,,,,,,,,,,
2252.7999999523163,,shortestpath_phase,1241509,GW/gong.jpg,,,,50,GW/basket.jpg,GW/soldier.jpg,0,0.6363636363636364,,,,GW/basket.jpg,,,,,One Edge Diff,Four Edge Five Edge
null,,html-keyboard-response,1242513,<p></p>,,,,null,,,,,,,,,,,,,,
2216,,shortestpath_phase,1244731,GW/teeth.jpg,,,,49,GW/hat.jpg,GW/camera.jpg,1,0.6521739130434783,,,,GW/hat.jpg,,,,,Two Edge Diff,Three Edge Five Edge
null,,html-keyboard-response,1245735,<p></p>,,,,null,,,,,,,,,,,,,,
2088.600000023842,,shortestpath_phase,1247825,GW/wheelchair.jpg,,,,50,GW/gong.jpg,GW/camera.jpg,1,0.6666666666666666,,,,GW/camera.jpg,,,,,Two Edge Diff,Four Edge Six Edge
null,,html-keyboard-response,1248827,<p></p>,,,,null,,,,,,,,,,,,,,
1946.1999999284744,,shortestpath_phase,1250775,GW/teeth.jpg,,,,50,GW/soldier.jpg,GW/camera.jpg,0,0.64,,,,GW/soldier.jpg,,,,,Three Edge Diff,Two Edge Five Edge
null,,html-keyboard-response,1251780,<p></p>,,,,null,,,,,,,,,,,,,,
1472.1000000238419,,shortestpath_phase,1253253,GW/paint.jpg,,,,50,GW/wheelchair.jpg,GW/globe.jpg,1,0.6538461538461539,,,,GW/globe.jpg,,,,,Three Edge Diff,Three Edge Six Edge
null,,html-keyboard-response,1254256,<p></p>,,,,null,,,,,,,,,,,,,,
2063.2999999523163,,shortestpath_phase,1256321,GW/teeth.jpg,,,,50,GW/gong.jpg,GW/camera.jpg,1,0.6666666666666666,,,,GW/camera.jpg,,,,,One Edge Diff,Five Edge Six Edge
null,,html-keyboard-response,1257326,<p></p>,,,,null,,,,,,,,,,,,,,
2024.5,,shortestpath_phase,1259351,GW/wheelchair.jpg,,,,50,GW/basket.jpg,GW/camera.jpg,0,0.6428571428571429,,,,GW/basket.jpg,,,,,One Edge Diff,Three Edge Four Edge
null,,html-keyboard-response,1260356,<p></p>,,,,null,,,,,,,,,,,,,,
2621.399999976158,,shortestpath_phase,1262979,GW/teeth.jpg,,,,49,GW/barrel.jpg,GW/camera.jpg,1,0.6551724137931034,,,,GW/barrel.jpg,,,,,One Edge Diff,Four Edge Five Edge
null,,html-keyboard-response,1263983,<p></p>,,,,null,,,,,,,,,,,,,,
2818.7000000476837,,shortestpath_phase,1266803,GW/globe.jpg,,,,49,GW/soldier.jpg,GW/teeth.jpg,1,0.6666666666666666,,,,GW/soldier.jpg,,,,,One Edge Diff,Three Edge Four Edge
null,,html-keyboard-response,1267806,<p></p>,,,,null,,,,,,,,,,,,,,
2484.399999976158,,shortestpath_phase,1270292,GW/paint.jpg,,,,50,GW/wheelchair.jpg,GW/barrel.jpg,1,0.6774193548387096,,,,GW/barrel.jpg,,,,,Three Edge Diff,Two Edge Five Edge
null,,html-keyboard-response,1271295,<p></p>,,,,null,,,,,,,,,,,,,,
1656.8000000715256,,shortestpath_phase,1272954,GW/teeth.jpg,,,,50,GW/wheelchair.jpg,GW/globe.jpg,0,0.65625,,,,GW/wheelchair.jpg,,,,,One Edge Diff,Three Edge Four Edge
null,,html-keyboard-response,1273956,<p></p>,,,,null,,,,,,,,,,,,,,
2253.600000023842,,shortestpath_phase,1276211,GW/jukebox.jpg,,,,49,GW/teeth.jpg,GW/globe.jpg,0,0.6363636363636364,,,,GW/globe.jpg,,,,,One Edge Diff,Two Edge Three Edge
null,,html-keyboard-response,1277214,<p></p>,,,,null,,,,,,,,,,,,,,
1997.2999999523163,,shortestpath_phase,1279214,GW/paint.jpg,,,,50,GW/soldier.jpg,GW/teeth.jpg,0,0.6176470588235294,,,,GW/soldier.jpg,,,,,Two Edge Diff,Four Edge Six Edge
null,,html-keyboard-response,1280216,<p></p>,,,,null,,,,,,,,,,,,,,
1313.2000000476837,,shortestpath_phase,1281531,GW/wheelchair.jpg,,,,49,GW/teeth.jpg,GW/snail.jpg,1,0.6285714285714286,,,,GW/teeth.jpg,,,,,Two Edge Diff,Three Edge Five Edge
null,,html-keyboard-response,1282534,<p></p>,,,,null,,,,,,,,,,,,,,
1594.8999999761581,,shortestpath_phase,1284130,GW/soldier.jpg,,,,50,GW/gong.jpg,GW/globe.jpg,1,0.6388888888888888,,,,GW/globe.jpg,,,,,Two Edge Diff,Three Edge Five Edge
null,,html-keyboard-response,1285133,<p></p>,,,,null,,,,,,,,,,,,,,
1882,,shortestpath_phase,1287016,GW/teeth.jpg,,,,50,GW/snail.jpg,GW/jukebox.jpg,1,0.6486486486486487,,,,GW/jukebox.jpg,,,,,Two Edge Diff,Three Edge Five Edge
null,,html-keyboard-response,1288021,<p></p>,,,,null,,,,,,,,,,,,,,
1924.8999999761581,,shortestpath_phase,1289948,GW/paint.jpg,,,,50,GW/dustpan.jpg,GW/barrel.jpg,1,0.6578947368421053,,,,GW/barrel.jpg,,,,,Three Edge Diff,Two Edge Five Edge
null,,html-keyboard-response,1290952,<p></p>,,,,null,,,,,,,,,,,,,,
2062.5,,shortestpath_phase,1293016,GW/snail.jpg,,,,49,GW/teeth.jpg,GW/soldier.jpg,0,0.6410256410256411,,,,GW/soldier.jpg,,,,,One Edge Diff,Four Edge Five Edge
null,,html-keyboard-response,1294019,<p></p>,,,,null,,,,,,,,,,,,,,
2029.8000000715256,,shortestpath_phase,1296051,GW/paint.jpg,,,,50,GW/wheelchair.jpg,GW/hat.jpg,1,0.65,,,,GW/hat.jpg,,,,,Two Edge Diff,Three Edge Five Edge
null,,html-keyboard-response,1297054,<p></p>,,,,null,,,,,,,,,,,,,,
2131,,shortestpath_phase,1299187,GW/teeth.jpg,,,,50,GW/paint.jpg,GW/barrel.jpg,1,0.6585365853658537,,,,GW/barrel.jpg,,,,,Two Edge Diff,Four Edge Six Edge
null,,html-keyboard-response,1300191,<p></p>,,,,null,,,,,,,,,,,,,,
2053.6999999284744,,shortestpath_phase,1302246,GW/wheelchair.jpg,,,,50,GW/paint.jpg,GW/gong.jpg,0,0.6428571428571429,,,,GW/paint.jpg,,,,,One Edge Diff,Five Edge Six Edge
null,,html-keyboard-response,1303249,<p></p>,,,,null,,,,,,,,,,,,,,
2485.899999976158,,shortestpath_phase,1305737,GW/teeth.jpg,,,,49,GW/paint.jpg,GW/globe.jpg,0,0.627906976744186,,,,GW/globe.jpg,,,,,Two Edge Diff,Four Edge Six Edge
null,,html-keyboard-response,1306740,<p></p>,,,,null,,,,,,,,,,,,,,
2284.2999999523163,,shortestpath_phase,1309029,GW/gong.jpg,,,,49,GW/barrel.jpg,GW/jukebox.jpg,1,0.6363636363636364,,,,GW/barrel.jpg,,,,,One Edge Diff,Three Edge Four Edge
null,,html-keyboard-response,1310033,<p></p>,,,,null,,,,,,,,,,,,,,
2722.5,,shortestpath_phase,1312757,GW/teeth.jpg,,,,49,GW/globe.jpg,GW/camera.jpg,1,0.6444444444444445,,,,GW/globe.jpg,,,,,One Edge Diff,Four Edge Five Edge
null,,html-keyboard-response,1313760,<p></p>,,,,null,,,,,,,,,,,,,,
2575.2000000476837,,shortestpath_phase,1316336,GW/wheelchair.jpg,,,,49,GW/paint.jpg,GW/dustpan.jpg,0,0.6304347826086957,,,,GW/dustpan.jpg,,,,,Three Edge Diff,Two Edge Five Edge
null,,html-keyboard-response,1317340,<p></p>,,,,null,,,,,,,,,,,,,,
2244.399999976158,,shortestpath_phase,1319586,GW/teeth.jpg,,,,50,GW/gong.jpg,GW/barrel.jpg,1,0.6382978723404256,,,,GW/barrel.jpg,,,,,Two Edge Diff,Four Edge Six Edge
null,,html-keyboard-response,1320589,<p></p>,,,,null,,,,,,,,,,,,,,
2024.5,,shortestpath_phase,1322615,GW/soldier.jpg,,,,50,GW/paint.jpg,GW/basket.jpg,1,0.6458333333333334,,,,GW/basket.jpg,,,,,Two Edge Diff,Two Edge Four Edge
null,,html-keyboard-response,1323618,<p></p>,,,,null,,,,,,,,,,,,,,
1966.8999999761581,,shortestpath_phase,1325586,GW/teeth.jpg,,,,49,GW/jukebox.jpg,GW/barrel.jpg,1,0.6530612244897959,,,,GW/jukebox.jpg,,,,,One Edge Diff,Three Edge Four Edge
null,,html-keyboard-response,1326589,<p></p>,,,,null,,,,,,,,,,,,,,
2388.100000023842,,shortestpath_phase,1328979,GW/gong.jpg,,,,50,GW/hat.jpg,GW/basket.jpg,0,0.64,,,,GW/hat.jpg,,,,,One Edge Diff,Three Edge Four Edge
null,,html-keyboard-response,1329981,<p></p>,,,,null,,,,,,,,,,,,,,
2654.7999999523163,,shortestpath_phase,1332638,GW/soldier.jpg,,,,50,GW/paint.jpg,GW/barrel.jpg,1,0.6470588235294118,,,,GW/barrel.jpg,,,,,Two Edge Diff,Two Edge Four Edge
null,,html-keyboard-response,1333641,<p></p>,,,,null,,,,,,,,,,,,,,
2618,,shortestpath_phase,1336261,GW/gong.jpg,,,,49,GW/basket.jpg,GW/globe.jpg,0,0.6346153846153846,,,,GW/globe.jpg,,,,,Two Edge Diff,Two Edge Four Edge
null,,html-keyboard-response,1337264,<p></p>,,,,null,,,,,,,,,,,,,,
1876.5,,shortestpath_phase,1339142,GW/paint.jpg,,,,50,GW/soldier.jpg,GW/snail.jpg,1,0.6415094339622641,,,,GW/snail.jpg,,,,,Two Edge Diff,Two Edge Four Edge
null,,html-keyboard-response,1340148,<p></p>,,,,null,,,,,,,,,,,,,,
2251.4000000953674,,shortestpath_phase,1342401,GW/basket.jpg,,,,50,GW/paint.jpg,GW/teeth.jpg,1,0.6481481481481481,,,,GW/teeth.jpg,,,,,Two Edge Diff,Two Edge Four Edge
null,,html-keyboard-response,1343405,<p></p>,,,,null,,,,,,,,,,,,,,
2345.2000000476837,,shortestpath_phase,1345751,GW/paint.jpg,,,,50,GW/snail.jpg,GW/dustpan.jpg,0,0.6363636363636364,,,,GW/snail.jpg,,,,,Three Edge Diff,Three Edge Six Edge
null,,html-keyboard-response,1346755,<p></p>,,,,null,,,,,,,,,,,,,,
1846.3999999761581,,shortestpath_phase,1348603,GW/wheelchair.jpg,,,,50,GW/camera.jpg,GW/snail.jpg,0,0.625,,,,GW/camera.jpg,,,,,One Edge Diff,Four Edge Five Edge
null,,html-keyboard-response,1349608,<p></p>,,,,null,,,,,,,,,,,,,,
2405,,shortestpath_phase,1352016,GW/paint.jpg,,,,50,GW/basket.jpg,GW/teeth.jpg,0,0.6140350877192983,,,,GW/basket.jpg,,,,,Two Edge Diff,Four Edge Six Edge
null,,html-keyboard-response,1353019,<p></p>,,,,null,,,,,,,,,,,,,,
1994.3999999761581,,shortestpath_phase,1355015,GW/camera.jpg,,,,50,GW/wheelchair.jpg,GW/teeth.jpg,0,0.603448275862069,,,,GW/wheelchair.jpg,,,,,One Edge Diff,Four Edge Five Edge
null,,html-keyboard-response,1356019,<p></p>,,,,null,,,,,,,,,,,,,,
1566.7999999523163,,shortestpath_phase,1357587,GW/soldier.jpg,,,,50,GW/gong.jpg,GW/teeth.jpg,1,0.6101694915254238,,,,GW/teeth.jpg,,,,,Three Edge Diff,Three Edge Six Edge
null,,html-keyboard-response,1358589,<p></p>,,,,null,,,,,,,,,,,,,,
2509.7999999523163,,shortestpath_phase,1361101,GW/wheelchair.jpg,,,,50,GW/jukebox.jpg,GW/globe.jpg,0,0.6,,,,GW/jukebox.jpg,,,,,Two Edge Diff,Two Edge Four Edge
null,,html-keyboard-response,1362105,<p></p>,,,,null,,,,,,,,,,,,,,
1850.3000000715256,,shortestpath_phase,1363957,GW/paint.jpg,,,,49,GW/soldier.jpg,GW/dustpan.jpg,1,0.6065573770491803,,,,GW/soldier.jpg,,,,,One Edge Diff,Four Edge Five Edge
null,,html-keyboard-response,1364960,<p></p>,,,,null,,,,,,,,,,,,,,
2274.100000023842,,shortestpath_phase,1367236,GW/barrel.jpg,,,,50,GW/basket.jpg,GW/snail.jpg,1,0.6129032258064516,,,,GW/snail.jpg,,,,,One Edge Diff,Two Edge Three Edge
null,,html-keyboard-response,1368239,<p></p>,,,,null,,,,,,,,,,,,,,
1652.6000000238419,,shortestpath_phase,1369893,GW/dustpan.jpg,,,,50,GW/jukebox.jpg,GW/snail.jpg,0,0.6031746031746031,,,,GW/jukebox.jpg,,,,,Two Edge Diff,Two Edge Four Edge
null,,html-keyboard-response,1370897,<p></p>,,,,null,,,,,,,,,,,,,,
1417.3000000715256,,shortestpath_phase,1372316,GW/snail.jpg,,,,50,GW/barrel.jpg,GW/teeth.jpg,0,0.59375,,,,GW/barrel.jpg,,,,,Three Edge Diff,Three Edge Six Edge
null,,html-keyboard-response,1373319,<p></p>,,,,null,,,,,,,,,,,,,,
2350.2000000476837,,shortestpath_phase,1375670,GW/paint.jpg,,,,49,GW/dustpan.jpg,GW/gong.jpg,0,0.5846153846153846,,,,GW/gong.jpg,,,,,Two Edge Diff,Three Edge Five Edge
null,,html-keyboard-response,1376673,<p></p>,,,,null,,,,,,,,,,,,,,
1894.6000000238419,,shortestpath_phase,1378570,GW/wheelchair.jpg,,,,50,GW/gong.jpg,GW/snail.jpg,1,0.5909090909090909,,,,GW/snail.jpg,,,,,One Edge Diff,Five Edge Six Edge
null,,html-keyboard-response,1379573,<p></p>,,,,null,,,,,,,,,,,,,,
1696.5999999046326,,shortestpath_phase,1381271,GW/paint.jpg,,,,50,GW/dustpan.jpg,GW/hat.jpg,1,0.5970149253731343,,,,GW/hat.jpg,,,,,Two Edge Diff,Three Edge Five Edge
null,,html-keyboard-response,1382275,<p></p>,,,,null,,,,,,,,,,,,,,
1946.5999999046326,,shortestpath_phase,1384223,GW/gong.jpg,,,,50,GW/teeth.jpg,GW/jukebox.jpg,1,0.6029411764705882,,,,GW/jukebox.jpg,,,,,Two Edge Diff,Four Edge Six Edge
null,,html-keyboard-response,1385227,<p></p>,,,,null,,,,,,,,,,,,,,
1873.6000000238419,,shortestpath_phase,1387103,GW/wheelchair.jpg,,,,49,GW/gong.jpg,GW/dustpan.jpg,0,0.5942028985507246,,,,GW/dustpan.jpg,,,,,Four Edge Diff,Two Edge Six Edge
null,,html-keyboard-response,1388106,<p></p>,,,,null,,,,,,,,,,,,,,
1794.0999999046326,,shortestpath_phase,1389902,GW/jukebox.jpg,,,,50,GW/gong.jpg,GW/camera.jpg,1,0.6,,,,GW/camera.jpg,,,,,Two Edge Diff,Two Edge Four Edge
null,,html-keyboard-response,1390906,<p></p>,,,,null,,,,,,,,,,,,,,
2036,,shortestpath_phase,1392944,GW/soldier.jpg,,,,50,GW/basket.jpg,GW/gong.jpg,0,0.5915492957746479,,,,GW/basket.jpg,,,,,Three Edge Diff,Two Edge Five Edge
null,,html-keyboard-response,1393947,<p></p>,,,,null,,,,,,,,,,,,,,
1027.2999999523163,,shortestpath_phase,1394976,GW/gong.jpg,,,,50,GW/camera.jpg,GW/soldier.jpg,0,0.5833333333333334,,,,GW/camera.jpg,,,,,Three Edge Diff,Three Edge Six Edge
null,,html-keyboard-response,1395981,<p></p>,,,,null,,,,,,,,,,,,,,
1760.4000000953674,,shortestpath_phase,1397743,GW/teeth.jpg,,,,49,GW/soldier.jpg,GW/paint.jpg,1,0.589041095890411,,,,GW/soldier.jpg,,,,,Four Edge Diff,Two Edge Six Edge
null,,html-keyboard-response,1398745,<p></p>,,,,null,,,,,,,,,,,,,,
1897.7999999523163,,shortestpath_phase,1400645,GW/wheelchair.jpg,,,,50,GW/paint.jpg,GW/jukebox.jpg,1,0.5945945945945946,,,,GW/jukebox.jpg,,,,,Three Edge Diff,Three Edge Six Edge
null,,html-keyboard-response,1401649,<p></p>,,,,null,,,,,,,,,,,,,,
1857.7000000476837,,shortestpath_phase,1403509,GW/soldier.jpg,,,,50,GW/gong.jpg,GW/hat.jpg,1,0.6,,,,GW/hat.jpg,,,,,Three Edge Diff,Two Edge Five Edge
null,,html-keyboard-response,1404512,<p></p>,,,,null,,,,,,,,,,,,,,
2159,,shortestpath_phase,1406673,GW/dustpan.jpg,,,,50,GW/barrel.jpg,GW/wheelchair.jpg,1,0.6052631578947368,,,,GW/wheelchair.jpg,,,,,One Edge Diff,Two Edge Three Edge
null,,html-keyboard-response,1407675,<p></p>,,,,null,,,,,,,,,,,,,,
2155.8000000715256,,shortestpath_phase,1409834,GW/camera.jpg,,,,49,GW/basket.jpg,GW/teeth.jpg,1,0.6103896103896104,,,,GW/basket.jpg,,,,,Two Edge Diff,Three Edge Five Edge
null,,html-keyboard-response,1410838,<p></p>,,,,null,,,,,,,,,,,,,,
2117.6999999284744,,shortestpath_phase,1412957,GW/gong.jpg,,,,49,GW/wheelchair.jpg,GW/dustpan.jpg,0,0.6025641025641025,,,,GW/dustpan.jpg,,,,,One Edge Diff,Five Edge Six Edge
null,,html-keyboard-response,1413959,<p></p>,,,,null,,,,,,,,,,,,,,
2422,,shortestpath_phase,1416383,GW/teeth.jpg,,,,49,GW/paint.jpg,GW/camera.jpg,0,0.5949367088607594,,,,GW/camera.jpg,,,,,One Edge Diff,Five Edge Six Edge
null,,html-keyboard-response,1417388,<p></p>,,,,null,,,,,,,,,,,,,,
2141.100000023842,,shortestpath_phase,1419531,GW/paint.jpg,,,,49,GW/dustpan.jpg,GW/teeth.jpg,1,0.6,,,,GW/dustpan.jpg,,,,,One Edge Diff,Five Edge Six Edge
null,,html-keyboard-response,1420535,<p></p>,,,,null,,,,,,,,,,,,,,
1826.6000000238419,,shortestpath_phase,1422363,GW/gong.jpg,,,,50,GW/dustpan.jpg,GW/globe.jpg,1,0.6049382716049383,,,,GW/globe.jpg,,,,,Three Edge Diff,Two Edge Five Edge
null,,html-keyboard-response,1423368,<p></p>,,,,null,,,,,,,,,,,,,,
2024.1999999284744,,shortestpath_phase,1425393,GW/teeth.jpg,,,,49,GW/snail.jpg,GW/gong.jpg,1,0.6097560975609756,,,,GW/snail.jpg,,,,,One Edge Diff,Five Edge Six Edge
null,,html-keyboard-response,1426399,<p></p>,,,,null,,,,,,,,,,,,,,
1623.7000000476837,,shortestpath_phase,1428025,GW/gong.jpg,,,,50,GW/wheelchair.jpg,GW/jukebox.jpg,1,0.6144578313253012,,,,GW/jukebox.jpg,,,,,Two Edge Diff,Four Edge Six Edge
null,,html-keyboard-response,1429027,<p></p>,,,,null,,,,,,,,,,,,,,
2434.399999976158,,shortestpath_phase,1431463,GW/teeth.jpg,,,,49,GW/basket.jpg,GW/paint.jpg,1,0.6190476190476191,,,,GW/basket.jpg,,,,,Four Edge Diff,Two Edge Six Edge
null,,html-keyboard-response,1432467,<p></p>,,,,null,,,,,,,,,,,,,,
1437.2000000476837,,shortestpath_phase,1433906,GW/jukebox.jpg,,,,49,GW/camera.jpg,GW/teeth.jpg,1,0.6235294117647059,,,,GW/camera.jpg,,,,,One Edge Diff,Two Edge Three Edge
null,,html-keyboard-response,1434910,<p></p>,,,,null,,,,,,,,,,,,,,
2098.899999976158,,shortestpath_phase,1437010,GW/teeth.jpg,,,,49,GW/snail.jpg,GW/paint.jpg,1,0.627906976744186,,,,GW/snail.jpg,,,,,One Edge Diff,Five Edge Six Edge
null,,html-keyboard-response,1438015,<p></p>,,,,null,,,,,,,,,,,,,,
1411.5,,shortestpath_phase,1439428,GW/wheelchair.jpg,,,,50,GW/barrel.jpg,GW/globe.jpg,0,0.6206896551724138,,,,GW/barrel.jpg,,,,,One Edge Diff,Three Edge Four Edge
null,,html-keyboard-response,1440431,<p></p>,,,,null,,,,,,,,,,,,,,
1745.1999999284744,,shortestpath_phase,1442178,GW/dustpan.jpg,,,,50,GW/camera.jpg,GW/gong.jpg,0,0.6136363636363636,,,,GW/camera.jpg,,,,,One Edge Diff,Four Edge Five Edge
null,,html-keyboard-response,1443181,<p></p>,,,,null,,,,,,,,,,,,,,
1432.6999999284744,,shortestpath_phase,1444617,GW/teeth.jpg,,,,50,GW/gong.jpg,GW/soldier.jpg,1,0.6179775280898876,,,,GW/soldier.jpg,,,,,Four Edge Diff,Two Edge Six Edge
null,,html-keyboard-response,1445620,<p></p>,,,,null,,,,,,,,,,,,,,
1322.8000000715256,,shortestpath_phase,1446944,GW/hat.jpg,,,,49,GW/paint.jpg,GW/dustpan.jpg,0,0.6111111111111112,,,,GW/dustpan.jpg,,,,,One Edge Diff,Two Edge Three Edge
null,,html-keyboard-response,1447947,<p></p>,,,,null,,,,,,,,,,,,,,
1909.8999999761581,,shortestpath_phase,1449858,GW/gong.jpg,,,,49,GW/barrel.jpg,GW/soldier.jpg,1,0.6153846153846154,,,,GW/barrel.jpg,,,,,Two Edge Diff,Three Edge Five Edge
null,,html-keyboard-response,1450862,<p></p>,,,,null,,,,,,,,,,,,,,
2239.1999999284744,,shortestpath_phase,1453104,GW/dustpan.jpg,,,,49,GW/paint.jpg,GW/globe.jpg,0,0.6086956521739131,,,,GW/globe.jpg,,,,,Two Edge Diff,Three Edge Five Edge
null,,html-keyboard-response,1454109,<p></p>,,,,null,,,,,,,,,,,,,,
1729.1000000238419,,shortestpath_phase,1455840,GW/gong.jpg,,,,49,GW/camera.jpg,GW/dustpan.jpg,1,0.6129032258064516,,,,GW/camera.jpg,,,,,Three Edge Diff,Three Edge Six Edge
null,,html-keyboard-response,1456844,<p></p>,,,,null,,,,,,,,,,,,,,
1670.6000000238419,,shortestpath_phase,1458518,GW/wheelchair.jpg,,,,50,GW/paint.jpg,GW/globe.jpg,1,0.6170212765957447,,,,GW/globe.jpg,,,,,One Edge Diff,Four Edge Five Edge
null,,html-keyboard-response,1459522,<p></p>,,,,null,,,,,,,,,,,,,,
2331.4000000953674,,shortestpath_phase,1461855,GW/jukebox.jpg,,,,50,GW/paint.jpg,GW/dustpan.jpg,1,0.6210526315789474,,,,GW/dustpan.jpg,,,,,One Edge Diff,Two Edge Three Edge
null,,html-keyboard-response,1462859,<p></p>,,,,null,,,,,,,,,,,,,,
2250.899999976158,,shortestpath_phase,1465111,GW/paint.jpg,,,,50,GW/teeth.jpg,GW/globe.jpg,1,0.625,,,,GW/globe.jpg,,,,,Four Edge Diff,Two Edge Six Edge
null,,html-keyboard-response,1466116,<p></p>,,,,null,,,,,,,,,,,,,,
1544.2000000476837,,shortestpath_phase,1467662,GW/basket.jpg,,,,50,GW/paint.jpg,GW/snail.jpg,1,0.6288659793814433,,,,GW/snail.jpg,,,,,One Edge Diff,Three Edge Four Edge
null,,html-keyboard-response,1468665,<p></p>,,,,null,,,,,,,,,,,,,,
1937.4000000953674,,shortestpath_phase,1470603,GW/gong.jpg,,,,49,GW/globe.jpg,GW/teeth.jpg,1,0.6326530612244898,,,,GW/globe.jpg,,,,,Four Edge Diff,Two Edge Six Edge
null,,html-keyboard-response,1471609,<p></p>,,,,null,,,,,,,,,,,,,,
2270.7000000476837,,shortestpath_phase,1473881,GW/wheelchair.jpg,,,,49,GW/dustpan.jpg,GW/teeth.jpg,1,0.6363636363636364,,,,GW/dustpan.jpg,,,,,One Edge Diff,Two Edge Three Edge
null,,html-keyboard-response,1474886,<p></p>,,,,null,,,,,,,,,,,,,,
2223.7999999523163,,shortestpath_phase,1477112,GW/snail.jpg,,,,50,GW/teeth.jpg,GW/barrel.jpg,1,0.64,,,,GW/barrel.jpg,,,,,Three Edge Diff,Two Edge Five Edge
null,,html-keyboard-response,1478116,<p></p>,,,,null,,,,,,,,,,,,,,
2248.9000000953674,,shortestpath_phase,1480367,GW/jukebox.jpg,,,,49,GW/snail.jpg,GW/wheelchair.jpg,0,0.6336633663366337,,,,GW/wheelchair.jpg,,,,,One Edge Diff,Two Edge Three Edge
null,,html-keyboard-response,1481370,<p></p>,,,,null,,,,,,,,,,,,,,
2628.4000000953674,,shortestpath_phase,1484000,GW/teeth.jpg,,,,49,GW/gong.jpg,GW/globe.jpg,0,0.6274509803921569,,,,GW/globe.jpg,,,,,Two Edge Diff,Four Edge Six Edge
null,,html-keyboard-response,1485003,<p></p>,,,,null,,,,,,,,,,,,,,
2041.3999999761581,,shortestpath_phase,1487046,GW/wheelchair.jpg,,,,49,GW/barrel.jpg,GW/snail.jpg,1,0.6310679611650486,,,,GW/barrel.jpg,,,,,Two Edge Diff,Three Edge Five Edge
null,,html-keyboard-response,1488049,<p></p>,,,,null,,,,,,,,,,,,,,
2458.899999976158,,shortestpath_phase,1490509,GW/gong.jpg,,,,50,GW/basket.jpg,GW/teeth.jpg,0,0.625,,,,GW/basket.jpg,,,,,Two Edge Diff,Four Edge Six Edge
null,,html-keyboard-response,1491519,<p></p>,,,,null,,,,,,,,,,,,,,
1932.5,,shortestpath_phase,1493453,GW/paint.jpg,,,,49,GW/soldier.jpg,GW/wheelchair.jpg,1,0.6285714285714286,,,,GW/soldier.jpg,,,,,One Edge Diff,Four Edge Five Edge
null,,html-keyboard-response,1494461,<p></p>,,,,null,,,,,,,,,,,,,,
2105.600000023842,,shortestpath_phase,1496569,GW/wheelchair.jpg,,,,49,GW/jukebox.jpg,GW/paint.jpg,1,0.6320754716981132,,,,GW/jukebox.jpg,,,,,Three Edge Diff,Two Edge Five Edge
null,,html-keyboard-response,1497572,<p></p>,,,,null,,,,,,,,,,,,,,
1738.5,,shortestpath_phase,1499313,GW/gong.jpg,,,,49,GW/soldier.jpg,GW/wheelchair.jpg,1,0.6355140186915887,,,,GW/soldier.jpg,,,,,One Edge Diff,Five Edge Six Edge
null,,html-keyboard-response,1500316,<p></p>,,,,null,,,,,,,,,,,,,,
1701.3999999761581,,shortestpath_phase,1502019,GW/camera.jpg,,,,49,GW/hat.jpg,GW/teeth.jpg,1,0.6388888888888888,,,,GW/hat.jpg,,,,,Three Edge Diff,Three Edge Six Edge
null,,html-keyboard-response,1503023,<p></p>,,,,null,,,,,,,,,,,,,,
1620.1999999284744,,shortestpath_phase,1504645,GW/paint.jpg,,,,50,GW/teeth.jpg,GW/barrel.jpg,1,0.6422018348623854,,,,GW/barrel.jpg,,,,,Four Edge Diff,Two Edge Six Edge
null,,html-keyboard-response,1505649,<p></p>,,,,null,,,,,,,,,,,,,,
1820.2000000476837,,shortestpath_phase,1507471,GW/gong.jpg,,,,49,GW/camera.jpg,GW/teeth.jpg,1,0.6454545454545455,,,,GW/camera.jpg,,,,,Four Edge Diff,Two Edge Six Edge
null,,html-keyboard-response,1508474,<p></p>,,,,null,,,,,,,,,,,,,,
2252.8000000715256,,shortestpath_phase,1510729,GW/paint.jpg,,,,49,GW/teeth.jpg,GW/wheelchair.jpg,0,0.6396396396396397,,,,GW/wheelchair.jpg,,,,,One Edge Diff,Five Edge Six Edge
null,,html-keyboard-response,1511732,<p></p>,,,,null,,,,,,,,,,,,,,
1577.8999999761581,,shortestpath_phase,1513312,GW/gong.jpg,,,,49,GW/teeth.jpg,GW/dustpan.jpg,0,0.6339285714285714,,,,GW/dustpan.jpg,,,,,One Edge Diff,Five Edge Six Edge
null,,html-keyboard-response,1514315,<p></p>,,,,null,,,,,,,,,,,,,,
2417.5,,shortestpath_phase,1516735,GW/wheelchair.jpg,,,,50,GW/jukebox.jpg,GW/barrel.jpg,0,0.6283185840707964,,,,GW/jukebox.jpg,,,,,One Edge Diff,Two Edge Three Edge
null,,html-keyboard-response,1517738,<p></p>,,,,null,,,,,,,,,,,,,,
2614,,shortestpath_phase,1520353,GW/paint.jpg,,,,49,GW/globe.jpg,GW/wheelchair.jpg,1,0.631578947368421,,,,GW/globe.jpg,,,,,Three Edge Diff,Two Edge Five Edge
null,,html-keyboard-response,1521357,<p></p>,,,,null,,,,,,,,,,,,,,
1726.5,,shortestpath_phase,1523085,GW/wheelchair.jpg,,,,49,GW/paint.jpg,GW/dustpan.jpg,0,0.6260869565217392,,,,GW/dustpan.jpg,,,,,Three Edge Diff,Three Edge Six Edge
null,,html-keyboard-response,1524088,<p></p>,,,,null,,,,,,,,,,,,,,
1244.6000000238419,,shortestpath_phase,1525334,GW/gong.jpg,,,,50,GW/wheelchair.jpg,GW/globe.jpg,1,0.6293103448275862,,,,GW/globe.jpg,,,,,Four Edge Diff,Two Edge Six Edge
null,,html-keyboard-response,1526339,<p></p>,,,,null,,,,,,,,,,,,,,
1702.8000000715256,,shortestpath_phase,1528044,GW/dustpan.jpg,,,,49,GW/barrel.jpg,GW/camera.jpg,1,0.6324786324786325,,,,GW/barrel.jpg,,,,,One Edge Diff,Three Edge Four Edge
null,,html-keyboard-response,1529048,<p></p>,,,,null,,,,,,,,,,,,,,
1899.1000000238419,,shortestpath_phase,1530949,GW/wheelchair.jpg,,,,49,GW/globe.jpg,GW/gong.jpg,1,0.635593220338983,,,,GW/globe.jpg,,,,,Two Edge Diff,Four Edge Six Edge
null,,html-keyboard-response,1531952,<p></p>,,,,null,,,,,,,,,,,,,,
1966.7999999523163,,shortestpath_phase,1533921,GW/camera.jpg,,,,50,GW/dustpan.jpg,GW/jukebox.jpg,1,0.6386554621848739,,,,GW/jukebox.jpg,,,,,Two Edge Diff,Two Edge Four Edge
null,,html-keyboard-response,1534925,<p></p>,,,,null,,,,,,,,,,,,,,
1989.7000000476837,,shortestpath_phase,1536916,GW/gong.jpg,,,,49,GW/wheelchair.jpg,GW/basket.jpg,0,0.6333333333333333,,,,GW/basket.jpg,,,,,Two Edge Diff,Four Edge Six Edge
null,,html-keyboard-response,1537921,<p></p>,,,,null,,,,,,,,,,,,,,
1788.7999999523163,,shortestpath_phase,1539712,GW/jukebox.jpg,,,,50,GW/paint.jpg,GW/wheelchair.jpg,1,0.6363636363636364,,,,GW/wheelchair.jpg,,,,,One Edge Diff,Two Edge Three Edge
null,,html-keyboard-response,1540715,<p></p>,,,,null,,,,,,,,,,,,,,
24048,,intro_1,1564766,instruct,,0,,,,,,,,,,,,,,,,
38600.799999952316,,intro_2,1603370,instruct,,1,Next,,,,,,,,,,,,,,,
7271.5,,intro_3,1610646,instruct,,1,Next,,,,,,,,,,,,,,,
