rt,responses,trial_type,time_elapsed,stimulus,graphorder,button_pressed,response,key_press,stimulus_left,stimulus_right,accuracy,cumulative_accuracy,stimulus_down_left,stimulus_down_mid,stimulus_down_right,stimulus_correct,stimulus_short,stimulus_far,weighted_accuracy,missedtrial,condition,specific_pairs
62397.799999952316,{worker_id:67db09c719a34f37f3f38e0a},id_enter,62402,id_enter,GW/jukebox.jpg; GW/teeth.jpg; GW/gong.jpg; GW/camera.jpg; GW/barrel.jpg; GW/basket.jpg; GW/wheelchair.jpg; GW/paint.jpg; GW/hat.jpg; GW/soldier.jpg; GW/snail.jpg; GW/globe.jpg; GW/dustpan.jpg,,,,,,,,,,,,,,,,,
2720,,fullscreen,65133,fullscreen,,0,,,,,,,,,,,,,,,,
3171.7999999523163,,intro_1,68308,instruct,,0,,,,,,,,,,,,,,,,
3423.399999976158,,intro_2,71734,instruct,,1,Next,,,,,,,,,,,,,,,
9144.700000047684,,intro_3,80882,instruct,,1,Next,,,,,,,,,,,,,,,
null,,learn_prac_1,82885,lean_prac_1,,,,null,,,,,,,,,,,,,,
null,,html-keyboard-response,83887,<p></p>,,,,null,,,,,,,,,,,,,,
3592.6999999284744,,intro_1,87483,instruct,,0,,,,,,,,,,,,,,,,
4502.5,,intro_2,91988,instruct,,1,Next,,,,,,,,,,,,,,,
null,,learn_prac_2,93990,lean_prac_2,,,,null,,,,,,,,,,,,,,
null,,html-keyboard-response,94993,<p></p>,,,,null,,,,,,,,,,,,,,
5085.799999952316,,intro_1,100080,instruct,,0,,,,,,,,,,,,,,,,
5800.399999976158,,intro_2,105883,instruct,,1,Next,,,,,,,,,,,,,,,
20379.400000095367,,intro_3,126265,instruct,,1,Next,,,,,,,,,,,,,,,
null,,prac_atten_color_black,126909,black_plus_sign,,,,null,,,,,,,,,,,,,,
null,,prac_atten_color,127671,prac_stop_color,,,,null,,,,,,,,,,,,,,
31.200000047683716,,prac_atten_color_black,129677,black_plus_sign,,,,49,,,,,,,,,,,,,,
null,,prac_atten_color_black,130326,black_plus_sign,,,,null,,,,,,,,,,,,,,
569.8999999761581,,prac_atten_color,131397,prac_stop_color,,,,50,,,,,,,,,,,,,,
null,,prac_atten_color_black,133400,black_plus_sign,,,,null,,,,,,,,,,,,,,
null,,prac_atten_color_black,133736,black_plus_sign,,,,null,,,,,,,,,,,,,,
484.39999997615814,,prac_atten_color,134692,prac_stop_color,,,,50,,,,,,,,,,,,,,
null,,prac_atten_color_black,136694,black_plus_sign,,,,null,,,,,,,,,,,,,,
null,,prac_atten_color_black,137145,black_plus_sign,,,,null,,,,,,,,,,,,,,
null,,prac_atten_color,137645,prac_stop_color,,,,null,,,,,,,,,,,,,,
362.89999997615814,,prac_atten_color_black,139646,black_plus_sign,,,,49,,,,,,,,,,,,,,
null,,prac_atten_color_black,140557,black_plus_sign,,,,null,,,,,,,,,,,,,,
null,,prac_atten_color,141253,prac_stop_color,,,,null,,,,,,,,,,,,,,
301.5,,prac_atten_color_black,143255,black_plus_sign,,,,50,,,,,,,,,,,,,,
null,,prac_atten_color_black,143966,black_plus_sign,,,,null,,,,,,,,,,,,,,
705.7000000476837,,prac_atten_color,144911,prac_stop_color,,,,50,,,,,,,,,,,,,,
null,,prac_atten_color_black,146921,black_plus_sign,,,,null,,,,,,,,,,,,,,
null,,prac_atten_color_black,147383,black_plus_sign,,,,null,,,,,,,,,,,,,,
null,,prac_atten_color,147810,prac_stop_color,,,,null,,,,,,,,,,,,,,
381.5,,prac_atten_color_black,149812,black_plus_sign,,,,49,,,,,,,,,,,,,,
null,,prac_atten_color_black,150793,black_plus_sign,,,,null,,,,,,,,,,,,,,
null,,prac_atten_color,151615,prac_stop_color,,,,null,,,,,,,,,,,,,,
383.40000009536743,,prac_atten_color_black,153617,black_plus_sign,,,,50,,,,,,,,,,,,,,
null,,prac_atten_color_black,154202,black_plus_sign,,,,null,,,,,,,,,,,,,,
null,,prac_atten_color,154975,prac_stop_color,,,,null,,,,,,,,,,,,,,
307.1999999284744,,prac_atten_color_black,156978,black_plus_sign,,,,49,,,,,,,,,,,,,,
null,,prac_atten_color_black,157611,black_plus_sign,,,,null,,,,,,,,,,,,,,
null,,prac_atten_color,158633,prac_stop_color,,,,null,,,,,,,,,,,,,,
127.5,,prac_atten_color_black,160636,black_plus_sign,,,,49,,,,,,,,,,,,,,
4995,,attentioncheck_feedback,165635,cross_check_feedback,,0,,,,,,,,,,,,,,,,
21736.600000023842,,last_instruct,187372,instruct,,,,32,,,,,,,,,,,,,,
null,,learn_phase(without_color),189374,black_plus_sign,,,,null,GW/snail.jpg,GW/globe.jpg,,,,,,,,,,,,
null,,black_cross(without_color),190355,blue,,,,null,GW/snail.jpg,GW/globe.jpg,,,,,,,,,,,,
null,,rt_plussign_withcolor,190857,blue,,,,null,GW/snail.jpg,GW/globe.jpg,,,,,,,,,,,,
1096,,rt_thecrossant_black,191880,black_plus_sign,,,,49,,,1,1,,,,,,,,,,
null,,color_black,191982,black_plus_sign,,,,null,,,,,,,,,,,,,,
null,,learn_phase(without_color),193985,black_plus_sign,,,,null,GW/wheelchair.jpg,GW/paint.jpg,,,,,,,,,,,,
null,,black_cross(without_color),195073,blue,,,,null,GW/wheelchair.jpg,GW/paint.jpg,,,,,,,,,,,,
null,,rt_plussign_withcolor,195576,blue,,,,null,GW/wheelchair.jpg,GW/paint.jpg,,,,,,,,,,,,
830.1999999284744,,rt_thecrossant_black,196494,black_plus_sign,,,,49,,,1,1,,,,,,,,,,
null,,color_black,196597,black_plus_sign,,,,null,,,,,,,,,,,,,,
null,,learn_phase(without_color),198600,black_plus_sign,,,,null,GW/wheelchair.jpg,GW/dustpan.jpg,,,,,,,,,,,,
null,,black_cross(without_color),199692,blue,,,,null,GW/wheelchair.jpg,GW/dustpan.jpg,,,,,,,,,,,,
null,,rt_plussign_withcolor,200195,blue,,,,null,GW/wheelchair.jpg,GW/dustpan.jpg,,,,,,,,,,,,
1327.3999999761581,,rt_thecrossant_black,201108,black_plus_sign,,,,49,,,1,1,,,,,,,,,,
null,,color_black,201210,black_plus_sign,,,,null,,,,,,,,,,,,,,
null,,learn_phase(without_color),203212,black_plus_sign,,,,null,GW/wheelchair.jpg,GW/hat.jpg,,,,,,,,,,,,
null,,black_cross(without_color),204230,green,,,,null,GW/wheelchair.jpg,GW/hat.jpg,,,,,,,,,,,,
null,,rt_plussign_withcolor,204731,green,,,,null,GW/wheelchair.jpg,GW/hat.jpg,,,,,,,,,,,,
1353.7999999523163,,rt_thecrossant_black,205717,black_plus_sign,,,,50,,,1,1,,,,,,,,,,
null,,color_black,205820,black_plus_sign,,,,null,,,,,,,,,,,,,,
null,,learn_phase(without_color),207823,black_plus_sign,,,,null,GW/camera.jpg,GW/barrel.jpg,,,,,,,,,,,,
null,,black_cross(without_color),208665,green,,,,null,GW/camera.jpg,GW/barrel.jpg,,,,,,,,,,,,
null,,rt_plussign_withcolor,209166,green,,,,null,GW/camera.jpg,GW/barrel.jpg,,,,,,,,,,,,
1352.5999999046326,,rt_thecrossant_black,210328,black_plus_sign,,,,50,,,1,1,,,,,,,,,,
null,,color_black,210430,black_plus_sign,,,,null,,,,,,,,,,,,,,
null,,learn_phase(without_color),212433,black_plus_sign,,,,null,GW/teeth.jpg,GW/camera.jpg,,,,,,,,,,,,
null,,black_cross(without_color),213100,green,,,,null,GW/teeth.jpg,GW/camera.jpg,,,,,,,,,,,,
null,,rt_plussign_withcolor,213601,green,,,,null,GW/teeth.jpg,GW/camera.jpg,,,,,,,,,,,,
1062.2999999523163,,rt_thecrossant_black,214940,black_plus_sign,,,,50,,,1,1,,,,,,,,,,
null,,color_black,215046,black_plus_sign,,,,null,,,,,,,,,,,,,,
null,,learn_phase(without_color),217049,black_plus_sign,,,,null,GW/wheelchair.jpg,GW/hat.jpg,,,,,,,,,,,,
null,,black_cross(without_color),218034,blue,,,,null,GW/wheelchair.jpg,GW/hat.jpg,,,,,,,,,,,,
null,,rt_plussign_withcolor,218535,blue,,,,null,GW/wheelchair.jpg,GW/hat.jpg,,,,,,,,,,,,
837,,rt_thecrossant_black,219555,black_plus_sign,,,,49,,,1,1,,,,,,,,,,
null,,color_black,219657,black_plus_sign,,,,null,,,,,,,,,,,,,,
null,,learn_phase(without_color),221659,black_plus_sign,,,,null,GW/teeth.jpg,GW/gong.jpg,,,,,,,,,,,,
null,,black_cross(without_color),222469,blue,,,,null,GW/teeth.jpg,GW/gong.jpg,,,,,,,,,,,,
null,,rt_plussign_withcolor,222970,blue,,,,null,GW/teeth.jpg,GW/gong.jpg,,,,,,,,,,,,
1224.3000000715256,,rt_thecrossant_black,224168,black_plus_sign,,,,49,,,1,1,,,,,,,,,,
null,,color_black,224270,black_plus_sign,,,,null,,,,,,,,,,,,,,
null,,learn_phase(without_color),226273,black_plus_sign,,,,null,GW/camera.jpg,GW/barrel.jpg,,,,,,,,,,,,
null,,black_cross(without_color),226778,blue,,,,null,GW/camera.jpg,GW/barrel.jpg,,,,,,,,,,,,
null,,rt_plussign_withcolor,227279,blue,,,,null,GW/camera.jpg,GW/barrel.jpg,,,,,,,,,,,,
1244.9000000953674,,rt_thecrossant_black,228779,black_plus_sign,,,,49,,,1,1,,,,,,,,,,
null,,color_black,228881,black_plus_sign,,,,null,,,,,,,,,,,,,,
null,,learn_phase(without_color),230884,black_plus_sign,,,,null,GW/camera.jpg,GW/globe.jpg,,,,,,,,,,,,
null,,black_cross(without_color),231640,blue,,,,null,GW/camera.jpg,GW/globe.jpg,,,,,,,,,,,,
null,,rt_plussign_withcolor,232142,blue,,,,null,GW/camera.jpg,GW/globe.jpg,,,,,,,,,,,,
644.7999999523163,,rt_thecrossant_black,233398,black_plus_sign,,,,49,,,1,1,,,,,,,,,,
null,,color_black,233500,black_plus_sign,,,,null,,,,,,,,,,,,,,
null,,learn_phase(without_color),235502,black_plus_sign,,,,null,GW/teeth.jpg,GW/gong.jpg,,,,,,,,,,,,
null,,black_cross(without_color),236149,blue,,,,null,GW/teeth.jpg,GW/gong.jpg,,,,,,,,,,,,
null,,rt_plussign_withcolor,236651,blue,,,,null,GW/teeth.jpg,GW/gong.jpg,,,,,,,,,,,,
896.7000000476837,,rt_thecrossant_black,238008,black_plus_sign,,,,49,,,1,1,,,,,,,,,,
null,,color_black,238111,black_plus_sign,,,,null,,,,,,,,,,,,,,
null,,learn_phase(without_color),240114,black_plus_sign,,,,null,GW/basket.jpg,GW/hat.jpg,,,,,,,,,,,,
null,,black_cross(without_color),241132,green,,,,null,GW/basket.jpg,GW/hat.jpg,,,,,,,,,,,,
null,,rt_plussign_withcolor,241634,green,,,,null,GW/basket.jpg,GW/hat.jpg,,,,,,,,,,,,
1082.7000000476837,,rt_thecrossant_black,242621,black_plus_sign,,,,50,,,1,1,,,,,,,,,,
null,,color_black,242723,black_plus_sign,,,,null,,,,,,,,,,,,,,
null,,learn_phase(without_color),244731,black_plus_sign,,,,null,GW/paint.jpg,GW/hat.jpg,,,,,,,,,,,,
null,,black_cross(without_color),245259,green,,,,null,GW/paint.jpg,GW/hat.jpg,,,,,,,,,,,,
null,,rt_plussign_withcolor,245761,green,,,,null,GW/paint.jpg,GW/hat.jpg,,,,,,,,,,,,
1218.5,,rt_thecrossant_black,247237,black_plus_sign,,,,50,,,1,1,,,,,,,,,,
null,,color_black,247340,black_plus_sign,,,,null,,,,,,,,,,,,,,
null,,learn_phase(without_color),249342,black_plus_sign,,,,null,GW/snail.jpg,GW/globe.jpg,,,,,,,,,,,,
null,,black_cross(without_color),250369,blue,,,,null,GW/snail.jpg,GW/globe.jpg,,,,,,,,,,,,
null,,rt_plussign_withcolor,250870,blue,,,,null,GW/snail.jpg,GW/globe.jpg,,,,,,,,,,,,
922.2000000476837,,rt_thecrossant_black,251848,black_plus_sign,,,,49,,,1,1,,,,,,,,,,
null,,color_black,251950,black_plus_sign,,,,null,,,,,,,,,,,,,,
null,,learn_phase(without_color),253953,black_plus_sign,,,,null,GW/jukebox.jpg,GW/teeth.jpg,,,,,,,,,,,,
null,,black_cross(without_color),254972,green,,,,null,GW/jukebox.jpg,GW/teeth.jpg,,,,,,,,,,,,
null,,rt_plussign_withcolor,255473,green,,,,null,GW/jukebox.jpg,GW/teeth.jpg,,,,,,,,,,,,
1437.1999999284744,,rt_thecrossant_black,256459,black_plus_sign,,,,50,,,1,1,,,,,,,,,,
null,,color_black,256561,black_plus_sign,,,,null,,,,,,,,,,,,,,
null,,learn_phase(without_color),258564,black_plus_sign,,,,null,GW/wheelchair.jpg,GW/paint.jpg,,,,,,,,,,,,
null,,black_cross(without_color),259059,blue,,,,null,GW/wheelchair.jpg,GW/paint.jpg,,,,,,,,,,,,
null,,rt_plussign_withcolor,259561,blue,,,,null,GW/wheelchair.jpg,GW/paint.jpg,,,,,,,,,,,,
1481,,rt_thecrossant_black,261071,black_plus_sign,,,,49,,,1,1,,,,,,,,,,
null,,color_black,261173,black_plus_sign,,,,null,,,,,,,,,,,,,,
null,,learn_phase(without_color),263176,black_plus_sign,,,,null,GW/gong.jpg,GW/basket.jpg,,,,,,,,,,,,
null,,black_cross(without_color),263595,blue,,,,null,GW/gong.jpg,GW/basket.jpg,,,,,,,,,,,,
null,,rt_plussign_withcolor,264096,blue,,,,null,GW/gong.jpg,GW/basket.jpg,,,,,,,,,,,,
1061.6000000238419,,rt_thecrossant_black,265685,black_plus_sign,,,,49,,,1,1,,,,,,,,,,
null,,color_black,265788,black_plus_sign,,,,null,,,,,,,,,,,,,,
null,,learn_phase(without_color),267796,black_plus_sign,,,,null,GW/basket.jpg,GW/wheelchair.jpg,,,,,,,,,,,,
null,,black_cross(without_color),268639,blue,,,,null,GW/basket.jpg,GW/wheelchair.jpg,,,,,,,,,,,,
null,,rt_plussign_withcolor,269140,blue,,,,null,GW/basket.jpg,GW/wheelchair.jpg,,,,,,,,,,,,
687.7000000476837,,rt_thecrossant_black,270302,black_plus_sign,,,,49,,,1,1,,,,,,,,,,
null,,color_black,270403,black_plus_sign,,,,null,,,,,,,,,,,,,,
null,,learn_phase(without_color),272407,black_plus_sign,,,,null,GW/paint.jpg,GW/hat.jpg,,,,,,,,,,,,
null,,black_cross(without_color),272892,green,,,,null,GW/paint.jpg,GW/hat.jpg,,,,,,,,,,,,
null,,rt_plussign_withcolor,273394,green,,,,null,GW/paint.jpg,GW/hat.jpg,,,,,,,,,,,,
1299.3999999761581,,rt_thecrossant_black,274913,black_plus_sign,,,,50,,,1,1,,,,,,,,,,
null,,color_black,275015,black_plus_sign,,,,null,,,,,,,,,,,,,,
null,,learn_phase(without_color),277018,black_plus_sign,,,,null,GW/wheelchair.jpg,GW/hat.jpg,,,,,,,,,,,,
null,,black_cross(without_color),277838,green,,,,null,GW/wheelchair.jpg,GW/hat.jpg,,,,,,,,,,,,
null,,rt_plussign_withcolor,278340,green,,,,null,GW/wheelchair.jpg,GW/hat.jpg,,,,,,,,,,,,
859,,rt_thecrossant_black,279525,black_plus_sign,,,,50,,,1,1,,,,,,,,,,
null,,color_black,279627,black_plus_sign,,,,null,,,,,,,,,,,,,,
null,,learn_phase(without_color),281631,black_plus_sign,,,,null,GW/basket.jpg,GW/hat.jpg,,,,,,,,,,,,
null,,black_cross(without_color),282222,green,,,,null,GW/basket.jpg,GW/hat.jpg,,,,,,,,,,,,
null,,rt_plussign_withcolor,282723,green,,,,null,GW/basket.jpg,GW/hat.jpg,,,,,,,,,,,,
1164.2000000476837,,rt_thecrossant_black,284136,black_plus_sign,,,,50,,,1,1,,,,,,,,,,
null,,color_black,284238,black_plus_sign,,,,null,,,,,,,,,,,,,,
null,,learn_phase(without_color),286241,black_plus_sign,,,,null,GW/gong.jpg,GW/basket.jpg,,,,,,,,,,,,
null,,black_cross(without_color),286763,green,,,,null,GW/gong.jpg,GW/basket.jpg,,,,,,,,,,,,
null,,rt_plussign_withcolor,287265,green,,,,null,GW/gong.jpg,GW/basket.jpg,,,,,,,,,,,,
1041.6999999284744,,rt_thecrossant_black,288749,black_plus_sign,,,,50,,,1,1,,,,,,,,,,
null,,color_black,288851,black_plus_sign,,,,null,,,,,,,,,,,,,,
null,,learn_phase(without_color),290854,black_plus_sign,,,,null,GW/jukebox.jpg,GW/teeth.jpg,,,,,,,,,,,,
null,,black_cross(without_color),291261,blue,,,,null,GW/jukebox.jpg,GW/teeth.jpg,,,,,,,,,,,,
null,,rt_plussign_withcolor,291763,blue,,,,null,GW/jukebox.jpg,GW/teeth.jpg,,,,,,,,,,,,
933.0999999046326,,rt_thecrossant_black,293359,black_plus_sign,,,,49,,,1,1,,,,,,,,,,
null,,color_black,293471,black_plus_sign,,,,null,,,,,,,,,,,,,,
null,,learn_phase(without_color),295474,black_plus_sign,,,,null,GW/snail.jpg,GW/globe.jpg,,,,,,,,,,,,
null,,black_cross(without_color),296121,green,,,,null,GW/snail.jpg,GW/globe.jpg,,,,,,,,,,,,
null,,rt_plussign_withcolor,296624,green,,,,null,GW/snail.jpg,GW/globe.jpg,,,,,,,,,,,,
665.7000000476837,,rt_thecrossant_black,297982,black_plus_sign,,,,50,,,1,1,,,,,,,,,,
null,,color_black,298085,black_plus_sign,,,,null,,,,,,,,,,,,,,
null,,learn_phase(without_color),300088,black_plus_sign,,,,null,GW/camera.jpg,GW/globe.jpg,,,,,,,,,,,,
null,,black_cross(without_color),300502,green,,,,null,GW/camera.jpg,GW/globe.jpg,,,,,,,,,,,,
null,,rt_plussign_withcolor,301004,green,,,,null,GW/camera.jpg,GW/globe.jpg,,,,,,,,,,,,
1195.4000000953674,,rt_thecrossant_black,302595,black_plus_sign,,,,50,,,1,1,,,,,,,,,,
null,,color_black,302697,black_plus_sign,,,,null,,,,,,,,,,,,,,
null,,learn_phase(without_color),304699,black_plus_sign,,,,null,GW/paint.jpg,GW/hat.jpg,,,,,,,,,,,,
null,,black_cross(without_color),305579,green,,,,null,GW/paint.jpg,GW/hat.jpg,,,,,,,,,,,,
null,,rt_plussign_withcolor,306080,green,,,,null,GW/paint.jpg,GW/hat.jpg,,,,,,,,,,,,
809.8999999761581,,rt_thecrossant_black,307205,black_plus_sign,,,,50,,,1,1,,,,,,,,,,
null,,color_black,307307,black_plus_sign,,,,null,,,,,,,,,,,,,,
null,,learn_phase(without_color),309310,black_plus_sign,,,,null,GW/snail.jpg,GW/globe.jpg,,,,,,,,,,,,
null,,black_cross(without_color),310133,green,,,,null,GW/snail.jpg,GW/globe.jpg,,,,,,,,,,,,
null,,rt_plussign_withcolor,310634,green,,,,null,GW/snail.jpg,GW/globe.jpg,,,,,,,,,,,,
1150.2999999523163,,rt_thecrossant_black,311815,black_plus_sign,,,,50,,,1,1,,,,,,,,,,
null,,color_black,311917,black_plus_sign,,,,null,,,,,,,,,,,,,,
null,,learn_phase(without_color),313919,black_plus_sign,,,,null,GW/gong.jpg,GW/snail.jpg,,,,,,,,,,,,
null,,black_cross(without_color),314518,blue,,,,null,GW/gong.jpg,GW/snail.jpg,,,,,,,,,,,,
null,,rt_plussign_withcolor,315025,blue,,,,null,GW/gong.jpg,GW/snail.jpg,,,,,,,,,,,,
1230.8999999761581,,rt_thecrossant_black,316431,black_plus_sign,,,,49,,,1,1,,,,,,,,,,
null,,color_black,316532,black_plus_sign,,,,null,,,,,,,,,,,,,,
null,,learn_phase(without_color),318535,black_plus_sign,,,,null,GW/wheelchair.jpg,GW/dustpan.jpg,,,,,,,,,,,,
null,,black_cross(without_color),319637,green,,,,null,GW/wheelchair.jpg,GW/dustpan.jpg,,,,,,,,,,,,
null,,rt_plussign_withcolor,320151,green,,,,null,GW/wheelchair.jpg,GW/dustpan.jpg,,,,,,,,,,,,
1094.8999999761581,,rt_thecrossant_black,321055,black_plus_sign,,,,50,,,1,1,,,,,,,,,,
null,,color_black,321157,black_plus_sign,,,,null,,,,,,,,,,,,,,
null,,learn_phase(without_color),323159,black_plus_sign,,,,null,GW/basket.jpg,GW/wheelchair.jpg,,,,,,,,,,,,
null,,black_cross(without_color),324185,green,,,,null,GW/basket.jpg,GW/wheelchair.jpg,,,,,,,,,,,,
null,,rt_plussign_withcolor,324687,green,,,,null,GW/basket.jpg,GW/wheelchair.jpg,,,,,,,,,,,,
1380.7000000476837,,rt_thecrossant_black,325666,black_plus_sign,,,,50,,,1,1,,,,,,,,,,
null,,color_black,325767,black_plus_sign,,,,null,,,,,,,,,,,,,,
null,,learn_phase(without_color),327769,black_plus_sign,,,,null,GW/gong.jpg,GW/snail.jpg,,,,,,,,,,,,
null,,black_cross(without_color),328210,green,,,,null,GW/gong.jpg,GW/snail.jpg,,,,,,,,,,,,
null,,rt_plussign_withcolor,328712,green,,,,null,GW/gong.jpg,GW/snail.jpg,,,,,,,,,,,,
1366.8999999761581,,rt_thecrossant_black,330284,black_plus_sign,,,,50,,,1,1,,,,,,,,,,
null,,color_black,330387,black_plus_sign,,,,null,,,,,,,,,,,,,,
null,,learn_phase(without_color),332390,black_plus_sign,,,,null,GW/camera.jpg,GW/globe.jpg,,,,,,,,,,,,
null,,black_cross(without_color),332792,green,,,,null,GW/camera.jpg,GW/globe.jpg,,,,,,,,,,,,
null,,rt_plussign_withcolor,333294,green,,,,null,GW/camera.jpg,GW/globe.jpg,,,,,,,,,,,,
743.5,,rt_thecrossant_black,334897,black_plus_sign,,,,50,,,1,1,,,,,,,,,,
null,,color_black,334999,black_plus_sign,,,,null,,,,,,,,,,,,,,
null,,learn_phase(without_color),337012,black_plus_sign,,,,null,GW/wheelchair.jpg,GW/dustpan.jpg,,,,,,,,,,,,
null,,black_cross(without_color),337775,blue,,,,null,GW/wheelchair.jpg,GW/dustpan.jpg,,,,,,,,,,,,
null,,rt_plussign_withcolor,338276,blue,,,,null,GW/wheelchair.jpg,GW/dustpan.jpg,,,,,,,,,,,,
564.7000000476837,,rt_thecrossant_black,339518,black_plus_sign,,,,49,,,1,1,,,,,,,,,,
null,,color_black,339621,black_plus_sign,,,,null,,,,,,,,,,,,,,
null,,learn_phase(without_color),341623,black_plus_sign,,,,null,GW/gong.jpg,GW/snail.jpg,,,,,,,,,,,,
null,,black_cross(without_color),342596,blue,,,,null,GW/gong.jpg,GW/snail.jpg,,,,,,,,,,,,
null,,rt_plussign_withcolor,343097,blue,,,,null,GW/gong.jpg,GW/snail.jpg,,,,,,,,,,,,
1168.3999999761581,,rt_thecrossant_black,344131,black_plus_sign,,,,49,,,1,1,,,,,,,,,,
null,,color_black,344233,black_plus_sign,,,,null,,,,,,,,,,,,,,
null,,learn_phase(without_color),346236,black_plus_sign,,,,null,GW/camera.jpg,GW/globe.jpg,,,,,,,,,,,,
null,,black_cross(without_color),347174,blue,,,,null,GW/camera.jpg,GW/globe.jpg,,,,,,,,,,,,
null,,rt_plussign_withcolor,347676,blue,,,,null,GW/camera.jpg,GW/globe.jpg,,,,,,,,,,,,
1481.2000000476837,,rt_thecrossant_black,348755,black_plus_sign,,,,49,,,1,1,,,,,,,,,,
null,,color_black,348858,black_plus_sign,,,,null,,,,,,,,,,,,,,
null,,learn_phase(without_color),350860,black_plus_sign,,,,null,GW/wheelchair.jpg,GW/dustpan.jpg,,,,,,,,,,,,
null,,black_cross(without_color),351450,blue,,,,null,GW/wheelchair.jpg,GW/dustpan.jpg,,,,,,,,,,,,
null,,rt_plussign_withcolor,351951,blue,,,,null,GW/wheelchair.jpg,GW/dustpan.jpg,,,,,,,,,,,,
1287,,rt_thecrossant_black,353366,black_plus_sign,,,,49,,,1,1,,,,,,,,,,
null,,color_black,353468,black_plus_sign,,,,null,,,,,,,,,,,,,,
null,,learn_phase(without_color),355470,black_plus_sign,,,,null,GW/camera.jpg,GW/globe.jpg,,,,,,,,,,,,
null,,black_cross(without_color),356444,blue,,,,null,GW/camera.jpg,GW/globe.jpg,,,,,,,,,,,,
null,,rt_plussign_withcolor,356946,blue,,,,null,GW/camera.jpg,GW/globe.jpg,,,,,,,,,,,,
917.0999999046326,,rt_thecrossant_black,357976,black_plus_sign,,,,49,,,1,1,,,,,,,,,,
null,,color_black,358078,black_plus_sign,,,,null,,,,,,,,,,,,,,
null,,learn_phase(without_color),360080,black_plus_sign,,,,null,GW/wheelchair.jpg,GW/hat.jpg,,,,,,,,,,,,
null,,black_cross(without_color),360935,blue,,,,null,GW/wheelchair.jpg,GW/hat.jpg,,,,,,,,,,,,
null,,rt_plussign_withcolor,361437,blue,,,,null,GW/wheelchair.jpg,GW/hat.jpg,,,,,,,,,,,,
1367.2000000476837,,rt_thecrossant_black,362586,black_plus_sign,,,,49,,,1,1,,,,,,,,,,
null,,color_black,362688,black_plus_sign,,,,null,,,,,,,,,,,,,,
null,,learn_phase(without_color),364691,black_plus_sign,,,,null,GW/teeth.jpg,GW/gong.jpg,,,,,,,,,,,,
null,,black_cross(without_color),365110,green,,,,null,GW/teeth.jpg,GW/gong.jpg,,,,,,,,,,,,
null,,rt_plussign_withcolor,365613,green,,,,null,GW/teeth.jpg,GW/gong.jpg,,,,,,,,,,,,
1214.0999999046326,,rt_thecrossant_black,367198,black_plus_sign,,,,50,,,1,1,,,,,,,,,,
null,,color_black,367300,black_plus_sign,,,,null,,,,,,,,,,,,,,
null,,learn_phase(without_color),369314,black_plus_sign,,,,null,GW/gong.jpg,GW/snail.jpg,,,,,,,,,,,,
null,,black_cross(without_color),369828,blue,,,,null,GW/gong.jpg,GW/snail.jpg,,,,,,,,,,,,
null,,rt_plussign_withcolor,370329,blue,,,,null,GW/gong.jpg,GW/snail.jpg,,,,,,,,,,,,
729.6000000238419,,rt_thecrossant_black,371819,black_plus_sign,,,,49,,,1,1,,,,,,,,,,
null,,color_black,371922,black_plus_sign,,,,null,,,,,,,,,,,,,,
null,,learn_phase(without_color),373925,black_plus_sign,,,,null,GW/hat.jpg,GW/snail.jpg,,,,,,,,,,,,
null,,black_cross(without_color),374671,green,,,,null,GW/hat.jpg,GW/snail.jpg,,,,,,,,,,,,
null,,rt_plussign_withcolor,375173,green,,,,null,GW/hat.jpg,GW/snail.jpg,,,,,,,,,,,,
648.1999999284744,,rt_thecrossant_black,376440,black_plus_sign,,,,50,,,1,1,,,,,,,,,,
null,,color_black,376541,black_plus_sign,,,,null,,,,,,,,,,,,,,
null,,learn_phase(without_color),378544,black_plus_sign,,,,null,GW/basket.jpg,GW/wheelchair.jpg,,,,,,,,,,,,
null,,black_cross(without_color),379602,green,,,,null,GW/basket.jpg,GW/wheelchair.jpg,,,,,,,,,,,,
null,,rt_plussign_withcolor,380104,green,,,,null,GW/basket.jpg,GW/wheelchair.jpg,,,,,,,,,,,,
1091.2999999523163,,rt_thecrossant_black,381051,black_plus_sign,,,,50,,,1,1,,,,,,,,,,
null,,color_black,381154,black_plus_sign,,,,null,,,,,,,,,,,,,,
null,,learn_phase(without_color),383156,black_plus_sign,,,,null,GW/wheelchair.jpg,GW/dustpan.jpg,,,,,,,,,,,,
null,,black_cross(without_color),383735,blue,,,,null,GW/wheelchair.jpg,GW/dustpan.jpg,,,,,,,,,,,,
null,,rt_plussign_withcolor,384237,blue,,,,null,GW/wheelchair.jpg,GW/dustpan.jpg,,,,,,,,,,,,
1352.6999999284744,,rt_thecrossant_black,385667,black_plus_sign,,,,49,,,1,1,,,,,,,,,,
null,,color_black,385770,black_plus_sign,,,,null,,,,,,,,,,,,,,
null,,learn_phase(without_color),387773,black_plus_sign,,,,null,GW/camera.jpg,GW/globe.jpg,,,,,,,,,,,,
null,,black_cross(without_color),388364,blue,,,,null,GW/camera.jpg,GW/globe.jpg,,,,,,,,,,,,
null,,rt_plussign_withcolor,388866,blue,,,,null,GW/camera.jpg,GW/globe.jpg,,,,,,,,,,,,
1431.8999999761581,,rt_thecrossant_black,390280,black_plus_sign,,,,49,,,1,1,,,,,,,,,,
null,,color_black,390393,black_plus_sign,,,,null,,,,,,,,,,,,,,
null,,learn_phase(without_color),392396,black_plus_sign,,,,null,GW/jukebox.jpg,GW/teeth.jpg,,,,,,,,,,,,
null,,black_cross(without_color),392836,green,,,,null,GW/jukebox.jpg,GW/teeth.jpg,,,,,,,,,,,,
null,,rt_plussign_withcolor,393337,green,,,,null,GW/jukebox.jpg,GW/teeth.jpg,,,,,,,,,,,,
928.1000000238419,,rt_thecrossant_black,394903,black_plus_sign,,,,50,,,1,1,,,,,,,,,,
null,,color_black,395005,black_plus_sign,,,,null,,,,,,,,,,,,,,
null,,learn_phase(without_color),397008,black_plus_sign,,,,null,GW/paint.jpg,GW/soldier.jpg,,,,,,,,,,,,
null,,black_cross(without_color),397972,blue,,,,null,GW/paint.jpg,GW/soldier.jpg,,,,,,,,,,,,
null,,rt_plussign_withcolor,398475,blue,,,,null,GW/paint.jpg,GW/soldier.jpg,,,,,,,,,,,,
853.2000000476837,,rt_thecrossant_black,399515,black_plus_sign,,,,49,,,1,1,,,,,,,,,,
null,,color_black,399617,black_plus_sign,,,,null,,,,,,,,,,,,,,
null,,learn_phase(without_color),401627,black_plus_sign,,,,null,GW/jukebox.jpg,GW/teeth.jpg,,,,,,,,,,,,
null,,black_cross(without_color),402257,green,,,,null,GW/jukebox.jpg,GW/teeth.jpg,,,,,,,,,,,,
null,,rt_plussign_withcolor,402759,green,,,,null,GW/jukebox.jpg,GW/teeth.jpg,,,,,,,,,,,,
1379.0999999046326,,rt_thecrossant_black,404132,black_plus_sign,,,,50,,,1,1,,,,,,,,,,
null,,color_black,404235,black_plus_sign,,,,null,,,,,,,,,,,,,,
null,,learn_phase(without_color),406237,black_plus_sign,,,,null,GW/gong.jpg,GW/basket.jpg,,,,,,,,,,,,
null,,black_cross(without_color),406755,green,,,,null,GW/gong.jpg,GW/basket.jpg,,,,,,,,,,,,
null,,rt_plussign_withcolor,407256,green,,,,null,GW/gong.jpg,GW/basket.jpg,,,,,,,,,,,,
1032.7000000476837,,rt_thecrossant_black,408744,black_plus_sign,,,,50,,,1,1,,,,,,,,,,
null,,color_black,408846,black_plus_sign,,,,null,,,,,,,,,,,,,,
null,,learn_phase(without_color),410850,black_plus_sign,,,,null,GW/jukebox.jpg,GW/teeth.jpg,,,,,,,,,,,,
null,,black_cross(without_color),411629,green,,,,null,GW/jukebox.jpg,GW/teeth.jpg,,,,,,,,,,,,
null,,rt_plussign_withcolor,412131,green,,,,null,GW/jukebox.jpg,GW/teeth.jpg,,,,,,,,,,,,
732.3999999761581,,rt_thecrossant_black,413356,black_plus_sign,,,,50,,,1,1,,,,,,,,,,
null,,color_black,413458,black_plus_sign,,,,null,,,,,,,,,,,,,,
null,,learn_phase(without_color),415461,black_plus_sign,,,,null,GW/gong.jpg,GW/snail.jpg,,,,,,,,,,,,
null,,black_cross(without_color),416328,green,,,,null,GW/gong.jpg,GW/snail.jpg,,,,,,,,,,,,
null,,rt_plussign_withcolor,416829,green,,,,null,GW/gong.jpg,GW/snail.jpg,,,,,,,,,,,,
949,,rt_thecrossant_black,417966,black_plus_sign,,,,50,,,1,1,,,,,,,,,,
null,,color_black,418069,black_plus_sign,,,,null,,,,,,,,,,,,,,
null,,learn_phase(without_color),420072,black_plus_sign,,,,null,GW/hat.jpg,GW/snail.jpg,,,,,,,,,,,,
null,,black_cross(without_color),420555,green,,,,null,GW/hat.jpg,GW/snail.jpg,,,,,,,,,,,,
null,,rt_plussign_withcolor,421055,green,,,,null,GW/hat.jpg,GW/snail.jpg,,,,,,,,,,,,
1305.7000000476837,,rt_thecrossant_black,422576,black_plus_sign,,,,50,,,1,1,,,,,,,,,,
null,,color_black,422678,black_plus_sign,,,,null,,,,,,,,,,,,,,
null,,learn_phase(without_color),424681,black_plus_sign,,,,null,GW/jukebox.jpg,GW/teeth.jpg,,,,,,,,,,,,
null,,black_cross(without_color),425106,blue,,,,null,GW/jukebox.jpg,GW/teeth.jpg,,,,,,,,,,,,
null,,rt_plussign_withcolor,425608,blue,,,,null,GW/jukebox.jpg,GW/teeth.jpg,,,,,,,,,,,,
847.2999999523163,,rt_thecrossant_black,427188,black_plus_sign,,,,49,,,1,1,,,,,,,,,,
null,,color_black,427289,black_plus_sign,,,,null,,,,,,,,,,,,,,
null,,learn_phase(without_color),429292,black_plus_sign,,,,null,GW/basket.jpg,GW/wheelchair.jpg,,,,,,,,,,,,
null,,black_cross(without_color),430058,green,,,,null,GW/basket.jpg,GW/wheelchair.jpg,,,,,,,,,,,,
null,,rt_plussign_withcolor,430560,green,,,,null,GW/basket.jpg,GW/wheelchair.jpg,,,,,,,,,,,,
668.7000000476837,,rt_thecrossant_black,431799,black_plus_sign,,,,50,,,1,1,,,,,,,,,,
null,,color_black,431906,black_plus_sign,,,,null,,,,,,,,,,,,,,
null,,learn_phase(without_color),433908,black_plus_sign,,,,null,GW/teeth.jpg,GW/gong.jpg,,,,,,,,,,,,
null,,black_cross(without_color),434373,green,,,,null,GW/teeth.jpg,GW/gong.jpg,,,,,,,,,,,,
null,,rt_plussign_withcolor,434874,green,,,,null,GW/teeth.jpg,GW/gong.jpg,,,,,,,,,,,,
1064.8000000715256,,rt_thecrossant_black,436415,black_plus_sign,,,,50,,,1,1,,,,,,,,,,
null,,color_black,436518,black_plus_sign,,,,null,,,,,,,,,,,,,,
null,,learn_phase(without_color),438520,black_plus_sign,,,,null,GW/snail.jpg,GW/globe.jpg,,,,,,,,,,,,
null,,black_cross(without_color),439479,blue,,,,null,GW/snail.jpg,GW/globe.jpg,,,,,,,,,,,,
null,,rt_plussign_withcolor,439981,blue,,,,null,GW/snail.jpg,GW/globe.jpg,,,,,,,,,,,,
647.6000000238419,,rt_thecrossant_black,441027,black_plus_sign,,,,49,,,1,1,,,,,,,,,,
null,,color_black,441130,black_plus_sign,,,,null,,,,,,,,,,,,,,
null,,learn_phase(without_color),443132,black_plus_sign,,,,null,GW/basket.jpg,GW/wheelchair.jpg,,,,,,,,,,,,
null,,black_cross(without_color),444125,green,,,,null,GW/basket.jpg,GW/wheelchair.jpg,,,,,,,,,,,,
null,,rt_plussign_withcolor,444628,green,,,,null,GW/basket.jpg,GW/wheelchair.jpg,,,,,,,,,,,,
1283,,rt_thecrossant_black,445640,black_plus_sign,,,,50,,,1,1,,,,,,,,,,
null,,color_black,445755,black_plus_sign,,,,null,,,,,,,,,,,,,,
null,,learn_phase(without_color),447757,black_plus_sign,,,,null,GW/basket.jpg,GW/hat.jpg,,,,,,,,,,,,
null,,black_cross(without_color),448232,green,,,,null,GW/basket.jpg,GW/hat.jpg,,,,,,,,,,,,
null,,rt_plussign_withcolor,448735,green,,,,null,GW/basket.jpg,GW/hat.jpg,,,,,,,,,,,,
1554.5,,rt_thecrossant_black,450264,black_plus_sign,,,,50,,,1,1,,,,,,,,,,
null,,color_black,450366,black_plus_sign,,,,null,,,,,,,,,,,,,,
null,,learn_phase(without_color),452369,black_plus_sign,,,,null,GW/hat.jpg,GW/snail.jpg,,,,,,,,,,,,
null,,black_cross(without_color),452996,green,,,,null,GW/hat.jpg,GW/snail.jpg,,,,,,,,,,,,
null,,rt_plussign_withcolor,453498,green,,,,null,GW/hat.jpg,GW/snail.jpg,,,,,,,,,,,,
852.3999999761581,,rt_thecrossant_black,454874,black_plus_sign,,,,50,,,1,1,,,,,,,,,,
null,,color_black,454976,black_plus_sign,,,,null,,,,,,,,,,,,,,
null,,learn_phase(without_color),456979,black_plus_sign,,,,null,GW/teeth.jpg,GW/camera.jpg,,,,,,,,,,,,
null,,black_cross(without_color),458029,green,,,,null,GW/teeth.jpg,GW/camera.jpg,,,,,,,,,,,,
null,,rt_plussign_withcolor,458532,green,,,,null,GW/teeth.jpg,GW/camera.jpg,,,,,,,,,,,,
978.3999999761581,,rt_thecrossant_black,459494,black_plus_sign,,,,50,,,1,1,,,,,,,,,,
null,,color_black,459596,black_plus_sign,,,,null,,,,,,,,,,,,,,
null,,learn_phase(without_color),461598,black_plus_sign,,,,null,GW/teeth.jpg,GW/gong.jpg,,,,,,,,,,,,
null,,black_cross(without_color),462388,blue,,,,null,GW/teeth.jpg,GW/gong.jpg,,,,,,,,,,,,
null,,rt_plussign_withcolor,462889,blue,,,,null,GW/teeth.jpg,GW/gong.jpg,,,,,,,,,,,,
1439.5,,rt_thecrossant_black,464107,black_plus_sign,,,,49,,,1,1,,,,,,,,,,
null,,color_black,464209,black_plus_sign,,,,null,,,,,,,,,,,,,,
null,,learn_phase(without_color),466212,black_plus_sign,,,,null,GW/basket.jpg,GW/hat.jpg,,,,,,,,,,,,
null,,black_cross(without_color),467098,green,,,,null,GW/basket.jpg,GW/hat.jpg,,,,,,,,,,,,
null,,rt_plussign_withcolor,467600,green,,,,null,GW/basket.jpg,GW/hat.jpg,,,,,,,,,,,,
1094.5,,rt_thecrossant_black,468717,black_plus_sign,,,,50,,,1,1,,,,,,,,,,
null,,color_black,468819,black_plus_sign,,,,null,,,,,,,,,,,,,,
null,,learn_phase(without_color),470821,black_plus_sign,,,,null,GW/paint.jpg,GW/soldier.jpg,,,,,,,,,,,,
null,,black_cross(without_color),471711,blue,,,,null,GW/paint.jpg,GW/soldier.jpg,,,,,,,,,,,,
null,,rt_plussign_withcolor,472213,blue,,,,null,GW/paint.jpg,GW/soldier.jpg,,,,,,,,,,,,
1367.2999999523163,,rt_thecrossant_black,473328,black_plus_sign,,,,49,,,1,1,,,,,,,,,,
null,,color_black,473430,black_plus_sign,,,,null,,,,,,,,,,,,,,
null,,learn_phase(without_color),475432,black_plus_sign,,,,null,GW/paint.jpg,GW/hat.jpg,,,,,,,,,,,,
null,,black_cross(without_color),476461,blue,,,,null,GW/paint.jpg,GW/hat.jpg,,,,,,,,,,,,
null,,rt_plussign_withcolor,476963,blue,,,,null,GW/paint.jpg,GW/hat.jpg,,,,,,,,,,,,
1307.3999999761581,,rt_thecrossant_black,477939,black_plus_sign,,,,49,,,1,1,,,,,,,,,,
null,,color_black,478054,black_plus_sign,,,,null,,,,,,,,,,,,,,
null,,learn_phase(without_color),480055,black_plus_sign,,,,null,GW/camera.jpg,GW/barrel.jpg,,,,,,,,,,,,
null,,black_cross(without_color),480936,green,,,,null,GW/camera.jpg,GW/barrel.jpg,,,,,,,,,,,,
null,,rt_plussign_withcolor,481438,green,,,,null,GW/camera.jpg,GW/barrel.jpg,,,,,,,,,,,,
1485.7000000476837,,rt_thecrossant_black,482562,black_plus_sign,,,,50,,,1,1,,,,,,,,,,
null,,color_black,482665,black_plus_sign,,,,null,,,,,,,,,,,,,,
null,,learn_phase(without_color),484667,black_plus_sign,,,,null,GW/wheelchair.jpg,GW/paint.jpg,,,,,,,,,,,,
null,,black_cross(without_color),485469,blue,,,,null,GW/wheelchair.jpg,GW/paint.jpg,,,,,,,,,,,,
null,,rt_plussign_withcolor,485971,blue,,,,null,GW/wheelchair.jpg,GW/paint.jpg,,,,,,,,,,,,
1386.5,,rt_thecrossant_black,487172,black_plus_sign,,,,49,,,1,1,,,,,,,,,,
null,,color_black,487273,black_plus_sign,,,,null,,,,,,,,,,,,,,
null,,learn_phase(without_color),489276,black_plus_sign,,,,null,GW/camera.jpg,GW/barrel.jpg,,,,,,,,,,,,
null,,black_cross(without_color),489743,blue,,,,null,GW/camera.jpg,GW/barrel.jpg,,,,,,,,,,,,
null,,rt_plussign_withcolor,490245,blue,,,,null,GW/camera.jpg,GW/barrel.jpg,,,,,,,,,,,,
1151.5,,rt_thecrossant_black,491782,black_plus_sign,,,,49,,,1,1,,,,,,,,,,
null,,color_black,491884,black_plus_sign,,,,null,,,,,,,,,,,,,,
null,,learn_phase(without_color),493887,black_plus_sign,,,,null,GW/teeth.jpg,GW/camera.jpg,,,,,,,,,,,,
null,,black_cross(without_color),494341,green,,,,null,GW/teeth.jpg,GW/camera.jpg,,,,,,,,,,,,
null,,rt_plussign_withcolor,494842,green,,,,null,GW/teeth.jpg,GW/camera.jpg,,,,,,,,,,,,
916.0999999046326,,rt_thecrossant_black,496391,black_plus_sign,,,,50,,,1,1,,,,,,,,,,
null,,color_black,496493,black_plus_sign,,,,null,,,,,,,,,,,,,,
null,,learn_phase(without_color),498496,black_plus_sign,,,,null,GW/jukebox.jpg,GW/teeth.jpg,,,,,,,,,,,,
null,,black_cross(without_color),499599,green,,,,null,GW/jukebox.jpg,GW/teeth.jpg,,,,,,,,,,,,
null,,rt_plussign_withcolor,500100,green,,,,null,GW/jukebox.jpg,GW/teeth.jpg,,,,,,,,,,,,
656.7000000476837,,rt_thecrossant_black,501003,black_plus_sign,,,,50,,,1,1,,,,,,,,,,
null,,color_black,501106,black_plus_sign,,,,null,,,,,,,,,,,,,,
null,,learn_phase(without_color),503109,black_plus_sign,,,,null,GW/wheelchair.jpg,GW/paint.jpg,,,,,,,,,,,,
null,,black_cross(without_color),503881,green,,,,null,GW/wheelchair.jpg,GW/paint.jpg,,,,,,,,,,,,
null,,rt_plussign_withcolor,504383,green,,,,null,GW/wheelchair.jpg,GW/paint.jpg,,,,,,,,,,,,
1679.5999999046326,,rt_thecrossant_black,505615,black_plus_sign,,,,50,,,1,1,,,,,,,,,,
null,,color_black,505718,black_plus_sign,,,,null,,,,,,,,,,,,,,
null,,learn_phase(without_color),507720,black_plus_sign,,,,null,GW/snail.jpg,GW/globe.jpg,,,,,,,,,,,,
null,,black_cross(without_color),508718,blue,,,,null,GW/snail.jpg,GW/globe.jpg,,,,,,,,,,,,
null,,rt_plussign_withcolor,509220,blue,,,,null,GW/snail.jpg,GW/globe.jpg,,,,,,,,,,,,
1083.1000000238419,,rt_thecrossant_black,510226,black_plus_sign,,,,49,,,1,1,,,,,,,,,,
null,,color_black,510328,black_plus_sign,,,,null,,,,,,,,,,,,,,
null,,learn_phase(without_color),512331,black_plus_sign,,,,null,GW/gong.jpg,GW/basket.jpg,,,,,,,,,,,,
null,,black_cross(without_color),512871,blue,,,,null,GW/gong.jpg,GW/basket.jpg,,,,,,,,,,,,
null,,rt_plussign_withcolor,513372,blue,,,,null,GW/gong.jpg,GW/basket.jpg,,,,,,,,,,,,
1688.6999999284744,,rt_thecrossant_black,514840,black_plus_sign,,,,49,,,1,1,,,,,,,,,,
null,,color_black,514943,black_plus_sign,,,,null,,,,,,,,,,,,,,
null,,learn_phase(without_color),516946,black_plus_sign,,,,null,GW/wheelchair.jpg,GW/paint.jpg,,,,,,,,,,,,
null,,black_cross(without_color),517911,blue,,,,null,GW/wheelchair.jpg,GW/paint.jpg,,,,,,,,,,,,
null,,rt_plussign_withcolor,518412,blue,,,,null,GW/wheelchair.jpg,GW/paint.jpg,,,,,,,,,,,,
1058.9000000953674,,rt_thecrossant_black,519456,black_plus_sign,,,,49,,,1,1,,,,,,,,,,
null,,color_black,519558,black_plus_sign,,,,null,,,,,,,,,,,,,,
null,,learn_phase(without_color),521561,black_plus_sign,,,,null,GW/hat.jpg,GW/snail.jpg,,,,,,,,,,,,
null,,black_cross(without_color),522230,blue,,,,null,GW/hat.jpg,GW/snail.jpg,,,,,,,,,,,,
null,,rt_plussign_withcolor,522731,blue,,,,null,GW/hat.jpg,GW/snail.jpg,,,,,,,,,,,,
1358.6000000238419,,rt_thecrossant_black,524068,black_plus_sign,,,,49,,,1,1,,,,,,,,,,
null,,color_black,524170,black_plus_sign,,,,null,,,,,,,,,,,,,,
null,,learn_phase(without_color),526173,black_plus_sign,,,,null,GW/paint.jpg,GW/soldier.jpg,,,,,,,,,,,,
null,,black_cross(without_color),527213,blue,,,,null,GW/paint.jpg,GW/soldier.jpg,,,,,,,,,,,,
null,,rt_plussign_withcolor,527715,blue,,,,null,GW/paint.jpg,GW/soldier.jpg,,,,,,,,,,,,
954.5999999046326,,rt_thecrossant_black,528680,black_plus_sign,,,,49,,,1,1,,,,,,,,,,
null,,color_black,528782,black_plus_sign,,,,null,,,,,,,,,,,,,,
null,,learn_phase(without_color),530785,black_plus_sign,,,,null,GW/camera.jpg,GW/globe.jpg,,,,,,,,,,,,
null,,black_cross(without_color),531450,green,,,,null,GW/camera.jpg,GW/globe.jpg,,,,,,,,,,,,
null,,rt_plussign_withcolor,531951,green,,,,null,GW/camera.jpg,GW/globe.jpg,,,,,,,,,,,,
1355.6000000238419,,rt_thecrossant_black,533290,black_plus_sign,,,,50,,,1,1,,,,,,,,,,
null,,color_black,533395,black_plus_sign,,,,null,,,,,,,,,,,,,,
null,,learn_phase(without_color),535399,black_plus_sign,,,,null,GW/teeth.jpg,GW/camera.jpg,,,,,,,,,,,,
null,,black_cross(without_color),535940,green,,,,null,GW/teeth.jpg,GW/camera.jpg,,,,,,,,,,,,
null,,rt_plussign_withcolor,536444,green,,,,null,GW/teeth.jpg,GW/camera.jpg,,,,,,,,,,,,
1065,,rt_thecrossant_black,537908,black_plus_sign,,,,50,,,1,1,,,,,,,,,,
null,,color_black,538010,black_plus_sign,,,,null,,,,,,,,,,,,,,
null,,learn_phase(without_color),540015,black_plus_sign,,,,null,GW/hat.jpg,GW/snail.jpg,,,,,,,,,,,,
null,,black_cross(without_color),540554,blue,,,,null,GW/hat.jpg,GW/snail.jpg,,,,,,,,,,,,
null,,rt_plussign_withcolor,541056,blue,,,,null,GW/hat.jpg,GW/snail.jpg,,,,,,,,,,,,
897,,rt_thecrossant_black,542520,black_plus_sign,,,,49,,,1,1,,,,,,,,,,
null,,color_black,542622,black_plus_sign,,,,null,,,,,,,,,,,,,,
null,,learn_phase(without_color),544625,black_plus_sign,,,,null,GW/gong.jpg,GW/snail.jpg,,,,,,,,,,,,
null,,black_cross(without_color),545155,green,,,,null,GW/gong.jpg,GW/snail.jpg,,,,,,,,,,,,
null,,rt_plussign_withcolor,545657,green,,,,null,GW/gong.jpg,GW/snail.jpg,,,,,,,,,,,,
944.3999999761581,,rt_thecrossant_black,547131,black_plus_sign,,,,50,,,1,1,,,,,,,,,,
null,,color_black,547233,black_plus_sign,,,,null,,,,,,,,,,,,,,
null,,learn_phase(without_color),549236,black_plus_sign,,,,null,GW/jukebox.jpg,GW/teeth.jpg,,,,,,,,,,,,
null,,black_cross(without_color),550078,green,,,,null,GW/jukebox.jpg,GW/teeth.jpg,,,,,,,,,,,,
null,,rt_plussign_withcolor,550580,green,,,,null,GW/jukebox.jpg,GW/teeth.jpg,,,,,,,,,,,,
859.0999999046326,,rt_thecrossant_black,551742,black_plus_sign,,,,50,,,1,1,,,,,,,,,,
null,,color_black,551845,black_plus_sign,,,,null,,,,,,,,,,,,,,
null,,learn_phase(without_color),553848,black_plus_sign,,,,null,GW/wheelchair.jpg,GW/hat.jpg,,,,,,,,,,,,
null,,black_cross(without_color),554307,blue,,,,null,GW/wheelchair.jpg,GW/hat.jpg,,,,,,,,,,,,
null,,rt_plussign_withcolor,554810,blue,,,,null,GW/wheelchair.jpg,GW/hat.jpg,,,,,,,,,,,,
1145.1999999284744,,rt_thecrossant_black,556354,black_plus_sign,,,,49,,,1,1,,,,,,,,,,
null,,color_black,556456,black_plus_sign,,,,null,,,,,,,,,,,,,,
null,,learn_phase(without_color),558459,black_plus_sign,,,,null,GW/paint.jpg,GW/soldier.jpg,,,,,,,,,,,,
null,,black_cross(without_color),559072,green,,,,null,GW/paint.jpg,GW/soldier.jpg,,,,,,,,,,,,
null,,rt_plussign_withcolor,559574,green,,,,null,GW/paint.jpg,GW/soldier.jpg,,,,,,,,,,,,
831.6000000238419,,rt_thecrossant_black,560966,black_plus_sign,,,,50,,,1,1,,,,,,,,,,
null,,color_black,561067,black_plus_sign,,,,null,,,,,,,,,,,,,,
null,,learn_phase(without_color),563070,black_plus_sign,,,,null,GW/basket.jpg,GW/hat.jpg,,,,,,,,,,,,
null,,black_cross(without_color),563621,blue,,,,null,GW/basket.jpg,GW/hat.jpg,,,,,,,,,,,,
null,,rt_plussign_withcolor,564122,blue,,,,null,GW/basket.jpg,GW/hat.jpg,,,,,,,,,,,,
1059.1000000238419,,rt_thecrossant_black,565576,black_plus_sign,,,,49,,,1,1,,,,,,,,,,
null,,color_black,565679,black_plus_sign,,,,null,,,,,,,,,,,,,,
null,,learn_phase(without_color),567683,black_plus_sign,,,,null,GW/teeth.jpg,GW/camera.jpg,,,,,,,,,,,,
null,,black_cross(without_color),568206,green,,,,null,GW/teeth.jpg,GW/camera.jpg,,,,,,,,,,,,
null,,rt_plussign_withcolor,568709,green,,,,null,GW/teeth.jpg,GW/camera.jpg,,,,,,,,,,,,
1024.7000000476837,,rt_thecrossant_black,570189,black_plus_sign,,,,50,,,1,1,,,,,,,,,,
null,,color_black,570292,black_plus_sign,,,,null,,,,,,,,,,,,,,
null,,learn_phase(without_color),572295,black_plus_sign,,,,null,GW/wheelchair.jpg,GW/dustpan.jpg,,,,,,,,,,,,
null,,black_cross(without_color),573245,green,,,,null,GW/wheelchair.jpg,GW/dustpan.jpg,,,,,,,,,,,,
null,,rt_plussign_withcolor,573746,green,,,,null,GW/wheelchair.jpg,GW/dustpan.jpg,,,,,,,,,,,,
991,,rt_thecrossant_black,574799,black_plus_sign,,,,50,,,1,1,,,,,,,,,,
null,,color_black,574914,black_plus_sign,,,,null,,,,,,,,,,,,,,
null,,learn_phase(without_color),576917,black_plus_sign,,,,null,GW/wheelchair.jpg,GW/hat.jpg,,,,,,,,,,,,
null,,black_cross(without_color),577888,blue,,,,null,GW/wheelchair.jpg,GW/hat.jpg,,,,,,,,,,,,
null,,rt_plussign_withcolor,578390,blue,,,,null,GW/wheelchair.jpg,GW/hat.jpg,,,,,,,,,,,,
1241.5,,rt_thecrossant_black,579422,black_plus_sign,,,,49,,,1,1,,,,,,,,,,
null,,color_black,579526,black_plus_sign,,,,null,,,,,,,,,,,,,,
null,,learn_phase(without_color),581529,black_plus_sign,,,,null,GW/teeth.jpg,GW/gong.jpg,,,,,,,,,,,,
null,,black_cross(without_color),582176,blue,,,,null,GW/teeth.jpg,GW/gong.jpg,,,,,,,,,,,,
null,,rt_plussign_withcolor,582678,blue,,,,null,GW/teeth.jpg,GW/gong.jpg,,,,,,,,,,,,
1226.3000000715256,,rt_thecrossant_black,584052,black_plus_sign,,,,49,,,1,1,,,,,,,,,,
null,,color_black,584155,black_plus_sign,,,,null,,,,,,,,,,,,,,
null,,learn_phase(without_color),586158,black_plus_sign,,,,null,GW/paint.jpg,GW/hat.jpg,,,,,,,,,,,,
null,,black_cross(without_color),586726,green,,,,null,GW/paint.jpg,GW/hat.jpg,,,,,,,,,,,,
null,,rt_plussign_withcolor,587228,green,,,,null,GW/paint.jpg,GW/hat.jpg,,,,,,,,,,,,
875.7000000476837,,rt_thecrossant_black,588664,black_plus_sign,,,,50,,,1,1,,,,,,,,,,
null,,color_black,588767,black_plus_sign,,,,null,,,,,,,,,,,,,,
null,,learn_phase(without_color),590770,black_plus_sign,,,,null,GW/gong.jpg,GW/basket.jpg,,,,,,,,,,,,
null,,black_cross(without_color),591689,green,,,,null,GW/gong.jpg,GW/basket.jpg,,,,,,,,,,,,
null,,rt_plussign_withcolor,592192,green,,,,null,GW/gong.jpg,GW/basket.jpg,,,,,,,,,,,,
753.6000000238419,,rt_thecrossant_black,593278,black_plus_sign,,,,50,,,1,1,,,,,,,,,,
null,,color_black,593380,black_plus_sign,,,,null,,,,,,,,,,,,,,
null,,learn_phase(without_color),595383,black_plus_sign,,,,null,GW/gong.jpg,GW/snail.jpg,,,,,,,,,,,,
null,,black_cross(without_color),595841,blue,,,,null,GW/gong.jpg,GW/snail.jpg,,,,,,,,,,,,
null,,rt_plussign_withcolor,596344,blue,,,,null,GW/gong.jpg,GW/snail.jpg,,,,,,,,,,,,
1193.3999999761581,,rt_thecrossant_black,597891,black_plus_sign,,,,49,,,1,1,,,,,,,,,,
null,,color_black,597993,black_plus_sign,,,,null,,,,,,,,,,,,,,
null,,learn_phase(without_color),599996,black_plus_sign,,,,null,GW/basket.jpg,GW/hat.jpg,,,,,,,,,,,,
null,,black_cross(without_color),600642,green,,,,null,GW/basket.jpg,GW/hat.jpg,,,,,,,,,,,,
null,,rt_plussign_withcolor,601144,green,,,,null,GW/basket.jpg,GW/hat.jpg,,,,,,,,,,,,
658.3000000715256,,rt_thecrossant_black,602503,black_plus_sign,,,,50,,,1,1,,,,,,,,,,
null,,color_black,602606,black_plus_sign,,,,null,,,,,,,,,,,,,,
null,,learn_phase(without_color),604608,black_plus_sign,,,,null,GW/paint.jpg,GW/hat.jpg,,,,,,,,,,,,
null,,black_cross(without_color),605590,blue,,,,null,GW/paint.jpg,GW/hat.jpg,,,,,,,,,,,,
null,,rt_plussign_withcolor,606093,blue,,,,null,GW/paint.jpg,GW/hat.jpg,,,,,,,,,,,,
894.7000000476837,,rt_thecrossant_black,607115,black_plus_sign,,,,49,,,1,1,,,,,,,,,,
null,,color_black,607216,black_plus_sign,,,,null,,,,,,,,,,,,,,
null,,learn_phase(without_color),609219,black_plus_sign,,,,null,GW/basket.jpg,GW/wheelchair.jpg,,,,,,,,,,,,
null,,black_cross(without_color),610231,blue,,,,null,GW/basket.jpg,GW/wheelchair.jpg,,,,,,,,,,,,
null,,rt_plussign_withcolor,610733,blue,,,,null,GW/basket.jpg,GW/wheelchair.jpg,,,,,,,,,,,,
1351.6000000238419,,rt_thecrossant_black,611730,black_plus_sign,,,,49,,,1,1,,,,,,,,,,
null,,color_black,611833,black_plus_sign,,,,null,,,,,,,,,,,,,,
null,,learn_phase(without_color),613836,black_plus_sign,,,,null,GW/basket.jpg,GW/hat.jpg,,,,,,,,,,,,
null,,black_cross(without_color),614326,blue,,,,null,GW/basket.jpg,GW/hat.jpg,,,,,,,,,,,,
null,,rt_plussign_withcolor,614829,blue,,,,null,GW/basket.jpg,GW/hat.jpg,,,,,,,,,,,,
1335.1000000238419,,rt_thecrossant_black,616342,black_plus_sign,,,,49,,,1,1,,,,,,,,,,
null,,color_black,616445,black_plus_sign,,,,null,,,,,,,,,,,,,,
null,,learn_phase(without_color),618449,black_plus_sign,,,,null,GW/wheelchair.jpg,GW/dustpan.jpg,,,,,,,,,,,,
null,,black_cross(without_color),618891,green,,,,null,GW/wheelchair.jpg,GW/dustpan.jpg,,,,,,,,,,,,
null,,rt_plussign_withcolor,619393,green,,,,null,GW/wheelchair.jpg,GW/dustpan.jpg,,,,,,,,,,,,
860.7999999523163,,rt_thecrossant_black,620953,black_plus_sign,,,,50,,,1,1,,,,,,,,,,
null,,color_black,621056,black_plus_sign,,,,null,,,,,,,,,,,,,,
null,,learn_phase(without_color),623058,black_plus_sign,,,,null,GW/camera.jpg,GW/barrel.jpg,,,,,,,,,,,,
null,,black_cross(without_color),623746,green,,,,null,GW/camera.jpg,GW/barrel.jpg,,,,,,,,,,,,
null,,rt_plussign_withcolor,624248,green,,,,null,GW/camera.jpg,GW/barrel.jpg,,,,,,,,,,,,
1155.8999999761581,,rt_thecrossant_black,625564,black_plus_sign,,,,50,,,1,1,,,,,,,,,,
null,,color_black,625667,black_plus_sign,,,,null,,,,,,,,,,,,,,
null,,learn_phase(without_color),627670,black_plus_sign,,,,null,GW/gong.jpg,GW/snail.jpg,,,,,,,,,,,,
null,,black_cross(without_color),628254,green,,,,null,GW/gong.jpg,GW/snail.jpg,,,,,,,,,,,,
null,,rt_plussign_withcolor,628761,green,,,,null,GW/gong.jpg,GW/snail.jpg,,,,,,,,,,,,
917.5,,rt_thecrossant_black,630182,black_plus_sign,,,,50,,,1,1,,,,,,,,,,
null,,color_black,630284,black_plus_sign,,,,null,,,,,,,,,,,,,,
null,,learn_phase(without_color),632289,black_plus_sign,,,,null,GW/gong.jpg,GW/basket.jpg,,,,,,,,,,,,
null,,black_cross(without_color),633290,blue,,,,null,GW/gong.jpg,GW/basket.jpg,,,,,,,,,,,,
null,,rt_plussign_withcolor,633791,blue,,,,null,GW/gong.jpg,GW/basket.jpg,,,,,,,,,,,,
937.8000000715256,,rt_thecrossant_black,634797,black_plus_sign,,,,49,,,1,1,,,,,,,,,,
null,,color_black,634900,black_plus_sign,,,,null,,,,,,,,,,,,,,
null,,learn_phase(without_color),636902,black_plus_sign,,,,null,GW/wheelchair.jpg,GW/paint.jpg,,,,,,,,,,,,
null,,black_cross(without_color),637739,blue,,,,null,GW/wheelchair.jpg,GW/paint.jpg,,,,,,,,,,,,
null,,rt_plussign_withcolor,638240,blue,,,,null,GW/wheelchair.jpg,GW/paint.jpg,,,,,,,,,,,,
1403.8000000715256,,rt_thecrossant_black,639417,black_plus_sign,,,,49,,,1,1,,,,,,,,,,
null,,color_black,639521,black_plus_sign,,,,null,,,,,,,,,,,,,,
null,,learn_phase(without_color),641523,black_plus_sign,,,,null,GW/teeth.jpg,GW/gong.jpg,,,,,,,,,,,,
null,,black_cross(without_color),642014,green,,,,null,GW/teeth.jpg,GW/gong.jpg,,,,,,,,,,,,
null,,rt_plussign_withcolor,642516,green,,,,null,GW/teeth.jpg,GW/gong.jpg,,,,,,,,,,,,
1113.7000000476837,,rt_thecrossant_black,644028,black_plus_sign,,,,50,,,1,1,,,,,,,,,,
null,,color_black,644131,black_plus_sign,,,,null,,,,,,,,,,,,,,
null,,learn_phase(without_color),646134,black_plus_sign,,,,null,GW/basket.jpg,GW/wheelchair.jpg,,,,,,,,,,,,
null,,black_cross(without_color),646730,green,,,,null,GW/basket.jpg,GW/wheelchair.jpg,,,,,,,,,,,,
null,,rt_plussign_withcolor,647232,green,,,,null,GW/basket.jpg,GW/wheelchair.jpg,,,,,,,,,,,,
955.5,,rt_thecrossant_black,648642,black_plus_sign,,,,50,,,1,1,,,,,,,,,,
null,,color_black,648744,black_plus_sign,,,,null,,,,,,,,,,,,,,
null,,learn_phase(without_color),650747,black_plus_sign,,,,null,GW/paint.jpg,GW/soldier.jpg,,,,,,,,,,,,
null,,black_cross(without_color),651491,green,,,,null,GW/paint.jpg,GW/soldier.jpg,,,,,,,,,,,,
null,,rt_plussign_withcolor,651993,green,,,,null,GW/paint.jpg,GW/soldier.jpg,,,,,,,,,,,,
887.3000000715256,,rt_thecrossant_black,653259,black_plus_sign,,,,50,,,1,1,,,,,,,,,,
null,,color_black,653360,black_plus_sign,,,,null,,,,,,,,,,,,,,
null,,learn_phase(without_color),655364,black_plus_sign,,,,null,GW/basket.jpg,GW/hat.jpg,,,,,,,,,,,,
null,,black_cross(without_color),655785,blue,,,,null,GW/basket.jpg,GW/hat.jpg,,,,,,,,,,,,
null,,rt_plussign_withcolor,656287,blue,,,,null,GW/basket.jpg,GW/hat.jpg,,,,,,,,,,,,
1201.6000000238419,,rt_thecrossant_black,657870,black_plus_sign,,,,49,,,1,1,,,,,,,,,,
null,,color_black,657973,black_plus_sign,,,,null,,,,,,,,,,,,,,
null,,learn_phase(without_color),659975,black_plus_sign,,,,null,GW/teeth.jpg,GW/camera.jpg,,,,,,,,,,,,
null,,black_cross(without_color),660486,blue,,,,null,GW/teeth.jpg,GW/camera.jpg,,,,,,,,,,,,
null,,rt_plussign_withcolor,660988,blue,,,,null,GW/teeth.jpg,GW/camera.jpg,,,,,,,,,,,,
735.7000000476837,,rt_thecrossant_black,662482,black_plus_sign,,,,49,,,1,1,,,,,,,,,,
null,,color_black,662585,black_plus_sign,,,,null,,,,,,,,,,,,,,
null,,learn_phase(without_color),664600,black_plus_sign,,,,null,GW/paint.jpg,GW/soldier.jpg,,,,,,,,,,,,
null,,black_cross(without_color),665248,blue,,,,null,GW/paint.jpg,GW/soldier.jpg,,,,,,,,,,,,
null,,rt_plussign_withcolor,665758,blue,,,,null,GW/paint.jpg,GW/soldier.jpg,,,,,,,,,,,,
871.1000000238419,,rt_thecrossant_black,667116,black_plus_sign,,,,49,,,1,1,,,,,,,,,,
null,,color_black,667218,black_plus_sign,,,,null,,,,,,,,,,,,,,
null,,learn_phase(without_color),669221,black_plus_sign,,,,null,GW/wheelchair.jpg,GW/hat.jpg,,,,,,,,,,,,
null,,black_cross(without_color),670013,blue,,,,null,GW/wheelchair.jpg,GW/hat.jpg,,,,,,,,,,,,
null,,rt_plussign_withcolor,670514,blue,,,,null,GW/wheelchair.jpg,GW/hat.jpg,,,,,,,,,,,,
958,,rt_thecrossant_black,671730,black_plus_sign,,,,49,,,1,1,,,,,,,,,,
null,,color_black,671832,black_plus_sign,,,,null,,,,,,,,,,,,,,
null,,learn_phase(without_color),673834,black_plus_sign,,,,null,GW/teeth.jpg,GW/camera.jpg,,,,,,,,,,,,
null,,black_cross(without_color),674556,green,,,,null,GW/teeth.jpg,GW/camera.jpg,,,,,,,,,,,,
null,,rt_plussign_withcolor,675057,green,,,,null,GW/teeth.jpg,GW/camera.jpg,,,,,,,,,,,,
1378.3999999761581,,rt_thecrossant_black,676340,black_plus_sign,,,,50,,,1,1,,,,,,,,,,
null,,color_black,676454,black_plus_sign,,,,null,,,,,,,,,,,,,,
null,,learn_phase(without_color),678457,black_plus_sign,,,,null,GW/wheelchair.jpg,GW/paint.jpg,,,,,,,,,,,,
null,,black_cross(without_color),679421,blue,,,,null,GW/wheelchair.jpg,GW/paint.jpg,,,,,,,,,,,,
null,,rt_plussign_withcolor,679923,blue,,,,null,GW/wheelchair.jpg,GW/paint.jpg,,,,,,,,,,,,
1243.3999999761581,,rt_thecrossant_black,680964,black_plus_sign,,,,49,,,1,1,,,,,,,,,,
null,,color_black,681065,black_plus_sign,,,,null,,,,,,,,,,,,,,
null,,learn_phase(without_color),683069,black_plus_sign,,,,null,GW/wheelchair.jpg,GW/dustpan.jpg,,,,,,,,,,,,
null,,black_cross(without_color),684035,green,,,,null,GW/wheelchair.jpg,GW/dustpan.jpg,,,,,,,,,,,,
null,,rt_plussign_withcolor,684537,green,,,,null,GW/wheelchair.jpg,GW/dustpan.jpg,,,,,,,,,,,,
1410.4000000953674,,rt_thecrossant_black,685575,black_plus_sign,,,,50,,,1,1,,,,,,,,,,
null,,color_black,685678,black_plus_sign,,,,null,,,,,,,,,,,,,,
null,,learn_phase(without_color),687681,black_plus_sign,,,,null,GW/gong.jpg,GW/basket.jpg,,,,,,,,,,,,
null,,black_cross(without_color),688336,blue,,,,null,GW/gong.jpg,GW/basket.jpg,,,,,,,,,,,,
null,,rt_plussign_withcolor,688838,blue,,,,null,GW/gong.jpg,GW/basket.jpg,,,,,,,,,,,,
1740.1000000238419,,rt_thecrossant_black,690188,black_plus_sign,,,,49,,,1,1,,,,,,,,,,
null,,color_black,690291,black_plus_sign,,,,null,,,,,,,,,,,,,,
null,,learn_phase(without_color),692294,black_plus_sign,,,,null,GW/teeth.jpg,GW/camera.jpg,,,,,,,,,,,,
null,,black_cross(without_color),693194,green,,,,null,GW/teeth.jpg,GW/camera.jpg,,,,,,,,,,,,
null,,rt_plussign_withcolor,693696,green,,,,null,GW/teeth.jpg,GW/camera.jpg,,,,,,,,,,,,
1044.7999999523163,,rt_thecrossant_black,694801,black_plus_sign,,,,50,,,1,1,,,,,,,,,,
null,,color_black,694902,black_plus_sign,,,,null,,,,,,,,,,,,,,
null,,learn_phase(without_color),696906,black_plus_sign,,,,null,GW/hat.jpg,GW/snail.jpg,,,,,,,,,,,,
null,,black_cross(without_color),697488,blue,,,,null,GW/hat.jpg,GW/snail.jpg,,,,,,,,,,,,
null,,rt_plussign_withcolor,697990,blue,,,,null,GW/hat.jpg,GW/snail.jpg,,,,,,,,,,,,
1260.8999999761581,,rt_thecrossant_black,699413,black_plus_sign,,,,49,,,1,1,,,,,,,,,,
null,,color_black,699515,black_plus_sign,,,,null,,,,,,,,,,,,,,
null,,learn_phase(without_color),701519,black_plus_sign,,,,null,GW/snail.jpg,GW/globe.jpg,,,,,,,,,,,,
null,,black_cross(without_color),702337,blue,,,,null,GW/snail.jpg,GW/globe.jpg,,,,,,,,,,,,
null,,rt_plussign_withcolor,702839,blue,,,,null,GW/snail.jpg,GW/globe.jpg,,,,,,,,,,,,
945.2999999523163,,rt_thecrossant_black,704026,black_plus_sign,,,,49,,,1,1,,,,,,,,,,
null,,color_black,704128,black_plus_sign,,,,null,,,,,,,,,,,,,,
null,,learn_phase(without_color),706130,black_plus_sign,,,,null,GW/paint.jpg,GW/hat.jpg,,,,,,,,,,,,
null,,black_cross(without_color),706847,green,,,,null,GW/paint.jpg,GW/hat.jpg,,,,,,,,,,,,
null,,rt_plussign_withcolor,707349,green,,,,null,GW/paint.jpg,GW/hat.jpg,,,,,,,,,,,,
991.1000000238419,,rt_thecrossant_black,708636,black_plus_sign,,,,50,,,1,1,,,,,,,,,,
null,,color_black,708738,black_plus_sign,,,,null,,,,,,,,,,,,,,
null,,learn_phase(without_color),710741,black_plus_sign,,,,null,GW/paint.jpg,GW/soldier.jpg,,,,,,,,,,,,
null,,black_cross(without_color),711610,green,,,,null,GW/paint.jpg,GW/soldier.jpg,,,,,,,,,,,,
null,,rt_plussign_withcolor,712112,green,,,,null,GW/paint.jpg,GW/soldier.jpg,,,,,,,,,,,,
824,,rt_thecrossant_black,713247,black_plus_sign,,,,50,,,1,1,,,,,,,,,,
null,,color_black,713349,black_plus_sign,,,,null,,,,,,,,,,,,,,
null,,learn_phase(without_color),715352,black_plus_sign,,,,null,GW/camera.jpg,GW/barrel.jpg,,,,,,,,,,,,
null,,black_cross(without_color),715797,green,,,,null,GW/camera.jpg,GW/barrel.jpg,,,,,,,,,,,,
null,,rt_plussign_withcolor,716299,green,,,,null,GW/camera.jpg,GW/barrel.jpg,,,,,,,,,,,,
1218.1000000238419,,rt_thecrossant_black,717859,black_plus_sign,,,,50,,,1,1,,,,,,,,,,
null,,color_black,717976,black_plus_sign,,,,null,,,,,,,,,,,,,,
null,,learn_phase(without_color),719979,black_plus_sign,,,,null,GW/teeth.jpg,GW/gong.jpg,,,,,,,,,,,,
null,,black_cross(without_color),720462,blue,,,,null,GW/teeth.jpg,GW/gong.jpg,,,,,,,,,,,,
486.39999997615814,,rt_plussign_withcolor,720965,blue,,,,49,GW/teeth.jpg,GW/gong.jpg,,,,,,,,,,,,
null,,rt_thecrossant_black,722487,black_plus_sign,,,,null,,,1,1,,,,,,,,,,
null,,color_black,722589,black_plus_sign,,,,null,,,,,,,,,,,,,,
null,,learn_phase(without_color),724592,black_plus_sign,,,,null,GW/gong.jpg,GW/basket.jpg,,,,,,,,,,,,
null,,black_cross(without_color),724996,blue,,,,null,GW/gong.jpg,GW/basket.jpg,,,,,,,,,,,,
null,,rt_plussign_withcolor,725504,blue,,,,null,GW/gong.jpg,GW/basket.jpg,,,,,,,,,,,,
912.2999999523163,,rt_thecrossant_black,727106,black_plus_sign,,,,49,,,1,1,,,,,,,,,,
null,,color_black,727208,black_plus_sign,,,,null,,,,,,,,,,,,,,
null,,learn_phase(without_color),729210,black_plus_sign,,,,null,GW/camera.jpg,GW/barrel.jpg,,,,,,,,,,,,
null,,black_cross(without_color),730308,blue,,,,null,GW/camera.jpg,GW/barrel.jpg,,,,,,,,,,,,
null,,rt_plussign_withcolor,730810,blue,,,,null,GW/camera.jpg,GW/barrel.jpg,,,,,,,,,,,,
581.6000000238419,,rt_thecrossant_black,731716,black_plus_sign,,,,49,,,1,1,,,,,,,,,,
null,,color_black,731818,black_plus_sign,,,,null,,,,,,,,,,,,,,
null,,learn_phase(without_color),733820,black_plus_sign,,,,null,GW/basket.jpg,GW/wheelchair.jpg,,,,,,,,,,,,
null,,black_cross(without_color),734533,blue,,,,null,GW/basket.jpg,GW/wheelchair.jpg,,,,,,,,,,,,
null,,rt_plussign_withcolor,735036,blue,,,,null,GW/basket.jpg,GW/wheelchair.jpg,,,,,,,,,,,,
1331.1000000238419,,rt_thecrossant_black,736327,black_plus_sign,,,,49,,,1,1,,,,,,,,,,
null,,color_black,736430,black_plus_sign,,,,null,,,,,,,,,,,,,,
null,,learn_phase(without_color),738432,black_plus_sign,,,,null,GW/paint.jpg,GW/hat.jpg,,,,,,,,,,,,
null,,black_cross(without_color),739483,green,,,,null,GW/paint.jpg,GW/hat.jpg,,,,,,,,,,,,
null,,rt_plussign_withcolor,739984,green,,,,null,GW/paint.jpg,GW/hat.jpg,,,,,,,,,,,,
933.8000000715256,,rt_thecrossant_black,740941,black_plus_sign,,,,50,,,1,1,,,,,,,,,,
null,,color_black,741043,black_plus_sign,,,,null,,,,,,,,,,,,,,
null,,learn_phase(without_color),743046,black_plus_sign,,,,null,GW/camera.jpg,GW/barrel.jpg,,,,,,,,,,,,
null,,black_cross(without_color),743563,blue,,,,null,GW/camera.jpg,GW/barrel.jpg,,,,,,,,,,,,
null,,rt_plussign_withcolor,744064,blue,,,,null,GW/camera.jpg,GW/barrel.jpg,,,,,,,,,,,,
1441.5999999046326,,rt_thecrossant_black,745558,black_plus_sign,,,,49,,,1,1,,,,,,,,,,
null,,color_black,745660,black_plus_sign,,,,null,,,,,,,,,,,,,,
null,,learn_phase(without_color),747664,black_plus_sign,,,,null,GW/camera.jpg,GW/globe.jpg,,,,,,,,,,,,
null,,black_cross(without_color),748229,blue,,,,null,GW/camera.jpg,GW/globe.jpg,,,,,,,,,,,,
null,,rt_plussign_withcolor,748731,blue,,,,null,GW/camera.jpg,GW/globe.jpg,,,,,,,,,,,,
838.8999999761581,,rt_thecrossant_black,750170,black_plus_sign,,,,49,,,1,1,,,,,,,,,,
null,,color_black,750276,black_plus_sign,,,,null,,,,,,,,,,,,,,
null,,learn_phase(without_color),752279,black_plus_sign,,,,null,GW/paint.jpg,GW/soldier.jpg,,,,,,,,,,,,
null,,black_cross(without_color),752793,green,,,,null,GW/paint.jpg,GW/soldier.jpg,,,,,,,,,,,,
null,,rt_plussign_withcolor,753295,green,,,,null,GW/paint.jpg,GW/soldier.jpg,,,,,,,,,,,,
772.3999999761581,,rt_thecrossant_black,754785,black_plus_sign,,,,50,,,1,1,,,,,,,,,,
null,,color_black,754887,black_plus_sign,,,,null,,,,,,,,,,,,,,
null,,learn_phase(without_color),756889,black_plus_sign,,,,null,GW/hat.jpg,GW/snail.jpg,,,,,,,,,,,,
null,,black_cross(without_color),757437,green,,,,null,GW/hat.jpg,GW/snail.jpg,,,,,,,,,,,,
null,,rt_plussign_withcolor,757944,green,,,,null,GW/hat.jpg,GW/snail.jpg,,,,,,,,,,,,
924.3000000715256,,rt_thecrossant_black,759400,black_plus_sign,,,,50,,,1,1,,,,,,,,,,
null,,color_black,759503,black_plus_sign,,,,null,,,,,,,,,,,,,,
null,,learn_phase(without_color),761507,black_plus_sign,,,,null,GW/wheelchair.jpg,GW/paint.jpg,,,,,,,,,,,,
null,,black_cross(without_color),762326,blue,,,,null,GW/wheelchair.jpg,GW/paint.jpg,,,,,,,,,,,,
null,,rt_plussign_withcolor,762828,blue,,,,null,GW/wheelchair.jpg,GW/paint.jpg,,,,,,,,,,,,
932.6000000238419,,rt_thecrossant_black,764013,black_plus_sign,,,,49,,,1,1,,,,,,,,,,
null,,color_black,764116,black_plus_sign,,,,null,,,,,,,,,,,,,,
null,,learn_phase(without_color),766119,black_plus_sign,,,,null,GW/snail.jpg,GW/globe.jpg,,,,,,,,,,,,
null,,black_cross(without_color),766834,green,,,,null,GW/snail.jpg,GW/globe.jpg,,,,,,,,,,,,
null,,rt_plussign_withcolor,767340,green,,,,null,GW/snail.jpg,GW/globe.jpg,,,,,,,,,,,,
1255.5,,rt_thecrossant_black,768629,black_plus_sign,,,,50,,,1,1,,,,,,,,,,
null,,color_black,768733,black_plus_sign,,,,null,,,,,,,,,,,,,,
null,,learn_phase(without_color),770737,black_plus_sign,,,,null,GW/hat.jpg,GW/snail.jpg,,,,,,,,,,,,
null,,black_cross(without_color),771256,green,,,,null,GW/hat.jpg,GW/snail.jpg,,,,,,,,,,,,
null,,rt_plussign_withcolor,771758,green,,,,null,GW/hat.jpg,GW/snail.jpg,,,,,,,,,,,,
1111.3000000715256,,rt_thecrossant_black,773255,black_plus_sign,,,,50,,,1,1,,,,,,,,,,
null,,color_black,773358,black_plus_sign,,,,null,,,,,,,,,,,,,,
null,,learn_phase(without_color),775361,black_plus_sign,,,,null,GW/wheelchair.jpg,GW/hat.jpg,,,,,,,,,,,,
null,,black_cross(without_color),775884,green,,,,null,GW/wheelchair.jpg,GW/hat.jpg,,,,,,,,,,,,
null,,rt_plussign_withcolor,776386,green,,,,null,GW/wheelchair.jpg,GW/hat.jpg,,,,,,,,,,,,
943.5,,rt_thecrossant_black,777867,black_plus_sign,,,,50,,,1,1,,,,,,,,,,
null,,color_black,777969,black_plus_sign,,,,null,,,,,,,,,,,,,,
16724,,intro_1,794695,instruct,,0,Start,,,,,,,,,,,,,,,
1546.4000000953674,,directmemory_phase,796244,GW/wheelchair.jpg,,,,49,,,0,0,GW/gong.jpg,GW/hat.jpg,GW/camera.jpg,GW/hat.jpg,GW/gong.jpg,GW/camera.jpg,0.5,closer,,
null,,html-keyboard-response,797247,<p></p>,,,,null,,,,,,,,,,,,,,
1445.6999999284744,,directmemory_phase,798694,GW/camera.jpg,,,,50,,,0,0,GW/wheelchair.jpg,GW/snail.jpg,GW/barrel.jpg,GW/barrel.jpg,GW/snail.jpg,GW/wheelchair.jpg,0.5,closer,,
null,,html-keyboard-response,799696,<p></p>,,,,null,,,,,,,,,,,,,,
1831.1000000238419,,directmemory_phase,801529,GW/hat.jpg,,,,51,,,0,0,GW/snail.jpg,GW/barrel.jpg,GW/soldier.jpg,GW/snail.jpg,GW/soldier.jpg,GW/barrel.jpg,0.5,closer,,
null,,html-keyboard-response,802531,<p></p>,,,,null,,,,,,,,,,,,,,
2037.5,,directmemory_phase,804569,GW/basket.jpg,,,,50,,,1,0.25,GW/teeth.jpg,GW/wheelchair.jpg,GW/soldier.jpg,GW/wheelchair.jpg,GW/teeth.jpg,GW/soldier.jpg,1,,,
null,,html-keyboard-response,805575,<p></p>,,,,null,,,,,,,,,,,,,,
1472.2999999523163,,directmemory_phase,807049,GW/gong.jpg,,,,51,,,1,0.4,GW/barrel.jpg,GW/camera.jpg,GW/snail.jpg,GW/snail.jpg,GW/camera.jpg,GW/barrel.jpg,1,,,
null,,html-keyboard-response,808052,<p></p>,,,,null,,,,,,,,,,,,,,
1632.2000000476837,,directmemory_phase,809686,GW/barrel.jpg,,,,50,,,0,0.3333333333333333,GW/camera.jpg,GW/gong.jpg,GW/teeth.jpg,GW/camera.jpg,GW/teeth.jpg,GW/gong.jpg,0.5,closer,,
null,,html-keyboard-response,810701,<p></p>,,,,null,,,,,,,,,,,,,,
1477.6000000238419,,directmemory_phase,812180,GW/wheelchair.jpg,,,,49,,,1,0.42857142857142855,GW/paint.jpg,GW/camera.jpg,GW/soldier.jpg,GW/paint.jpg,GW/soldier.jpg,GW/camera.jpg,1,,,
null,,html-keyboard-response,813183,<p></p>,,,,null,,,,,,,,,,,,,,
1532.6999999284744,,directmemory_phase,814717,GW/basket.jpg,,,,50,,,0,0.375,GW/barrel.jpg,GW/paint.jpg,GW/gong.jpg,GW/gong.jpg,GW/paint.jpg,GW/barrel.jpg,0.5,closer,,
null,,html-keyboard-response,815719,<p></p>,,,,null,,,,,,,,,,,,,,
1685.3999999761581,,directmemory_phase,817406,GW/paint.jpg,,,,51,,,1,0.4444444444444444,GW/gong.jpg,GW/dustpan.jpg,GW/soldier.jpg,GW/soldier.jpg,GW/dustpan.jpg,GW/gong.jpg,1,,,
null,,html-keyboard-response,818408,<p></p>,,,,null,,,,,,,,,,,,,,
1687.5,,directmemory_phase,820097,GW/globe.jpg,,,,49,,,1,0.5,GW/snail.jpg,GW/paint.jpg,GW/barrel.jpg,GW/snail.jpg,GW/barrel.jpg,GW/paint.jpg,1,,,
null,,html-keyboard-response,821100,<p></p>,,,,null,,,,,,,,,,,,,,
1892.2000000476837,,directmemory_phase,822993,GW/hat.jpg,,,,50,,,0,0.45454545454545453,GW/wheelchair.jpg,GW/barrel.jpg,GW/dustpan.jpg,GW/wheelchair.jpg,GW/dustpan.jpg,GW/barrel.jpg,0.5,closer,,
null,,html-keyboard-response,823996,<p></p>,,,,null,,,,,,,,,,,,,,
1529.0999999046326,,directmemory_phase,825527,GW/snail.jpg,,,,51,,,0,0.4166666666666667,GW/globe.jpg,GW/barrel.jpg,GW/teeth.jpg,GW/globe.jpg,GW/teeth.jpg,GW/barrel.jpg,0.5,closer,,
null,,html-keyboard-response,826530,<p></p>,,,,null,,,,,,,,,,,,,,
1911.5,,directmemory_phase,828443,GW/paint.jpg,,,,50,,,0,0.38461538461538464,GW/camera.jpg,GW/snail.jpg,GW/hat.jpg,GW/hat.jpg,GW/snail.jpg,GW/camera.jpg,0.5,closer,,
null,,html-keyboard-response,829456,<p></p>,,,,null,,,,,,,,,,,,,,
2140,,directmemory_phase,831597,GW/wheelchair.jpg,,,,50,,,0,0.35714285714285715,GW/dustpan.jpg,GW/camera.jpg,GW/gong.jpg,GW/dustpan.jpg,GW/gong.jpg,GW/camera.jpg,0.5,closer,,
null,,html-keyboard-response,832599,<p></p>,,,,null,,,,,,,,,,,,,,
2271.7999999523163,,directmemory_phase,834873,GW/hat.jpg,,,,49,,,1,0.4,GW/paint.jpg,GW/barrel.jpg,GW/globe.jpg,GW/paint.jpg,GW/globe.jpg,GW/barrel.jpg,1,,,
null,,html-keyboard-response,835876,<p></p>,,,,null,,,,,,,,,,,,,,
1866.7000000476837,,directmemory_phase,837744,GW/camera.jpg,,,,51,,,1,0.4375,GW/basket.jpg,GW/jukebox.jpg,GW/globe.jpg,GW/globe.jpg,GW/jukebox.jpg,GW/basket.jpg,1,,,
null,,html-keyboard-response,838757,<p></p>,,,,null,,,,,,,,,,,,,,
1940.1000000238419,,directmemory_phase,840698,GW/hat.jpg,,,,49,,,0,0.4117647058823529,GW/gong.jpg,GW/basket.jpg,GW/jukebox.jpg,GW/basket.jpg,GW/gong.jpg,GW/jukebox.jpg,0.5,closer,,
null,,html-keyboard-response,841700,<p></p>,,,,null,,,,,,,,,,,,,,
1834.5,,directmemory_phase,843536,GW/paint.jpg,,,,50,,,0,0.3888888888888889,GW/wheelchair.jpg,GW/gong.jpg,GW/snail.jpg,GW/wheelchair.jpg,GW/snail.jpg,GW/gong.jpg,0.5,closer,,
null,,html-keyboard-response,844538,<p></p>,,,,null,,,,,,,,,,,,,,
2171.1999999284744,,directmemory_phase,846711,GW/jukebox.jpg,,,,51,,,0,0.3684210526315789,GW/teeth.jpg,GW/hat.jpg,GW/camera.jpg,GW/teeth.jpg,GW/camera.jpg,GW/hat.jpg,0.5,closer,,
null,,html-keyboard-response,847714,<p></p>,,,,null,,,,,,,,,,,,,,
1841.8999999761581,,directmemory_phase,849557,GW/basket.jpg,,,,50,,,0,0.35,GW/barrel.jpg,GW/dustpan.jpg,GW/hat.jpg,GW/hat.jpg,GW/dustpan.jpg,GW/barrel.jpg,0.5,closer,,
null,,html-keyboard-response,850560,<p></p>,,,,null,,,,,,,,,,,,,,
2588.8000000715256,,directmemory_phase,853150,GW/camera.jpg,,,,50,,,0,0.3333333333333333,GW/basket.jpg,GW/gong.jpg,GW/teeth.jpg,GW/teeth.jpg,GW/gong.jpg,GW/basket.jpg,0.5,closer,,
null,,html-keyboard-response,854153,<p></p>,,,,null,,,,,,,,,,,,,,
2275.2000000476837,,directmemory_phase,856430,GW/snail.jpg,,,,49,,,0,0.3181818181818182,GW/jukebox.jpg,GW/wheelchair.jpg,GW/gong.jpg,GW/gong.jpg,GW/wheelchair.jpg,GW/jukebox.jpg,0.5,closer,,
null,,html-keyboard-response,857433,<p></p>,,,,null,,,,,,,,,,,,,,
2080.100000023842,,directmemory_phase,859515,GW/wheelchair.jpg,,,,50,,,0,0.30434782608695654,GW/camera.jpg,GW/soldier.jpg,GW/basket.jpg,GW/basket.jpg,GW/soldier.jpg,GW/camera.jpg,0.5,closer,,
null,,html-keyboard-response,860520,<p></p>,,,,null,,,,,,,,,,,,,,
1725.7999999523163,,directmemory_phase,862248,GW/teeth.jpg,,,,51,,,1,0.3333333333333333,GW/wheelchair.jpg,GW/barrel.jpg,GW/gong.jpg,GW/gong.jpg,GW/barrel.jpg,GW/wheelchair.jpg,1,,,
null,,html-keyboard-response,863250,<p></p>,,,,null,,,,,,,,,,,,,,
2146.399999976158,,directmemory_phase,865398,GW/snail.jpg,,,,50,,,1,0.36,GW/basket.jpg,GW/hat.jpg,GW/soldier.jpg,GW/hat.jpg,GW/basket.jpg,GW/soldier.jpg,1,,,
null,,html-keyboard-response,866401,<p></p>,,,,null,,,,,,,,,,,,,,
1648.3000000715256,,directmemory_phase,868050,GW/soldier.jpg,,,,49,,,1,0.38461538461538464,GW/paint.jpg,GW/snail.jpg,GW/hat.jpg,GW/paint.jpg,GW/hat.jpg,GW/snail.jpg,1,,,
null,,html-keyboard-response,869053,<p></p>,,,,null,,,,,,,,,,,,,,
2165.399999976158,,directmemory_phase,871220,GW/gong.jpg,,,,50,,,1,0.4074074074074074,GW/hat.jpg,GW/basket.jpg,GW/barrel.jpg,GW/basket.jpg,GW/hat.jpg,GW/barrel.jpg,1,,,
null,,html-keyboard-response,872223,<p></p>,,,,null,,,,,,,,,,,,,,
1996.6999999284744,,directmemory_phase,874221,GW/teeth.jpg,,,,49,,,0,0.39285714285714285,GW/paint.jpg,GW/barrel.jpg,GW/jukebox.jpg,GW/jukebox.jpg,GW/barrel.jpg,GW/paint.jpg,0.5,closer,,
null,,html-keyboard-response,875225,<p></p>,,,,null,,,,,,,,,,,,,,
1936,,directmemory_phase,877162,GW/globe.jpg,,,,50,,,1,0.41379310344827586,GW/hat.jpg,GW/camera.jpg,GW/basket.jpg,GW/camera.jpg,GW/hat.jpg,GW/basket.jpg,1,,,
null,,html-keyboard-response,878165,<p></p>,,,,null,,,,,,,,,,,,,,
1836.2999999523163,,directmemory_phase,880003,GW/gong.jpg,,,,51,,,0,0.4,GW/teeth.jpg,GW/soldier.jpg,GW/camera.jpg,GW/teeth.jpg,GW/camera.jpg,GW/soldier.jpg,0.5,closer,,
null,,html-keyboard-response,881005,<p></p>,,,,null,,,,,,,,,,,,,,
2733.7000000476837,,directmemory_phase,883740,GW/dustpan.jpg,,,,49,,,0,0.3870967741935484,GW/globe.jpg,GW/hat.jpg,GW/wheelchair.jpg,GW/wheelchair.jpg,GW/hat.jpg,GW/globe.jpg,0.5,closer,,
null,,html-keyboard-response,884745,<p></p>,,,,null,,,,,,,,,,,,,,
2478.2999999523163,,directmemory_phase,887225,GW/teeth.jpg,,,,51,,,0,0.375,GW/camera.jpg,GW/hat.jpg,GW/barrel.jpg,GW/camera.jpg,GW/barrel.jpg,GW/hat.jpg,0.5,closer,,
null,,html-keyboard-response,888238,<p></p>,,,,null,,,,,,,,,,,,,,
44950.5,,intro_1,933190,instruct,,0,,,,,,,,,,,,,,,,
10109.099999904633,,intro_2,943301,instruct,,1,Next,,,,,,,,,,,,,,,
6266.200000047684,,intro_3,949570,instruct,,1,Next,,,,,,,,,,,,,,,
3703.6999999284744,,intro_4,953276,instruct,,1,Next,,,,,,,,,,,,,,,
4206.399999976158,,intro_5,957485,instruct,,1,Next,,,,,,,,,,,,,,,
8268.799999952316,,intro_6,965757,instruct,,1,Next,,,,,,,,,,,,,,,
7508.099999904633,,intro_7,973267,instruct,,1,Next,,,,,,,,,,,,,,,
30712.199999928474,,intro_8,1003982,instruct,,1,Next,,,,,,,,,,,,,,,
2859.2000000476837,,shortestpath_phase,1006844,GW/dustpan.jpg,,,,50,GW/barrel.jpg,GW/hat.jpg,1,1,,,,GW/hat.jpg,,,,,Four Edge Diff,Two Edge Six Edge
null,,html-keyboard-response,1007854,<p></p>,,,,null,,,,,,,,,,,,,,
2925.100000023842,,shortestpath_phase,1010780,GW/barrel.jpg,,,,49,GW/soldier.jpg,GW/teeth.jpg,0,0.5,,,,GW/teeth.jpg,,,,,Four Edge Diff,Two Edge Six Edge
null,,html-keyboard-response,1011784,<p></p>,,,,null,,,,,,,,,,,,,,
2250.899999976158,,shortestpath_phase,1014036,GW/hat.jpg,,,,49,GW/jukebox.jpg,GW/dustpan.jpg,0,0.3333333333333333,,,,GW/dustpan.jpg,,,,,Two Edge Diff,Two Edge Four Edge
null,,html-keyboard-response,1015039,<p></p>,,,,null,,,,,,,,,,,,,,
2243,,shortestpath_phase,1017284,GW/soldier.jpg,,,,50,GW/wheelchair.jpg,GW/barrel.jpg,0,0.25,,,,GW/wheelchair.jpg,,,,,Four Edge Diff,Two Edge Six Edge
null,,html-keyboard-response,1018285,<p></p>,,,,null,,,,,,,,,,,,,,
2401.5,,shortestpath_phase,1020688,GW/dustpan.jpg,,,,49,GW/hat.jpg,GW/camera.jpg,1,0.4,,,,GW/hat.jpg,,,,,Three Edge Diff,Two Edge Five Edge
null,,html-keyboard-response,1021703,<p></p>,,,,null,,,,,,,,,,,,,,
2427.5,,shortestpath_phase,1024132,GW/soldier.jpg,,,,50,GW/wheelchair.jpg,GW/jukebox.jpg,0,0.3333333333333333,,,,GW/wheelchair.jpg,,,,,Four Edge Diff,Two Edge Six Edge
null,,html-keyboard-response,1025134,<p></p>,,,,null,,,,,,,,,,,,,,
3326.2000000476837,,shortestpath_phase,1028462,GW/hat.jpg,,,,49,GW/jukebox.jpg,GW/gong.jpg,0,0.2857142857142857,,,,GW/gong.jpg,,,,,Two Edge Diff,Two Edge Four Edge
null,,html-keyboard-response,1029466,<p></p>,,,,null,,,,,,,,,,,,,,
2866.100000023842,,shortestpath_phase,1032333,GW/teeth.jpg,,,,49,GW/wheelchair.jpg,GW/soldier.jpg,1,0.375,,,,GW/wheelchair.jpg,,,,,Two Edge Diff,Three Edge Five Edge
null,,html-keyboard-response,1033336,<p></p>,,,,null,,,,,,,,,,,,,,
2653.2000000476837,,shortestpath_phase,1035991,GW/barrel.jpg,,,,49,GW/basket.jpg,GW/dustpan.jpg,1,0.4444444444444444,,,,GW/basket.jpg,,,,,Two Edge Diff,Four Edge Six Edge
null,,html-keyboard-response,1036993,<p></p>,,,,null,,,,,,,,,,,,,,
2807.1999999284744,,shortestpath_phase,1039802,GW/wheelchair.jpg,,,,50,GW/camera.jpg,GW/barrel.jpg,0,0.4,,,,GW/camera.jpg,,,,,One Edge Diff,Four Edge Five Edge
null,,html-keyboard-response,1040803,<p></p>,,,,null,,,,,,,,,,,,,,
2182.899999976158,,shortestpath_phase,1042988,GW/paint.jpg,,,,49,GW/camera.jpg,GW/basket.jpg,0,0.36363636363636365,,,,GW/basket.jpg,,,,,Two Edge Diff,Two Edge Four Edge
null,,html-keyboard-response,1043991,<p></p>,,,,null,,,,,,,,,,,,,,
2001.6999999284744,,shortestpath_phase,1045994,GW/dustpan.jpg,,,,50,GW/barrel.jpg,GW/globe.jpg,1,0.4166666666666667,,,,GW/globe.jpg,,,,,Two Edge Diff,Four Edge Six Edge
null,,html-keyboard-response,1046997,<p></p>,,,,null,,,,,,,,,,,,,,
2579.3000000715256,,shortestpath_phase,1049577,GW/camera.jpg,,,,49,GW/soldier.jpg,GW/snail.jpg,0,0.38461538461538464,,,,GW/snail.jpg,,,,,Three Edge Diff,Three Edge Six Edge
null,,html-keyboard-response,1050581,<p></p>,,,,null,,,,,,,,,,,,,,
2000.2000000476837,,shortestpath_phase,1052582,GW/soldier.jpg,,,,50,GW/gong.jpg,GW/wheelchair.jpg,1,0.42857142857142855,,,,GW/wheelchair.jpg,,,,,Two Edge Diff,Two Edge Four Edge
null,,html-keyboard-response,1053585,<p></p>,,,,null,,,,,,,,,,,,,,
1370.6000000238419,,shortestpath_phase,1054957,GW/jukebox.jpg,,,,50,GW/hat.jpg,GW/soldier.jpg,0,0.4,,,,GW/hat.jpg,,,,,Two Edge Diff,Four Edge Six Edge
null,,html-keyboard-response,1055960,<p></p>,,,,null,,,,,,,,,,,,,,
1722.8000000715256,,shortestpath_phase,1057684,GW/dustpan.jpg,,,,49,GW/soldier.jpg,GW/teeth.jpg,1,0.4375,,,,GW/soldier.jpg,,,,,One Edge Diff,Three Edge Four Edge
null,,html-keyboard-response,1058687,<p></p>,,,,null,,,,,,,,,,,,,,
1697.6999999284744,,shortestpath_phase,1060387,GW/globe.jpg,,,,50,GW/dustpan.jpg,GW/hat.jpg,1,0.47058823529411764,,,,GW/hat.jpg,,,,,Two Edge Diff,Two Edge Four Edge
null,,html-keyboard-response,1061389,<p></p>,,,,null,,,,,,,,,,,,,,
3495.100000023842,,shortestpath_phase,1064885,GW/jukebox.jpg,,,,49,GW/soldier.jpg,GW/dustpan.jpg,0,0.4444444444444444,,,,GW/dustpan.jpg,,,,,One Edge Diff,Five Edge Six Edge
null,,html-keyboard-response,1065888,<p></p>,,,,null,,,,,,,,,,,,,,
2185.7000000476837,,shortestpath_phase,1068075,GW/basket.jpg,,,,50,GW/paint.jpg,GW/barrel.jpg,0,0.42105263157894735,,,,GW/paint.jpg,,,,,Two Edge Diff,Two Edge Four Edge
null,,html-keyboard-response,1069079,<p></p>,,,,null,,,,,,,,,,,,,,
1941.5,,shortestpath_phase,1071022,GW/camera.jpg,,,,49,GW/jukebox.jpg,GW/soldier.jpg,1,0.45,,,,GW/jukebox.jpg,,,,,Three Edge Diff,Three Edge Six Edge
null,,html-keyboard-response,1072025,<p></p>,,,,null,,,,,,,,,,,,,,
2444.1999999284744,,shortestpath_phase,1074471,GW/dustpan.jpg,,,,50,GW/basket.jpg,GW/camera.jpg,0,0.42857142857142855,,,,GW/basket.jpg,,,,,Three Edge Diff,Two Edge Five Edge
null,,html-keyboard-response,1075473,<p></p>,,,,null,,,,,,,,,,,,,,
3152.100000023842,,shortestpath_phase,1078626,GW/wheelchair.jpg,,,,50,GW/barrel.jpg,GW/snail.jpg,1,0.45454545454545453,,,,GW/snail.jpg,,,,,Three Edge Diff,Two Edge Five Edge
null,,html-keyboard-response,1079629,<p></p>,,,,null,,,,,,,,,,,,,,
2410.2999999523163,,shortestpath_phase,1082040,GW/dustpan.jpg,,,,50,GW/barrel.jpg,GW/basket.jpg,1,0.4782608695652174,,,,GW/basket.jpg,,,,,Four Edge Diff,Two Edge Six Edge
null,,html-keyboard-response,1083043,<p></p>,,,,null,,,,,,,,,,,,,,
2390.2999999523163,,shortestpath_phase,1085435,GW/globe.jpg,,,,50,GW/gong.jpg,GW/dustpan.jpg,0,0.4583333333333333,,,,GW/gong.jpg,,,,,Two Edge Diff,Two Edge Four Edge
null,,html-keyboard-response,1086437,<p></p>,,,,null,,,,,,,,,,,,,,
2216.1999999284744,,shortestpath_phase,1088655,GW/dustpan.jpg,,,,49,GW/camera.jpg,GW/soldier.jpg,0,0.44,,,,GW/soldier.jpg,,,,,Two Edge Diff,Three Edge Five Edge
null,,html-keyboard-response,1089658,<p></p>,,,,null,,,,,,,,,,,,,,
3119.7999999523163,,shortestpath_phase,1092779,GW/globe.jpg,,,,50,GW/basket.jpg,GW/hat.jpg,1,0.46153846153846156,,,,GW/hat.jpg,,,,,One Edge Diff,Two Edge Three Edge
null,,html-keyboard-response,1093782,<p></p>,,,,null,,,,,,,,,,,,,,
2894.3000000715256,,shortestpath_phase,1096677,GW/dustpan.jpg,,,,49,GW/barrel.jpg,GW/teeth.jpg,0,0.4444444444444444,,,,GW/teeth.jpg,,,,,Two Edge Diff,Four Edge Six Edge
null,,html-keyboard-response,1097679,<p></p>,,,,null,,,,,,,,,,,,,,
2280.7000000476837,,shortestpath_phase,1099961,GW/barrel.jpg,,,,50,GW/wheelchair.jpg,GW/globe.jpg,1,0.4642857142857143,,,,GW/globe.jpg,,,,,Three Edge Diff,Three Edge Six Edge
null,,html-keyboard-response,1100964,<p></p>,,,,null,,,,,,,,,,,,,,
2525.100000023842,,shortestpath_phase,1103490,GW/paint.jpg,,,,50,GW/snail.jpg,GW/gong.jpg,0,0.4482758620689655,,,,GW/snail.jpg,,,,,One Edge Diff,Two Edge Three Edge
null,,html-keyboard-response,1104494,<p></p>,,,,null,,,,,,,,,,,,,,
2731.100000023842,,shortestpath_phase,1107227,GW/dustpan.jpg,,,,49,GW/gong.jpg,GW/camera.jpg,1,0.4666666666666667,,,,GW/gong.jpg,,,,,Two Edge Diff,Three Edge Five Edge
null,,html-keyboard-response,1108230,<p></p>,,,,null,,,,,,,,,,,,,,
1738,,shortestpath_phase,1109970,GW/camera.jpg,,,,49,GW/soldier.jpg,GW/hat.jpg,0,0.45161290322580644,,,,GW/hat.jpg,,,,,Two Edge Diff,Three Edge Five Edge
null,,html-keyboard-response,1110972,<p></p>,,,,null,,,,,,,,,,,,,,
2569.600000023842,,shortestpath_phase,1113543,GW/jukebox.jpg,,,,50,GW/dustpan.jpg,GW/wheelchair.jpg,1,0.46875,,,,GW/wheelchair.jpg,,,,,One Edge Diff,Four Edge Five Edge
null,,html-keyboard-response,1114549,<p></p>,,,,null,,,,,,,,,,,,,,
2858.600000023842,,shortestpath_phase,1117410,GW/barrel.jpg,,,,49,GW/soldier.jpg,GW/paint.jpg,0,0.45454545454545453,,,,GW/paint.jpg,,,,,One Edge Diff,Five Edge Six Edge
null,,html-keyboard-response,1118413,<p></p>,,,,null,,,,,,,,,,,,,,
2170.7999999523163,,shortestpath_phase,1120585,GW/gong.jpg,,,,50,GW/jukebox.jpg,GW/soldier.jpg,0,0.4411764705882353,,,,GW/jukebox.jpg,,,,,Two Edge Diff,Two Edge Four Edge
null,,html-keyboard-response,1121588,<p></p>,,,,null,,,,,,,,,,,,,,
2533.5,,shortestpath_phase,1124123,GW/camera.jpg,,,,49,GW/snail.jpg,GW/dustpan.jpg,1,0.45714285714285713,,,,GW/snail.jpg,,,,,Three Edge Diff,Two Edge Five Edge
null,,html-keyboard-response,1125127,<p></p>,,,,null,,,,,,,,,,,,,,
1612.6000000238419,,shortestpath_phase,1126741,GW/jukebox.jpg,,,,49,GW/gong.jpg,GW/globe.jpg,1,0.4722222222222222,,,,GW/gong.jpg,,,,,One Edge Diff,Two Edge Three Edge
null,,html-keyboard-response,1127744,<p></p>,,,,null,,,,,,,,,,,,,,
1558.3999999761581,,shortestpath_phase,1129304,GW/dustpan.jpg,,,,49,GW/snail.jpg,GW/teeth.jpg,1,0.4864864864864865,,,,GW/snail.jpg,,,,,One Edge Diff,Three Edge Four Edge
null,,html-keyboard-response,1130306,<p></p>,,,,null,,,,,,,,,,,,,,
2838.600000023842,,shortestpath_phase,1133146,GW/camera.jpg,,,,50,GW/basket.jpg,GW/wheelchair.jpg,0,0.47368421052631576,,,,GW/basket.jpg,,,,,One Edge Diff,Three Edge Four Edge
null,,html-keyboard-response,1134150,<p></p>,,,,null,,,,,,,,,,,,,,
2548.5,,shortestpath_phase,1136700,GW/barrel.jpg,,,,50,GW/dustpan.jpg,GW/globe.jpg,1,0.48717948717948717,,,,GW/globe.jpg,,,,,Four Edge Diff,Two Edge Six Edge
null,,html-keyboard-response,1137702,<p></p>,,,,null,,,,,,,,,,,,,,
2619.0999999046326,,shortestpath_phase,1140322,GW/gong.jpg,,,,49,GW/jukebox.jpg,GW/paint.jpg,1,0.5,,,,GW/jukebox.jpg,,,,,One Edge Diff,Two Edge Three Edge
null,,html-keyboard-response,1141330,<p></p>,,,,null,,,,,,,,,,,,,,
3428.399999976158,,shortestpath_phase,1144760,GW/barrel.jpg,,,,50,GW/paint.jpg,GW/dustpan.jpg,0,0.4878048780487805,,,,GW/paint.jpg,,,,,One Edge Diff,Five Edge Six Edge
null,,html-keyboard-response,1145763,<p></p>,,,,null,,,,,,,,,,,,,,
1853.5,,shortestpath_phase,1147618,GW/soldier.jpg,,,,49,GW/hat.jpg,GW/barrel.jpg,1,0.5,,,,GW/hat.jpg,,,,,Four Edge Diff,Two Edge Six Edge
null,,html-keyboard-response,1148621,<p></p>,,,,null,,,,,,,,,,,,,,
2673.4000000953674,,shortestpath_phase,1151295,GW/paint.jpg,,,,49,GW/jukebox.jpg,GW/camera.jpg,0,0.4883720930232558,,,,GW/camera.jpg,,,,,One Edge Diff,Four Edge Five Edge
null,,html-keyboard-response,1152298,<p></p>,,,,null,,,,,,,,,,,,,,
1503.9000000953674,,shortestpath_phase,1153804,GW/barrel.jpg,,,,50,GW/teeth.jpg,GW/wheelchair.jpg,0,0.4772727272727273,,,,GW/teeth.jpg,,,,,Three Edge Diff,Three Edge Six Edge
null,,html-keyboard-response,1154806,<p></p>,,,,null,,,,,,,,,,,,,,
1713.3999999761581,,shortestpath_phase,1156521,GW/jukebox.jpg,,,,49,GW/camera.jpg,GW/soldier.jpg,1,0.4888888888888889,,,,GW/camera.jpg,,,,,Four Edge Diff,Two Edge Six Edge
null,,html-keyboard-response,1157524,<p></p>,,,,null,,,,,,,,,,,,,,
907.5,,shortestpath_phase,1158433,GW/paint.jpg,,,,50,GW/camera.jpg,GW/snail.jpg,1,0.5,,,,GW/snail.jpg,,,,,Two Edge Diff,Two Edge Four Edge
null,,html-keyboard-response,1159441,<p></p>,,,,null,,,,,,,,,,,,,,
846.3999999761581,,shortestpath_phase,1160289,GW/soldier.jpg,,,,49,GW/globe.jpg,GW/dustpan.jpg,0,0.48936170212765956,,,,GW/dustpan.jpg,,,,,One Edge Diff,Three Edge Four Edge
null,,html-keyboard-response,1161291,<p></p>,,,,null,,,,,,,,,,,,,,
727.6000000238419,,shortestpath_phase,1162020,GW/camera.jpg,,,,49,GW/soldier.jpg,GW/snail.jpg,0,0.4791666666666667,,,,GW/snail.jpg,,,,,Three Edge Diff,Two Edge Five Edge
null,,html-keyboard-response,1163022,<p></p>,,,,null,,,,,,,,,,,,,,
2001.6000000238419,,shortestpath_phase,1165025,GW/dustpan.jpg,,,,50,GW/jukebox.jpg,GW/paint.jpg,1,0.4897959183673469,,,,GW/paint.jpg,,,,,Three Edge Diff,Two Edge Five Edge
null,,html-keyboard-response,1166027,<p></p>,,,,null,,,,,,,,,,,,,,
2103,,shortestpath_phase,1168131,GW/jukebox.jpg,,,,50,GW/gong.jpg,GW/soldier.jpg,0,0.48,,,,GW/gong.jpg,,,,,Four Edge Diff,Two Edge Six Edge
null,,html-keyboard-response,1169134,<p></p>,,,,null,,,,,,,,,,,,,,
1823,,shortestpath_phase,1170959,GW/paint.jpg,,,,49,GW/basket.jpg,GW/jukebox.jpg,1,0.49019607843137253,,,,GW/basket.jpg,,,,,Three Edge Diff,Two Edge Five Edge
null,,html-keyboard-response,1171962,<p></p>,,,,null,,,,,,,,,,,,,,
1572.5999999046326,,shortestpath_phase,1173536,GW/soldier.jpg,,,,50,GW/gong.jpg,GW/barrel.jpg,0,0.4807692307692308,,,,GW/gong.jpg,,,,,Two Edge Diff,Four Edge Six Edge
null,,html-keyboard-response,1174540,<p></p>,,,,null,,,,,,,,,,,,,,
2145.100000023842,,shortestpath_phase,1176686,GW/barrel.jpg,,,,49,GW/wheelchair.jpg,GW/basket.jpg,0,0.4716981132075472,,,,GW/basket.jpg,,,,,One Edge Diff,Four Edge Five Edge
null,,html-keyboard-response,1177690,<p></p>,,,,null,,,,,,,,,,,,,,
2040.7999999523163,,shortestpath_phase,1179732,GW/camera.jpg,,,,49,GW/paint.jpg,GW/snail.jpg,0,0.46296296296296297,,,,GW/snail.jpg,,,,,Two Edge Diff,Two Edge Four Edge
null,,html-keyboard-response,1180736,<p></p>,,,,null,,,,,,,,,,,,,,
2005,,shortestpath_phase,1182743,GW/dustpan.jpg,,,,50,GW/teeth.jpg,GW/basket.jpg,1,0.4727272727272727,,,,GW/basket.jpg,,,,,Two Edge Diff,Two Edge Four Edge
null,,html-keyboard-response,1183752,<p></p>,,,,null,,,,,,,,,,,,,,
2039.1000000238419,,shortestpath_phase,1185793,GW/soldier.jpg,,,,50,GW/hat.jpg,GW/camera.jpg,0,0.4642857142857143,,,,GW/hat.jpg,,,,,Three Edge Diff,Three Edge Six Edge
null,,html-keyboard-response,1186795,<p></p>,,,,null,,,,,,,,,,,,,,
1713.6000000238419,,shortestpath_phase,1188510,GW/jukebox.jpg,,,,49,GW/globe.jpg,GW/paint.jpg,1,0.47368421052631576,,,,GW/globe.jpg,,,,,Two Edge Diff,Three Edge Five Edge
null,,html-keyboard-response,1189513,<p></p>,,,,null,,,,,,,,,,,,,,
1861.6000000238419,,shortestpath_phase,1191376,GW/paint.jpg,,,,49,GW/teeth.jpg,GW/jukebox.jpg,1,0.4827586206896552,,,,GW/teeth.jpg,,,,,One Edge Diff,Four Edge Five Edge
null,,html-keyboard-response,1192378,<p></p>,,,,null,,,,,,,,,,,,,,
2606.1999999284744,,shortestpath_phase,1194986,GW/soldier.jpg,,,,49,GW/globe.jpg,GW/jukebox.jpg,1,0.4915254237288136,,,,GW/globe.jpg,,,,,Two Edge Diff,Four Edge Six Edge
null,,html-keyboard-response,1196002,<p></p>,,,,null,,,,,,,,,,,,,,
2295.9000000953674,,shortestpath_phase,1198299,GW/barrel.jpg,,,,50,GW/hat.jpg,GW/dustpan.jpg,0,0.48333333333333334,,,,GW/hat.jpg,,,,,Two Edge Diff,Four Edge Six Edge
null,,html-keyboard-response,1199302,<p></p>,,,,null,,,,,,,,,,,,,,
2269.7000000476837,,shortestpath_phase,1201573,GW/dustpan.jpg,,,,50,GW/globe.jpg,GW/jukebox.jpg,0,0.47540983606557374,,,,GW/globe.jpg,,,,,One Edge Diff,Four Edge Five Edge
null,,html-keyboard-response,1202577,<p></p>,,,,null,,,,,,,,,,,,,,
2259.100000023842,,shortestpath_phase,1204838,GW/soldier.jpg,,,,49,GW/basket.jpg,GW/gong.jpg,1,0.4838709677419355,,,,GW/basket.jpg,,,,,One Edge Diff,Three Edge Four Edge
null,,html-keyboard-response,1205841,<p></p>,,,,null,,,,,,,,,,,,,,
2493.899999976158,,shortestpath_phase,1208336,GW/teeth.jpg,,,,50,GW/wheelchair.jpg,GW/paint.jpg,0,0.47619047619047616,,,,GW/wheelchair.jpg,,,,,One Edge Diff,Three Edge Four Edge
null,,html-keyboard-response,1209339,<p></p>,,,,null,,,,,,,,,,,,,,
1960.5999999046326,,shortestpath_phase,1211301,GW/paint.jpg,,,,50,GW/snail.jpg,GW/barrel.jpg,0,0.46875,,,,GW/snail.jpg,,,,,Three Edge Diff,Three Edge Six Edge
null,,html-keyboard-response,1212310,<p></p>,,,,null,,,,,,,,,,,,,,
2130.6999999284744,,shortestpath_phase,1214442,GW/barrel.jpg,,,,49,GW/gong.jpg,GW/wheelchair.jpg,1,0.47692307692307695,,,,GW/gong.jpg,,,,,Two Edge Diff,Three Edge Five Edge
null,,html-keyboard-response,1215445,<p></p>,,,,null,,,,,,,,,,,,,,
2110.5,,shortestpath_phase,1217557,GW/wheelchair.jpg,,,,49,GW/soldier.jpg,GW/barrel.jpg,1,0.48484848484848486,,,,GW/soldier.jpg,,,,,Three Edge Diff,Three Edge Six Edge
null,,html-keyboard-response,1218561,<p></p>,,,,null,,,,,,,,,,,,,,
1811.9000000953674,,shortestpath_phase,1220375,GW/globe.jpg,,,,50,GW/jukebox.jpg,GW/dustpan.jpg,0,0.47761194029850745,,,,GW/jukebox.jpg,,,,,One Edge Diff,Three Edge Four Edge
null,,html-keyboard-response,1221377,<p></p>,,,,null,,,,,,,,,,,,,,
2728,,shortestpath_phase,1224107,GW/gong.jpg,,,,50,GW/camera.jpg,GW/barrel.jpg,0,0.47058823529411764,,,,GW/camera.jpg,,,,,One Edge Diff,Two Edge Three Edge
null,,html-keyboard-response,1225111,<p></p>,,,,null,,,,,,,,,,,,,,
2248.8000000715256,,shortestpath_phase,1227361,GW/snail.jpg,,,,49,GW/wheelchair.jpg,GW/barrel.jpg,1,0.4782608695652174,,,,GW/wheelchair.jpg,,,,,One Edge Diff,Two Edge Three Edge
null,,html-keyboard-response,1228364,<p></p>,,,,null,,,,,,,,,,,,,,
2942.399999976158,,shortestpath_phase,1231308,GW/soldier.jpg,,,,50,GW/barrel.jpg,GW/camera.jpg,1,0.4857142857142857,,,,GW/camera.jpg,,,,,One Edge Diff,Five Edge Six Edge
null,,html-keyboard-response,1232310,<p></p>,,,,null,,,,,,,,,,,,,,
2942.1999999284744,,shortestpath_phase,1235254,GW/dustpan.jpg,,,,49,GW/camera.jpg,GW/paint.jpg,0,0.4788732394366197,,,,GW/paint.jpg,,,,,Three Edge Diff,Three Edge Six Edge
null,,html-keyboard-response,1236257,<p></p>,,,,null,,,,,,,,,,,,,,
2041.5,,shortestpath_phase,1238300,GW/soldier.jpg,,,,50,GW/globe.jpg,GW/barrel.jpg,0,0.4722222222222222,,,,GW/globe.jpg,,,,,Two Edge Diff,Four Edge Six Edge
null,,html-keyboard-response,1239302,<p></p>,,,,null,,,,,,,,,,,,,,
2455.5,,shortestpath_phase,1241759,GW/barrel.jpg,,,,49,GW/wheelchair.jpg,GW/teeth.jpg,0,0.4657534246575342,,,,GW/teeth.jpg,,,,,Three Edge Diff,Two Edge Five Edge
null,,html-keyboard-response,1242762,<p></p>,,,,null,,,,,,,,,,,,,,
2572.6999999284744,,shortestpath_phase,1245336,GW/jukebox.jpg,,,,50,GW/soldier.jpg,GW/wheelchair.jpg,1,0.47297297297297297,,,,GW/wheelchair.jpg,,,,,Two Edge Diff,Four Edge Six Edge
null,,html-keyboard-response,1246339,<p></p>,,,,null,,,,,,,,,,,,,,
2408.9000000953674,,shortestpath_phase,1248750,GW/paint.jpg,,,,49,GW/barrel.jpg,GW/gong.jpg,0,0.4666666666666667,,,,GW/gong.jpg,,,,,Two Edge Diff,Three Edge Five Edge
null,,html-keyboard-response,1249752,<p></p>,,,,null,,,,,,,,,,,,,,
2122,,shortestpath_phase,1251875,GW/teeth.jpg,,,,49,GW/basket.jpg,GW/dustpan.jpg,1,0.47368421052631576,,,,GW/basket.jpg,,,,,Two Edge Diff,Two Edge Four Edge
null,,html-keyboard-response,1252878,<p></p>,,,,null,,,,,,,,,,,,,,
2462.5,,shortestpath_phase,1255342,GW/paint.jpg,,,,49,GW/snail.jpg,GW/jukebox.jpg,1,0.4805194805194805,,,,GW/snail.jpg,,,,,Three Edge Diff,Three Edge Six Edge
null,,html-keyboard-response,1256344,<p></p>,,,,null,,,,,,,,,,,,,,
3142.899999976158,,shortestpath_phase,1259488,GW/gong.jpg,,,,50,GW/soldier.jpg,GW/barrel.jpg,1,0.48717948717948717,,,,GW/barrel.jpg,,,,,One Edge Diff,Three Edge Four Edge
null,,html-keyboard-response,1260492,<p></p>,,,,null,,,,,,,,,,,,,,
1950.5,,shortestpath_phase,1262444,GW/paint.jpg,,,,49,GW/barrel.jpg,GW/globe.jpg,0,0.4810126582278481,,,,GW/globe.jpg,,,,,Two Edge Diff,Three Edge Five Edge
null,,html-keyboard-response,1263447,<p></p>,,,,null,,,,,,,,,,,,,,
1544,,shortestpath_phase,1264992,GW/soldier.jpg,,,,50,GW/jukebox.jpg,GW/hat.jpg,1,0.4875,,,,GW/hat.jpg,,,,,Four Edge Diff,Two Edge Six Edge
null,,html-keyboard-response,1266002,<p></p>,,,,null,,,,,,,,,,,,,,
2421.2000000476837,,shortestpath_phase,1268425,GW/paint.jpg,,,,50,GW/globe.jpg,GW/jukebox.jpg,0,0.48148148148148145,,,,GW/globe.jpg,,,,,Two Edge Diff,Three Edge Five Edge
null,,html-keyboard-response,1269434,<p></p>,,,,null,,,,,,,,,,,,,,
2224.100000023842,,shortestpath_phase,1271660,GW/barrel.jpg,,,,49,GW/soldier.jpg,GW/wheelchair.jpg,0,0.47560975609756095,,,,GW/wheelchair.jpg,,,,,One Edge Diff,Five Edge Six Edge
null,,html-keyboard-response,1272663,<p></p>,,,,null,,,,,,,,,,,,,,
2951,,shortestpath_phase,1275616,GW/dustpan.jpg,,,,50,GW/paint.jpg,GW/snail.jpg,0,0.46987951807228917,,,,GW/paint.jpg,,,,,One Edge Diff,Two Edge Three Edge
null,,html-keyboard-response,1276619,<p></p>,,,,null,,,,,,,,,,,,,,
2254.7000000476837,,shortestpath_phase,1278875,GW/barrel.jpg,,,,49,GW/jukebox.jpg,GW/wheelchair.jpg,1,0.47619047619047616,,,,GW/jukebox.jpg,,,,,Two Edge Diff,Three Edge Five Edge
null,,html-keyboard-response,1279879,<p></p>,,,,null,,,,,,,,,,,,,,
2493.1999999284744,,shortestpath_phase,1282374,GW/dustpan.jpg,,,,50,GW/paint.jpg,GW/barrel.jpg,0,0.47058823529411764,,,,GW/paint.jpg,,,,,Four Edge Diff,Two Edge Six Edge
null,,html-keyboard-response,1283377,<p></p>,,,,null,,,,,,,,,,,,,,
1871.0999999046326,,shortestpath_phase,1285250,GW/soldier.jpg,,,,50,GW/hat.jpg,GW/snail.jpg,0,0.46511627906976744,,,,GW/hat.jpg,,,,,One Edge Diff,Two Edge Three Edge
null,,html-keyboard-response,1286252,<p></p>,,,,null,,,,,,,,,,,,,,
1101.2999999523163,,shortestpath_phase,1287355,GW/jukebox.jpg,,,,49,GW/soldier.jpg,GW/paint.jpg,0,0.45977011494252873,,,,GW/paint.jpg,,,,,One Edge Diff,Five Edge Six Edge
null,,html-keyboard-response,1288359,<p></p>,,,,null,,,,,,,,,,,,,,
1154.3999999761581,,shortestpath_phase,1289514,GW/barrel.jpg,,,,50,GW/dustpan.jpg,GW/wheelchair.jpg,1,0.4659090909090909,,,,GW/wheelchair.jpg,,,,,One Edge Diff,Five Edge Six Edge
null,,html-keyboard-response,1290517,<p></p>,,,,null,,,,,,,,,,,,,,
2723.899999976158,,shortestpath_phase,1293242,GW/basket.jpg,,,,50,GW/snail.jpg,GW/soldier.jpg,0,0.4606741573033708,,,,GW/snail.jpg,,,,,One Edge Diff,Two Edge Three Edge
null,,html-keyboard-response,1294245,<p></p>,,,,null,,,,,,,,,,,,,,
2896.5,,shortestpath_phase,1297143,GW/jukebox.jpg,,,,49,GW/barrel.jpg,GW/dustpan.jpg,1,0.4666666666666667,,,,GW/barrel.jpg,,,,,Two Edge Diff,Three Edge Five Edge
null,,html-keyboard-response,1298146,<p></p>,,,,null,,,,,,,,,,,,,,
2538.600000023842,,shortestpath_phase,1300686,GW/soldier.jpg,,,,50,GW/teeth.jpg,GW/wheelchair.jpg,1,0.4725274725274725,,,,GW/wheelchair.jpg,,,,,Three Edge Diff,Three Edge Six Edge
null,,html-keyboard-response,1301699,<p></p>,,,,null,,,,,,,,,,,,,,
1932.3999999761581,,shortestpath_phase,1303632,GW/basket.jpg,,,,49,GW/teeth.jpg,GW/camera.jpg,1,0.4782608695652174,,,,GW/teeth.jpg,,,,,One Edge Diff,Two Edge Three Edge
null,,html-keyboard-response,1304635,<p></p>,,,,null,,,,,,,,,,,,,,
2165.100000023842,,shortestpath_phase,1306801,GW/wheelchair.jpg,,,,50,GW/globe.jpg,GW/camera.jpg,0,0.4731182795698925,,,,GW/globe.jpg,,,,,One Edge Diff,Three Edge Four Edge
null,,html-keyboard-response,1307814,<p></p>,,,,null,,,,,,,,,,,,,,
1613.8999999761581,,shortestpath_phase,1309429,GW/soldier.jpg,,,,50,GW/jukebox.jpg,GW/teeth.jpg,1,0.4787234042553192,,,,GW/teeth.jpg,,,,,One Edge Diff,Five Edge Six Edge
null,,html-keyboard-response,1310432,<p></p>,,,,null,,,,,,,,,,,,,,
1962,,shortestpath_phase,1312395,GW/wheelchair.jpg,,,,50,GW/barrel.jpg,GW/globe.jpg,1,0.4842105263157895,,,,GW/globe.jpg,,,,,Two Edge Diff,Three Edge Five Edge
null,,html-keyboard-response,1313399,<p></p>,,,,null,,,,,,,,,,,,,,
2521.5999999046326,,shortestpath_phase,1315922,GW/paint.jpg,,,,49,GW/camera.jpg,GW/barrel.jpg,1,0.4895833333333333,,,,GW/camera.jpg,,,,,One Edge Diff,Four Edge Five Edge
null,,html-keyboard-response,1316924,<p></p>,,,,null,,,,,,,,,,,,,,
2804,,shortestpath_phase,1319730,GW/wheelchair.jpg,,,,49,GW/barrel.jpg,GW/gong.jpg,0,0.4845360824742268,,,,GW/gong.jpg,,,,,Three Edge Diff,Two Edge Five Edge
null,,html-keyboard-response,1320733,<p></p>,,,,null,,,,,,,,,,,,,,
1965.1000000238419,,shortestpath_phase,1322700,GW/dustpan.jpg,,,,49,GW/jukebox.jpg,GW/barrel.jpg,1,0.4897959183673469,,,,GW/jukebox.jpg,,,,,One Edge Diff,Five Edge Six Edge
null,,html-keyboard-response,1323702,<p></p>,,,,null,,,,,,,,,,,,,,
1917.6999999284744,,shortestpath_phase,1325621,GW/teeth.jpg,,,,49,GW/hat.jpg,GW/paint.jpg,1,0.494949494949495,,,,GW/hat.jpg,,,,,One Edge Diff,Three Edge Four Edge
null,,html-keyboard-response,1326625,<p></p>,,,,null,,,,,,,,,,,,,,
2528.1999999284744,,shortestpath_phase,1329155,GW/soldier.jpg,,,,50,GW/jukebox.jpg,GW/gong.jpg,1,0.5,,,,GW/gong.jpg,,,,,Two Edge Diff,Four Edge Six Edge
null,,html-keyboard-response,1330158,<p></p>,,,,null,,,,,,,,,,,,,,
2882.5,,shortestpath_phase,1333042,GW/barrel.jpg,,,,50,GW/hat.jpg,GW/soldier.jpg,0,0.49504950495049505,,,,GW/hat.jpg,,,,,Two Edge Diff,Four Edge Six Edge
null,,html-keyboard-response,1334045,<p></p>,,,,null,,,,,,,,,,,,,,
3338.600000023842,,shortestpath_phase,1337385,GW/paint.jpg,,,,49,GW/camera.jpg,GW/globe.jpg,0,0.49019607843137253,,,,GW/globe.jpg,,,,,One Edge Diff,Three Edge Four Edge
null,,html-keyboard-response,1338390,<p></p>,,,,null,,,,,,,,,,,,,,
3193.7999999523163,,shortestpath_phase,1341585,GW/barrel.jpg,,,,49,GW/paint.jpg,GW/teeth.jpg,0,0.4854368932038835,,,,GW/teeth.jpg,,,,,Three Edge Diff,Two Edge Five Edge
null,,html-keyboard-response,1342590,<p></p>,,,,null,,,,,,,,,,,,,,
2105,,shortestpath_phase,1344696,GW/soldier.jpg,,,,50,GW/teeth.jpg,GW/gong.jpg,1,0.49038461538461536,,,,GW/gong.jpg,,,,,One Edge Diff,Four Edge Five Edge
null,,html-keyboard-response,1345699,<p></p>,,,,null,,,,,,,,,,,,,,
4180.899999976158,,shortestpath_phase,1349881,GW/barrel.jpg,,,,49,GW/hat.jpg,GW/wheelchair.jpg,1,0.49523809523809526,,,,GW/hat.jpg,,,,,One Edge Diff,Four Edge Five Edge
null,,html-keyboard-response,1350884,<p></p>,,,,null,,,,,,,,,,,,,,
1657.2999999523163,,shortestpath_phase,1352543,GW/soldier.jpg,,,,50,GW/camera.jpg,GW/jukebox.jpg,0,0.49056603773584906,,,,GW/camera.jpg,,,,,One Edge Diff,Five Edge Six Edge
null,,html-keyboard-response,1353546,<p></p>,,,,null,,,,,,,,,,,,,,
1389.7999999523163,,shortestpath_phase,1354938,GW/jukebox.jpg,,,,50,GW/paint.jpg,GW/hat.jpg,1,0.4953271028037383,,,,GW/hat.jpg,,,,,One Edge Diff,Four Edge Five Edge
null,,html-keyboard-response,1355941,<p></p>,,,,null,,,,,,,,,,,,,,
1755.7999999523163,,shortestpath_phase,1357699,GW/snail.jpg,,,,49,GW/camera.jpg,GW/barrel.jpg,1,0.5,,,,GW/camera.jpg,,,,,One Edge Diff,Two Edge Three Edge
null,,html-keyboard-response,1358702,<p></p>,,,,null,,,,,,,,,,,,,,
2360.100000023842,,shortestpath_phase,1361063,GW/jukebox.jpg,,,,49,GW/hat.jpg,GW/dustpan.jpg,1,0.5045871559633027,,,,GW/hat.jpg,,,,,One Edge Diff,Four Edge Five Edge
null,,html-keyboard-response,1362067,<p></p>,,,,null,,,,,,,,,,,,,,
2531.899999976158,,shortestpath_phase,1364601,GW/paint.jpg,,,,50,GW/barrel.jpg,GW/basket.jpg,1,0.509090909090909,,,,GW/basket.jpg,,,,,Three Edge Diff,Three Edge Six Edge
null,,html-keyboard-response,1365604,<p></p>,,,,null,,,,,,,,,,,,,,
1449.7999999523163,,shortestpath_phase,1367055,GW/barrel.jpg,,,,49,GW/teeth.jpg,GW/dustpan.jpg,1,0.5135135135135135,,,,GW/teeth.jpg,,,,,Four Edge Diff,Two Edge Six Edge
null,,html-keyboard-response,1368057,<p></p>,,,,null,,,,,,,,,,,,,,
1563.2000000476837,,shortestpath_phase,1369622,GW/wheelchair.jpg,,,,50,GW/gong.jpg,GW/globe.jpg,0,0.5089285714285714,,,,GW/gong.jpg,,,,,One Edge Diff,Two Edge Three Edge
null,,html-keyboard-response,1370626,<p></p>,,,,null,,,,,,,,,,,,,,
1905.5999999046326,,shortestpath_phase,1372533,GW/teeth.jpg,,,,50,GW/globe.jpg,GW/soldier.jpg,0,0.504424778761062,,,,GW/globe.jpg,,,,,Three Edge Diff,Two Edge Five Edge
null,,html-keyboard-response,1373546,<p></p>,,,,null,,,,,,,,,,,,,,
1509.2999999523163,,shortestpath_phase,1375057,GW/barrel.jpg,,,,49,GW/basket.jpg,GW/soldier.jpg,1,0.5087719298245614,,,,GW/basket.jpg,,,,,Two Edge Diff,Four Edge Six Edge
null,,html-keyboard-response,1376060,<p></p>,,,,null,,,,,,,,,,,,,,
1878.7999999523163,,shortestpath_phase,1377941,GW/soldier.jpg,,,,50,GW/teeth.jpg,GW/globe.jpg,1,0.5130434782608696,,,,GW/globe.jpg,,,,,One Edge Diff,Four Edge Five Edge
null,,html-keyboard-response,1378945,<p></p>,,,,null,,,,,,,,,,,,,,
2185.1999999284744,,shortestpath_phase,1381131,GW/paint.jpg,,,,50,GW/dustpan.jpg,GW/jukebox.jpg,0,0.5086206896551724,,,,GW/dustpan.jpg,,,,,Three Edge Diff,Three Edge Six Edge
null,,html-keyboard-response,1382134,<p></p>,,,,null,,,,,,,,,,,,,,
1311.4000000953674,,shortestpath_phase,1383447,GW/globe.jpg,,,,49,GW/basket.jpg,GW/dustpan.jpg,1,0.5128205128205128,,,,GW/basket.jpg,,,,,One Edge Diff,Three Edge Four Edge
null,,html-keyboard-response,1384449,<p></p>,,,,null,,,,,,,,,,,,,,
1205.6999999284744,,shortestpath_phase,1385657,GW/dustpan.jpg,,,,50,GW/barrel.jpg,GW/camera.jpg,1,0.5169491525423728,,,,GW/camera.jpg,,,,,One Edge Diff,Five Edge Six Edge
null,,html-keyboard-response,1386660,<p></p>,,,,null,,,,,,,,,,,,,,
1085.6000000238419,,shortestpath_phase,1387747,GW/barrel.jpg,,,,49,GW/soldier.jpg,GW/globe.jpg,0,0.5126050420168067,,,,GW/globe.jpg,,,,,Four Edge Diff,Two Edge Six Edge
null,,html-keyboard-response,1388750,<p></p>,,,,null,,,,,,,,,,,,,,
1220.3999999761581,,shortestpath_phase,1389972,GW/soldier.jpg,,,,50,GW/camera.jpg,GW/hat.jpg,1,0.5166666666666667,,,,GW/hat.jpg,,,,,Three Edge Diff,Two Edge Five Edge
null,,html-keyboard-response,1390974,<p></p>,,,,null,,,,,,,,,,,,,,
2494.399999976158,,shortestpath_phase,1393470,,,,,49,,,1,0.5206611570247934,,,,,,,,,One Edge Diff,Five Edge Six Edge
null,,html-keyboard-response,1394473,<p></p>,,,,null,,,,,,,,,,,,,,
34531.5,,intro_1,1429006,instruct,,0,,,,,,,,,,,,,,,,
30195.899999976158,,intro_2,1459205,instruct,,1,Next,,,,,,,,,,,,,,,
9112,,intro_3,1468319,instruct,,1,Next,,,,,,,,,,,,,,,
