rt,responses,trial_type,time_elapsed,stimulus,graphorder,button_pressed,response,key_press,stimulus_left,stimulus_right,accuracy,cumulative_accuracy,stimulus_down_left,stimulus_down_mid,stimulus_down_right,stimulus_correct,stimulus_short,stimulus_far,weighted_accuracy,missedtrial,condition,specific_pairs
18847.09999999404,{worker_id:67cb5baef51d73572cb490ae},id_enter,18856,id_enter,GW/teeth.jpg; GW/hat.jpg; GW/globe.jpg; GW/basket.jpg; GW/dustpan.jpg; GW/paint.jpg; GW/barrel.jpg; GW/soldier.jpg; GW/snail.jpg; GW/camera.jpg; GW/jukebox.jpg; GW/gong.jpg; GW/wheelchair.jpg,,,,,,,,,,,,,,,,,
54849.80000001192,,fullscreen,73714,fullscreen,,0,,,,,,,,,,,,,,,,
28433.5,,intro_1,102153,instruct,,0,,,,,,,,,,,,,,,,
48641.90000000596,,intro_2,150798,instruct,,1,Next,,,,,,,,,,,,,,,
36649.79999999702,,intro_3,187450,instruct,,1,Next,,,,,,,,,,,,,,,
null,,learn_prac_1,189457,lean_prac_1,,,,null,,,,,,,,,,,,,,
null,,html-keyboard-response,190477,<p></p>,,,,null,,,,,,,,,,,,,,
6657.899999991059,,intro_1,197136,instruct,,0,,,,,,,,,,,,,,,,
14767,,intro_2,211906,instruct,,1,Next,,,,,,,,,,,,,,,
null,,learn_prac_2,213916,lean_prac_2,,,,null,,,,,,,,,,,,,,
null,,html-keyboard-response,214923,<p></p>,,,,null,,,,,,,,,,,,,,
19090.79999999702,,intro_1,234016,instruct,,0,,,,,,,,,,,,,,,,
29163.90000000596,,intro_2,263182,instruct,,1,Next,,,,,,,,,,,,,,,
134491.60000000894,,intro_3,397676,instruct,,1,Next,,,,,,,,,,,,,,,
null,,prac_atten_color_black,398355,black_plus_sign,,,,null,,,,,,,,,,,,,,
null,,prac_atten_color,399086,prac_stop_color,,,,null,,,,,,,,,,,,,,
916.5999999940395,,prac_atten_color_black,401104,black_plus_sign,,,,49,,,,,,,,,,,,,,
null,,prac_atten_color_black,401787,black_plus_sign,,,,null,,,,,,,,,,,,,,
null,,prac_atten_color,402489,prac_stop_color,,,,null,,,,,,,,,,,,,,
563.2999999970198,,prac_atten_color_black,404492,black_plus_sign,,,,50,,,,,,,,,,,,,,
null,,prac_atten_color_black,405218,black_plus_sign,,,,null,,,,,,,,,,,,,,
null,,prac_atten_color,405661,prac_stop_color,,,,null,,,,,,,,,,,,,,
311,,prac_atten_color_black,407668,black_plus_sign,,,,50,,,,,,,,,,,,,,
null,,prac_atten_color_black,408636,black_plus_sign,,,,null,,,,,,,,,,,,,,
null,,prac_atten_color,409144,prac_stop_color,,,,null,,,,,,,,,,,,,,
389,,prac_atten_color_black,411154,black_plus_sign,,,,49,,,,,,,,,,,,,,
null,,prac_atten_color_black,412064,black_plus_sign,,,,null,,,,,,,,,,,,,,
null,,prac_atten_color,412958,prac_stop_color,,,,null,,,,,,,,,,,,,,
203.90000000596046,,prac_atten_color_black,414964,black_plus_sign,,,,50,,,,,,,,,,,,,,
null,,prac_atten_color_black,415486,black_plus_sign,,,,null,,,,,,,,,,,,,,
901,,prac_atten_color,416425,prac_stop_color,,,,50,,,,,,,,,,,,,,
null,,prac_atten_color_black,418431,black_plus_sign,,,,null,,,,,,,,,,,,,,
null,,prac_atten_color_black,418905,black_plus_sign,,,,null,,,,,,,,,,,,,,
576.0999999940395,,prac_atten_color,419597,prac_stop_color,,,,49,,,,,,,,,,,,,,
null,,prac_atten_color_black,421602,black_plus_sign,,,,null,,,,,,,,,,,,,,
null,,prac_atten_color_black,422328,black_plus_sign,,,,null,,,,,,,,,,,,,,
680.5,,prac_atten_color,423266,prac_stop_color,,,,50,,,,,,,,,,,,,,
null,,prac_atten_color_black,425275,black_plus_sign,,,,null,,,,,,,,,,,,,,
null,,prac_atten_color_black,425765,black_plus_sign,,,,null,,,,,,,,,,,,,,
null,,prac_atten_color,426401,prac_stop_color,,,,null,,,,,,,,,,,,,,
358.80000001192093,,prac_atten_color_black,428411,black_plus_sign,,,,49,,,,,,,,,,,,,,
null,,prac_atten_color_black,429196,black_plus_sign,,,,null,,,,,,,,,,,,,,
null,,prac_atten_color,430001,prac_stop_color,,,,null,,,,,,,,,,,,,,
317.8999999910593,,prac_atten_color_black,432005,black_plus_sign,,,,49,,,,,,,,,,,,,,
24509.19999998808,,attentioncheck_feedback,456518,cross_check_feedback,,0,,,,,,,,,,,,,,,,
16678,,last_instruct,473197,instruct,,,,32,,,,,,,,,,,,,,
null,,learn_phase(without_color),475210,black_plus_sign,,,,null,GW/paint.jpg,GW/snail.jpg,,,,,,,,,,,,
null,,black_cross(without_color),475876,green,,,,null,GW/paint.jpg,GW/snail.jpg,,,,,,,,,,,,
null,,rt_plussign_withcolor,476383,green,,,,null,GW/paint.jpg,GW/snail.jpg,,,,,,,,,,,,
1452.2999999970198,,rt_thecrossant_black,477733,black_plus_sign,,,,50,,,1,1,,,,,,,,,,
null,,color_black,477842,black_plus_sign,,,,null,,,,,,,,,,,,,,
null,,learn_phase(without_color),479847,black_plus_sign,,,,null,GW/teeth.jpg,GW/hat.jpg,,,,,,,,,,,,
null,,black_cross(without_color),480766,blue,,,,null,GW/teeth.jpg,GW/hat.jpg,,,,,,,,,,,,
null,,rt_plussign_withcolor,481268,blue,,,,null,GW/teeth.jpg,GW/hat.jpg,,,,,,,,,,,,
959.2999999970198,,rt_thecrossant_black,482366,black_plus_sign,,,,49,,,1,1,,,,,,,,,,
null,,color_black,482476,black_plus_sign,,,,null,,,,,,,,,,,,,,
null,,learn_phase(without_color),484482,black_plus_sign,,,,null,GW/paint.jpg,GW/snail.jpg,,,,,,,,,,,,
null,,black_cross(without_color),485424,blue,,,,null,GW/paint.jpg,GW/snail.jpg,,,,,,,,,,,,
null,,rt_plussign_withcolor,485928,blue,,,,null,GW/paint.jpg,GW/snail.jpg,,,,,,,,,,,,
1361.300000011921,,rt_thecrossant_black,487007,black_plus_sign,,,,49,,,1,1,,,,,,,,,,
null,,color_black,487113,black_plus_sign,,,,null,,,,,,,,,,,,,,
null,,learn_phase(without_color),489122,black_plus_sign,,,,null,GW/hat.jpg,GW/globe.jpg,,,,,,,,,,,,
null,,black_cross(without_color),489986,blue,,,,null,GW/hat.jpg,GW/globe.jpg,,,,,,,,,,,,
null,,rt_plussign_withcolor,490489,blue,,,,null,GW/hat.jpg,GW/globe.jpg,,,,,,,,,,,,
1729.6000000089407,,rt_thecrossant_black,491658,black_plus_sign,,,,49,,,1,1,,,,,,,,,,
null,,color_black,491768,black_plus_sign,,,,null,,,,,,,,,,,,,,
null,,learn_phase(without_color),493779,black_plus_sign,,,,null,GW/teeth.jpg,GW/hat.jpg,,,,,,,,,,,,
null,,black_cross(without_color),494811,green,,,,null,GW/teeth.jpg,GW/hat.jpg,,,,,,,,,,,,
null,,rt_plussign_withcolor,495321,green,,,,null,GW/teeth.jpg,GW/hat.jpg,,,,,,,,,,,,
1633.7999999970198,,rt_thecrossant_black,496322,black_plus_sign,,,,50,,,1,1,,,,,,,,,,
null,,color_black,496432,black_plus_sign,,,,null,,,,,,,,,,,,,,
null,,learn_phase(without_color),498442,black_plus_sign,,,,null,GW/barrel.jpg,GW/wheelchair.jpg,,,,,,,,,,,,
null,,black_cross(without_color),499031,green,,,,null,GW/barrel.jpg,GW/wheelchair.jpg,,,,,,,,,,,,
null,,rt_plussign_withcolor,499536,green,,,,null,GW/barrel.jpg,GW/wheelchair.jpg,,,,,,,,,,,,
1409.5999999940395,,rt_thecrossant_black,500964,black_plus_sign,,,,50,,,1,1,,,,,,,,,,
null,,color_black,501071,black_plus_sign,,,,null,,,,,,,,,,,,,,
null,,learn_phase(without_color),503078,black_plus_sign,,,,null,GW/hat.jpg,GW/basket.jpg,,,,,,,,,,,,
null,,black_cross(without_color),503676,green,,,,null,GW/hat.jpg,GW/basket.jpg,,,,,,,,,,,,
null,,rt_plussign_withcolor,504184,green,,,,null,GW/hat.jpg,GW/basket.jpg,,,,,,,,,,,,
1533,,rt_thecrossant_black,505603,black_plus_sign,,,,50,,,1,1,,,,,,,,,,
null,,color_black,505711,black_plus_sign,,,,null,,,,,,,,,,,,,,
null,,learn_phase(without_color),507721,black_plus_sign,,,,null,GW/paint.jpg,GW/barrel.jpg,,,,,,,,,,,,
null,,black_cross(without_color),508321,blue,,,,null,GW/paint.jpg,GW/barrel.jpg,,,,,,,,,,,,
null,,rt_plussign_withcolor,508832,blue,,,,null,GW/paint.jpg,GW/barrel.jpg,,,,,,,,,,,,
978.2000000029802,,rt_thecrossant_black,510256,black_plus_sign,,,,49,,,1,1,,,,,,,,,,
null,,color_black,510365,black_plus_sign,,,,null,,,,,,,,,,,,,,
null,,learn_phase(without_color),512372,black_plus_sign,,,,null,GW/globe.jpg,GW/paint.jpg,,,,,,,,,,,,
null,,black_cross(without_color),513229,green,,,,null,GW/globe.jpg,GW/paint.jpg,,,,,,,,,,,,
null,,rt_plussign_withcolor,513741,green,,,,null,GW/globe.jpg,GW/paint.jpg,,,,,,,,,,,,
852,,rt_thecrossant_black,514912,black_plus_sign,,,,50,,,1,1,,,,,,,,,,
null,,color_black,515025,black_plus_sign,,,,null,,,,,,,,,,,,,,
null,,learn_phase(without_color),517037,black_plus_sign,,,,null,GW/soldier.jpg,GW/camera.jpg,,,,,,,,,,,,
null,,black_cross(without_color),517815,blue,,,,null,GW/soldier.jpg,GW/camera.jpg,,,,,,,,,,,,
491.29999999701977,,rt_plussign_withcolor,518317,blue,,,,49,GW/soldier.jpg,GW/camera.jpg,,,,,,,,,,,,
null,,rt_thecrossant_black,519547,black_plus_sign,,,,null,,,1,1,,,,,,,,,,
null,,color_black,519664,black_plus_sign,,,,null,,,,,,,,,,,,,,
null,,learn_phase(without_color),521668,black_plus_sign,,,,null,GW/barrel.jpg,GW/snail.jpg,,,,,,,,,,,,
null,,black_cross(without_color),522241,green,,,,null,GW/barrel.jpg,GW/snail.jpg,,,,,,,,,,,,
null,,rt_plussign_withcolor,522749,green,,,,null,GW/barrel.jpg,GW/snail.jpg,,,,,,,,,,,,
1034.8999999910593,,rt_thecrossant_black,524194,black_plus_sign,,,,50,,,1,1,,,,,,,,,,
null,,color_black,524303,black_plus_sign,,,,null,,,,,,,,,,,,,,
null,,learn_phase(without_color),526309,black_plus_sign,,,,null,GW/jukebox.jpg,GW/gong.jpg,,,,,,,,,,,,
null,,black_cross(without_color),526885,green,,,,null,GW/jukebox.jpg,GW/gong.jpg,,,,,,,,,,,,
null,,rt_plussign_withcolor,527403,green,,,,null,GW/jukebox.jpg,GW/gong.jpg,,,,,,,,,,,,
1094.2000000029802,,rt_thecrossant_black,528848,black_plus_sign,,,,50,,,1,1,,,,,,,,,,
null,,color_black,528956,black_plus_sign,,,,null,,,,,,,,,,,,,,
null,,learn_phase(without_color),530967,black_plus_sign,,,,null,GW/basket.jpg,GW/gong.jpg,,,,,,,,,,,,
null,,black_cross(without_color),531682,green,,,,null,GW/basket.jpg,GW/gong.jpg,,,,,,,,,,,,
null,,rt_plussign_withcolor,532192,green,,,,null,GW/basket.jpg,GW/gong.jpg,,,,,,,,,,,,
1161.4000000059605,,rt_thecrossant_black,533496,black_plus_sign,,,,50,,,1,1,,,,,,,,,,
null,,color_black,533605,black_plus_sign,,,,null,,,,,,,,,,,,,,
null,,learn_phase(without_color),535612,black_plus_sign,,,,null,GW/teeth.jpg,GW/hat.jpg,,,,,,,,,,,,
null,,black_cross(without_color),536327,blue,,,,null,GW/teeth.jpg,GW/hat.jpg,,,,,,,,,,,,
null,,rt_plussign_withcolor,536831,blue,,,,null,GW/teeth.jpg,GW/hat.jpg,,,,,,,,,,,,
1073.2999999970198,,rt_thecrossant_black,538133,black_plus_sign,,,,49,,,1,1,,,,,,,,,,
null,,color_black,538242,black_plus_sign,,,,null,,,,,,,,,,,,,,
null,,learn_phase(without_color),540253,black_plus_sign,,,,null,GW/paint.jpg,GW/barrel.jpg,,,,,,,,,,,,
null,,black_cross(without_color),540893,green,,,,null,GW/paint.jpg,GW/barrel.jpg,,,,,,,,,,,,
null,,rt_plussign_withcolor,541396,green,,,,null,GW/paint.jpg,GW/barrel.jpg,,,,,,,,,,,,
1386.7999999970198,,rt_thecrossant_black,542766,black_plus_sign,,,,50,,,1,1,,,,,,,,,,
null,,color_black,542875,black_plus_sign,,,,null,,,,,,,,,,,,,,
null,,learn_phase(without_color),544879,black_plus_sign,,,,null,GW/barrel.jpg,GW/wheelchair.jpg,,,,,,,,,,,,
null,,black_cross(without_color),545625,blue,,,,null,GW/barrel.jpg,GW/wheelchair.jpg,,,,,,,,,,,,
null,,rt_plussign_withcolor,546132,blue,,,,null,GW/barrel.jpg,GW/wheelchair.jpg,,,,,,,,,,,,
777.9000000059605,,rt_thecrossant_black,547402,black_plus_sign,,,,49,,,1,1,,,,,,,,,,
null,,color_black,547511,black_plus_sign,,,,null,,,,,,,,,,,,,,
null,,learn_phase(without_color),549521,black_plus_sign,,,,null,GW/barrel.jpg,GW/snail.jpg,,,,,,,,,,,,
null,,black_cross(without_color),549999,green,,,,null,GW/barrel.jpg,GW/snail.jpg,,,,,,,,,,,,
null,,rt_plussign_withcolor,550503,green,,,,null,GW/barrel.jpg,GW/snail.jpg,,,,,,,,,,,,
1381.5,,rt_thecrossant_black,552046,black_plus_sign,,,,50,,,1,1,,,,,,,,,,
null,,color_black,552164,black_plus_sign,,,,null,,,,,,,,,,,,,,
null,,learn_phase(without_color),554170,black_plus_sign,,,,null,GW/jukebox.jpg,GW/gong.jpg,,,,,,,,,,,,
null,,black_cross(without_color),555045,green,,,,null,GW/jukebox.jpg,GW/gong.jpg,,,,,,,,,,,,
null,,rt_plussign_withcolor,555556,green,,,,null,GW/jukebox.jpg,GW/gong.jpg,,,,,,,,,,,,
574.8999999910593,,rt_thecrossant_black,556698,black_plus_sign,,,,50,,,1,1,,,,,,,,,,
null,,color_black,556806,black_plus_sign,,,,null,,,,,,,,,,,,,,
null,,learn_phase(without_color),558811,black_plus_sign,,,,null,GW/teeth.jpg,GW/hat.jpg,,,,,,,,,,,,
null,,black_cross(without_color),559345,blue,,,,null,GW/teeth.jpg,GW/hat.jpg,,,,,,,,,,,,
null,,rt_plussign_withcolor,559862,blue,,,,null,GW/teeth.jpg,GW/hat.jpg,,,,,,,,,,,,
1162.5,,rt_thecrossant_black,561359,black_plus_sign,,,,50,,,0,0.9473684210526315,,,,,,,,,,
null,,color_black,561468,black_plus_sign,,,,null,,,,,,,,,,,,,,
null,,learn_phase(without_color),563472,black_plus_sign,,,,null,GW/globe.jpg,GW/paint.jpg,,,,,,,,,,,,
null,,black_cross(without_color),564349,blue,,,,null,GW/globe.jpg,GW/paint.jpg,,,,,,,,,,,,
null,,rt_plussign_withcolor,564866,blue,,,,null,GW/globe.jpg,GW/paint.jpg,,,,,,,,,,,,
1040.0999999940395,,rt_thecrossant_black,566025,black_plus_sign,,,,49,,,1,0.95,,,,,,,,,,
null,,color_black,566132,black_plus_sign,,,,null,,,,,,,,,,,,,,
null,,learn_phase(without_color),568141,black_plus_sign,,,,null,GW/barrel.jpg,GW/wheelchair.jpg,,,,,,,,,,,,
null,,black_cross(without_color),568682,green,,,,null,GW/barrel.jpg,GW/wheelchair.jpg,,,,,,,,,,,,
null,,rt_plussign_withcolor,569191,green,,,,null,GW/barrel.jpg,GW/wheelchair.jpg,,,,,,,,,,,,
1509,,rt_thecrossant_black,570672,black_plus_sign,,,,50,,,1,0.9523809523809523,,,,,,,,,,
null,,color_black,570782,black_plus_sign,,,,null,,,,,,,,,,,,,,
null,,learn_phase(without_color),572786,black_plus_sign,,,,null,GW/paint.jpg,GW/barrel.jpg,,,,,,,,,,,,
null,,black_cross(without_color),573425,green,,,,null,GW/paint.jpg,GW/barrel.jpg,,,,,,,,,,,,
null,,rt_plussign_withcolor,573931,green,,,,null,GW/paint.jpg,GW/barrel.jpg,,,,,,,,,,,,
855.5,,rt_thecrossant_black,575309,black_plus_sign,,,,50,,,1,0.9545454545454546,,,,,,,,,,
null,,color_black,575418,black_plus_sign,,,,null,,,,,,,,,,,,,,
null,,learn_phase(without_color),577422,black_plus_sign,,,,null,GW/barrel.jpg,GW/wheelchair.jpg,,,,,,,,,,,,
null,,black_cross(without_color),578190,green,,,,null,GW/barrel.jpg,GW/wheelchair.jpg,,,,,,,,,,,,
null,,rt_plussign_withcolor,578698,green,,,,null,GW/barrel.jpg,GW/wheelchair.jpg,,,,,,,,,,,,
965,,rt_thecrossant_black,579952,black_plus_sign,,,,50,,,1,0.9565217391304348,,,,,,,,,,
null,,color_black,580069,black_plus_sign,,,,null,,,,,,,,,,,,,,
null,,learn_phase(without_color),582077,black_plus_sign,,,,null,GW/globe.jpg,GW/paint.jpg,,,,,,,,,,,,
null,,black_cross(without_color),582918,blue,,,,null,GW/globe.jpg,GW/paint.jpg,,,,,,,,,,,,
null,,rt_plussign_withcolor,583426,blue,,,,null,GW/globe.jpg,GW/paint.jpg,,,,,,,,,,,,
1148.6000000089407,,rt_thecrossant_black,584606,black_plus_sign,,,,49,,,1,0.9583333333333334,,,,,,,,,,
null,,color_black,584714,black_plus_sign,,,,null,,,,,,,,,,,,,,
null,,learn_phase(without_color),586724,black_plus_sign,,,,null,GW/paint.jpg,GW/snail.jpg,,,,,,,,,,,,
null,,black_cross(without_color),587765,green,,,,null,GW/paint.jpg,GW/snail.jpg,,,,,,,,,,,,
null,,rt_plussign_withcolor,588275,green,,,,null,GW/paint.jpg,GW/snail.jpg,,,,,,,,,,,,
1512.0999999940395,,rt_thecrossant_black,589245,black_plus_sign,,,,50,,,1,0.96,,,,,,,,,,
null,,color_black,589357,black_plus_sign,,,,null,,,,,,,,,,,,,,
null,,learn_phase(without_color),591367,black_plus_sign,,,,null,GW/teeth.jpg,GW/hat.jpg,,,,,,,,,,,,
null,,black_cross(without_color),592201,blue,,,,null,GW/teeth.jpg,GW/hat.jpg,,,,,,,,,,,,
null,,rt_plussign_withcolor,592713,blue,,,,null,GW/teeth.jpg,GW/hat.jpg,,,,,,,,,,,,
1547.5,,rt_thecrossant_black,593897,black_plus_sign,,,,49,,,1,0.9615384615384616,,,,,,,,,,
null,,color_black,594006,black_plus_sign,,,,null,,,,,,,,,,,,,,
null,,learn_phase(without_color),596010,black_plus_sign,,,,null,GW/basket.jpg,GW/gong.jpg,,,,,,,,,,,,
null,,black_cross(without_color),596473,green,,,,null,GW/basket.jpg,GW/gong.jpg,,,,,,,,,,,,
null,,rt_plussign_withcolor,596982,green,,,,null,GW/basket.jpg,GW/gong.jpg,,,,,,,,,,,,
1043.7999999970198,,rt_thecrossant_black,598541,black_plus_sign,,,,50,,,1,0.9629629629629629,,,,,,,,,,
null,,color_black,598658,black_plus_sign,,,,null,,,,,,,,,,,,,,
null,,learn_phase(without_color),600669,black_plus_sign,,,,null,GW/basket.jpg,GW/dustpan.jpg,,,,,,,,,,,,
null,,black_cross(without_color),601328,blue,,,,null,GW/basket.jpg,GW/dustpan.jpg,,,,,,,,,,,,
null,,rt_plussign_withcolor,601841,blue,,,,null,GW/basket.jpg,GW/dustpan.jpg,,,,,,,,,,,,
575.5,,rt_thecrossant_black,603215,black_plus_sign,,,,49,,,1,0.9642857142857143,,,,,,,,,,
null,,color_black,603322,black_plus_sign,,,,null,,,,,,,,,,,,,,
null,,learn_phase(without_color),605333,black_plus_sign,,,,null,GW/barrel.jpg,GW/soldier.jpg,,,,,,,,,,,,
null,,black_cross(without_color),606436,blue,,,,null,GW/barrel.jpg,GW/soldier.jpg,,,,,,,,,,,,
null,,rt_plussign_withcolor,606938,blue,,,,null,GW/barrel.jpg,GW/soldier.jpg,,,,,,,,,,,,
768.5999999940395,,rt_thecrossant_black,607857,black_plus_sign,,,,49,,,1,0.9655172413793104,,,,,,,,,,
null,,color_black,607974,black_plus_sign,,,,null,,,,,,,,,,,,,,
null,,learn_phase(without_color),609979,black_plus_sign,,,,null,GW/soldier.jpg,GW/camera.jpg,,,,,,,,,,,,
null,,black_cross(without_color),610620,blue,,,,null,GW/soldier.jpg,GW/camera.jpg,,,,,,,,,,,,
null,,rt_plussign_withcolor,611125,blue,,,,null,GW/soldier.jpg,GW/camera.jpg,,,,,,,,,,,,
1456.2000000029802,,rt_thecrossant_black,612503,black_plus_sign,,,,49,,,1,0.9666666666666667,,,,,,,,,,
null,,color_black,612621,black_plus_sign,,,,null,,,,,,,,,,,,,,
null,,learn_phase(without_color),614629,black_plus_sign,,,,null,GW/hat.jpg,GW/basket.jpg,,,,,,,,,,,,
null,,black_cross(without_color),615070,green,,,,null,GW/hat.jpg,GW/basket.jpg,,,,,,,,,,,,
null,,rt_plussign_withcolor,615582,green,,,,null,GW/hat.jpg,GW/basket.jpg,,,,,,,,,,,,
976.7000000029802,,rt_thecrossant_black,617159,black_plus_sign,,,,50,,,1,0.967741935483871,,,,,,,,,,
null,,color_black,617275,black_plus_sign,,,,null,,,,,,,,,,,,,,
null,,learn_phase(without_color),619284,black_plus_sign,,,,null,GW/globe.jpg,GW/jukebox.jpg,,,,,,,,,,,,
null,,black_cross(without_color),619721,blue,,,,null,GW/globe.jpg,GW/jukebox.jpg,,,,,,,,,,,,
null,,rt_plussign_withcolor,620229,blue,,,,null,GW/globe.jpg,GW/jukebox.jpg,,,,,,,,,,,,
1185.4000000059605,,rt_thecrossant_black,621813,black_plus_sign,,,,49,,,1,0.96875,,,,,,,,,,
null,,color_black,621922,black_plus_sign,,,,null,,,,,,,,,,,,,,
null,,learn_phase(without_color),623932,black_plus_sign,,,,null,GW/soldier.jpg,GW/camera.jpg,,,,,,,,,,,,
null,,black_cross(without_color),624552,blue,,,,null,GW/soldier.jpg,GW/camera.jpg,,,,,,,,,,,,
null,,rt_plussign_withcolor,625066,blue,,,,null,GW/soldier.jpg,GW/camera.jpg,,,,,,,,,,,,
891.5,,rt_thecrossant_black,626472,black_plus_sign,,,,49,,,1,0.9696969696969697,,,,,,,,,,
null,,color_black,626587,black_plus_sign,,,,null,,,,,,,,,,,,,,
null,,learn_phase(without_color),628594,black_plus_sign,,,,null,GW/paint.jpg,GW/barrel.jpg,,,,,,,,,,,,
null,,black_cross(without_color),629048,blue,,,,null,GW/paint.jpg,GW/barrel.jpg,,,,,,,,,,,,
null,,rt_plussign_withcolor,629556,blue,,,,null,GW/paint.jpg,GW/barrel.jpg,,,,,,,,,,,,
1009.2999999970198,,rt_thecrossant_black,631114,black_plus_sign,,,,49,,,1,0.9705882352941176,,,,,,,,,,
null,,color_black,631223,black_plus_sign,,,,null,,,,,,,,,,,,,,
null,,learn_phase(without_color),633227,black_plus_sign,,,,null,GW/paint.jpg,GW/snail.jpg,,,,,,,,,,,,
null,,black_cross(without_color),633922,blue,,,,null,GW/paint.jpg,GW/snail.jpg,,,,,,,,,,,,
null,,rt_plussign_withcolor,634425,blue,,,,null,GW/paint.jpg,GW/snail.jpg,,,,,,,,,,,,
762.9000000059605,,rt_thecrossant_black,635753,black_plus_sign,,,,49,,,1,0.9714285714285714,,,,,,,,,,
null,,color_black,635861,black_plus_sign,,,,null,,,,,,,,,,,,,,
null,,learn_phase(without_color),637867,black_plus_sign,,,,null,GW/basket.jpg,GW/dustpan.jpg,,,,,,,,,,,,
null,,black_cross(without_color),638425,blue,,,,null,GW/basket.jpg,GW/dustpan.jpg,,,,,,,,,,,,
null,,rt_plussign_withcolor,638929,blue,,,,null,GW/basket.jpg,GW/dustpan.jpg,,,,,,,,,,,,
825.8999999910593,,rt_thecrossant_black,640386,black_plus_sign,,,,49,,,1,0.9722222222222222,,,,,,,,,,
null,,color_black,640495,black_plus_sign,,,,null,,,,,,,,,,,,,,
null,,learn_phase(without_color),642500,black_plus_sign,,,,null,GW/globe.jpg,GW/paint.jpg,,,,,,,,,,,,
null,,black_cross(without_color),643267,blue,,,,null,GW/globe.jpg,GW/paint.jpg,,,,,,,,,,,,
null,,rt_plussign_withcolor,643773,blue,,,,null,GW/globe.jpg,GW/paint.jpg,,,,,,,,,,,,
699.8000000119209,,rt_thecrossant_black,645026,black_plus_sign,,,,49,,,1,0.972972972972973,,,,,,,,,,
null,,color_black,645142,black_plus_sign,,,,null,,,,,,,,,,,,,,
null,,learn_phase(without_color),647154,black_plus_sign,,,,null,GW/hat.jpg,GW/basket.jpg,,,,,,,,,,,,
null,,black_cross(without_color),647894,blue,,,,null,GW/hat.jpg,GW/basket.jpg,,,,,,,,,,,,
null,,rt_plussign_withcolor,648405,blue,,,,null,GW/hat.jpg,GW/basket.jpg,,,,,,,,,,,,
1070.4000000059605,,rt_thecrossant_black,649689,black_plus_sign,,,,49,,,1,0.9736842105263158,,,,,,,,,,
null,,color_black,649805,black_plus_sign,,,,null,,,,,,,,,,,,,,
null,,learn_phase(without_color),651813,black_plus_sign,,,,null,GW/paint.jpg,GW/barrel.jpg,,,,,,,,,,,,
null,,black_cross(without_color),652609,green,,,,null,GW/paint.jpg,GW/barrel.jpg,,,,,,,,,,,,
null,,rt_plussign_withcolor,653117,green,,,,null,GW/paint.jpg,GW/barrel.jpg,,,,,,,,,,,,
836.7999999970198,,rt_thecrossant_black,654345,black_plus_sign,,,,49,,,0,0.9487179487179487,,,,,,,,,,
null,,color_black,654455,black_plus_sign,,,,null,,,,,,,,,,,,,,
null,,learn_phase(without_color),656463,black_plus_sign,,,,null,GW/globe.jpg,GW/jukebox.jpg,,,,,,,,,,,,
null,,black_cross(without_color),657236,green,,,,null,GW/globe.jpg,GW/jukebox.jpg,,,,,,,,,,,,
null,,rt_plussign_withcolor,657746,green,,,,null,GW/globe.jpg,GW/jukebox.jpg,,,,,,,,,,,,
1004.5999999940395,,rt_thecrossant_black,658992,black_plus_sign,,,,50,,,1,0.95,,,,,,,,,,
null,,color_black,659109,black_plus_sign,,,,null,,,,,,,,,,,,,,
null,,learn_phase(without_color),661120,black_plus_sign,,,,null,GW/barrel.jpg,GW/soldier.jpg,,,,,,,,,,,,
null,,black_cross(without_color),662112,blue,,,,null,GW/barrel.jpg,GW/soldier.jpg,,,,,,,,,,,,
null,,rt_plussign_withcolor,662622,blue,,,,null,GW/barrel.jpg,GW/soldier.jpg,,,,,,,,,,,,
1233.7999999970198,,rt_thecrossant_black,663662,black_plus_sign,,,,49,,,1,0.9512195121951219,,,,,,,,,,
null,,color_black,663769,black_plus_sign,,,,null,,,,,,,,,,,,,,
null,,learn_phase(without_color),665780,black_plus_sign,,,,null,GW/barrel.jpg,GW/wheelchair.jpg,,,,,,,,,,,,
null,,black_cross(without_color),666292,green,,,,null,GW/barrel.jpg,GW/wheelchair.jpg,,,,,,,,,,,,
null,,rt_plussign_withcolor,666796,green,,,,null,GW/barrel.jpg,GW/wheelchair.jpg,,,,,,,,,,,,
1683.4000000059605,,rt_thecrossant_black,668306,black_plus_sign,,,,50,,,1,0.9523809523809523,,,,,,,,,,
null,,color_black,668415,black_plus_sign,,,,null,,,,,,,,,,,,,,
null,,learn_phase(without_color),670419,black_plus_sign,,,,null,GW/globe.jpg,GW/jukebox.jpg,,,,,,,,,,,,
null,,black_cross(without_color),670937,blue,,,,null,GW/globe.jpg,GW/jukebox.jpg,,,,,,,,,,,,
null,,rt_plussign_withcolor,671451,blue,,,,null,GW/globe.jpg,GW/jukebox.jpg,,,,,,,,,,,,
986.0999999940395,,rt_thecrossant_black,672962,black_plus_sign,,,,49,,,1,0.9534883720930233,,,,,,,,,,
null,,color_black,673072,black_plus_sign,,,,null,,,,,,,,,,,,,,
null,,learn_phase(without_color),675079,black_plus_sign,,,,null,GW/jukebox.jpg,GW/gong.jpg,,,,,,,,,,,,
null,,black_cross(without_color),675556,green,,,,null,GW/jukebox.jpg,GW/gong.jpg,,,,,,,,,,,,
null,,rt_plussign_withcolor,676072,green,,,,null,GW/jukebox.jpg,GW/gong.jpg,,,,,,,,,,,,
856.7000000029802,,rt_thecrossant_black,677607,black_plus_sign,,,,50,,,1,0.9545454545454546,,,,,,,,,,
null,,color_black,677723,black_plus_sign,,,,null,,,,,,,,,,,,,,
null,,learn_phase(without_color),679730,black_plus_sign,,,,null,GW/barrel.jpg,GW/snail.jpg,,,,,,,,,,,,
null,,black_cross(without_color),680349,blue,,,,null,GW/barrel.jpg,GW/snail.jpg,,,,,,,,,,,,
null,,rt_plussign_withcolor,680862,blue,,,,null,GW/barrel.jpg,GW/snail.jpg,,,,,,,,,,,,
593.5,,rt_thecrossant_black,682265,black_plus_sign,,,,49,,,1,0.9555555555555556,,,,,,,,,,
null,,color_black,682376,black_plus_sign,,,,null,,,,,,,,,,,,,,
null,,learn_phase(without_color),684387,black_plus_sign,,,,null,GW/hat.jpg,GW/globe.jpg,,,,,,,,,,,,
null,,black_cross(without_color),684832,blue,,,,null,GW/hat.jpg,GW/globe.jpg,,,,,,,,,,,,
null,,rt_plussign_withcolor,685344,blue,,,,null,GW/hat.jpg,GW/globe.jpg,,,,,,,,,,,,
1015.5,,rt_thecrossant_black,686935,black_plus_sign,,,,49,,,1,0.9565217391304348,,,,,,,,,,
null,,color_black,687046,black_plus_sign,,,,null,,,,,,,,,,,,,,
null,,learn_phase(without_color),689054,black_plus_sign,,,,null,GW/basket.jpg,GW/dustpan.jpg,,,,,,,,,,,,
null,,black_cross(without_color),689899,blue,,,,null,GW/basket.jpg,GW/dustpan.jpg,,,,,,,,,,,,
null,,rt_plussign_withcolor,690405,blue,,,,null,GW/basket.jpg,GW/dustpan.jpg,,,,,,,,,,,,
698,,rt_thecrossant_black,691582,black_plus_sign,,,,49,,,1,0.9574468085106383,,,,,,,,,,
null,,color_black,691689,black_plus_sign,,,,null,,,,,,,,,,,,,,
null,,learn_phase(without_color),693698,black_plus_sign,,,,null,GW/paint.jpg,GW/barrel.jpg,,,,,,,,,,,,
null,,black_cross(without_color),694565,green,,,,null,GW/paint.jpg,GW/barrel.jpg,,,,,,,,,,,,
null,,rt_plussign_withcolor,695072,green,,,,null,GW/paint.jpg,GW/barrel.jpg,,,,,,,,,,,,
1345.9000000059605,,rt_thecrossant_black,696222,black_plus_sign,,,,50,,,1,0.9583333333333334,,,,,,,,,,
null,,color_black,696332,black_plus_sign,,,,null,,,,,,,,,,,,,,
null,,learn_phase(without_color),698338,black_plus_sign,,,,null,GW/globe.jpg,GW/paint.jpg,,,,,,,,,,,,
null,,black_cross(without_color),698842,green,,,,null,GW/globe.jpg,GW/paint.jpg,,,,,,,,,,,,
null,,rt_plussign_withcolor,699345,green,,,,null,GW/globe.jpg,GW/paint.jpg,,,,,,,,,,,,
1394,,rt_thecrossant_black,700859,black_plus_sign,,,,50,,,1,0.9591836734693877,,,,,,,,,,
null,,color_black,700969,black_plus_sign,,,,null,,,,,,,,,,,,,,
null,,learn_phase(without_color),702978,black_plus_sign,,,,null,GW/paint.jpg,GW/snail.jpg,,,,,,,,,,,,
null,,black_cross(without_color),703953,green,,,,null,GW/paint.jpg,GW/snail.jpg,,,,,,,,,,,,
null,,rt_plussign_withcolor,704471,green,,,,null,GW/paint.jpg,GW/snail.jpg,,,,,,,,,,,,
751.9000000059605,,rt_thecrossant_black,705514,black_plus_sign,,,,50,,,1,0.96,,,,,,,,,,
null,,color_black,705625,black_plus_sign,,,,null,,,,,,,,,,,,,,
null,,learn_phase(without_color),707632,black_plus_sign,,,,null,GW/globe.jpg,GW/paint.jpg,,,,,,,,,,,,
null,,black_cross(without_color),708407,green,,,,null,GW/globe.jpg,GW/paint.jpg,,,,,,,,,,,,
null,,rt_plussign_withcolor,708919,green,,,,null,GW/globe.jpg,GW/paint.jpg,,,,,,,,,,,,
1221.6000000089407,,rt_thecrossant_black,710166,black_plus_sign,,,,50,,,1,0.9607843137254902,,,,,,,,,,
null,,color_black,710273,black_plus_sign,,,,null,,,,,,,,,,,,,,
null,,learn_phase(without_color),712279,black_plus_sign,,,,null,GW/soldier.jpg,GW/snail.jpg,,,,,,,,,,,,
null,,black_cross(without_color),712924,green,,,,null,GW/soldier.jpg,GW/snail.jpg,,,,,,,,,,,,
null,,rt_plussign_withcolor,713435,green,,,,null,GW/soldier.jpg,GW/snail.jpg,,,,,,,,,,,,
1526.7999999970198,,rt_thecrossant_black,714815,black_plus_sign,,,,50,,,1,0.9615384615384616,,,,,,,,,,
null,,color_black,714923,black_plus_sign,,,,null,,,,,,,,,,,,,,
null,,learn_phase(without_color),716927,black_plus_sign,,,,null,GW/hat.jpg,GW/globe.jpg,,,,,,,,,,,,
null,,black_cross(without_color),717937,green,,,,null,GW/hat.jpg,GW/globe.jpg,,,,,,,,,,,,
null,,rt_plussign_withcolor,718443,green,,,,null,GW/hat.jpg,GW/globe.jpg,,,,,,,,,,,,
1090.5999999940395,,rt_thecrossant_black,719449,black_plus_sign,,,,50,,,1,0.9622641509433962,,,,,,,,,,
null,,color_black,719558,black_plus_sign,,,,null,,,,,,,,,,,,,,
null,,learn_phase(without_color),721563,black_plus_sign,,,,null,GW/soldier.jpg,GW/snail.jpg,,,,,,,,,,,,
null,,black_cross(without_color),722650,blue,,,,null,GW/soldier.jpg,GW/snail.jpg,,,,,,,,,,,,
null,,rt_plussign_withcolor,723169,blue,,,,null,GW/soldier.jpg,GW/snail.jpg,,,,,,,,,,,,
1247.800000011921,,rt_thecrossant_black,724103,black_plus_sign,,,,49,,,1,0.9629629629629629,,,,,,,,,,
null,,color_black,724216,black_plus_sign,,,,null,,,,,,,,,,,,,,
null,,learn_phase(without_color),726221,black_plus_sign,,,,null,GW/globe.jpg,GW/jukebox.jpg,,,,,,,,,,,,
null,,black_cross(without_color),726998,green,,,,null,GW/globe.jpg,GW/jukebox.jpg,,,,,,,,,,,,
null,,rt_plussign_withcolor,727511,green,,,,null,GW/globe.jpg,GW/jukebox.jpg,,,,,,,,,,,,
1641.7999999970198,,rt_thecrossant_black,728748,black_plus_sign,,,,50,,,1,0.9636363636363636,,,,,,,,,,
null,,color_black,728866,black_plus_sign,,,,null,,,,,,,,,,,,,,
null,,learn_phase(without_color),730874,black_plus_sign,,,,null,GW/paint.jpg,GW/snail.jpg,,,,,,,,,,,,
null,,black_cross(without_color),731448,blue,,,,null,GW/paint.jpg,GW/snail.jpg,,,,,,,,,,,,
null,,rt_plussign_withcolor,731952,blue,,,,null,GW/paint.jpg,GW/snail.jpg,,,,,,,,,,,,
null,,rt_thecrossant_black,733402,black_plus_sign,,,,null,,,,0.9636363636363636,,,,,,,,,,
null,,color_black,733512,black_plus_sign,,,,null,,,,,,,,,,,,,,
null,,learn_phase(without_color),735517,black_plus_sign,,,,null,GW/paint.jpg,GW/barrel.jpg,,,,,,,,,,,,
null,,black_cross(without_color),736248,green,,,,null,GW/paint.jpg,GW/barrel.jpg,,,,,,,,,,,,
null,,rt_plussign_withcolor,736753,green,,,,null,GW/paint.jpg,GW/barrel.jpg,,,,,,,,,,,,
958.5,,rt_thecrossant_black,738032,black_plus_sign,,,,50,,,1,0.9642857142857143,,,,,,,,,,
null,,color_black,738142,black_plus_sign,,,,null,,,,,,,,,,,,,,
null,,learn_phase(without_color),740149,black_plus_sign,,,,null,GW/snail.jpg,GW/jukebox.jpg,,,,,,,,,,,,
null,,black_cross(without_color),740894,green,,,,null,GW/snail.jpg,GW/jukebox.jpg,,,,,,,,,,,,
null,,rt_plussign_withcolor,741412,green,,,,null,GW/snail.jpg,GW/jukebox.jpg,,,,,,,,,,,,
1181,,rt_thecrossant_black,742694,black_plus_sign,,,,50,,,1,0.9649122807017544,,,,,,,,,,
null,,color_black,742800,black_plus_sign,,,,null,,,,,,,,,,,,,,
null,,learn_phase(without_color),744803,black_plus_sign,,,,null,GW/soldier.jpg,GW/camera.jpg,,,,,,,,,,,,
null,,black_cross(without_color),745404,blue,,,,null,GW/soldier.jpg,GW/camera.jpg,,,,,,,,,,,,
null,,rt_plussign_withcolor,745912,blue,,,,null,GW/soldier.jpg,GW/camera.jpg,,,,,,,,,,,,
null,,rt_thecrossant_black,747334,black_plus_sign,,,,null,,,,0.9649122807017544,,,,,,,,,,
null,,color_black,747442,black_plus_sign,,,,null,,,,,,,,,,,,,,
null,,learn_phase(without_color),749448,black_plus_sign,,,,null,GW/snail.jpg,GW/jukebox.jpg,,,,,,,,,,,,
null,,black_cross(without_color),749940,green,,,,null,GW/snail.jpg,GW/jukebox.jpg,,,,,,,,,,,,
null,,rt_plussign_withcolor,750447,green,,,,null,GW/snail.jpg,GW/jukebox.jpg,,,,,,,,,,,,
null,,rt_thecrossant_black,751968,black_plus_sign,,,,null,,,,0.9649122807017544,,,,,,,,,,
null,,warning_page,754979,warning,,,,null,,,,,,,,,,,,,,
null,,color_black,755089,black_plus_sign,,,,null,,,,,,,,,,,,,,
null,,learn_phase(without_color),757092,black_plus_sign,,,,null,GW/basket.jpg,GW/dustpan.jpg,,,,,,,,,,,,
null,,black_cross(without_color),758164,blue,,,,null,GW/basket.jpg,GW/dustpan.jpg,,,,,,,,,,,,
null,,rt_plussign_withcolor,758676,blue,,,,null,GW/basket.jpg,GW/dustpan.jpg,,,,,,,,,,,,
1206.7999999970198,,rt_thecrossant_black,759620,black_plus_sign,,,,49,,,1,0.9655172413793104,,,,,,,,,,
null,,color_black,759738,black_plus_sign,,,,null,,,,,,,,,,,,,,
null,,learn_phase(without_color),761751,black_plus_sign,,,,null,GW/teeth.jpg,GW/hat.jpg,,,,,,,,,,,,
null,,black_cross(without_color),762807,blue,,,,null,GW/teeth.jpg,GW/hat.jpg,,,,,,,,,,,,
470.40000000596046,,rt_plussign_withcolor,763315,blue,,,,49,GW/teeth.jpg,GW/hat.jpg,,,,,,,,,,,,
null,,rt_thecrossant_black,764282,black_plus_sign,,,,null,,,1,0.9661016949152542,,,,,,,,,,
null,,color_black,764389,black_plus_sign,,,,null,,,,,,,,,,,,,,
null,,learn_phase(without_color),766396,black_plus_sign,,,,null,GW/basket.jpg,GW/gong.jpg,,,,,,,,,,,,
null,,black_cross(without_color),767315,green,,,,null,GW/basket.jpg,GW/gong.jpg,,,,,,,,,,,,
361.6000000089407,,rt_plussign_withcolor,767817,green,,,,49,GW/basket.jpg,GW/gong.jpg,,,,,,,,,,,,
null,,rt_thecrossant_black,768919,black_plus_sign,,,,50,,,0,0.95,,,,,,,,,,
null,,color_black,769028,black_plus_sign,,,,null,,,,,,,,,,,,,,
null,,learn_phase(without_color),771033,black_plus_sign,,,,null,GW/basket.jpg,GW/dustpan.jpg,,,,,,,,,,,,
null,,black_cross(without_color),771751,green,,,,null,GW/basket.jpg,GW/dustpan.jpg,,,,,,,,,,,,
null,,rt_plussign_withcolor,772266,green,,,,null,GW/basket.jpg,GW/dustpan.jpg,,,,,,,,,,,,
1193,,rt_thecrossant_black,773569,black_plus_sign,,,,50,,,1,0.9508196721311475,,,,,,,,,,
null,,color_black,773678,black_plus_sign,,,,null,,,,,,,,,,,,,,
null,,learn_phase(without_color),775683,black_plus_sign,,,,null,GW/soldier.jpg,GW/camera.jpg,,,,,,,,,,,,
null,,black_cross(without_color),776472,green,,,,null,GW/soldier.jpg,GW/camera.jpg,,,,,,,,,,,,
null,,rt_plussign_withcolor,776988,green,,,,null,GW/soldier.jpg,GW/camera.jpg,,,,,,,,,,,,
1151.8999999910593,,rt_thecrossant_black,778228,black_plus_sign,,,,50,,,1,0.9516129032258065,,,,,,,,,,
null,,color_black,778336,black_plus_sign,,,,null,,,,,,,,,,,,,,
null,,learn_phase(without_color),780346,black_plus_sign,,,,null,GW/barrel.jpg,GW/wheelchair.jpg,,,,,,,,,,,,
null,,black_cross(without_color),781203,green,,,,null,GW/barrel.jpg,GW/wheelchair.jpg,,,,,,,,,,,,
null,,rt_plussign_withcolor,781719,green,,,,null,GW/barrel.jpg,GW/wheelchair.jpg,,,,,,,,,,,,
966.2999999970198,,rt_thecrossant_black,782889,black_plus_sign,,,,50,,,1,0.9523809523809523,,,,,,,,,,
null,,color_black,782998,black_plus_sign,,,,null,,,,,,,,,,,,,,
null,,learn_phase(without_color),785003,black_plus_sign,,,,null,GW/jukebox.jpg,GW/gong.jpg,,,,,,,,,,,,
null,,black_cross(without_color),785639,green,,,,null,GW/jukebox.jpg,GW/gong.jpg,,,,,,,,,,,,
null,,rt_plussign_withcolor,786142,green,,,,null,GW/jukebox.jpg,GW/gong.jpg,,,,,,,,,,,,
1251.5,,rt_thecrossant_black,787536,black_plus_sign,,,,50,,,1,0.953125,,,,,,,,,,
null,,color_black,787654,black_plus_sign,,,,null,,,,,,,,,,,,,,
null,,learn_phase(without_color),789666,black_plus_sign,,,,null,GW/soldier.jpg,GW/snail.jpg,,,,,,,,,,,,
null,,black_cross(without_color),790265,blue,,,,null,GW/soldier.jpg,GW/snail.jpg,,,,,,,,,,,,
null,,rt_plussign_withcolor,790772,blue,,,,null,GW/soldier.jpg,GW/snail.jpg,,,,,,,,,,,,
948.7999999970198,,rt_thecrossant_black,792199,black_plus_sign,,,,49,,,1,0.9538461538461539,,,,,,,,,,
null,,color_black,792308,black_plus_sign,,,,null,,,,,,,,,,,,,,
null,,learn_phase(without_color),794312,black_plus_sign,,,,null,GW/paint.jpg,GW/snail.jpg,,,,,,,,,,,,
null,,black_cross(without_color),795016,blue,,,,null,GW/paint.jpg,GW/snail.jpg,,,,,,,,,,,,
null,,rt_plussign_withcolor,795520,blue,,,,null,GW/paint.jpg,GW/snail.jpg,,,,,,,,,,,,
777.5,,rt_thecrossant_black,796833,black_plus_sign,,,,49,,,1,0.9545454545454546,,,,,,,,,,
null,,color_black,796942,black_plus_sign,,,,null,,,,,,,,,,,,,,
null,,learn_phase(without_color),798949,black_plus_sign,,,,null,GW/jukebox.jpg,GW/gong.jpg,,,,,,,,,,,,
null,,black_cross(without_color),799676,green,,,,null,GW/jukebox.jpg,GW/gong.jpg,,,,,,,,,,,,
null,,rt_plussign_withcolor,800193,green,,,,null,GW/jukebox.jpg,GW/gong.jpg,,,,,,,,,,,,
1047.9000000059605,,rt_thecrossant_black,801493,black_plus_sign,,,,50,,,1,0.9552238805970149,,,,,,,,,,
null,,color_black,801602,black_plus_sign,,,,null,,,,,,,,,,,,,,
null,,learn_phase(without_color),803610,black_plus_sign,,,,null,GW/teeth.jpg,GW/hat.jpg,,,,,,,,,,,,
null,,black_cross(without_color),804113,blue,,,,null,GW/teeth.jpg,GW/hat.jpg,,,,,,,,,,,,
null,,rt_plussign_withcolor,804626,blue,,,,null,GW/teeth.jpg,GW/hat.jpg,,,,,,,,,,,,
908.2000000029802,,rt_thecrossant_black,806148,black_plus_sign,,,,49,,,1,0.9558823529411765,,,,,,,,,,
null,,color_black,806265,black_plus_sign,,,,null,,,,,,,,,,,,,,
null,,learn_phase(without_color),808282,black_plus_sign,,,,null,GW/soldier.jpg,GW/camera.jpg,,,,,,,,,,,,
null,,black_cross(without_color),809151,green,,,,null,GW/soldier.jpg,GW/camera.jpg,,,,,,,,,,,,
null,,rt_plussign_withcolor,809663,green,,,,null,GW/soldier.jpg,GW/camera.jpg,,,,,,,,,,,,
795.5,,rt_thecrossant_black,810808,black_plus_sign,,,,50,,,1,0.9565217391304348,,,,,,,,,,
null,,color_black,810916,black_plus_sign,,,,null,,,,,,,,,,,,,,
null,,learn_phase(without_color),812929,black_plus_sign,,,,null,GW/barrel.jpg,GW/snail.jpg,,,,,,,,,,,,
null,,black_cross(without_color),814025,green,,,,null,GW/barrel.jpg,GW/snail.jpg,,,,,,,,,,,,
null,,rt_plussign_withcolor,814533,green,,,,null,GW/barrel.jpg,GW/snail.jpg,,,,,,,,,,,,
969,,rt_thecrossant_black,815452,black_plus_sign,,,,50,,,1,0.9571428571428572,,,,,,,,,,
null,,color_black,815562,black_plus_sign,,,,null,,,,,,,,,,,,,,
null,,learn_phase(without_color),817572,black_plus_sign,,,,null,GW/jukebox.jpg,GW/gong.jpg,,,,,,,,,,,,
null,,black_cross(without_color),818096,green,,,,null,GW/jukebox.jpg,GW/gong.jpg,,,,,,,,,,,,
null,,rt_plussign_withcolor,818603,green,,,,null,GW/jukebox.jpg,GW/gong.jpg,,,,,,,,,,,,
1418.0999999940395,,rt_thecrossant_black,820092,black_plus_sign,,,,50,,,1,0.9577464788732394,,,,,,,,,,
null,,color_black,820208,black_plus_sign,,,,null,,,,,,,,,,,,,,
null,,learn_phase(without_color),822214,black_plus_sign,,,,null,GW/snail.jpg,GW/jukebox.jpg,,,,,,,,,,,,
null,,black_cross(without_color),823052,green,,,,null,GW/snail.jpg,GW/jukebox.jpg,,,,,,,,,,,,
null,,rt_plussign_withcolor,823562,green,,,,null,GW/snail.jpg,GW/jukebox.jpg,,,,,,,,,,,,
686.5999999940395,,rt_thecrossant_black,824744,black_plus_sign,,,,50,,,1,0.9583333333333334,,,,,,,,,,
null,,color_black,824856,black_plus_sign,,,,null,,,,,,,,,,,,,,
null,,learn_phase(without_color),826868,black_plus_sign,,,,null,GW/soldier.jpg,GW/snail.jpg,,,,,,,,,,,,
null,,black_cross(without_color),827912,green,,,,null,GW/soldier.jpg,GW/snail.jpg,,,,,,,,,,,,
null,,rt_plussign_withcolor,828416,green,,,,null,GW/soldier.jpg,GW/snail.jpg,,,,,,,,,,,,
1009.4000000059605,,rt_thecrossant_black,829399,black_plus_sign,,,,50,,,1,0.958904109589041,,,,,,,,,,
null,,color_black,829519,black_plus_sign,,,,null,,,,,,,,,,,,,,
null,,learn_phase(without_color),831527,black_plus_sign,,,,null,GW/hat.jpg,GW/basket.jpg,,,,,,,,,,,,
null,,black_cross(without_color),832146,blue,,,,null,GW/hat.jpg,GW/basket.jpg,,,,,,,,,,,,
null,,rt_plussign_withcolor,832663,blue,,,,null,GW/hat.jpg,GW/basket.jpg,,,,,,,,,,,,
1362.5,,rt_thecrossant_black,834056,black_plus_sign,,,,49,,,1,0.9594594594594594,,,,,,,,,,
null,,color_black,834165,black_plus_sign,,,,null,,,,,,,,,,,,,,
null,,learn_phase(without_color),836171,black_plus_sign,,,,null,GW/snail.jpg,GW/jukebox.jpg,,,,,,,,,,,,
null,,black_cross(without_color),836986,blue,,,,null,GW/snail.jpg,GW/jukebox.jpg,,,,,,,,,,,,
null,,rt_plussign_withcolor,837497,blue,,,,null,GW/snail.jpg,GW/jukebox.jpg,,,,,,,,,,,,
943.7999999970198,,rt_thecrossant_black,838699,black_plus_sign,,,,49,,,1,0.96,,,,,,,,,,
null,,color_black,838808,black_plus_sign,,,,null,,,,,,,,,,,,,,
null,,learn_phase(without_color),840815,black_plus_sign,,,,null,GW/barrel.jpg,GW/snail.jpg,,,,,,,,,,,,
null,,black_cross(without_color),841894,green,,,,null,GW/barrel.jpg,GW/snail.jpg,,,,,,,,,,,,
null,,rt_plussign_withcolor,842409,green,,,,null,GW/barrel.jpg,GW/snail.jpg,,,,,,,,,,,,
951.7000000029802,,rt_thecrossant_black,843349,black_plus_sign,,,,50,,,1,0.9605263157894737,,,,,,,,,,
null,,color_black,843465,black_plus_sign,,,,null,,,,,,,,,,,,,,
null,,learn_phase(without_color),845476,black_plus_sign,,,,null,GW/basket.jpg,GW/dustpan.jpg,,,,,,,,,,,,
null,,black_cross(without_color),846072,green,,,,null,GW/basket.jpg,GW/dustpan.jpg,,,,,,,,,,,,
null,,rt_plussign_withcolor,846583,green,,,,null,GW/basket.jpg,GW/dustpan.jpg,,,,,,,,,,,,
1637.1000000089407,,rt_thecrossant_black,848013,black_plus_sign,,,,50,,,1,0.961038961038961,,,,,,,,,,
null,,color_black,848129,black_plus_sign,,,,null,,,,,,,,,,,,,,
null,,learn_phase(without_color),850137,black_plus_sign,,,,null,GW/barrel.jpg,GW/soldier.jpg,,,,,,,,,,,,
null,,black_cross(without_color),850931,blue,,,,null,GW/barrel.jpg,GW/soldier.jpg,,,,,,,,,,,,
null,,rt_plussign_withcolor,851435,blue,,,,null,GW/barrel.jpg,GW/soldier.jpg,,,,,,,,,,,,
875.2000000029802,,rt_thecrossant_black,852666,black_plus_sign,,,,49,,,1,0.9615384615384616,,,,,,,,,,
null,,color_black,852775,black_plus_sign,,,,null,,,,,,,,,,,,,,
null,,learn_phase(without_color),854786,black_plus_sign,,,,null,GW/soldier.jpg,GW/camera.jpg,,,,,,,,,,,,
null,,black_cross(without_color),855589,green,,,,null,GW/soldier.jpg,GW/camera.jpg,,,,,,,,,,,,
null,,rt_plussign_withcolor,856092,green,,,,null,GW/soldier.jpg,GW/camera.jpg,,,,,,,,,,,,
1392.5999999940395,,rt_thecrossant_black,857311,black_plus_sign,,,,50,,,1,0.9620253164556962,,,,,,,,,,
null,,color_black,857419,black_plus_sign,,,,null,,,,,,,,,,,,,,
null,,learn_phase(without_color),859427,black_plus_sign,,,,null,GW/snail.jpg,GW/jukebox.jpg,,,,,,,,,,,,
null,,black_cross(without_color),859893,blue,,,,null,GW/snail.jpg,GW/jukebox.jpg,,,,,,,,,,,,
null,,rt_plussign_withcolor,860398,blue,,,,null,GW/snail.jpg,GW/jukebox.jpg,,,,,,,,,,,,
1028.8999999910593,,rt_thecrossant_black,861955,black_plus_sign,,,,49,,,1,0.9625,,,,,,,,,,
null,,color_black,862066,black_plus_sign,,,,null,,,,,,,,,,,,,,
null,,learn_phase(without_color),864072,black_plus_sign,,,,null,GW/hat.jpg,GW/basket.jpg,,,,,,,,,,,,
null,,black_cross(without_color),864924,blue,,,,null,GW/hat.jpg,GW/basket.jpg,,,,,,,,,,,,
null,,rt_plussign_withcolor,865429,blue,,,,null,GW/hat.jpg,GW/basket.jpg,,,,,,,,,,,,
666.6000000089407,,rt_thecrossant_black,866605,black_plus_sign,,,,49,,,1,0.9629629629629629,,,,,,,,,,
null,,color_black,866716,black_plus_sign,,,,null,,,,,,,,,,,,,,
null,,learn_phase(without_color),868722,black_plus_sign,,,,null,GW/jukebox.jpg,GW/gong.jpg,,,,,,,,,,,,
null,,black_cross(without_color),869335,green,,,,null,GW/jukebox.jpg,GW/gong.jpg,,,,,,,,,,,,
null,,rt_plussign_withcolor,869843,green,,,,null,GW/jukebox.jpg,GW/gong.jpg,,,,,,,,,,,,
957.4000000059605,,rt_thecrossant_black,871245,black_plus_sign,,,,50,,,1,0.9634146341463414,,,,,,,,,,
null,,color_black,871356,black_plus_sign,,,,null,,,,,,,,,,,,,,
null,,learn_phase(without_color),873364,black_plus_sign,,,,null,GW/hat.jpg,GW/globe.jpg,,,,,,,,,,,,
null,,black_cross(without_color),873819,blue,,,,null,GW/hat.jpg,GW/globe.jpg,,,,,,,,,,,,
null,,rt_plussign_withcolor,874322,blue,,,,null,GW/hat.jpg,GW/globe.jpg,,,,,,,,,,,,
875,,rt_thecrossant_black,875895,black_plus_sign,,,,49,,,1,0.963855421686747,,,,,,,,,,
null,,color_black,876014,black_plus_sign,,,,null,,,,,,,,,,,,,,
null,,learn_phase(without_color),878025,black_plus_sign,,,,null,GW/barrel.jpg,GW/soldier.jpg,,,,,,,,,,,,
null,,black_cross(without_color),879092,blue,,,,null,GW/barrel.jpg,GW/soldier.jpg,,,,,,,,,,,,
null,,rt_plussign_withcolor,879603,blue,,,,null,GW/barrel.jpg,GW/soldier.jpg,,,,,,,,,,,,
1017.5,,rt_thecrossant_black,880559,black_plus_sign,,,,49,,,1,0.9642857142857143,,,,,,,,,,
null,,color_black,880670,black_plus_sign,,,,null,,,,,,,,,,,,,,
null,,learn_phase(without_color),882681,black_plus_sign,,,,null,GW/snail.jpg,GW/jukebox.jpg,,,,,,,,,,,,
null,,black_cross(without_color),883306,blue,,,,null,GW/snail.jpg,GW/jukebox.jpg,,,,,,,,,,,,
null,,rt_plussign_withcolor,883822,blue,,,,null,GW/snail.jpg,GW/jukebox.jpg,,,,,,,,,,,,
1328.3999999910593,,rt_thecrossant_black,885220,black_plus_sign,,,,50,,,0,0.9529411764705882,,,,,,,,,,
null,,color_black,885329,black_plus_sign,,,,null,,,,,,,,,,,,,,
null,,learn_phase(without_color),887335,black_plus_sign,,,,null,GW/basket.jpg,GW/gong.jpg,,,,,,,,,,,,
null,,black_cross(without_color),888204,blue,,,,null,GW/basket.jpg,GW/gong.jpg,,,,,,,,,,,,
null,,rt_plussign_withcolor,888707,blue,,,,null,GW/basket.jpg,GW/gong.jpg,,,,,,,,,,,,
907.2999999970198,,rt_thecrossant_black,889852,black_plus_sign,,,,49,,,1,0.9534883720930233,,,,,,,,,,
null,,color_black,889962,black_plus_sign,,,,null,,,,,,,,,,,,,,
null,,learn_phase(without_color),891967,black_plus_sign,,,,null,GW/barrel.jpg,GW/soldier.jpg,,,,,,,,,,,,
null,,black_cross(without_color),892922,green,,,,null,GW/barrel.jpg,GW/soldier.jpg,,,,,,,,,,,,
null,,rt_plussign_withcolor,893439,green,,,,null,GW/barrel.jpg,GW/soldier.jpg,,,,,,,,,,,,
1446.9000000059605,,rt_thecrossant_black,894499,black_plus_sign,,,,50,,,1,0.9540229885057471,,,,,,,,,,
null,,color_black,894608,black_plus_sign,,,,null,,,,,,,,,,,,,,
null,,learn_phase(without_color),896614,black_plus_sign,,,,null,GW/basket.jpg,GW/gong.jpg,,,,,,,,,,,,
null,,black_cross(without_color),897635,green,,,,null,GW/basket.jpg,GW/gong.jpg,,,,,,,,,,,,
null,,rt_plussign_withcolor,898141,green,,,,null,GW/basket.jpg,GW/gong.jpg,,,,,,,,,,,,
1247.8999999910593,,rt_thecrossant_black,899138,black_plus_sign,,,,50,,,1,0.9545454545454546,,,,,,,,,,
null,,color_black,899247,black_plus_sign,,,,null,,,,,,,,,,,,,,
null,,learn_phase(without_color),901254,black_plus_sign,,,,null,GW/basket.jpg,GW/dustpan.jpg,,,,,,,,,,,,
null,,black_cross(without_color),901895,blue,,,,null,GW/basket.jpg,GW/dustpan.jpg,,,,,,,,,,,,
null,,rt_plussign_withcolor,902403,blue,,,,null,GW/basket.jpg,GW/dustpan.jpg,,,,,,,,,,,,
1439.0999999940395,,rt_thecrossant_black,903790,black_plus_sign,,,,49,,,1,0.9550561797752809,,,,,,,,,,
null,,color_black,903895,black_plus_sign,,,,null,,,,,,,,,,,,,,
null,,learn_phase(without_color),905903,black_plus_sign,,,,null,GW/paint.jpg,GW/snail.jpg,,,,,,,,,,,,
null,,black_cross(without_color),906572,green,,,,null,GW/paint.jpg,GW/snail.jpg,,,,,,,,,,,,
null,,rt_plussign_withcolor,907082,green,,,,null,GW/paint.jpg,GW/snail.jpg,,,,,,,,,,,,
1159.3999999910593,,rt_thecrossant_black,908423,black_plus_sign,,,,50,,,1,0.9555555555555556,,,,,,,,,,
null,,color_black,908532,black_plus_sign,,,,null,,,,,,,,,,,,,,
null,,learn_phase(without_color),910541,black_plus_sign,,,,null,GW/globe.jpg,GW/jukebox.jpg,,,,,,,,,,,,
null,,black_cross(without_color),911391,green,,,,null,GW/globe.jpg,GW/jukebox.jpg,,,,,,,,,,,,
null,,rt_plussign_withcolor,911903,green,,,,null,GW/globe.jpg,GW/jukebox.jpg,,,,,,,,,,,,
953,,rt_thecrossant_black,913072,black_plus_sign,,,,50,,,1,0.9560439560439561,,,,,,,,,,
null,,color_black,913189,black_plus_sign,,,,null,,,,,,,,,,,,,,
null,,learn_phase(without_color),915197,black_plus_sign,,,,null,GW/teeth.jpg,GW/hat.jpg,,,,,,,,,,,,
null,,black_cross(without_color),916257,green,,,,null,GW/teeth.jpg,GW/hat.jpg,,,,,,,,,,,,
null,,rt_plussign_withcolor,916773,green,,,,null,GW/teeth.jpg,GW/hat.jpg,,,,,,,,,,,,
1269.5999999940395,,rt_thecrossant_black,917729,black_plus_sign,,,,50,,,1,0.9565217391304348,,,,,,,,,,
null,,color_black,917838,black_plus_sign,,,,null,,,,,,,,,,,,,,
null,,learn_phase(without_color),919850,black_plus_sign,,,,null,GW/soldier.jpg,GW/snail.jpg,,,,,,,,,,,,
null,,black_cross(without_color),920648,blue,,,,null,GW/soldier.jpg,GW/snail.jpg,,,,,,,,,,,,
null,,rt_plussign_withcolor,921156,blue,,,,null,GW/soldier.jpg,GW/snail.jpg,,,,,,,,,,,,
1562.5,,rt_thecrossant_black,922378,black_plus_sign,,,,49,,,1,0.956989247311828,,,,,,,,,,
null,,color_black,922487,black_plus_sign,,,,null,,,,,,,,,,,,,,
null,,learn_phase(without_color),924499,black_plus_sign,,,,null,GW/hat.jpg,GW/globe.jpg,,,,,,,,,,,,
null,,black_cross(without_color),925459,green,,,,null,GW/hat.jpg,GW/globe.jpg,,,,,,,,,,,,
null,,rt_plussign_withcolor,925968,green,,,,null,GW/hat.jpg,GW/globe.jpg,,,,,,,,,,,,
1597.5999999940395,,rt_thecrossant_black,927021,black_plus_sign,,,,50,,,1,0.9574468085106383,,,,,,,,,,
null,,color_black,927129,black_plus_sign,,,,null,,,,,,,,,,,,,,
null,,learn_phase(without_color),929138,black_plus_sign,,,,null,GW/basket.jpg,GW/gong.jpg,,,,,,,,,,,,
null,,black_cross(without_color),929618,blue,,,,null,GW/basket.jpg,GW/gong.jpg,,,,,,,,,,,,
null,,rt_plussign_withcolor,930121,blue,,,,null,GW/basket.jpg,GW/gong.jpg,,,,,,,,,,,,
1162.5999999940395,,rt_thecrossant_black,931667,black_plus_sign,,,,49,,,1,0.9578947368421052,,,,,,,,,,
null,,color_black,931775,black_plus_sign,,,,null,,,,,,,,,,,,,,
null,,learn_phase(without_color),933786,black_plus_sign,,,,null,GW/soldier.jpg,GW/snail.jpg,,,,,,,,,,,,
null,,black_cross(without_color),934292,green,,,,null,GW/soldier.jpg,GW/snail.jpg,,,,,,,,,,,,
null,,rt_plussign_withcolor,934797,green,,,,null,GW/soldier.jpg,GW/snail.jpg,,,,,,,,,,,,
960.6000000089407,,rt_thecrossant_black,936316,black_plus_sign,,,,50,,,1,0.9583333333333334,,,,,,,,,,
null,,color_black,936425,black_plus_sign,,,,null,,,,,,,,,,,,,,
null,,learn_phase(without_color),938431,black_plus_sign,,,,null,GW/globe.jpg,GW/paint.jpg,,,,,,,,,,,,
null,,black_cross(without_color),939256,green,,,,null,GW/globe.jpg,GW/paint.jpg,,,,,,,,,,,,
null,,rt_plussign_withcolor,939759,green,,,,null,GW/globe.jpg,GW/paint.jpg,,,,,,,,,,,,
1103,,rt_thecrossant_black,940954,black_plus_sign,,,,50,,,1,0.9587628865979382,,,,,,,,,,
null,,color_black,941064,black_plus_sign,,,,null,,,,,,,,,,,,,,
null,,learn_phase(without_color),943070,black_plus_sign,,,,null,GW/basket.jpg,GW/gong.jpg,,,,,,,,,,,,
null,,black_cross(without_color),943976,green,,,,null,GW/basket.jpg,GW/gong.jpg,,,,,,,,,,,,
null,,rt_plussign_withcolor,944482,green,,,,null,GW/basket.jpg,GW/gong.jpg,,,,,,,,,,,,
1057.199999988079,,rt_thecrossant_black,945598,black_plus_sign,,,,50,,,1,0.9591836734693877,,,,,,,,,,
null,,color_black,945705,black_plus_sign,,,,null,,,,,,,,,,,,,,
null,,learn_phase(without_color),947711,black_plus_sign,,,,null,GW/snail.jpg,GW/jukebox.jpg,,,,,,,,,,,,
null,,black_cross(without_color),948528,green,,,,null,GW/snail.jpg,GW/jukebox.jpg,,,,,,,,,,,,
null,,rt_plussign_withcolor,949032,green,,,,null,GW/snail.jpg,GW/jukebox.jpg,,,,,,,,,,,,
1300.199999988079,,rt_thecrossant_black,950227,black_plus_sign,,,,50,,,1,0.9595959595959596,,,,,,,,,,
null,,color_black,950345,black_plus_sign,,,,null,,,,,,,,,,,,,,
null,,learn_phase(without_color),952355,black_plus_sign,,,,null,GW/globe.jpg,GW/paint.jpg,,,,,,,,,,,,
null,,black_cross(without_color),952810,blue,,,,null,GW/globe.jpg,GW/paint.jpg,,,,,,,,,,,,
null,,rt_plussign_withcolor,953320,blue,,,,null,GW/globe.jpg,GW/paint.jpg,,,,,,,,,,,,
1385.8999999910593,,rt_thecrossant_black,954882,black_plus_sign,,,,49,,,1,0.96,,,,,,,,,,
null,,color_black,954998,black_plus_sign,,,,null,,,,,,,,,,,,,,
null,,learn_phase(without_color),957008,black_plus_sign,,,,null,GW/barrel.jpg,GW/wheelchair.jpg,,,,,,,,,,,,
null,,black_cross(without_color),957932,green,,,,null,GW/barrel.jpg,GW/wheelchair.jpg,,,,,,,,,,,,
null,,rt_plussign_withcolor,958436,green,,,,null,GW/barrel.jpg,GW/wheelchair.jpg,,,,,,,,,,,,
682.8999999910593,,rt_thecrossant_black,959526,black_plus_sign,,,,50,,,1,0.9603960396039604,,,,,,,,,,
null,,color_black,959636,black_plus_sign,,,,null,,,,,,,,,,,,,,
null,,learn_phase(without_color),961643,black_plus_sign,,,,null,GW/barrel.jpg,GW/snail.jpg,,,,,,,,,,,,
null,,black_cross(without_color),962119,green,,,,null,GW/barrel.jpg,GW/snail.jpg,,,,,,,,,,,,
null,,rt_plussign_withcolor,962625,green,,,,null,GW/barrel.jpg,GW/snail.jpg,,,,,,,,,,,,
1462.2999999970198,,rt_thecrossant_black,964166,black_plus_sign,,,,50,,,1,0.9607843137254902,,,,,,,,,,
null,,color_black,964275,black_plus_sign,,,,null,,,,,,,,,,,,,,
null,,learn_phase(without_color),966284,black_plus_sign,,,,null,GW/soldier.jpg,GW/snail.jpg,,,,,,,,,,,,
null,,black_cross(without_color),966842,blue,,,,null,GW/soldier.jpg,GW/snail.jpg,,,,,,,,,,,,
null,,rt_plussign_withcolor,967348,blue,,,,null,GW/soldier.jpg,GW/snail.jpg,,,,,,,,,,,,
769.5,,rt_thecrossant_black,968809,black_plus_sign,,,,49,,,1,0.9611650485436893,,,,,,,,,,
null,,color_black,968918,black_plus_sign,,,,null,,,,,,,,,,,,,,
null,,learn_phase(without_color),970924,black_plus_sign,,,,null,GW/barrel.jpg,GW/wheelchair.jpg,,,,,,,,,,,,
null,,black_cross(without_color),971565,green,,,,null,GW/barrel.jpg,GW/wheelchair.jpg,,,,,,,,,,,,
490.20000000298023,,rt_plussign_withcolor,972068,green,,,,50,GW/barrel.jpg,GW/wheelchair.jpg,,,,,,,,,,,,
null,,rt_thecrossant_black,973439,black_plus_sign,,,,null,,,1,0.9615384615384616,,,,,,,,,,
null,,color_black,973559,black_plus_sign,,,,null,,,,,,,,,,,,,,
null,,learn_phase(without_color),975567,black_plus_sign,,,,null,GW/soldier.jpg,GW/camera.jpg,,,,,,,,,,,,
null,,black_cross(without_color),976312,blue,,,,null,GW/soldier.jpg,GW/camera.jpg,,,,,,,,,,,,
399.8999999910593,,rt_plussign_withcolor,976828,blue,,,,49,GW/soldier.jpg,GW/camera.jpg,,,,,,,,,,,,
null,,rt_thecrossant_black,978107,black_plus_sign,,,,null,,,1,0.9619047619047619,,,,,,,,,,
null,,color_black,978224,black_plus_sign,,,,null,,,,,,,,,,,,,,
null,,learn_phase(without_color),980234,black_plus_sign,,,,null,GW/snail.jpg,GW/jukebox.jpg,,,,,,,,,,,,
null,,black_cross(without_color),980712,green,,,,null,GW/snail.jpg,GW/jukebox.jpg,,,,,,,,,,,,
null,,rt_plussign_withcolor,981230,green,,,,null,GW/snail.jpg,GW/jukebox.jpg,,,,,,,,,,,,
968.6000000089407,,rt_thecrossant_black,982770,black_plus_sign,,,,50,,,1,0.9622641509433962,,,,,,,,,,
null,,color_black,982878,black_plus_sign,,,,null,,,,,,,,,,,,,,
null,,learn_phase(without_color),984886,black_plus_sign,,,,null,GW/paint.jpg,GW/barrel.jpg,,,,,,,,,,,,
null,,black_cross(without_color),985749,green,,,,null,GW/paint.jpg,GW/barrel.jpg,,,,,,,,,,,,
479.70000000298023,,rt_plussign_withcolor,986253,green,,,,50,GW/paint.jpg,GW/barrel.jpg,,,,,,,,,,,,
null,,rt_thecrossant_black,987423,black_plus_sign,,,,null,,,1,0.9626168224299065,,,,,,,,,,
null,,color_black,987532,black_plus_sign,,,,null,,,,,,,,,,,,,,
null,,learn_phase(without_color),989545,black_plus_sign,,,,null,GW/hat.jpg,GW/globe.jpg,,,,,,,,,,,,
null,,black_cross(without_color),990076,green,,,,null,GW/hat.jpg,GW/globe.jpg,,,,,,,,,,,,
null,,rt_plussign_withcolor,990591,green,,,,null,GW/hat.jpg,GW/globe.jpg,,,,,,,,,,,,
1033.5,,rt_thecrossant_black,992086,black_plus_sign,,,,50,,,1,0.9629629629629629,,,,,,,,,,
null,,color_black,992194,black_plus_sign,,,,null,,,,,,,,,,,,,,
null,,learn_phase(without_color),994204,black_plus_sign,,,,null,GW/globe.jpg,GW/jukebox.jpg,,,,,,,,,,,,
null,,black_cross(without_color),995022,blue,,,,null,GW/globe.jpg,GW/jukebox.jpg,,,,,,,,,,,,
null,,rt_plussign_withcolor,995532,blue,,,,null,GW/globe.jpg,GW/jukebox.jpg,,,,,,,,,,,,
1004.2999999970198,,rt_thecrossant_black,996726,black_plus_sign,,,,49,,,1,0.963302752293578,,,,,,,,,,
null,,color_black,996844,black_plus_sign,,,,null,,,,,,,,,,,,,,
null,,learn_phase(without_color),998853,black_plus_sign,,,,null,GW/barrel.jpg,GW/soldier.jpg,,,,,,,,,,,,
null,,black_cross(without_color),999822,blue,,,,null,GW/barrel.jpg,GW/soldier.jpg,,,,,,,,,,,,
null,,rt_plussign_withcolor,1000327,blue,,,,null,GW/barrel.jpg,GW/soldier.jpg,,,,,,,,,,,,
1727.4000000059605,,rt_thecrossant_black,1001374,black_plus_sign,,,,49,,,1,0.9636363636363636,,,,,,,,,,
null,,color_black,1001482,black_plus_sign,,,,null,,,,,,,,,,,,,,
null,,learn_phase(without_color),1003495,black_plus_sign,,,,null,GW/hat.jpg,GW/globe.jpg,,,,,,,,,,,,
null,,black_cross(without_color),1004593,blue,,,,null,GW/hat.jpg,GW/globe.jpg,,,,,,,,,,,,
null,,rt_plussign_withcolor,1005102,blue,,,,null,GW/hat.jpg,GW/globe.jpg,,,,,,,,,,,,
1206.7999999970198,,rt_thecrossant_black,1006026,black_plus_sign,,,,49,,,1,0.963963963963964,,,,,,,,,,
null,,color_black,1006136,black_plus_sign,,,,null,,,,,,,,,,,,,,
null,,learn_phase(without_color),1008146,black_plus_sign,,,,null,GW/barrel.jpg,GW/snail.jpg,,,,,,,,,,,,
null,,black_cross(without_color),1008932,blue,,,,null,GW/barrel.jpg,GW/snail.jpg,,,,,,,,,,,,
null,,rt_plussign_withcolor,1009442,blue,,,,null,GW/barrel.jpg,GW/snail.jpg,,,,,,,,,,,,
1405.7999999970198,,rt_thecrossant_black,1010671,black_plus_sign,,,,49,,,1,0.9642857142857143,,,,,,,,,,
null,,color_black,1010789,black_plus_sign,,,,null,,,,,,,,,,,,,,
null,,learn_phase(without_color),1012801,black_plus_sign,,,,null,GW/barrel.jpg,GW/soldier.jpg,,,,,,,,,,,,
null,,black_cross(without_color),1013755,blue,,,,null,GW/barrel.jpg,GW/soldier.jpg,,,,,,,,,,,,
null,,rt_plussign_withcolor,1014268,blue,,,,null,GW/barrel.jpg,GW/soldier.jpg,,,,,,,,,,,,
876.6000000089407,,rt_thecrossant_black,1015332,black_plus_sign,,,,49,,,1,0.9646017699115044,,,,,,,,,,
null,,color_black,1015449,black_plus_sign,,,,null,,,,,,,,,,,,,,
null,,learn_phase(without_color),1017459,black_plus_sign,,,,null,GW/basket.jpg,GW/gong.jpg,,,,,,,,,,,,
null,,black_cross(without_color),1018562,blue,,,,null,GW/basket.jpg,GW/gong.jpg,,,,,,,,,,,,
null,,rt_plussign_withcolor,1019066,blue,,,,null,GW/basket.jpg,GW/gong.jpg,,,,,,,,,,,,
1080.2999999970198,,rt_thecrossant_black,1019983,black_plus_sign,,,,49,,,1,0.9649122807017544,,,,,,,,,,
null,,color_black,1020090,black_plus_sign,,,,null,,,,,,,,,,,,,,
null,,learn_phase(without_color),1022100,black_plus_sign,,,,null,GW/hat.jpg,GW/basket.jpg,,,,,,,,,,,,
null,,black_cross(without_color),1022689,green,,,,null,GW/hat.jpg,GW/basket.jpg,,,,,,,,,,,,
null,,rt_plussign_withcolor,1023193,green,,,,null,GW/hat.jpg,GW/basket.jpg,,,,,,,,,,,,
1566.0999999940395,,rt_thecrossant_black,1024628,black_plus_sign,,,,50,,,1,0.9652173913043478,,,,,,,,,,
null,,color_black,1024735,black_plus_sign,,,,null,,,,,,,,,,,,,,
null,,learn_phase(without_color),1026740,black_plus_sign,,,,null,GW/globe.jpg,GW/jukebox.jpg,,,,,,,,,,,,
null,,black_cross(without_color),1027426,blue,,,,null,GW/globe.jpg,GW/jukebox.jpg,,,,,,,,,,,,
null,,rt_plussign_withcolor,1027943,blue,,,,null,GW/globe.jpg,GW/jukebox.jpg,,,,,,,,,,,,
1008.1999999880791,,rt_thecrossant_black,1029294,black_plus_sign,,,,49,,,1,0.9655172413793104,,,,,,,,,,
null,,color_black,1029403,black_plus_sign,,,,null,,,,,,,,,,,,,,
null,,learn_phase(without_color),1031411,black_plus_sign,,,,null,GW/hat.jpg,GW/globe.jpg,,,,,,,,,,,,
null,,black_cross(without_color),1032047,green,,,,null,GW/hat.jpg,GW/globe.jpg,,,,,,,,,,,,
null,,rt_plussign_withcolor,1032562,green,,,,null,GW/hat.jpg,GW/globe.jpg,,,,,,,,,,,,
1143.7999999970198,,rt_thecrossant_black,1033944,black_plus_sign,,,,50,,,1,0.9658119658119658,,,,,,,,,,
null,,color_black,1034052,black_plus_sign,,,,null,,,,,,,,,,,,,,
null,,learn_phase(without_color),1036063,black_plus_sign,,,,null,GW/soldier.jpg,GW/snail.jpg,,,,,,,,,,,,
null,,black_cross(without_color),1036686,green,,,,null,GW/soldier.jpg,GW/snail.jpg,,,,,,,,,,,,
null,,rt_plussign_withcolor,1037195,green,,,,null,GW/soldier.jpg,GW/snail.jpg,,,,,,,,,,,,
883.6000000089407,,rt_thecrossant_black,1038596,black_plus_sign,,,,50,,,1,0.9661016949152542,,,,,,,,,,
null,,color_black,1038704,black_plus_sign,,,,null,,,,,,,,,,,,,,
null,,learn_phase(without_color),1040708,black_plus_sign,,,,null,GW/jukebox.jpg,GW/gong.jpg,,,,,,,,,,,,
null,,black_cross(without_color),1041186,green,,,,null,GW/jukebox.jpg,GW/gong.jpg,,,,,,,,,,,,
null,,rt_plussign_withcolor,1041703,green,,,,null,GW/jukebox.jpg,GW/gong.jpg,,,,,,,,,,,,
747.5,,rt_thecrossant_black,1043236,black_plus_sign,,,,49,,,0,0.957983193277311,,,,,,,,,,
null,,color_black,1043345,black_plus_sign,,,,null,,,,,,,,,,,,,,
null,,learn_phase(without_color),1045356,black_plus_sign,,,,null,GW/barrel.jpg,GW/snail.jpg,,,,,,,,,,,,
null,,black_cross(without_color),1046293,green,,,,null,GW/barrel.jpg,GW/snail.jpg,,,,,,,,,,,,
null,,rt_plussign_withcolor,1046803,green,,,,null,GW/barrel.jpg,GW/snail.jpg,,,,,,,,,,,,
1300.2999999970198,,rt_thecrossant_black,1047896,black_plus_sign,,,,50,,,1,0.9583333333333334,,,,,,,,,,
null,,color_black,1048006,black_plus_sign,,,,null,,,,,,,,,,,,,,
null,,learn_phase(without_color),1050018,black_plus_sign,,,,null,GW/hat.jpg,GW/basket.jpg,,,,,,,,,,,,
null,,black_cross(without_color),1050923,blue,,,,null,GW/hat.jpg,GW/basket.jpg,,,,,,,,,,,,
null,,rt_plussign_withcolor,1051428,blue,,,,null,GW/hat.jpg,GW/basket.jpg,,,,,,,,,,,,
1236.5,,rt_thecrossant_black,1052552,black_plus_sign,,,,49,,,1,0.9586776859504132,,,,,,,,,,
null,,color_black,1052668,black_plus_sign,,,,null,,,,,,,,,,,,,,
null,,learn_phase(without_color),1054674,black_plus_sign,,,,null,GW/barrel.jpg,GW/soldier.jpg,,,,,,,,,,,,
null,,black_cross(without_color),1055506,blue,,,,null,GW/barrel.jpg,GW/soldier.jpg,,,,,,,,,,,,
null,,rt_plussign_withcolor,1056016,blue,,,,null,GW/barrel.jpg,GW/soldier.jpg,,,,,,,,,,,,
1747.5,,rt_thecrossant_black,1057213,black_plus_sign,,,,49,,,1,0.9590163934426229,,,,,,,,,,
null,,color_black,1057322,black_plus_sign,,,,null,,,,,,,,,,,,,,
null,,learn_phase(without_color),1059332,black_plus_sign,,,,null,GW/globe.jpg,GW/jukebox.jpg,,,,,,,,,,,,
null,,black_cross(without_color),1059886,green,,,,null,GW/globe.jpg,GW/jukebox.jpg,,,,,,,,,,,,
null,,rt_plussign_withcolor,1060392,green,,,,null,GW/globe.jpg,GW/jukebox.jpg,,,,,,,,,,,,
1521.300000011921,,rt_thecrossant_black,1061849,black_plus_sign,,,,50,,,1,0.959349593495935,,,,,,,,,,
null,,color_black,1061959,black_plus_sign,,,,null,,,,,,,,,,,,,,
null,,learn_phase(without_color),1063969,black_plus_sign,,,,null,GW/basket.jpg,GW/dustpan.jpg,,,,,,,,,,,,
null,,black_cross(without_color),1064632,green,,,,null,GW/basket.jpg,GW/dustpan.jpg,,,,,,,,,,,,
null,,rt_plussign_withcolor,1065143,green,,,,null,GW/basket.jpg,GW/dustpan.jpg,,,,,,,,,,,,
838.9000000059605,,rt_thecrossant_black,1066503,black_plus_sign,,,,50,,,1,0.9596774193548387,,,,,,,,,,
null,,color_black,1066612,black_plus_sign,,,,null,,,,,,,,,,,,,,
null,,learn_phase(without_color),1068624,black_plus_sign,,,,null,GW/hat.jpg,GW/basket.jpg,,,,,,,,,,,,
null,,black_cross(without_color),1069569,blue,,,,null,GW/hat.jpg,GW/basket.jpg,,,,,,,,,,,,
null,,rt_plussign_withcolor,1070082,blue,,,,null,GW/hat.jpg,GW/basket.jpg,,,,,,,,,,,,
null,,rt_thecrossant_black,1071159,black_plus_sign,,,,null,,,,0.9596774193548387,,,,,,,,,,
null,,color_black,1071268,black_plus_sign,,,,null,,,,,,,,,,,,,,
53565.29999999702,,intro_1,1124837,instruct,,0,Start,,,,,,,,,,,,,,,
3914.2999999970198,,directmemory_phase,1128757,GW/globe.jpg,,,,51,,,1,1,GW/camera.jpg,GW/teeth.jpg,GW/hat.jpg,GW/hat.jpg,GW/teeth.jpg,GW/camera.jpg,1,,,
null,,html-keyboard-response,1129778,<p></p>,,,,null,,,,,,,,,,,,,,
2553.1000000089407,,directmemory_phase,1132334,GW/basket.jpg,,,,51,,,1,1,GW/barrel.jpg,GW/teeth.jpg,GW/gong.jpg,GW/gong.jpg,GW/teeth.jpg,GW/barrel.jpg,1,,,
null,,html-keyboard-response,1133349,<p></p>,,,,null,,,,,,,,,,,,,,
2795.6000000089407,,directmemory_phase,1136147,GW/soldier.jpg,,,,49,,,1,1,GW/snail.jpg,GW/basket.jpg,GW/wheelchair.jpg,GW/snail.jpg,GW/wheelchair.jpg,GW/basket.jpg,1,,,
null,,html-keyboard-response,1137154,<p></p>,,,,null,,,,,,,,,,,,,,
1663.5,,directmemory_phase,1138821,GW/gong.jpg,,,,49,,,1,1,GW/jukebox.jpg,GW/teeth.jpg,GW/dustpan.jpg,GW/jukebox.jpg,GW/dustpan.jpg,GW/teeth.jpg,1,,,
null,,html-keyboard-response,1139833,<p></p>,,,,null,,,,,,,,,,,,,,
2584.0999999940395,,directmemory_phase,1142420,GW/snail.jpg,,,,51,,,1,1,GW/basket.jpg,GW/camera.jpg,GW/paint.jpg,GW/paint.jpg,GW/camera.jpg,GW/basket.jpg,1,,,
null,,html-keyboard-response,1143428,<p></p>,,,,null,,,,,,,,,,,,,,
1764.0999999940395,,directmemory_phase,1145195,GW/jukebox.jpg,,,,50,,,1,1,GW/paint.jpg,GW/globe.jpg,GW/camera.jpg,GW/globe.jpg,GW/paint.jpg,GW/camera.jpg,1,,,
null,,html-keyboard-response,1146201,<p></p>,,,,null,,,,,,,,,,,,,,
2255.4000000059605,,directmemory_phase,1148459,GW/barrel.jpg,,,,51,,,0,0.8571428571428571,GW/snail.jpg,GW/basket.jpg,GW/jukebox.jpg,GW/snail.jpg,GW/jukebox.jpg,GW/basket.jpg,0.5,closer,,
null,,html-keyboard-response,1149473,<p></p>,,,,null,,,,,,,,,,,,,,
2276.7000000029802,,directmemory_phase,1151753,GW/globe.jpg,,,,49,,,1,0.875,GW/paint.jpg,GW/wheelchair.jpg,GW/teeth.jpg,GW/paint.jpg,GW/teeth.jpg,GW/wheelchair.jpg,1,,,
null,,html-keyboard-response,1152763,<p></p>,,,,null,,,,,,,,,,,,,,
2788.2999999970198,,directmemory_phase,1155554,GW/snail.jpg,,,,49,,,0,0.7777777777777778,GW/teeth.jpg,GW/camera.jpg,GW/jukebox.jpg,GW/jukebox.jpg,GW/camera.jpg,GW/teeth.jpg,0.5,closer,,
null,,html-keyboard-response,1156563,<p></p>,,,,null,,,,,,,,,,,,,,
1712.5,,directmemory_phase,1158279,GW/hat.jpg,,,,50,,,0,0.7,GW/wheelchair.jpg,GW/jukebox.jpg,GW/basket.jpg,GW/basket.jpg,GW/jukebox.jpg,GW/wheelchair.jpg,0.5,closer,,
null,,html-keyboard-response,1159288,<p></p>,,,,null,,,,,,,,,,,,,,
2934.7999999970198,,directmemory_phase,1162225,GW/snail.jpg,,,,49,,,1,0.7272727272727273,GW/barrel.jpg,GW/hat.jpg,GW/camera.jpg,GW/barrel.jpg,GW/camera.jpg,GW/hat.jpg,1,,,
null,,html-keyboard-response,1163232,<p></p>,,,,null,,,,,,,,,,,,,,
3078,,directmemory_phase,1166313,GW/gong.jpg,,,,49,,,0,0.6666666666666666,GW/soldier.jpg,GW/dustpan.jpg,GW/basket.jpg,GW/basket.jpg,GW/dustpan.jpg,GW/soldier.jpg,0.5,closer,,
null,,html-keyboard-response,1167319,<p></p>,,,,null,,,,,,,,,,,,,,
1113.9000000059605,,directmemory_phase,1168437,GW/hat.jpg,,,,50,,,0,0.6153846153846154,GW/teeth.jpg,GW/barrel.jpg,GW/paint.jpg,GW/teeth.jpg,GW/paint.jpg,GW/barrel.jpg,0.5,closer,,
null,,html-keyboard-response,1169442,<p></p>,,,,null,,,,,,,,,,,,,,
3119.8999999910593,,directmemory_phase,1172565,GW/jukebox.jpg,,,,49,,,0,0.5714285714285714,GW/wheelchair.jpg,GW/basket.jpg,GW/snail.jpg,GW/snail.jpg,GW/basket.jpg,GW/wheelchair.jpg,0.5,closer,,
null,,html-keyboard-response,1173576,<p></p>,,,,null,,,,,,,,,,,,,,
2433,,directmemory_phase,1176012,GW/barrel.jpg,,,,50,,,0,0.5333333333333333,GW/paint.jpg,GW/hat.jpg,GW/camera.jpg,GW/paint.jpg,GW/camera.jpg,GW/hat.jpg,0.5,closer,,
null,,html-keyboard-response,1177029,<p></p>,,,,null,,,,,,,,,,,,,,
1977.800000011921,,directmemory_phase,1179010,GW/teeth.jpg,,,,49,,,1,0.5625,GW/hat.jpg,GW/barrel.jpg,GW/globe.jpg,GW/hat.jpg,GW/globe.jpg,GW/barrel.jpg,1,,,
null,,html-keyboard-response,1180019,<p></p>,,,,null,,,,,,,,,,,,,,
1631.7000000029802,,directmemory_phase,1181654,GW/paint.jpg,,,,51,,,1,0.5882352941176471,GW/camera.jpg,GW/wheelchair.jpg,GW/snail.jpg,GW/snail.jpg,GW/wheelchair.jpg,GW/camera.jpg,1,,,
null,,html-keyboard-response,1182664,<p></p>,,,,null,,,,,,,,,,,,,,
1213,,directmemory_phase,1183880,GW/basket.jpg,,,,49,,,1,0.6111111111111112,GW/dustpan.jpg,GW/barrel.jpg,GW/teeth.jpg,GW/dustpan.jpg,GW/teeth.jpg,GW/barrel.jpg,1,,,
null,,html-keyboard-response,1184893,<p></p>,,,,null,,,,,,,,,,,,,,
3590.2999999970198,,directmemory_phase,1188487,GW/paint.jpg,,,,50,,,1,0.631578947368421,GW/jukebox.jpg,GW/barrel.jpg,GW/dustpan.jpg,GW/barrel.jpg,GW/jukebox.jpg,GW/dustpan.jpg,1,,,
null,,html-keyboard-response,1189499,<p></p>,,,,null,,,,,,,,,,,,,,
5457.79999999702,,directmemory_phase,1194960,GW/dustpan.jpg,,,,51,,,1,0.65,GW/jukebox.jpg,GW/hat.jpg,GW/basket.jpg,GW/basket.jpg,GW/hat.jpg,GW/jukebox.jpg,1,,,
null,,html-keyboard-response,1195967,<p></p>,,,,null,,,,,,,,,,,,,,
2042.2999999970198,,directmemory_phase,1198013,GW/camera.jpg,,,,49,,,1,0.6666666666666666,GW/soldier.jpg,GW/jukebox.jpg,GW/snail.jpg,GW/soldier.jpg,GW/snail.jpg,GW/jukebox.jpg,1,,,
null,,html-keyboard-response,1199022,<p></p>,,,,null,,,,,,,,,,,,,,
null,,directmemory_phase,1205532,GW/jukebox.jpg,,,,null,,,0,0.6363636363636364,GW/teeth.jpg,GW/barrel.jpg,GW/gong.jpg,GW/gong.jpg,GW/barrel.jpg,GW/teeth.jpg,0,,,
null,,html-keyboard-response,1206538,<p></p>,,,,null,,,,,,,,,,,,,,
6438.29999999702,,directmemory_phase,1212979,GW/barrel.jpg,,,,50,,,1,0.6521739130434783,GW/jukebox.jpg,GW/soldier.jpg,GW/teeth.jpg,GW/soldier.jpg,GW/jukebox.jpg,GW/teeth.jpg,1,,,
null,,html-keyboard-response,1213991,<p></p>,,,,null,,,,,,,,,,,,,,
3356.2000000029802,,directmemory_phase,1217350,GW/hat.jpg,,,,51,,,1,0.6666666666666666,GW/snail.jpg,GW/paint.jpg,GW/globe.jpg,GW/globe.jpg,GW/paint.jpg,GW/snail.jpg,1,,,
null,,html-keyboard-response,1218362,<p></p>,,,,null,,,,,,,,,,,,,,
2616.6000000089407,,directmemory_phase,1220982,GW/soldier.jpg,,,,51,,,1,0.68,GW/gong.jpg,GW/jukebox.jpg,GW/camera.jpg,GW/camera.jpg,GW/jukebox.jpg,GW/gong.jpg,1,,,
null,,html-keyboard-response,1221999,<p></p>,,,,null,,,,,,,,,,,,,,
2854.5999999940395,,directmemory_phase,1224857,GW/basket.jpg,,,,49,,,1,0.6923076923076923,GW/hat.jpg,GW/soldier.jpg,GW/globe.jpg,GW/hat.jpg,GW/globe.jpg,GW/soldier.jpg,1,,,
null,,html-keyboard-response,1225873,<p></p>,,,,null,,,,,,,,,,,,,,
1643.300000011921,,directmemory_phase,1227520,GW/soldier.jpg,,,,51,,,0,0.6666666666666666,GW/barrel.jpg,GW/hat.jpg,GW/paint.jpg,GW/barrel.jpg,GW/paint.jpg,GW/hat.jpg,0.5,closer,,
null,,html-keyboard-response,1228532,<p></p>,,,,null,,,,,,,,,,,,,,
1567.199999988079,,directmemory_phase,1230103,GW/paint.jpg,,,,50,,,1,0.6785714285714286,GW/wheelchair.jpg,GW/globe.jpg,GW/gong.jpg,GW/globe.jpg,GW/wheelchair.jpg,GW/gong.jpg,1,,,
null,,html-keyboard-response,1231113,<p></p>,,,,null,,,,,,,,,,,,,,
null,,directmemory_phase,1237618,GW/barrel.jpg,,,,null,,,0,0.6551724137931034,GW/wheelchair.jpg,GW/teeth.jpg,GW/jukebox.jpg,GW/wheelchair.jpg,GW/jukebox.jpg,GW/teeth.jpg,0,,,
null,,html-keyboard-response,1238623,<p></p>,,,,null,,,,,,,,,,,,,,
2049.7999999970198,,directmemory_phase,1240676,GW/snail.jpg,,,,49,,,1,0.6666666666666666,GW/soldier.jpg,GW/basket.jpg,GW/globe.jpg,GW/soldier.jpg,GW/globe.jpg,GW/basket.jpg,1,,,
null,,html-keyboard-response,1241696,<p></p>,,,,null,,,,,,,,,,,,,,
1915.2999999970198,,directmemory_phase,1243615,GW/wheelchair.jpg,,,,49,,,1,0.6774193548387096,GW/barrel.jpg,GW/globe.jpg,GW/paint.jpg,GW/barrel.jpg,GW/paint.jpg,GW/globe.jpg,1,,,
null,,html-keyboard-response,1244619,<p></p>,,,,null,,,,,,,,,,,,,,
2004.6000000089407,,directmemory_phase,1246627,GW/globe.jpg,,,,49,,,1,0.6875,GW/jukebox.jpg,GW/camera.jpg,GW/snail.jpg,GW/jukebox.jpg,GW/snail.jpg,GW/camera.jpg,1,,,
null,,html-keyboard-response,1247636,<p></p>,,,,null,,,,,,,,,,,,,,
14366.199999988079,,intro_1,1262007,instruct,,0,,,,,,,,,,,,,,,,
14734.89999999106,,intro_2,1276745,instruct,,1,Next,,,,,,,,,,,,,,,
5710.800000011921,,intro_3,1282459,instruct,,1,Next,,,,,,,,,,,,,,,
4198.70000000298,,intro_4,1286661,instruct,,1,Next,,,,,,,,,,,,,,,
9794.70000000298,,intro_5,1296459,instruct,,1,Next,,,,,,,,,,,,,,,
14354.59999999404,,intro_6,1310817,instruct,,1,Next,,,,,,,,,,,,,,,
13393.20000000298,,intro_7,1324215,instruct,,1,Next,,,,,,,,,,,,,,,
12714.70000000298,,intro_8,1336932,instruct,,1,Next,,,,,,,,,,,,,,,
2234.7999999970198,,shortestpath_phase,1339172,GW/soldier.jpg,,,,49,GW/paint.jpg,GW/gong.jpg,1,1,,,,GW/paint.jpg,,,,,One Edge Diff,Two Edge Three Edge
null,,html-keyboard-response,1340189,<p></p>,,,,null,,,,,,,,,,,,,,
2383.5,,shortestpath_phase,1342576,GW/camera.jpg,,,,49,GW/globe.jpg,GW/teeth.jpg,1,1,,,,GW/globe.jpg,,,,,Two Edge Diff,Four Edge Six Edge
null,,html-keyboard-response,1343580,<p></p>,,,,null,,,,,,,,,,,,,,
1271.2999999970198,,shortestpath_phase,1344855,GW/soldier.jpg,,,,50,GW/teeth.jpg,GW/basket.jpg,1,1,,,,GW/basket.jpg,,,,,One Edge Diff,Four Edge Five Edge
null,,html-keyboard-response,1345864,<p></p>,,,,null,,,,,,,,,,,,,,
1498.2000000029802,,shortestpath_phase,1347365,GW/wheelchair.jpg,,,,49,GW/gong.jpg,GW/camera.jpg,0,0.75,,,,GW/camera.jpg,,,,,One Edge Diff,Three Edge Four Edge
null,,html-keyboard-response,1348377,<p></p>,,,,null,,,,,,,,,,,,,,
2063.300000011921,,shortestpath_phase,1350444,GW/basket.jpg,,,,49,GW/teeth.jpg,GW/camera.jpg,1,0.8,,,,GW/teeth.jpg,,,,,Three Edge Diff,Three Edge Six Edge
null,,html-keyboard-response,1351457,<p></p>,,,,null,,,,,,,,,,,,,,
2897.3999999910593,,shortestpath_phase,1354358,GW/dustpan.jpg,,,,49,GW/barrel.jpg,GW/gong.jpg,0,0.6666666666666666,,,,GW/gong.jpg,,,,,Three Edge Diff,Two Edge Five Edge
null,,html-keyboard-response,1355363,<p></p>,,,,null,,,,,,,,,,,,,,
1278.3999999910593,,shortestpath_phase,1356644,GW/paint.jpg,,,,49,GW/jukebox.jpg,GW/camera.jpg,1,0.7142857142857143,,,,GW/jukebox.jpg,,,,,One Edge Diff,Two Edge Three Edge
null,,html-keyboard-response,1357655,<p></p>,,,,null,,,,,,,,,,,,,,
1326,,shortestpath_phase,1358984,GW/dustpan.jpg,,,,50,GW/teeth.jpg,GW/hat.jpg,1,0.75,,,,GW/hat.jpg,,,,,One Edge Diff,Two Edge Three Edge
null,,html-keyboard-response,1359993,<p></p>,,,,null,,,,,,,,,,,,,,
1153.2999999970198,,shortestpath_phase,1361149,GW/camera.jpg,,,,50,GW/barrel.jpg,GW/basket.jpg,0,0.6666666666666666,,,,GW/barrel.jpg,,,,,Three Edge Diff,Three Edge Six Edge
null,,html-keyboard-response,1362155,<p></p>,,,,null,,,,,,,,,,,,,,
1817.6000000089407,,shortestpath_phase,1363976,GW/dustpan.jpg,,,,49,GW/paint.jpg,GW/camera.jpg,1,0.7,,,,GW/paint.jpg,,,,,Two Edge Diff,Four Edge Six Edge
null,,html-keyboard-response,1364985,<p></p>,,,,null,,,,,,,,,,,,,,
2443,,shortestpath_phase,1367431,GW/camera.jpg,,,,49,GW/globe.jpg,GW/jukebox.jpg,0,0.6363636363636364,,,,GW/jukebox.jpg,,,,,One Edge Diff,Three Edge Four Edge
null,,html-keyboard-response,1368449,<p></p>,,,,null,,,,,,,,,,,,,,
1399.5999999940395,,shortestpath_phase,1369852,GW/basket.jpg,,,,49,GW/camera.jpg,GW/barrel.jpg,0,0.5833333333333334,,,,GW/barrel.jpg,,,,,One Edge Diff,Four Edge Five Edge
null,,html-keyboard-response,1370862,<p></p>,,,,null,,,,,,,,,,,,,,
2361.2000000029802,,shortestpath_phase,1373226,GW/wheelchair.jpg,,,,50,GW/soldier.jpg,GW/gong.jpg,0,0.5384615384615384,,,,GW/soldier.jpg,,,,,Two Edge Diff,Two Edge Four Edge
null,,html-keyboard-response,1374232,<p></p>,,,,null,,,,,,,,,,,,,,
1145.199999988079,,shortestpath_phase,1375381,GW/basket.jpg,,,,49,GW/jukebox.jpg,GW/wheelchair.jpg,1,0.5714285714285714,,,,GW/jukebox.jpg,,,,,Three Edge Diff,Three Edge Six Edge
null,,html-keyboard-response,1376388,<p></p>,,,,null,,,,,,,,,,,,,,
1755.2999999970198,,shortestpath_phase,1378147,GW/teeth.jpg,,,,49,GW/snail.jpg,GW/soldier.jpg,1,0.6,,,,GW/snail.jpg,,,,,One Edge Diff,Four Edge Five Edge
null,,html-keyboard-response,1379153,<p></p>,,,,null,,,,,,,,,,,,,,
2490.2000000029802,,shortestpath_phase,1381646,GW/camera.jpg,,,,50,GW/teeth.jpg,GW/hat.jpg,1,0.625,,,,GW/hat.jpg,,,,,One Edge Diff,Five Edge Six Edge
null,,html-keyboard-response,1382659,<p></p>,,,,null,,,,,,,,,,,,,,
1318.4000000059605,,shortestpath_phase,1383981,GW/wheelchair.jpg,,,,50,GW/snail.jpg,GW/dustpan.jpg,0,0.5882352941176471,,,,GW/snail.jpg,,,,,Four Edge Diff,Two Edge Six Edge
null,,html-keyboard-response,1384990,<p></p>,,,,null,,,,,,,,,,,,,,
1377.4000000059605,,shortestpath_phase,1386371,GW/dustpan.jpg,,,,50,GW/gong.jpg,GW/wheelchair.jpg,0,0.5555555555555556,,,,GW/gong.jpg,,,,,Four Edge Diff,Two Edge Six Edge
null,,html-keyboard-response,1387380,<p></p>,,,,null,,,,,,,,,,,,,,
2006.5999999940395,,shortestpath_phase,1389390,GW/soldier.jpg,,,,49,GW/dustpan.jpg,GW/wheelchair.jpg,0,0.5263157894736842,,,,GW/wheelchair.jpg,,,,,Three Edge Diff,Three Edge Six Edge
null,,html-keyboard-response,1390397,<p></p>,,,,null,,,,,,,,,,,,,,
1775.8999999910593,,shortestpath_phase,1392176,GW/camera.jpg,,,,50,GW/jukebox.jpg,GW/hat.jpg,0,0.5,,,,GW/jukebox.jpg,,,,,Two Edge Diff,Three Edge Five Edge
null,,html-keyboard-response,1393182,<p></p>,,,,null,,,,,,,,,,,,,,
1228.199999988079,,shortestpath_phase,1394413,GW/hat.jpg,,,,50,GW/wheelchair.jpg,GW/camera.jpg,0,0.47619047619047616,,,,GW/wheelchair.jpg,,,,,One Edge Diff,Four Edge Five Edge
null,,html-keyboard-response,1395425,<p></p>,,,,null,,,,,,,,,,,,,,
1403.199999988079,,shortestpath_phase,1396832,GW/camera.jpg,,,,49,GW/paint.jpg,GW/basket.jpg,1,0.5,,,,GW/paint.jpg,,,,,Two Edge Diff,Three Edge Five Edge
null,,html-keyboard-response,1397843,<p></p>,,,,null,,,,,,,,,,,,,,
1352.7999999970198,,shortestpath_phase,1399199,GW/soldier.jpg,,,,50,GW/teeth.jpg,GW/jukebox.jpg,1,0.5217391304347826,,,,GW/jukebox.jpg,,,,,Three Edge Diff,Two Edge Five Edge
null,,html-keyboard-response,1400210,<p></p>,,,,null,,,,,,,,,,,,,,
1384.0999999940395,,shortestpath_phase,1401597,GW/camera.jpg,,,,50,GW/dustpan.jpg,GW/globe.jpg,1,0.5416666666666666,,,,GW/globe.jpg,,,,,Two Edge Diff,Four Edge Six Edge
null,,html-keyboard-response,1402608,<p></p>,,,,null,,,,,,,,,,,,,,
1203.4000000059605,,shortestpath_phase,1403814,GW/paint.jpg,,,,49,GW/hat.jpg,GW/camera.jpg,1,0.56,,,,GW/hat.jpg,,,,,One Edge Diff,Two Edge Three Edge
null,,html-keyboard-response,1404826,<p></p>,,,,null,,,,,,,,,,,,,,
1463.7999999970198,,shortestpath_phase,1406293,GW/dustpan.jpg,,,,50,GW/gong.jpg,GW/soldier.jpg,0,0.5384615384615384,,,,GW/gong.jpg,,,,,Three Edge Diff,Two Edge Five Edge
null,,html-keyboard-response,1407298,<p></p>,,,,null,,,,,,,,,,,,,,
1074.5,,shortestpath_phase,1408376,GW/teeth.jpg,,,,50,GW/soldier.jpg,GW/globe.jpg,1,0.5555555555555556,,,,GW/globe.jpg,,,,,Three Edge Diff,Two Edge Five Edge
null,,html-keyboard-response,1409382,<p></p>,,,,null,,,,,,,,,,,,,,
1339.4000000059605,,shortestpath_phase,1410725,GW/camera.jpg,,,,49,GW/dustpan.jpg,GW/gong.jpg,0,0.5357142857142857,,,,GW/gong.jpg,,,,,Two Edge Diff,Four Edge Six Edge
null,,html-keyboard-response,1411730,<p></p>,,,,null,,,,,,,,,,,,,,
1380.7000000029802,,shortestpath_phase,1413114,GW/hat.jpg,,,,49,GW/barrel.jpg,GW/camera.jpg,1,0.5517241379310345,,,,GW/barrel.jpg,,,,,Two Edge Diff,Three Edge Five Edge
null,,html-keyboard-response,1414124,<p></p>,,,,null,,,,,,,,,,,,,,
1263.5,,shortestpath_phase,1415391,GW/gong.jpg,,,,49,GW/soldier.jpg,GW/camera.jpg,1,0.5666666666666667,,,,GW/soldier.jpg,,,,,One Edge Diff,Three Edge Four Edge
null,,html-keyboard-response,1416404,<p></p>,,,,null,,,,,,,,,,,,,,
1058.7999999970198,,shortestpath_phase,1417466,GW/camera.jpg,,,,49,GW/basket.jpg,GW/snail.jpg,0,0.5483870967741935,,,,GW/snail.jpg,,,,,Three Edge Diff,Two Edge Five Edge
null,,html-keyboard-response,1418476,<p></p>,,,,null,,,,,,,,,,,,,,
1578.5,,shortestpath_phase,1420058,GW/soldier.jpg,,,,49,GW/teeth.jpg,GW/gong.jpg,0,0.53125,,,,GW/gong.jpg,,,,,Two Edge Diff,Three Edge Five Edge
null,,html-keyboard-response,1421064,<p></p>,,,,null,,,,,,,,,,,,,,
759.4000000059605,,shortestpath_phase,1421827,GW/teeth.jpg,,,,50,GW/camera.jpg,GW/snail.jpg,1,0.5454545454545454,,,,GW/snail.jpg,,,,,Two Edge Diff,Four Edge Six Edge
null,,html-keyboard-response,1422842,<p></p>,,,,null,,,,,,,,,,,,,,
861,,shortestpath_phase,1423705,GW/wheelchair.jpg,,,,49,GW/gong.jpg,GW/basket.jpg,1,0.5588235294117647,,,,GW/gong.jpg,,,,,One Edge Diff,Four Edge Five Edge
null,,html-keyboard-response,1424717,<p></p>,,,,null,,,,,,,,,,,,,,
1477.2999999970198,,shortestpath_phase,1426197,GW/camera.jpg,,,,50,GW/snail.jpg,GW/teeth.jpg,0,0.5428571428571428,,,,GW/snail.jpg,,,,,Four Edge Diff,Two Edge Six Edge
null,,html-keyboard-response,1427202,<p></p>,,,,null,,,,,,,,,,,,,,
578.0999999940395,,shortestpath_phase,1427783,GW/wheelchair.jpg,,,,49,GW/hat.jpg,GW/dustpan.jpg,1,0.5555555555555556,,,,GW/hat.jpg,,,,,Two Edge Diff,Four Edge Six Edge
null,,html-keyboard-response,1428788,<p></p>,,,,null,,,,,,,,,,,,,,
1056.1000000089407,,shortestpath_phase,1429848,GW/gong.jpg,,,,49,GW/teeth.jpg,GW/snail.jpg,0,0.5405405405405406,,,,GW/snail.jpg,,,,,One Edge Diff,Two Edge Three Edge
null,,html-keyboard-response,1430855,<p></p>,,,,null,,,,,,,,,,,,,,
2556.7999999970198,,shortestpath_phase,1433415,GW/camera.jpg,,,,50,GW/paint.jpg,GW/gong.jpg,0,0.5263157894736842,,,,GW/paint.jpg,,,,,One Edge Diff,Three Edge Four Edge
null,,html-keyboard-response,1434428,<p></p>,,,,null,,,,,,,,,,,,,,
731.0999999940395,,shortestpath_phase,1435163,GW/gong.jpg,,,,50,GW/globe.jpg,GW/barrel.jpg,0,0.5128205128205128,,,,GW/globe.jpg,,,,,One Edge Diff,Two Edge Three Edge
null,,html-keyboard-response,1436168,<p></p>,,,,null,,,,,,,,,,,,,,
294,,shortestpath_phase,1436465,GW/dustpan.jpg,,,,49,GW/hat.jpg,GW/paint.jpg,1,0.525,,,,GW/hat.jpg,,,,,Two Edge Diff,Two Edge Four Edge
null,,html-keyboard-response,1437476,<p></p>,,,,null,,,,,,,,,,,,,,
1373.0999999940395,,shortestpath_phase,1438852,GW/barrel.jpg,,,,49,GW/globe.jpg,GW/dustpan.jpg,1,0.5365853658536586,,,,GW/globe.jpg,,,,,Three Edge Diff,Three Edge Six Edge
null,,html-keyboard-response,1439859,<p></p>,,,,null,,,,,,,,,,,,,,
1148.5,,shortestpath_phase,1441011,GW/dustpan.jpg,,,,49,GW/paint.jpg,GW/wheelchair.jpg,1,0.5476190476190477,,,,GW/paint.jpg,,,,,Two Edge Diff,Four Edge Six Edge
null,,html-keyboard-response,1442017,<p></p>,,,,null,,,,,,,,,,,,,,
2831.2999999970198,,shortestpath_phase,1444851,GW/hat.jpg,,,,49,GW/wheelchair.jpg,GW/gong.jpg,0,0.5348837209302325,,,,GW/gong.jpg,,,,,Two Edge Diff,Two Edge Four Edge
null,,html-keyboard-response,1445864,<p></p>,,,,null,,,,,,,,,,,,,,
1088.300000011921,,shortestpath_phase,1446955,GW/basket.jpg,,,,49,GW/snail.jpg,GW/camera.jpg,1,0.5454545454545454,,,,GW/snail.jpg,,,,,Two Edge Diff,Three Edge Five Edge
null,,html-keyboard-response,1447966,<p></p>,,,,null,,,,,,,,,,,,,,
825.5,,shortestpath_phase,1448795,GW/hat.jpg,,,,50,GW/camera.jpg,GW/paint.jpg,1,0.5555555555555556,,,,GW/paint.jpg,,,,,Three Edge Diff,Two Edge Five Edge
null,,html-keyboard-response,1449802,<p></p>,,,,null,,,,,,,,,,,,,,
1856.7999999970198,,shortestpath_phase,1451662,GW/camera.jpg,,,,50,GW/teeth.jpg,GW/basket.jpg,1,0.5652173913043478,,,,GW/basket.jpg,,,,,One Edge Diff,Five Edge Six Edge
null,,html-keyboard-response,1452679,<p></p>,,,,null,,,,,,,,,,,,,,
1215.4000000059605,,shortestpath_phase,1453897,GW/teeth.jpg,,,,50,GW/globe.jpg,GW/soldier.jpg,0,0.5531914893617021,,,,GW/globe.jpg,,,,,Three Edge Diff,Three Edge Six Edge
null,,html-keyboard-response,1454909,<p></p>,,,,null,,,,,,,,,,,,,,
1039.6000000089407,,shortestpath_phase,1455952,GW/snail.jpg,,,,49,GW/dustpan.jpg,GW/basket.jpg,0,0.5416666666666666,,,,GW/basket.jpg,,,,,One Edge Diff,Three Edge Four Edge
null,,html-keyboard-response,1456960,<p></p>,,,,null,,,,,,,,,,,,,,
635.2999999970198,,shortestpath_phase,1457599,GW/wheelchair.jpg,,,,49,GW/camera.jpg,GW/teeth.jpg,1,0.5510204081632653,,,,GW/camera.jpg,,,,,Two Edge Diff,Three Edge Five Edge
null,,html-keyboard-response,1458605,<p></p>,,,,null,,,,,,,,,,,,,,
332.59999999403954,,shortestpath_phase,1458941,GW/dustpan.jpg,,,,50,GW/soldier.jpg,GW/camera.jpg,0,0.54,,,,GW/soldier.jpg,,,,,One Edge Diff,Five Edge Six Edge
null,,html-keyboard-response,1459952,<p></p>,,,,null,,,,,,,,,,,,,,
1231.2000000029802,,shortestpath_phase,1461186,GW/barrel.jpg,,,,50,GW/camera.jpg,GW/basket.jpg,0,0.5294117647058824,,,,GW/camera.jpg,,,,,Two Edge Diff,Two Edge Four Edge
null,,html-keyboard-response,1462207,<p></p>,,,,null,,,,,,,,,,,,,,
1101.800000011921,,shortestpath_phase,1463313,GW/globe.jpg,,,,50,GW/gong.jpg,GW/camera.jpg,0,0.5192307692307693,,,,GW/gong.jpg,,,,,Two Edge Diff,Two Edge Four Edge
null,,html-keyboard-response,1464320,<p></p>,,,,null,,,,,,,,,,,,,,
768.0999999940395,,shortestpath_phase,1465091,GW/barrel.jpg,,,,50,GW/teeth.jpg,GW/dustpan.jpg,0,0.5094339622641509,,,,GW/teeth.jpg,,,,,One Edge Diff,Four Edge Five Edge
null,,html-keyboard-response,1466104,<p></p>,,,,null,,,,,,,,,,,,,,
1577.5,,shortestpath_phase,1467685,GW/snail.jpg,,,,49,GW/camera.jpg,GW/teeth.jpg,1,0.5185185185185185,,,,GW/camera.jpg,,,,,Two Edge Diff,Two Edge Four Edge
null,,html-keyboard-response,1468699,<p></p>,,,,null,,,,,,,,,,,,,,
639.1999999880791,,shortestpath_phase,1469341,GW/dustpan.jpg,,,,50,GW/wheelchair.jpg,GW/barrel.jpg,1,0.5272727272727272,,,,GW/barrel.jpg,,,,,One Edge Diff,Five Edge Six Edge
null,,html-keyboard-response,1470355,<p></p>,,,,null,,,,,,,,,,,,,,
1229.5,,shortestpath_phase,1471587,GW/soldier.jpg,,,,49,GW/globe.jpg,GW/teeth.jpg,1,0.5357142857142857,,,,GW/globe.jpg,,,,,Two Edge Diff,Three Edge Five Edge
null,,html-keyboard-response,1472593,<p></p>,,,,null,,,,,,,,,,,,,,
1421.0999999940395,,shortestpath_phase,1474018,GW/dustpan.jpg,,,,49,GW/hat.jpg,GW/camera.jpg,1,0.543859649122807,,,,GW/hat.jpg,,,,,Four Edge Diff,Two Edge Six Edge
null,,html-keyboard-response,1475026,<p></p>,,,,null,,,,,,,,,,,,,,
5038.20000000298,,shortestpath_phase,1480067,GW/soldier.jpg,,,,50,GW/wheelchair.jpg,GW/basket.jpg,0,0.5344827586206896,,,,GW/wheelchair.jpg,,,,,Two Edge Diff,Two Edge Four Edge
null,,html-keyboard-response,1481077,<p></p>,,,,null,,,,,,,,,,,,,,
906.7999999970198,,shortestpath_phase,1481987,GW/dustpan.jpg,,,,49,GW/snail.jpg,GW/gong.jpg,0,0.5254237288135594,,,,GW/gong.jpg,,,,,Two Edge Diff,Two Edge Four Edge
null,,html-keyboard-response,1483000,<p></p>,,,,null,,,,,,,,,,,,,,
1515.4000000059605,,shortestpath_phase,1484518,GW/wheelchair.jpg,,,,49,GW/dustpan.jpg,GW/soldier.jpg,0,0.5166666666666667,,,,GW/soldier.jpg,,,,,Four Edge Diff,Two Edge Six Edge
null,,html-keyboard-response,1485533,<p></p>,,,,null,,,,,,,,,,,,,,
1138.7000000029802,,shortestpath_phase,1486675,GW/dustpan.jpg,,,,50,GW/gong.jpg,GW/barrel.jpg,0,0.5081967213114754,,,,GW/gong.jpg,,,,,Three Edge Diff,Three Edge Six Edge
null,,html-keyboard-response,1487681,<p></p>,,,,null,,,,,,,,,,,,,,
2531.5,,shortestpath_phase,1490215,GW/wheelchair.jpg,,,,50,GW/dustpan.jpg,GW/paint.jpg,1,0.5161290322580645,,,,GW/paint.jpg,,,,,Four Edge Diff,Two Edge Six Edge
null,,html-keyboard-response,1491235,<p></p>,,,,null,,,,,,,,,,,,,,
1405.4000000059605,,shortestpath_phase,1492644,GW/hat.jpg,,,,50,GW/camera.jpg,GW/dustpan.jpg,1,0.5238095238095238,,,,GW/dustpan.jpg,,,,,Three Edge Diff,Two Edge Five Edge
null,,html-keyboard-response,1493649,<p></p>,,,,null,,,,,,,,,,,,,,
1208.5999999940395,,shortestpath_phase,1494861,GW/wheelchair.jpg,,,,49,GW/dustpan.jpg,GW/gong.jpg,0,0.515625,,,,GW/gong.jpg,,,,,Two Edge Diff,Four Edge Six Edge
null,,html-keyboard-response,1495866,<p></p>,,,,null,,,,,,,,,,,,,,
1014.5,,shortestpath_phase,1496883,GW/dustpan.jpg,,,,49,GW/wheelchair.jpg,GW/snail.jpg,0,0.5076923076923077,,,,GW/snail.jpg,,,,,Two Edge Diff,Four Edge Six Edge
null,,html-keyboard-response,1497892,<p></p>,,,,null,,,,,,,,,,,,,,
1041.7000000029802,,shortestpath_phase,1498937,GW/teeth.jpg,,,,49,GW/snail.jpg,GW/gong.jpg,0,0.5,,,,GW/gong.jpg,,,,,One Edge Diff,Three Edge Four Edge
null,,html-keyboard-response,1499946,<p></p>,,,,null,,,,,,,,,,,,,,
1510,,shortestpath_phase,1501459,GW/dustpan.jpg,,,,49,GW/wheelchair.jpg,GW/soldier.jpg,0,0.4925373134328358,,,,GW/soldier.jpg,,,,,One Edge Diff,Five Edge Six Edge
null,,html-keyboard-response,1502476,<p></p>,,,,null,,,,,,,,,,,,,,
4093.4000000059605,,shortestpath_phase,1506572,GW/camera.jpg,,,,49,GW/globe.jpg,GW/basket.jpg,1,0.5,,,,GW/globe.jpg,,,,,One Edge Diff,Four Edge Five Edge
null,,html-keyboard-response,1507582,<p></p>,,,,null,,,,,,,,,,,,,,
1326.0999999940395,,shortestpath_phase,1508912,GW/dustpan.jpg,,,,50,GW/gong.jpg,GW/teeth.jpg,0,0.4927536231884058,,,,GW/gong.jpg,,,,,One Edge Diff,Two Edge Three Edge
null,,html-keyboard-response,1509919,<p></p>,,,,null,,,,,,,,,,,,,,
3382.7999999970198,,shortestpath_phase,1513305,GW/wheelchair.jpg,,,,49,GW/basket.jpg,GW/jukebox.jpg,0,0.4857142857142857,,,,GW/jukebox.jpg,,,,,Two Edge Diff,Three Edge Five Edge
null,,html-keyboard-response,1514312,<p></p>,,,,null,,,,,,,,,,,,,,
1439.7999999970198,,shortestpath_phase,1515755,GW/hat.jpg,,,,49,GW/camera.jpg,GW/soldier.jpg,0,0.4788732394366197,,,,GW/soldier.jpg,,,,,One Edge Diff,Four Edge Five Edge
null,,html-keyboard-response,1516763,<p></p>,,,,null,,,,,,,,,,,,,,
1164.5,,shortestpath_phase,1517930,GW/wheelchair.jpg,,,,49,GW/camera.jpg,GW/basket.jpg,1,0.4861111111111111,,,,GW/camera.jpg,,,,,Two Edge Diff,Three Edge Five Edge
null,,html-keyboard-response,1518942,<p></p>,,,,null,,,,,,,,,,,,,,
1090.0999999940395,,shortestpath_phase,1520036,GW/jukebox.jpg,,,,50,GW/hat.jpg,GW/dustpan.jpg,0,0.4794520547945205,,,,GW/hat.jpg,,,,,One Edge Diff,Two Edge Three Edge
null,,html-keyboard-response,1521046,<p></p>,,,,null,,,,,,,,,,,,,,
886.5,,shortestpath_phase,1521936,GW/dustpan.jpg,,,,50,GW/gong.jpg,GW/camera.jpg,0,0.47297297297297297,,,,GW/gong.jpg,,,,,Four Edge Diff,Two Edge Six Edge
null,,html-keyboard-response,1522952,<p></p>,,,,null,,,,,,,,,,,,,,
1686.3999999910593,,shortestpath_phase,1524642,GW/camera.jpg,,,,50,GW/barrel.jpg,GW/dustpan.jpg,0,0.4666666666666667,,,,GW/barrel.jpg,,,,,Four Edge Diff,Two Edge Six Edge
null,,html-keyboard-response,1525660,<p></p>,,,,null,,,,,,,,,,,,,,
1204.7000000029802,,shortestpath_phase,1526867,GW/gong.jpg,,,,50,GW/wheelchair.jpg,GW/paint.jpg,1,0.47368421052631576,,,,GW/paint.jpg,,,,,One Edge Diff,Three Edge Four Edge
null,,html-keyboard-response,1527879,<p></p>,,,,null,,,,,,,,,,,,,,
2268.3999999910593,,shortestpath_phase,1530150,GW/teeth.jpg,,,,50,GW/dustpan.jpg,GW/soldier.jpg,0,0.4675324675324675,,,,GW/dustpan.jpg,,,,,Two Edge Diff,Three Edge Five Edge
null,,html-keyboard-response,1531159,<p></p>,,,,null,,,,,,,,,,,,,,
770.1999999880791,,shortestpath_phase,1531932,GW/wheelchair.jpg,,,,49,GW/basket.jpg,GW/dustpan.jpg,1,0.47435897435897434,,,,GW/basket.jpg,,,,,One Edge Diff,Five Edge Six Edge
null,,html-keyboard-response,1532952,<p></p>,,,,null,,,,,,,,,,,,,,
1448.2999999970198,,shortestpath_phase,1534404,GW/dustpan.jpg,,,,50,GW/hat.jpg,GW/wheelchair.jpg,0,0.46835443037974683,,,,GW/hat.jpg,,,,,Four Edge Diff,Two Edge Six Edge
null,,html-keyboard-response,1535413,<p></p>,,,,null,,,,,,,,,,,,,,
472.29999999701977,,shortestpath_phase,1535888,GW/camera.jpg,,,,49,GW/teeth.jpg,GW/gong.jpg,0,0.4625,,,,GW/gong.jpg,,,,,Two Edge Diff,Four Edge Six Edge
null,,html-keyboard-response,1536899,<p></p>,,,,null,,,,,,,,,,,,,,
246.30000001192093,,shortestpath_phase,1537149,GW/soldier.jpg,,,,49,GW/dustpan.jpg,GW/jukebox.jpg,0,0.4567901234567901,,,,GW/jukebox.jpg,,,,,Three Edge Diff,Two Edge Five Edge
null,,html-keyboard-response,1538162,<p></p>,,,,null,,,,,,,,,,,,,,
2.2999999970197678,,shortestpath_phase,1538168,GW/teeth.jpg,,,,50,GW/basket.jpg,GW/soldier.jpg,0,0.45121951219512196,,,,GW/basket.jpg,,,,,Three Edge Diff,Two Edge Five Edge
null,,html-keyboard-response,1539180,<p></p>,,,,null,,,,,,,,,,,,,,
723.6000000089407,,shortestpath_phase,1539906,GW/soldier.jpg,,,,49,GW/wheelchair.jpg,GW/hat.jpg,1,0.4578313253012048,,,,GW/wheelchair.jpg,,,,,Two Edge Diff,Two Edge Four Edge
null,,html-keyboard-response,1540912,<p></p>,,,,null,,,,,,,,,,,,,,
2366.5999999940395,,shortestpath_phase,1543282,GW/globe.jpg,,,,50,GW/basket.jpg,GW/dustpan.jpg,0,0.4523809523809524,,,,GW/basket.jpg,,,,,One Edge Diff,Two Edge Three Edge
null,,html-keyboard-response,1544299,<p></p>,,,,null,,,,,,,,,,,,,,
676.7999999970198,,shortestpath_phase,1544980,GW/camera.jpg,,,,49,GW/dustpan.jpg,GW/hat.jpg,0,0.4470588235294118,,,,GW/hat.jpg,,,,,One Edge Diff,Five Edge Six Edge
null,,html-keyboard-response,1545986,<p></p>,,,,null,,,,,,,,,,,,,,
800.5,,shortestpath_phase,1546790,GW/gong.jpg,,,,50,GW/wheelchair.jpg,GW/barrel.jpg,1,0.45348837209302323,,,,GW/barrel.jpg,,,,,One Edge Diff,Three Edge Four Edge
null,,html-keyboard-response,1547798,<p></p>,,,,null,,,,,,,,,,,,,,
2100.4000000059605,,shortestpath_phase,1549902,GW/basket.jpg,,,,50,GW/wheelchair.jpg,GW/snail.jpg,1,0.45977011494252873,,,,GW/snail.jpg,,,,,Two Edge Diff,Three Edge Five Edge
null,,html-keyboard-response,1550908,<p></p>,,,,null,,,,,,,,,,,,,,
2174.199999988079,,shortestpath_phase,1553086,GW/hat.jpg,,,,49,GW/barrel.jpg,GW/soldier.jpg,1,0.4659090909090909,,,,GW/barrel.jpg,,,,,One Edge Diff,Three Edge Four Edge
null,,html-keyboard-response,1554106,<p></p>,,,,null,,,,,,,,,,,,,,
1446.800000011921,,shortestpath_phase,1555557,GW/teeth.jpg,,,,49,GW/basket.jpg,GW/camera.jpg,1,0.47191011235955055,,,,GW/basket.jpg,,,,,Four Edge Diff,Two Edge Six Edge
null,,html-keyboard-response,1556567,<p></p>,,,,null,,,,,,,,,,,,,,
1315.699999988079,,shortestpath_phase,1557886,GW/wheelchair.jpg,,,,50,GW/hat.jpg,GW/basket.jpg,0,0.4666666666666667,,,,GW/hat.jpg,,,,,One Edge Diff,Four Edge Five Edge
null,,html-keyboard-response,1558896,<p></p>,,,,null,,,,,,,,,,,,,,
2231.2000000029802,,shortestpath_phase,1561131,GW/gong.jpg,,,,49,GW/dustpan.jpg,GW/camera.jpg,1,0.4725274725274725,,,,GW/dustpan.jpg,,,,,Two Edge Diff,Two Edge Four Edge
null,,html-keyboard-response,1562142,<p></p>,,,,null,,,,,,,,,,,,,,
2607.5,,shortestpath_phase,1564753,GW/snail.jpg,,,,49,GW/globe.jpg,GW/dustpan.jpg,1,0.4782608695652174,,,,GW/globe.jpg,,,,,Two Edge Diff,Two Edge Four Edge
null,,html-keyboard-response,1565764,<p></p>,,,,null,,,,,,,,,,,,,,
856.0999999940395,,shortestpath_phase,1566622,GW/dustpan.jpg,,,,50,GW/teeth.jpg,GW/barrel.jpg,0,0.4731182795698925,,,,GW/teeth.jpg,,,,,Two Edge Diff,Three Edge Five Edge
null,,html-keyboard-response,1567636,<p></p>,,,,null,,,,,,,,,,,,,,
1575.2000000029802,,shortestpath_phase,1569215,GW/snail.jpg,,,,49,GW/gong.jpg,GW/hat.jpg,1,0.4787234042553192,,,,GW/gong.jpg,,,,,One Edge Diff,Two Edge Three Edge
null,,html-keyboard-response,1570229,<p></p>,,,,null,,,,,,,,,,,,,,
1007.2000000029802,,shortestpath_phase,1571239,GW/wheelchair.jpg,,,,49,GW/hat.jpg,GW/teeth.jpg,1,0.4842105263157895,,,,GW/hat.jpg,,,,,One Edge Diff,Four Edge Five Edge
null,,html-keyboard-response,1572249,<p></p>,,,,null,,,,,,,,,,,,,,
1072.2000000029802,,shortestpath_phase,1573325,GW/camera.jpg,,,,50,GW/barrel.jpg,GW/hat.jpg,0,0.4791666666666667,,,,GW/barrel.jpg,,,,,Three Edge Diff,Three Edge Six Edge
null,,html-keyboard-response,1574342,<p></p>,,,,null,,,,,,,,,,,,,,
1003,,shortestpath_phase,1575348,GW/wheelchair.jpg,,,,49,GW/basket.jpg,GW/soldier.jpg,0,0.4742268041237113,,,,GW/soldier.jpg,,,,,Three Edge Diff,Three Edge Six Edge
null,,html-keyboard-response,1576363,<p></p>,,,,null,,,,,,,,,,,,,,
1503.9000000059605,,shortestpath_phase,1577871,GW/dustpan.jpg,,,,50,GW/barrel.jpg,GW/hat.jpg,1,0.47959183673469385,,,,GW/hat.jpg,,,,,Three Edge Diff,Three Edge Six Edge
null,,html-keyboard-response,1578882,<p></p>,,,,null,,,,,,,,,,,,,,
1222.800000011921,,shortestpath_phase,1580109,GW/soldier.jpg,,,,49,GW/dustpan.jpg,GW/wheelchair.jpg,0,0.47474747474747475,,,,GW/wheelchair.jpg,,,,,Three Edge Diff,Two Edge Five Edge
null,,html-keyboard-response,1581118,<p></p>,,,,null,,,,,,,,,,,,,,
3339.2999999970198,,shortestpath_phase,1584461,GW/camera.jpg,,,,50,GW/gong.jpg,GW/jukebox.jpg,1,0.48,,,,GW/jukebox.jpg,,,,,One Edge Diff,Three Edge Four Edge
null,,html-keyboard-response,1585470,<p></p>,,,,null,,,,,,,,,,,,,,
1154.0999999940395,,shortestpath_phase,1586627,GW/teeth.jpg,,,,49,GW/globe.jpg,GW/camera.jpg,1,0.48514851485148514,,,,GW/globe.jpg,,,,,Four Edge Diff,Two Edge Six Edge
null,,html-keyboard-response,1587635,<p></p>,,,,null,,,,,,,,,,,,,,
687.8000000119209,,shortestpath_phase,1588326,GW/wheelchair.jpg,,,,49,GW/teeth.jpg,GW/paint.jpg,0,0.4803921568627451,,,,GW/paint.jpg,,,,,Three Edge Diff,Three Edge Six Edge
null,,html-keyboard-response,1589342,<p></p>,,,,null,,,,,,,,,,,,,,
1055.8999999910593,,shortestpath_phase,1590401,GW/teeth.jpg,,,,49,GW/barrel.jpg,GW/gong.jpg,0,0.47572815533980584,,,,GW/gong.jpg,,,,,One Edge Diff,Three Edge Four Edge
null,,html-keyboard-response,1591416,<p></p>,,,,null,,,,,,,,,,,,,,
3689.5,,shortestpath_phase,1595109,GW/basket.jpg,,,,50,GW/globe.jpg,GW/wheelchair.jpg,0,0.47115384615384615,,,,GW/globe.jpg,,,,,Three Edge Diff,Three Edge Six Edge
null,,html-keyboard-response,1596122,<p></p>,,,,null,,,,,,,,,,,,,,
2259.5,,shortestpath_phase,1598385,GW/camera.jpg,,,,50,GW/teeth.jpg,GW/barrel.jpg,1,0.47619047619047616,,,,GW/barrel.jpg,,,,,Four Edge Diff,Two Edge Six Edge
null,,html-keyboard-response,1599398,<p></p>,,,,null,,,,,,,,,,,,,,
2553.699999988079,,shortestpath_phase,1601955,GW/wheelchair.jpg,,,,49,GW/teeth.jpg,GW/dustpan.jpg,1,0.4811320754716981,,,,GW/teeth.jpg,,,,,One Edge Diff,Five Edge Six Edge
null,,html-keyboard-response,1602962,<p></p>,,,,null,,,,,,,,,,,,,,
717.5999999940395,,shortestpath_phase,1603683,GW/soldier.jpg,,,,49,GW/hat.jpg,GW/teeth.jpg,1,0.48598130841121495,,,,GW/hat.jpg,,,,,One Edge Diff,Four Edge Five Edge
null,,html-keyboard-response,1604693,<p></p>,,,,null,,,,,,,,,,,,,,
796.8999999910593,,shortestpath_phase,1605493,GW/camera.jpg,,,,50,GW/dustpan.jpg,GW/snail.jpg,1,0.49074074074074076,,,,GW/snail.jpg,,,,,Four Edge Diff,Two Edge Six Edge
null,,html-keyboard-response,1606506,<p></p>,,,,null,,,,,,,,,,,,,,
580.0999999940395,,shortestpath_phase,1607089,GW/dustpan.jpg,,,,49,GW/hat.jpg,GW/globe.jpg,1,0.4954128440366973,,,,GW/hat.jpg,,,,,One Edge Diff,Two Edge Three Edge
null,,html-keyboard-response,1608100,<p></p>,,,,null,,,,,,,,,,,,,,
2087.7999999970198,,shortestpath_phase,1610192,GW/teeth.jpg,,,,50,GW/camera.jpg,GW/barrel.jpg,1,0.5,,,,GW/barrel.jpg,,,,,Two Edge Diff,Four Edge Six Edge
null,,html-keyboard-response,1611199,<p></p>,,,,null,,,,,,,,,,,,,,
2123.3999999910593,,shortestpath_phase,1613326,GW/hat.jpg,,,,49,GW/paint.jpg,GW/snail.jpg,1,0.5045045045045045,,,,GW/paint.jpg,,,,,One Edge Diff,Two Edge Three Edge
null,,html-keyboard-response,1614339,<p></p>,,,,null,,,,,,,,,,,,,,
1526.7000000029802,,shortestpath_phase,1615869,GW/dustpan.jpg,,,,49,GW/camera.jpg,GW/barrel.jpg,0,0.5,,,,GW/barrel.jpg,,,,,One Edge Diff,Five Edge Six Edge
null,,html-keyboard-response,1616874,<p></p>,,,,null,,,,,,,,,,,,,,
1543.5,,shortestpath_phase,1618421,GW/camera.jpg,,,,50,GW/gong.jpg,GW/snail.jpg,1,0.504424778761062,,,,GW/snail.jpg,,,,,Two Edge Diff,Two Edge Four Edge
null,,html-keyboard-response,1619442,<p></p>,,,,null,,,,,,,,,,,,,,
2322.2000000029802,,shortestpath_phase,1621768,GW/teeth.jpg,,,,49,GW/soldier.jpg,GW/camera.jpg,1,0.5087719298245614,,,,GW/soldier.jpg,,,,,One Edge Diff,Five Edge Six Edge
null,,html-keyboard-response,1622777,<p></p>,,,,null,,,,,,,,,,,,,,
920.2999999970198,,shortestpath_phase,1623700,GW/camera.jpg,,,,49,GW/dustpan.jpg,GW/basket.jpg,0,0.5043478260869565,,,,GW/basket.jpg,,,,,One Edge Diff,Five Edge Six Edge
null,,html-keyboard-response,1624706,<p></p>,,,,null,,,,,,,,,,,,,,
1157.5,,shortestpath_phase,1625867,GW/teeth.jpg,,,,49,GW/wheelchair.jpg,GW/camera.jpg,1,0.5086206896551724,,,,GW/wheelchair.jpg,,,,,One Edge Diff,Five Edge Six Edge
null,,html-keyboard-response,1626873,<p></p>,,,,null,,,,,,,,,,,,,,
514.8999999910593,,shortestpath_phase,1627391,GW/camera.jpg,,,,50,GW/globe.jpg,GW/paint.jpg,1,0.5128205128205128,,,,GW/paint.jpg,,,,,One Edge Diff,Three Edge Four Edge
null,,html-keyboard-response,1628403,<p></p>,,,,null,,,,,,,,,,,,,,
1253.7999999970198,,shortestpath_phase,1629660,GW/teeth.jpg,,,,49,GW/wheelchair.jpg,GW/basket.jpg,0,0.5084745762711864,,,,GW/basket.jpg,,,,,Three Edge Diff,Two Edge Five Edge
null,,html-keyboard-response,1630673,<p></p>,,,,null,,,,,,,,,,,,,,
712.8000000119209,,shortestpath_phase,1631389,GW/dustpan.jpg,,,,50,GW/camera.jpg,GW/snail.jpg,1,0.5126050420168067,,,,GW/snail.jpg,,,,,Two Edge Diff,Four Edge Six Edge
null,,html-keyboard-response,1632408,<p></p>,,,,null,,,,,,,,,,,,,,
573.5999999940395,,shortestpath_phase,1632985,GW/soldier.jpg,,,,49,GW/dustpan.jpg,GW/basket.jpg,0,0.5083333333333333,,,,GW/basket.jpg,,,,,One Edge Diff,Four Edge Five Edge
null,,html-keyboard-response,1633993,<p></p>,,,,null,,,,,,,,,,,,,,
791.5,,shortestpath_phase,1634788,GW/wheelchair.jpg,,,,49,GW/paint.jpg,GW/basket.jpg,1,0.512396694214876,,,,GW/paint.jpg,,,,,Three Edge Diff,Two Edge Five Edge
null,,html-keyboard-response,1635793,<p></p>,,,,null,,,,,,,,,,,,,,
399461,,intro_1,2035257,instruct,,0,,,,,,,,,,,,,,,,
26313.60000000894,,intro_2,2061575,instruct,,1,Next,,,,,,,,,,,,,,,
6346.20000000298,,intro_3,2067924,instruct,,1,Next,,,,,,,,,,,,,,,
