rt,responses,trial_type,time_elapsed,stimulus,graphorder,button_pressed,response,key_press,stimulus_left,stimulus_right,accuracy,cumulative_accuracy,stimulus_down_left,stimulus_down_mid,stimulus_down_right,stimulus_correct,stimulus_short,stimulus_far,weighted_accuracy,missedtrial,condition,specific_pairs
7616.100000023842,{worker_id:67e42a7bdae7875a883eead0},id_enter,7623,id_enter,GW/jukebox.jpg; GW/barrel.jpg; GW/soldier.jpg; GW/dustpan.jpg; GW/hat.jpg; GW/globe.jpg; GW/teeth.jpg; GW/camera.jpg; GW/snail.jpg; GW/wheelchair.jpg; GW/paint.jpg; GW/basket.jpg; GW/gong.jpg,,,,,,,,,,,,,,,,,
14519.899999976158,,fullscreen,22150,fullscreen,,0,,,,,,,,,,,,,,,,
16196.900000035763,,intro_1,38349,instruct,,0,,,,,,,,,,,,,,,,
17402.19999998808,,intro_2,55754,instruct,,1,Next,,,,,,,,,,,,,,,
9962.5,,intro_3,65718,instruct,,1,Next,,,,,,,,,,,,,,,
null,,learn_prac_1,67722,lean_prac_1,,,,null,,,,,,,,,,,,,,
null,,html-keyboard-response,68727,<p></p>,,,,null,,,,,,,,,,,,,,
3565.300000011921,,intro_1,72294,instruct,,0,,,,,,,,,,,,,,,,
6419.899999976158,,intro_2,78716,instruct,,1,Next,,,,,,,,,,,,,,,
null,,learn_prac_2,80719,lean_prac_2,,,,null,,,,,,,,,,,,,,
null,,html-keyboard-response,81722,<p></p>,,,,null,,,,,,,,,,,,,,
2927.5,,intro_1,84652,instruct,,0,,,,,,,,,,,,,,,,
6544.900000035763,,intro_2,91200,instruct,,1,Next,,,,,,,,,,,,,,,
40459,,intro_3,131661,instruct,,1,Next,,,,,,,,,,,,,,,
null,,prac_atten_color_black,132618,black_plus_sign,,,,null,,,,,,,,,,,,,,
null,,prac_atten_color,133068,prac_stop_color,,,,null,,,,,,,,,,,,,,
551.1999999880791,,prac_atten_color_black,135072,black_plus_sign,,,,49,,,,,,,,,,,,,,
null,,prac_atten_color_black,136031,black_plus_sign,,,,null,,,,,,,,,,,,,,
null,,prac_atten_color,136654,prac_stop_color,,,,null,,,,,,,,,,,,,,
240.89999997615814,,prac_atten_color_black,138671,black_plus_sign,,,,50,,,,,,,,,,,,,,
null,,prac_atten_color_black,139453,black_plus_sign,,,,null,,,,,,,,,,,,,,
336.10000002384186,,prac_atten_color,140507,prac_stop_color,,,,49,,,,,,,,,,,,,,
null,,prac_atten_color_black,142510,black_plus_sign,,,,null,,,,,,,,,,,,,,
4362.399999976158,,attentioncheck_help,146877,instruct,,,,32,,,,,,,,,,,,,,
null,,prac_atten_color_black,147230,black_plus_sign,,,,null,,,,,,,,,,,,,,
null,,prac_atten_color,147922,prac_stop_color,,,,null,,,,,,,,,,,,,,
441.5,,prac_atten_color_black,149926,black_plus_sign,,,,49,,,,,,,,,,,,,,
null,,prac_atten_color_black,150640,black_plus_sign,,,,null,,,,,,,,,,,,,,
657.1000000238419,,prac_atten_color,151704,prac_stop_color,,,,50,,,,,,,,,,,,,,
null,,prac_atten_color_black,153706,black_plus_sign,,,,null,,,,,,,,,,,,,,
null,,prac_atten_color_black,154051,black_plus_sign,,,,null,,,,,,,,,,,,,,
626.5,,prac_atten_color,154865,prac_stop_color,,,,50,,,,,,,,,,,,,,
null,,prac_atten_color_black,156868,black_plus_sign,,,,null,,,,,,,,,,,,,,
null,,prac_atten_color_black,157461,black_plus_sign,,,,null,,,,,,,,,,,,,,
723.0999999642372,,prac_atten_color,158234,prac_stop_color,,,,49,,,,,,,,,,,,,,
null,,prac_atten_color_black,160238,black_plus_sign,,,,null,,,,,,,,,,,,,,
null,,prac_atten_color_black,160872,black_plus_sign,,,,null,,,,,,,,,,,,,,
null,,prac_atten_color,161525,prac_stop_color,,,,null,,,,,,,,,,,,,,
87.89999997615814,,prac_atten_color_black,163528,black_plus_sign,,,,50,,,,,,,,,,,,,,
null,,prac_atten_color_black,164282,black_plus_sign,,,,null,,,,,,,,,,,,,,
null,,prac_atten_color,164747,prac_stop_color,,,,null,,,,,,,,,,,,,,
173.5,,prac_atten_color_black,166749,black_plus_sign,,,,49,,,,,,,,,,,,,,
null,,prac_atten_color_black,167692,black_plus_sign,,,,null,,,,,,,,,,,,,,
640.1999999880791,,prac_atten_color,168620,prac_stop_color,,,,49,,,,,,,,,,,,,,
null,,prac_atten_color_black,170623,black_plus_sign,,,,null,,,,,,,,,,,,,,
8918.799999952316,,attentioncheck_feedback,179545,cross_check_feedback,,0,,,,,,,,,,,,,,,,
15429.600000023842,,last_instruct,194976,instruct,,,,32,,,,,,,,,,,,,,
null,,learn_phase(without_color),196980,black_plus_sign,,,,null,GW/jukebox.jpg,GW/barrel.jpg,,,,,,,,,,,,
null,,black_cross(without_color),197423,blue,,,,null,GW/jukebox.jpg,GW/barrel.jpg,,,,,,,,,,,,
null,,rt_plussign_withcolor,197926,blue,,,,null,GW/jukebox.jpg,GW/barrel.jpg,,,,,,,,,,,,
1358.199999988079,,rt_thecrossant_black,199490,black_plus_sign,,,,49,,,1,1,,,,,,,,,,
null,,color_black,199595,black_plus_sign,,,,null,,,,,,,,,,,,,,
null,,learn_phase(without_color),201600,black_plus_sign,,,,null,GW/globe.jpg,GW/teeth.jpg,,,,,,,,,,,,
null,,black_cross(without_color),202574,blue,,,,null,GW/globe.jpg,GW/teeth.jpg,,,,,,,,,,,,
null,,rt_plussign_withcolor,203078,blue,,,,null,GW/globe.jpg,GW/teeth.jpg,,,,,,,,,,,,
1338.5,,rt_thecrossant_black,204110,black_plus_sign,,,,49,,,1,1,,,,,,,,,,
null,,color_black,204213,black_plus_sign,,,,null,,,,,,,,,,,,,,
null,,learn_phase(without_color),206218,black_plus_sign,,,,null,GW/camera.jpg,GW/snail.jpg,,,,,,,,,,,,
null,,black_cross(without_color),207045,green,,,,null,GW/camera.jpg,GW/snail.jpg,,,,,,,,,,,,
null,,rt_plussign_withcolor,207548,green,,,,null,GW/camera.jpg,GW/snail.jpg,,,,,,,,,,,,
1360.5999999642372,,rt_thecrossant_black,208738,black_plus_sign,,,,50,,,1,1,,,,,,,,,,
null,,color_black,208843,black_plus_sign,,,,null,,,,,,,,,,,,,,
null,,learn_phase(without_color),210847,black_plus_sign,,,,null,GW/globe.jpg,GW/snail.jpg,,,,,,,,,,,,
null,,black_cross(without_color),211818,blue,,,,null,GW/globe.jpg,GW/snail.jpg,,,,,,,,,,,,
null,,rt_plussign_withcolor,212321,blue,,,,null,GW/globe.jpg,GW/snail.jpg,,,,,,,,,,,,
1139.4000000357628,,rt_thecrossant_black,213356,black_plus_sign,,,,49,,,1,1,,,,,,,,,,
null,,color_black,213460,black_plus_sign,,,,null,,,,,,,,,,,,,,
null,,learn_phase(without_color),215464,black_plus_sign,,,,null,GW/jukebox.jpg,GW/barrel.jpg,,,,,,,,,,,,
null,,black_cross(without_color),216212,green,,,,null,GW/jukebox.jpg,GW/barrel.jpg,,,,,,,,,,,,
null,,rt_plussign_withcolor,216716,green,,,,null,GW/jukebox.jpg,GW/barrel.jpg,,,,,,,,,,,,
1346.199999988079,,rt_thecrossant_black,217974,black_plus_sign,,,,50,,,1,1,,,,,,,,,,
null,,color_black,218078,black_plus_sign,,,,null,,,,,,,,,,,,,,
null,,learn_phase(without_color),220082,black_plus_sign,,,,null,GW/soldier.jpg,GW/globe.jpg,,,,,,,,,,,,
null,,black_cross(without_color),220843,blue,,,,null,GW/soldier.jpg,GW/globe.jpg,,,,,,,,,,,,
null,,rt_plussign_withcolor,221346,blue,,,,null,GW/soldier.jpg,GW/globe.jpg,,,,,,,,,,,,
996.7000000476837,,rt_thecrossant_black,222591,black_plus_sign,,,,49,,,1,1,,,,,,,,,,
null,,color_black,222710,black_plus_sign,,,,null,,,,,,,,,,,,,,
null,,learn_phase(without_color),224714,black_plus_sign,,,,null,GW/teeth.jpg,GW/snail.jpg,,,,,,,,,,,,
null,,black_cross(without_color),225764,blue,,,,null,GW/teeth.jpg,GW/snail.jpg,,,,,,,,,,,,
null,,rt_plussign_withcolor,226266,blue,,,,null,GW/teeth.jpg,GW/snail.jpg,,,,,,,,,,,,
1130.5999999642372,,rt_thecrossant_black,227222,black_plus_sign,,,,49,,,1,1,,,,,,,,,,
null,,color_black,227326,black_plus_sign,,,,null,,,,,,,,,,,,,,
null,,learn_phase(without_color),229331,black_plus_sign,,,,null,GW/barrel.jpg,GW/dustpan.jpg,,,,,,,,,,,,
null,,black_cross(without_color),230292,green,,,,null,GW/barrel.jpg,GW/dustpan.jpg,,,,,,,,,,,,
null,,rt_plussign_withcolor,230794,green,,,,null,GW/barrel.jpg,GW/dustpan.jpg,,,,,,,,,,,,
1489.300000011921,,rt_thecrossant_black,231840,black_plus_sign,,,,50,,,1,1,,,,,,,,,,
null,,color_black,231944,black_plus_sign,,,,null,,,,,,,,,,,,,,
null,,learn_phase(without_color),233948,black_plus_sign,,,,null,GW/jukebox.jpg,GW/barrel.jpg,,,,,,,,,,,,
null,,black_cross(without_color),234678,green,,,,null,GW/jukebox.jpg,GW/barrel.jpg,,,,,,,,,,,,
null,,rt_plussign_withcolor,235181,green,,,,null,GW/jukebox.jpg,GW/barrel.jpg,,,,,,,,,,,,
1444.5,,rt_thecrossant_black,236457,black_plus_sign,,,,50,,,1,1,,,,,,,,,,
null,,color_black,236561,black_plus_sign,,,,null,,,,,,,,,,,,,,
null,,learn_phase(without_color),238565,black_plus_sign,,,,null,GW/teeth.jpg,GW/gong.jpg,,,,,,,,,,,,
null,,black_cross(without_color),239323,green,,,,null,GW/teeth.jpg,GW/gong.jpg,,,,,,,,,,,,
null,,rt_plussign_withcolor,239826,green,,,,null,GW/teeth.jpg,GW/gong.jpg,,,,,,,,,,,,
1444.3999999761581,,rt_thecrossant_black,241075,black_plus_sign,,,,50,,,1,1,,,,,,,,,,
null,,color_black,241178,black_plus_sign,,,,null,,,,,,,,,,,,,,
null,,learn_phase(without_color),243182,black_plus_sign,,,,null,GW/barrel.jpg,GW/dustpan.jpg,,,,,,,,,,,,
null,,black_cross(without_color),243653,green,,,,null,GW/barrel.jpg,GW/dustpan.jpg,,,,,,,,,,,,
null,,rt_plussign_withcolor,244154,green,,,,null,GW/barrel.jpg,GW/dustpan.jpg,,,,,,,,,,,,
1341.6000000238419,,rt_thecrossant_black,245690,black_plus_sign,,,,50,,,1,1,,,,,,,,,,
null,,color_black,245794,black_plus_sign,,,,null,,,,,,,,,,,,,,
null,,learn_phase(without_color),247798,black_plus_sign,,,,null,GW/dustpan.jpg,GW/basket.jpg,,,,,,,,,,,,
null,,black_cross(without_color),248813,green,,,,null,GW/dustpan.jpg,GW/basket.jpg,,,,,,,,,,,,
null,,rt_plussign_withcolor,249316,green,,,,null,GW/dustpan.jpg,GW/basket.jpg,,,,,,,,,,,,
825.3999999761581,,rt_thecrossant_black,250309,black_plus_sign,,,,50,,,1,1,,,,,,,,,,
null,,color_black,250412,black_plus_sign,,,,null,,,,,,,,,,,,,,
null,,learn_phase(without_color),252416,black_plus_sign,,,,null,GW/snail.jpg,GW/paint.jpg,,,,,,,,,,,,
null,,black_cross(without_color),253166,green,,,,null,GW/snail.jpg,GW/paint.jpg,,,,,,,,,,,,
null,,rt_plussign_withcolor,253668,green,,,,null,GW/snail.jpg,GW/paint.jpg,,,,,,,,,,,,
1295.699999988079,,rt_thecrossant_black,254924,black_plus_sign,,,,50,,,1,1,,,,,,,,,,
null,,color_black,255028,black_plus_sign,,,,null,,,,,,,,,,,,,,
null,,learn_phase(without_color),257032,black_plus_sign,,,,null,GW/jukebox.jpg,GW/barrel.jpg,,,,,,,,,,,,
null,,black_cross(without_color),257864,blue,,,,null,GW/jukebox.jpg,GW/barrel.jpg,,,,,,,,,,,,
null,,rt_plussign_withcolor,258367,blue,,,,null,GW/jukebox.jpg,GW/barrel.jpg,,,,,,,,,,,,
960,,rt_thecrossant_black,259542,black_plus_sign,,,,49,,,1,1,,,,,,,,,,
null,,color_black,259645,black_plus_sign,,,,null,,,,,,,,,,,,,,
null,,learn_phase(without_color),261649,black_plus_sign,,,,null,GW/dustpan.jpg,GW/basket.jpg,,,,,,,,,,,,
null,,black_cross(without_color),262224,blue,,,,null,GW/dustpan.jpg,GW/basket.jpg,,,,,,,,,,,,
null,,rt_plussign_withcolor,262727,blue,,,,null,GW/dustpan.jpg,GW/basket.jpg,,,,,,,,,,,,
1144.4000000357628,,rt_thecrossant_black,264159,black_plus_sign,,,,50,,,0,0.9333333333333333,,,,,,,,,,
null,,color_black,264262,black_plus_sign,,,,null,,,,,,,,,,,,,,
null,,learn_phase(without_color),266266,black_plus_sign,,,,null,GW/barrel.jpg,GW/dustpan.jpg,,,,,,,,,,,,
null,,black_cross(without_color),266803,blue,,,,null,GW/barrel.jpg,GW/dustpan.jpg,,,,,,,,,,,,
null,,rt_plussign_withcolor,267307,blue,,,,null,GW/barrel.jpg,GW/dustpan.jpg,,,,,,,,,,,,
1460.199999988079,,rt_thecrossant_black,268776,black_plus_sign,,,,49,,,1,0.9375,,,,,,,,,,
null,,color_black,268879,black_plus_sign,,,,null,,,,,,,,,,,,,,
null,,learn_phase(without_color),270883,black_plus_sign,,,,null,GW/dustpan.jpg,GW/basket.jpg,,,,,,,,,,,,
null,,black_cross(without_color),271870,blue,,,,null,GW/dustpan.jpg,GW/basket.jpg,,,,,,,,,,,,
null,,rt_plussign_withcolor,272371,blue,,,,null,GW/dustpan.jpg,GW/basket.jpg,,,,,,,,,,,,
837.3999999761581,,rt_thecrossant_black,273390,black_plus_sign,,,,49,,,1,0.9411764705882353,,,,,,,,,,
null,,color_black,273493,black_plus_sign,,,,null,,,,,,,,,,,,,,
null,,learn_phase(without_color),275498,black_plus_sign,,,,null,GW/soldier.jpg,GW/paint.jpg,,,,,,,,,,,,
null,,black_cross(without_color),276157,green,,,,null,GW/soldier.jpg,GW/paint.jpg,,,,,,,,,,,,
null,,rt_plussign_withcolor,276660,green,,,,null,GW/soldier.jpg,GW/paint.jpg,,,,,,,,,,,,
1444.300000011921,,rt_thecrossant_black,278008,black_plus_sign,,,,50,,,1,0.9444444444444444,,,,,,,,,,
null,,color_black,278111,black_plus_sign,,,,null,,,,,,,,,,,,,,
null,,learn_phase(without_color),280115,black_plus_sign,,,,null,GW/barrel.jpg,GW/soldier.jpg,,,,,,,,,,,,
null,,black_cross(without_color),281058,green,,,,null,GW/barrel.jpg,GW/soldier.jpg,,,,,,,,,,,,
null,,rt_plussign_withcolor,281561,green,,,,null,GW/barrel.jpg,GW/soldier.jpg,,,,,,,,,,,,
1065.699999988079,,rt_thecrossant_black,282625,black_plus_sign,,,,50,,,1,0.9473684210526315,,,,,,,,,,
null,,color_black,282729,black_plus_sign,,,,null,,,,,,,,,,,,,,
null,,learn_phase(without_color),284734,black_plus_sign,,,,null,GW/dustpan.jpg,GW/hat.jpg,,,,,,,,,,,,
null,,black_cross(without_color),285294,blue,,,,null,GW/dustpan.jpg,GW/hat.jpg,,,,,,,,,,,,
null,,rt_plussign_withcolor,285797,blue,,,,null,GW/dustpan.jpg,GW/hat.jpg,,,,,,,,,,,,
1853.5999999642372,,rt_thecrossant_black,287244,black_plus_sign,,,,49,,,1,0.95,,,,,,,,,,
null,,color_black,287348,black_plus_sign,,,,null,,,,,,,,,,,,,,
null,,learn_phase(without_color),289352,black_plus_sign,,,,null,GW/globe.jpg,GW/teeth.jpg,,,,,,,,,,,,
null,,black_cross(without_color),289889,green,,,,null,GW/globe.jpg,GW/teeth.jpg,,,,,,,,,,,,
null,,rt_plussign_withcolor,290392,green,,,,null,GW/globe.jpg,GW/teeth.jpg,,,,,,,,,,,,
892.1000000238419,,rt_thecrossant_black,291868,black_plus_sign,,,,50,,,1,0.9523809523809523,,,,,,,,,,
null,,color_black,291971,black_plus_sign,,,,null,,,,,,,,,,,,,,
null,,learn_phase(without_color),293976,black_plus_sign,,,,null,GW/paint.jpg,GW/basket.jpg,,,,,,,,,,,,
null,,black_cross(without_color),294594,blue,,,,null,GW/paint.jpg,GW/basket.jpg,,,,,,,,,,,,
null,,rt_plussign_withcolor,295096,blue,,,,null,GW/paint.jpg,GW/basket.jpg,,,,,,,,,,,,
857.8999999761581,,rt_thecrossant_black,296498,black_plus_sign,,,,49,,,1,0.9545454545454546,,,,,,,,,,
null,,color_black,296601,black_plus_sign,,,,null,,,,,,,,,,,,,,
null,,learn_phase(without_color),298605,black_plus_sign,,,,null,GW/camera.jpg,GW/wheelchair.jpg,,,,,,,,,,,,
null,,black_cross(without_color),299246,blue,,,,null,GW/camera.jpg,GW/wheelchair.jpg,,,,,,,,,,,,
null,,rt_plussign_withcolor,299749,blue,,,,null,GW/camera.jpg,GW/wheelchair.jpg,,,,,,,,,,,,
1383.0999999642372,,rt_thecrossant_black,301115,black_plus_sign,,,,49,,,1,0.9565217391304348,,,,,,,,,,
null,,color_black,301218,black_plus_sign,,,,null,,,,,,,,,,,,,,
null,,learn_phase(without_color),303222,black_plus_sign,,,,null,GW/camera.jpg,GW/snail.jpg,,,,,,,,,,,,
null,,black_cross(without_color),303790,blue,,,,null,GW/camera.jpg,GW/snail.jpg,,,,,,,,,,,,
null,,rt_plussign_withcolor,304293,blue,,,,null,GW/camera.jpg,GW/snail.jpg,,,,,,,,,,,,
1085.199999988079,,rt_thecrossant_black,305732,black_plus_sign,,,,49,,,1,0.9583333333333334,,,,,,,,,,
null,,color_black,305835,black_plus_sign,,,,null,,,,,,,,,,,,,,
null,,learn_phase(without_color),307839,black_plus_sign,,,,null,GW/soldier.jpg,GW/paint.jpg,,,,,,,,,,,,
null,,black_cross(without_color),308479,blue,,,,null,GW/soldier.jpg,GW/paint.jpg,,,,,,,,,,,,
null,,rt_plussign_withcolor,308981,blue,,,,null,GW/soldier.jpg,GW/paint.jpg,,,,,,,,,,,,
889.1999999880791,,rt_thecrossant_black,310348,black_plus_sign,,,,49,,,1,0.96,,,,,,,,,,
null,,color_black,310451,black_plus_sign,,,,null,,,,,,,,,,,,,,
null,,learn_phase(without_color),312456,black_plus_sign,,,,null,GW/snail.jpg,GW/paint.jpg,,,,,,,,,,,,
null,,black_cross(without_color),313405,green,,,,null,GW/snail.jpg,GW/paint.jpg,,,,,,,,,,,,
null,,rt_plussign_withcolor,313908,green,,,,null,GW/snail.jpg,GW/paint.jpg,,,,,,,,,,,,
926,,rt_thecrossant_black,314965,black_plus_sign,,,,50,,,1,0.9615384615384616,,,,,,,,,,
null,,color_black,315068,black_plus_sign,,,,null,,,,,,,,,,,,,,
null,,learn_phase(without_color),317073,black_plus_sign,,,,null,GW/barrel.jpg,GW/dustpan.jpg,,,,,,,,,,,,
null,,black_cross(without_color),317915,green,,,,null,GW/barrel.jpg,GW/dustpan.jpg,,,,,,,,,,,,
null,,rt_plussign_withcolor,318418,green,,,,null,GW/barrel.jpg,GW/dustpan.jpg,,,,,,,,,,,,
1355.1000000238419,,rt_thecrossant_black,319583,black_plus_sign,,,,50,,,1,0.9629629629629629,,,,,,,,,,
null,,color_black,319701,black_plus_sign,,,,null,,,,,,,,,,,,,,
null,,learn_phase(without_color),321705,black_plus_sign,,,,null,GW/globe.jpg,GW/snail.jpg,,,,,,,,,,,,
null,,black_cross(without_color),322426,green,,,,null,GW/globe.jpg,GW/snail.jpg,,,,,,,,,,,,
null,,rt_plussign_withcolor,322930,green,,,,null,GW/globe.jpg,GW/snail.jpg,,,,,,,,,,,,
1269.5999999642372,,rt_thecrossant_black,324215,black_plus_sign,,,,50,,,1,0.9642857142857143,,,,,,,,,,
null,,color_black,324318,black_plus_sign,,,,null,,,,,,,,,,,,,,
null,,learn_phase(without_color),326322,black_plus_sign,,,,null,GW/barrel.jpg,GW/soldier.jpg,,,,,,,,,,,,
null,,black_cross(without_color),327129,green,,,,null,GW/barrel.jpg,GW/soldier.jpg,,,,,,,,,,,,
null,,rt_plussign_withcolor,327631,green,,,,null,GW/barrel.jpg,GW/soldier.jpg,,,,,,,,,,,,
995.7999999523163,,rt_thecrossant_black,328829,black_plus_sign,,,,50,,,1,0.9655172413793104,,,,,,,,,,
null,,color_black,328931,black_plus_sign,,,,null,,,,,,,,,,,,,,
null,,learn_phase(without_color),330936,black_plus_sign,,,,null,GW/dustpan.jpg,GW/basket.jpg,,,,,,,,,,,,
null,,black_cross(without_color),331895,green,,,,null,GW/dustpan.jpg,GW/basket.jpg,,,,,,,,,,,,
null,,rt_plussign_withcolor,332397,green,,,,null,GW/dustpan.jpg,GW/basket.jpg,,,,,,,,,,,,
992.7000000476837,,rt_thecrossant_black,333443,black_plus_sign,,,,50,,,1,0.9666666666666667,,,,,,,,,,
null,,color_black,333545,black_plus_sign,,,,null,,,,,,,,,,,,,,
null,,learn_phase(without_color),335550,black_plus_sign,,,,null,GW/snail.jpg,GW/paint.jpg,,,,,,,,,,,,
null,,black_cross(without_color),336354,green,,,,null,GW/snail.jpg,GW/paint.jpg,,,,,,,,,,,,
null,,rt_plussign_withcolor,336857,green,,,,null,GW/snail.jpg,GW/paint.jpg,,,,,,,,,,,,
1360.699999988079,,rt_thecrossant_black,338069,black_plus_sign,,,,50,,,1,0.967741935483871,,,,,,,,,,
null,,color_black,338173,black_plus_sign,,,,null,,,,,,,,,,,,,,
null,,learn_phase(without_color),340177,black_plus_sign,,,,null,GW/teeth.jpg,GW/snail.jpg,,,,,,,,,,,,
null,,black_cross(without_color),340749,blue,,,,null,GW/teeth.jpg,GW/snail.jpg,,,,,,,,,,,,
null,,rt_plussign_withcolor,341251,blue,,,,null,GW/teeth.jpg,GW/snail.jpg,,,,,,,,,,,,
1154,,rt_thecrossant_black,342685,black_plus_sign,,,,49,,,1,0.96875,,,,,,,,,,
null,,color_black,342789,black_plus_sign,,,,null,,,,,,,,,,,,,,
null,,learn_phase(without_color),344793,black_plus_sign,,,,null,GW/soldier.jpg,GW/paint.jpg,,,,,,,,,,,,
null,,black_cross(without_color),345814,blue,,,,null,GW/soldier.jpg,GW/paint.jpg,,,,,,,,,,,,
null,,rt_plussign_withcolor,346318,blue,,,,null,GW/soldier.jpg,GW/paint.jpg,,,,,,,,,,,,
954.5,,rt_thecrossant_black,347302,black_plus_sign,,,,49,,,1,0.9696969696969697,,,,,,,,,,
null,,color_black,347406,black_plus_sign,,,,null,,,,,,,,,,,,,,
null,,learn_phase(without_color),349410,black_plus_sign,,,,null,GW/dustpan.jpg,GW/hat.jpg,,,,,,,,,,,,
null,,black_cross(without_color),350166,green,,,,null,GW/dustpan.jpg,GW/hat.jpg,,,,,,,,,,,,
null,,rt_plussign_withcolor,350668,green,,,,null,GW/dustpan.jpg,GW/hat.jpg,,,,,,,,,,,,
1308.2999999523163,,rt_thecrossant_black,351918,black_plus_sign,,,,50,,,1,0.9705882352941176,,,,,,,,,,
null,,color_black,352021,black_plus_sign,,,,null,,,,,,,,,,,,,,
null,,learn_phase(without_color),354026,black_plus_sign,,,,null,GW/globe.jpg,GW/snail.jpg,,,,,,,,,,,,
null,,black_cross(without_color),355120,green,,,,null,GW/globe.jpg,GW/snail.jpg,,,,,,,,,,,,
null,,rt_plussign_withcolor,355624,green,,,,null,GW/globe.jpg,GW/snail.jpg,,,,,,,,,,,,
1193.699999988079,,rt_thecrossant_black,356536,black_plus_sign,,,,50,,,1,0.9714285714285714,,,,,,,,,,
null,,color_black,356639,black_plus_sign,,,,null,,,,,,,,,,,,,,
null,,learn_phase(without_color),358643,black_plus_sign,,,,null,GW/barrel.jpg,GW/dustpan.jpg,,,,,,,,,,,,
null,,black_cross(without_color),359513,blue,,,,null,GW/barrel.jpg,GW/dustpan.jpg,,,,,,,,,,,,
null,,rt_plussign_withcolor,360016,blue,,,,null,GW/barrel.jpg,GW/dustpan.jpg,,,,,,,,,,,,
1959,,rt_thecrossant_black,361153,black_plus_sign,,,,49,,,1,0.9722222222222222,,,,,,,,,,
null,,color_black,361258,black_plus_sign,,,,null,,,,,,,,,,,,,,
null,,learn_phase(without_color),363261,black_plus_sign,,,,null,GW/teeth.jpg,GW/snail.jpg,,,,,,,,,,,,
null,,black_cross(without_color),363834,blue,,,,null,GW/teeth.jpg,GW/snail.jpg,,,,,,,,,,,,
null,,rt_plussign_withcolor,364336,blue,,,,null,GW/teeth.jpg,GW/snail.jpg,,,,,,,,,,,,
1295.7000000476837,,rt_thecrossant_black,365771,black_plus_sign,,,,49,,,1,0.972972972972973,,,,,,,,,,
null,,color_black,365874,black_plus_sign,,,,null,,,,,,,,,,,,,,
null,,learn_phase(without_color),367879,black_plus_sign,,,,null,GW/globe.jpg,GW/teeth.jpg,,,,,,,,,,,,
null,,black_cross(without_color),368938,green,,,,null,GW/globe.jpg,GW/teeth.jpg,,,,,,,,,,,,
null,,rt_plussign_withcolor,369440,green,,,,null,GW/globe.jpg,GW/teeth.jpg,,,,,,,,,,,,
1040.199999988079,,rt_thecrossant_black,370389,black_plus_sign,,,,50,,,1,0.9736842105263158,,,,,,,,,,
null,,color_black,370492,black_plus_sign,,,,null,,,,,,,,,,,,,,
null,,learn_phase(without_color),372497,black_plus_sign,,,,null,GW/teeth.jpg,GW/camera.jpg,,,,,,,,,,,,
null,,black_cross(without_color),372953,blue,,,,null,GW/teeth.jpg,GW/camera.jpg,,,,,,,,,,,,
null,,rt_plussign_withcolor,373455,blue,,,,null,GW/teeth.jpg,GW/camera.jpg,,,,,,,,,,,,
1439.5,,rt_thecrossant_black,375005,black_plus_sign,,,,49,,,1,0.9743589743589743,,,,,,,,,,
null,,color_black,375108,black_plus_sign,,,,null,,,,,,,,,,,,,,
null,,learn_phase(without_color),377112,black_plus_sign,,,,null,GW/camera.jpg,GW/snail.jpg,,,,,,,,,,,,
null,,black_cross(without_color),377632,green,,,,null,GW/camera.jpg,GW/snail.jpg,,,,,,,,,,,,
null,,rt_plussign_withcolor,378136,green,,,,null,GW/camera.jpg,GW/snail.jpg,,,,,,,,,,,,
920.3999999761581,,rt_thecrossant_black,379631,black_plus_sign,,,,50,,,1,0.975,,,,,,,,,,
null,,color_black,379744,black_plus_sign,,,,null,,,,,,,,,,,,,,
null,,learn_phase(without_color),381749,black_plus_sign,,,,null,GW/dustpan.jpg,GW/hat.jpg,,,,,,,,,,,,
null,,black_cross(without_color),382173,blue,,,,null,GW/dustpan.jpg,GW/hat.jpg,,,,,,,,,,,,
null,,rt_plussign_withcolor,382675,blue,,,,null,GW/dustpan.jpg,GW/hat.jpg,,,,,,,,,,,,
923.1000000238419,,rt_thecrossant_black,384258,black_plus_sign,,,,49,,,1,0.975609756097561,,,,,,,,,,
null,,color_black,384362,black_plus_sign,,,,null,,,,,,,,,,,,,,
null,,learn_phase(without_color),386366,black_plus_sign,,,,null,GW/camera.jpg,GW/wheelchair.jpg,,,,,,,,,,,,
null,,black_cross(without_color),386952,blue,,,,null,GW/camera.jpg,GW/wheelchair.jpg,,,,,,,,,,,,
null,,rt_plussign_withcolor,387455,blue,,,,null,GW/camera.jpg,GW/wheelchair.jpg,,,,,,,,,,,,
888,,rt_thecrossant_black,388878,black_plus_sign,,,,49,,,1,0.9761904761904762,,,,,,,,,,
null,,color_black,388981,black_plus_sign,,,,null,,,,,,,,,,,,,,
null,,learn_phase(without_color),390985,black_plus_sign,,,,null,GW/paint.jpg,GW/basket.jpg,,,,,,,,,,,,
null,,black_cross(without_color),391744,blue,,,,null,GW/paint.jpg,GW/basket.jpg,,,,,,,,,,,,
null,,rt_plussign_withcolor,392246,blue,,,,null,GW/paint.jpg,GW/basket.jpg,,,,,,,,,,,,
825,,rt_thecrossant_black,393495,black_plus_sign,,,,49,,,1,0.9767441860465116,,,,,,,,,,
null,,color_black,393599,black_plus_sign,,,,null,,,,,,,,,,,,,,
null,,learn_phase(without_color),395603,black_plus_sign,,,,null,GW/globe.jpg,GW/snail.jpg,,,,,,,,,,,,
null,,black_cross(without_color),396043,green,,,,null,GW/globe.jpg,GW/snail.jpg,,,,,,,,,,,,
null,,rt_plussign_withcolor,396545,green,,,,null,GW/globe.jpg,GW/snail.jpg,,,,,,,,,,,,
1073.300000011921,,rt_thecrossant_black,398112,black_plus_sign,,,,50,,,1,0.9772727272727273,,,,,,,,,,
null,,color_black,398216,black_plus_sign,,,,null,,,,,,,,,,,,,,
null,,learn_phase(without_color),400219,black_plus_sign,,,,null,GW/dustpan.jpg,GW/basket.jpg,,,,,,,,,,,,
null,,black_cross(without_color),400940,green,,,,null,GW/dustpan.jpg,GW/basket.jpg,,,,,,,,,,,,
null,,rt_plussign_withcolor,401442,green,,,,null,GW/dustpan.jpg,GW/basket.jpg,,,,,,,,,,,,
749,,rt_thecrossant_black,402728,black_plus_sign,,,,50,,,1,0.9777777777777777,,,,,,,,,,
null,,color_black,402831,black_plus_sign,,,,null,,,,,,,,,,,,,,
null,,learn_phase(without_color),404834,black_plus_sign,,,,null,GW/barrel.jpg,GW/soldier.jpg,,,,,,,,,,,,
null,,black_cross(without_color),405388,blue,,,,null,GW/barrel.jpg,GW/soldier.jpg,,,,,,,,,,,,
null,,rt_plussign_withcolor,405890,blue,,,,null,GW/barrel.jpg,GW/soldier.jpg,,,,,,,,,,,,
1378.699999988079,,rt_thecrossant_black,407341,black_plus_sign,,,,49,,,1,0.9782608695652174,,,,,,,,,,
null,,color_black,407443,black_plus_sign,,,,null,,,,,,,,,,,,,,
null,,learn_phase(without_color),409446,black_plus_sign,,,,null,GW/teeth.jpg,GW/camera.jpg,,,,,,,,,,,,
null,,black_cross(without_color),409930,green,,,,null,GW/teeth.jpg,GW/camera.jpg,,,,,,,,,,,,
null,,rt_plussign_withcolor,410432,green,,,,null,GW/teeth.jpg,GW/camera.jpg,,,,,,,,,,,,
1147.4000000357628,,rt_thecrossant_black,411953,black_plus_sign,,,,50,,,1,0.9787234042553191,,,,,,,,,,
null,,color_black,412056,black_plus_sign,,,,null,,,,,,,,,,,,,,
null,,learn_phase(without_color),414058,black_plus_sign,,,,null,GW/camera.jpg,GW/wheelchair.jpg,,,,,,,,,,,,
null,,black_cross(without_color),415066,green,,,,null,GW/camera.jpg,GW/wheelchair.jpg,,,,,,,,,,,,
null,,rt_plussign_withcolor,415568,green,,,,null,GW/camera.jpg,GW/wheelchair.jpg,,,,,,,,,,,,
652,,rt_thecrossant_black,416564,black_plus_sign,,,,50,,,1,0.9791666666666666,,,,,,,,,,
null,,color_black,416668,black_plus_sign,,,,null,,,,,,,,,,,,,,
null,,learn_phase(without_color),418673,black_plus_sign,,,,null,GW/camera.jpg,GW/snail.jpg,,,,,,,,,,,,
null,,black_cross(without_color),419228,blue,,,,null,GW/camera.jpg,GW/snail.jpg,,,,,,,,,,,,
null,,rt_plussign_withcolor,419730,blue,,,,null,GW/camera.jpg,GW/snail.jpg,,,,,,,,,,,,
1306.5,,rt_thecrossant_black,421181,black_plus_sign,,,,49,,,1,0.9795918367346939,,,,,,,,,,
null,,color_black,421285,black_plus_sign,,,,null,,,,,,,,,,,,,,
null,,learn_phase(without_color),423289,black_plus_sign,,,,null,GW/globe.jpg,GW/snail.jpg,,,,,,,,,,,,
null,,black_cross(without_color),424358,blue,,,,null,GW/globe.jpg,GW/snail.jpg,,,,,,,,,,,,
null,,rt_plussign_withcolor,424861,blue,,,,null,GW/globe.jpg,GW/snail.jpg,,,,,,,,,,,,
803.5,,rt_thecrossant_black,425798,black_plus_sign,,,,49,,,1,0.98,,,,,,,,,,
null,,color_black,425901,black_plus_sign,,,,null,,,,,,,,,,,,,,
null,,learn_phase(without_color),427906,black_plus_sign,,,,null,GW/barrel.jpg,GW/dustpan.jpg,,,,,,,,,,,,
null,,black_cross(without_color),428801,blue,,,,null,GW/barrel.jpg,GW/dustpan.jpg,,,,,,,,,,,,
null,,rt_plussign_withcolor,429304,blue,,,,null,GW/barrel.jpg,GW/dustpan.jpg,,,,,,,,,,,,
1796.6000000238419,,rt_thecrossant_black,430416,black_plus_sign,,,,49,,,1,0.9803921568627451,,,,,,,,,,
null,,color_black,430520,black_plus_sign,,,,null,,,,,,,,,,,,,,
null,,learn_phase(without_color),432526,black_plus_sign,,,,null,GW/camera.jpg,GW/snail.jpg,,,,,,,,,,,,
null,,black_cross(without_color),433310,green,,,,null,GW/camera.jpg,GW/snail.jpg,,,,,,,,,,,,
null,,rt_plussign_withcolor,433813,green,,,,null,GW/camera.jpg,GW/snail.jpg,,,,,,,,,,,,
1417.5,,rt_thecrossant_black,435035,black_plus_sign,,,,50,,,1,0.9807692307692307,,,,,,,,,,
null,,color_black,435138,black_plus_sign,,,,null,,,,,,,,,,,,,,
null,,learn_phase(without_color),437142,black_plus_sign,,,,null,GW/globe.jpg,GW/teeth.jpg,,,,,,,,,,,,
null,,black_cross(without_color),438246,blue,,,,null,GW/globe.jpg,GW/teeth.jpg,,,,,,,,,,,,
null,,rt_plussign_withcolor,438749,blue,,,,null,GW/globe.jpg,GW/teeth.jpg,,,,,,,,,,,,
942.5,,rt_thecrossant_black,439652,black_plus_sign,,,,49,,,1,0.9811320754716981,,,,,,,,,,
null,,color_black,439755,black_plus_sign,,,,null,,,,,,,,,,,,,,
null,,learn_phase(without_color),441759,black_plus_sign,,,,null,GW/soldier.jpg,GW/globe.jpg,,,,,,,,,,,,
null,,black_cross(without_color),442165,blue,,,,null,GW/soldier.jpg,GW/globe.jpg,,,,,,,,,,,,
null,,rt_plussign_withcolor,442667,blue,,,,null,GW/soldier.jpg,GW/globe.jpg,,,,,,,,,,,,
1519.0999999642372,,rt_thecrossant_black,444266,black_plus_sign,,,,49,,,1,0.9814814814814815,,,,,,,,,,
null,,color_black,444368,black_plus_sign,,,,null,,,,,,,,,,,,,,
null,,learn_phase(without_color),446373,black_plus_sign,,,,null,GW/barrel.jpg,GW/dustpan.jpg,,,,,,,,,,,,
null,,black_cross(without_color),447134,green,,,,null,GW/barrel.jpg,GW/dustpan.jpg,,,,,,,,,,,,
null,,rt_plussign_withcolor,447636,green,,,,null,GW/barrel.jpg,GW/dustpan.jpg,,,,,,,,,,,,
799.6999999880791,,rt_thecrossant_black,448882,black_plus_sign,,,,50,,,1,0.9818181818181818,,,,,,,,,,
null,,color_black,448985,black_plus_sign,,,,null,,,,,,,,,,,,,,
null,,learn_phase(without_color),450990,black_plus_sign,,,,null,GW/snail.jpg,GW/paint.jpg,,,,,,,,,,,,
null,,black_cross(without_color),451652,green,,,,null,GW/snail.jpg,GW/paint.jpg,,,,,,,,,,,,
null,,rt_plussign_withcolor,452155,green,,,,null,GW/snail.jpg,GW/paint.jpg,,,,,,,,,,,,
1431.7000000476837,,rt_thecrossant_black,453499,black_plus_sign,,,,50,,,1,0.9821428571428571,,,,,,,,,,
null,,color_black,453603,black_plus_sign,,,,null,,,,,,,,,,,,,,
null,,learn_phase(without_color),455608,black_plus_sign,,,,null,GW/soldier.jpg,GW/globe.jpg,,,,,,,,,,,,
null,,black_cross(without_color),456546,blue,,,,null,GW/soldier.jpg,GW/globe.jpg,,,,,,,,,,,,
null,,rt_plussign_withcolor,457049,blue,,,,null,GW/soldier.jpg,GW/globe.jpg,,,,,,,,,,,,
987.1999999880791,,rt_thecrossant_black,458118,black_plus_sign,,,,49,,,1,0.9824561403508771,,,,,,,,,,
null,,color_black,458222,black_plus_sign,,,,null,,,,,,,,,,,,,,
null,,learn_phase(without_color),460226,black_plus_sign,,,,null,GW/dustpan.jpg,GW/hat.jpg,,,,,,,,,,,,
null,,black_cross(without_color),460968,blue,,,,null,GW/dustpan.jpg,GW/hat.jpg,,,,,,,,,,,,
null,,rt_plussign_withcolor,461471,blue,,,,null,GW/dustpan.jpg,GW/hat.jpg,,,,,,,,,,,,
1284.5,,rt_thecrossant_black,462736,black_plus_sign,,,,49,,,1,0.9827586206896551,,,,,,,,,,
null,,color_black,462840,black_plus_sign,,,,null,,,,,,,,,,,,,,
null,,learn_phase(without_color),464844,black_plus_sign,,,,null,GW/paint.jpg,GW/basket.jpg,,,,,,,,,,,,
null,,black_cross(without_color),465751,blue,,,,null,GW/paint.jpg,GW/basket.jpg,,,,,,,,,,,,
null,,rt_plussign_withcolor,466253,blue,,,,null,GW/paint.jpg,GW/basket.jpg,,,,,,,,,,,,
1022.6000000238419,,rt_thecrossant_black,467353,black_plus_sign,,,,49,,,1,0.9830508474576272,,,,,,,,,,
null,,color_black,467456,black_plus_sign,,,,null,,,,,,,,,,,,,,
null,,learn_phase(without_color),469461,black_plus_sign,,,,null,GW/teeth.jpg,GW/gong.jpg,,,,,,,,,,,,
null,,black_cross(without_color),470462,green,,,,null,GW/teeth.jpg,GW/gong.jpg,,,,,,,,,,,,
null,,rt_plussign_withcolor,470965,green,,,,null,GW/teeth.jpg,GW/gong.jpg,,,,,,,,,,,,
1183.800000011921,,rt_thecrossant_black,471969,black_plus_sign,,,,50,,,1,0.9833333333333333,,,,,,,,,,
null,,color_black,472074,black_plus_sign,,,,null,,,,,,,,,,,,,,
null,,learn_phase(without_color),474079,black_plus_sign,,,,null,GW/dustpan.jpg,GW/basket.jpg,,,,,,,,,,,,
null,,black_cross(without_color),474839,blue,,,,null,GW/dustpan.jpg,GW/basket.jpg,,,,,,,,,,,,
null,,rt_plussign_withcolor,475341,blue,,,,null,GW/dustpan.jpg,GW/basket.jpg,,,,,,,,,,,,
1156.4000000357628,,rt_thecrossant_black,476588,black_plus_sign,,,,49,,,1,0.9836065573770492,,,,,,,,,,
null,,color_black,476692,black_plus_sign,,,,null,,,,,,,,,,,,,,
null,,learn_phase(without_color),478696,black_plus_sign,,,,null,GW/teeth.jpg,GW/camera.jpg,,,,,,,,,,,,
null,,black_cross(without_color),479135,blue,,,,null,GW/teeth.jpg,GW/camera.jpg,,,,,,,,,,,,
null,,rt_plussign_withcolor,479637,blue,,,,null,GW/teeth.jpg,GW/camera.jpg,,,,,,,,,,,,
1157.699999988079,,rt_thecrossant_black,481208,black_plus_sign,,,,49,,,1,0.9838709677419355,,,,,,,,,,
null,,color_black,481312,black_plus_sign,,,,null,,,,,,,,,,,,,,
null,,learn_phase(without_color),483316,black_plus_sign,,,,null,GW/barrel.jpg,GW/soldier.jpg,,,,,,,,,,,,
null,,black_cross(without_color),484072,blue,,,,null,GW/barrel.jpg,GW/soldier.jpg,,,,,,,,,,,,
null,,rt_plussign_withcolor,484574,blue,,,,null,GW/barrel.jpg,GW/soldier.jpg,,,,,,,,,,,,
878.6999999880791,,rt_thecrossant_black,485825,black_plus_sign,,,,49,,,1,0.9841269841269841,,,,,,,,,,
null,,color_black,485928,black_plus_sign,,,,null,,,,,,,,,,,,,,
null,,learn_phase(without_color),487933,black_plus_sign,,,,null,GW/paint.jpg,GW/basket.jpg,,,,,,,,,,,,
null,,black_cross(without_color),489006,blue,,,,null,GW/paint.jpg,GW/basket.jpg,,,,,,,,,,,,
null,,rt_plussign_withcolor,489508,blue,,,,null,GW/paint.jpg,GW/basket.jpg,,,,,,,,,,,,
979.1999999880791,,rt_thecrossant_black,490443,black_plus_sign,,,,49,,,1,0.984375,,,,,,,,,,
null,,color_black,490545,black_plus_sign,,,,null,,,,,,,,,,,,,,
null,,learn_phase(without_color),492550,black_plus_sign,,,,null,GW/soldier.jpg,GW/globe.jpg,,,,,,,,,,,,
null,,black_cross(without_color),493518,blue,,,,null,GW/soldier.jpg,GW/globe.jpg,,,,,,,,,,,,
null,,rt_plussign_withcolor,494021,blue,,,,null,GW/soldier.jpg,GW/globe.jpg,,,,,,,,,,,,
1317.300000011921,,rt_thecrossant_black,495060,black_plus_sign,,,,49,,,1,0.9846153846153847,,,,,,,,,,
null,,color_black,495174,black_plus_sign,,,,null,,,,,,,,,,,,,,
null,,learn_phase(without_color),497176,black_plus_sign,,,,null,GW/dustpan.jpg,GW/hat.jpg,,,,,,,,,,,,
null,,black_cross(without_color),497808,blue,,,,null,GW/dustpan.jpg,GW/hat.jpg,,,,,,,,,,,,
null,,rt_plussign_withcolor,498310,blue,,,,null,GW/dustpan.jpg,GW/hat.jpg,,,,,,,,,,,,
1264.9000000357628,,rt_thecrossant_black,499685,black_plus_sign,,,,49,,,1,0.9848484848484849,,,,,,,,,,
null,,color_black,499788,black_plus_sign,,,,null,,,,,,,,,,,,,,
null,,learn_phase(without_color),501793,black_plus_sign,,,,null,GW/teeth.jpg,GW/snail.jpg,,,,,,,,,,,,
null,,black_cross(without_color),502732,blue,,,,null,GW/teeth.jpg,GW/snail.jpg,,,,,,,,,,,,
null,,rt_plussign_withcolor,503234,blue,,,,null,GW/teeth.jpg,GW/snail.jpg,,,,,,,,,,,,
983.7999999523163,,rt_thecrossant_black,504302,black_plus_sign,,,,49,,,1,0.9850746268656716,,,,,,,,,,
null,,color_black,504405,black_plus_sign,,,,null,,,,,,,,,,,,,,
null,,learn_phase(without_color),506408,black_plus_sign,,,,null,GW/soldier.jpg,GW/paint.jpg,,,,,,,,,,,,
null,,black_cross(without_color),507061,blue,,,,null,GW/soldier.jpg,GW/paint.jpg,,,,,,,,,,,,
null,,rt_plussign_withcolor,507563,blue,,,,null,GW/soldier.jpg,GW/paint.jpg,,,,,,,,,,,,
1314.1000000238419,,rt_thecrossant_black,508916,black_plus_sign,,,,49,,,1,0.9852941176470589,,,,,,,,,,
null,,color_black,509020,black_plus_sign,,,,null,,,,,,,,,,,,,,
null,,learn_phase(without_color),511024,black_plus_sign,,,,null,GW/jukebox.jpg,GW/barrel.jpg,,,,,,,,,,,,
null,,black_cross(without_color),511992,green,,,,null,GW/jukebox.jpg,GW/barrel.jpg,,,,,,,,,,,,
null,,rt_plussign_withcolor,512494,green,,,,null,GW/jukebox.jpg,GW/barrel.jpg,,,,,,,,,,,,
932.8000000119209,,rt_thecrossant_black,513532,black_plus_sign,,,,50,,,1,0.9855072463768116,,,,,,,,,,
null,,color_black,513646,black_plus_sign,,,,null,,,,,,,,,,,,,,
null,,learn_phase(without_color),515648,black_plus_sign,,,,null,GW/teeth.jpg,GW/snail.jpg,,,,,,,,,,,,
null,,black_cross(without_color),516458,green,,,,null,GW/teeth.jpg,GW/snail.jpg,,,,,,,,,,,,
null,,rt_plussign_withcolor,516961,green,,,,null,GW/teeth.jpg,GW/snail.jpg,,,,,,,,,,,,
1393.8999999761581,,rt_thecrossant_black,518157,black_plus_sign,,,,50,,,1,0.9857142857142858,,,,,,,,,,
null,,color_black,518259,black_plus_sign,,,,null,,,,,,,,,,,,,,
null,,learn_phase(without_color),520264,black_plus_sign,,,,null,GW/soldier.jpg,GW/globe.jpg,,,,,,,,,,,,
null,,black_cross(without_color),520731,green,,,,null,GW/soldier.jpg,GW/globe.jpg,,,,,,,,,,,,
null,,rt_plussign_withcolor,521235,green,,,,null,GW/soldier.jpg,GW/globe.jpg,,,,,,,,,,,,
1066.300000011921,,rt_thecrossant_black,522774,black_plus_sign,,,,50,,,1,0.9859154929577465,,,,,,,,,,
null,,color_black,522878,black_plus_sign,,,,null,,,,,,,,,,,,,,
null,,learn_phase(without_color),524884,black_plus_sign,,,,null,GW/soldier.jpg,GW/paint.jpg,,,,,,,,,,,,
null,,black_cross(without_color),525451,blue,,,,null,GW/soldier.jpg,GW/paint.jpg,,,,,,,,,,,,
null,,rt_plussign_withcolor,525954,blue,,,,null,GW/soldier.jpg,GW/paint.jpg,,,,,,,,,,,,
998.1999999880791,,rt_thecrossant_black,527393,black_plus_sign,,,,49,,,1,0.9861111111111112,,,,,,,,,,
null,,color_black,527496,black_plus_sign,,,,null,,,,,,,,,,,,,,
null,,learn_phase(without_color),529501,black_plus_sign,,,,null,GW/teeth.jpg,GW/gong.jpg,,,,,,,,,,,,
null,,black_cross(without_color),530312,green,,,,null,GW/teeth.jpg,GW/gong.jpg,,,,,,,,,,,,
null,,rt_plussign_withcolor,530815,green,,,,null,GW/teeth.jpg,GW/gong.jpg,,,,,,,,,,,,
739.5999999642372,,rt_thecrossant_black,532012,black_plus_sign,,,,50,,,1,0.9863013698630136,,,,,,,,,,
null,,color_black,532118,black_plus_sign,,,,null,,,,,,,,,,,,,,
null,,learn_phase(without_color),534123,black_plus_sign,,,,null,GW/teeth.jpg,GW/camera.jpg,,,,,,,,,,,,
null,,black_cross(without_color),534813,blue,,,,null,GW/teeth.jpg,GW/camera.jpg,,,,,,,,,,,,
null,,rt_plussign_withcolor,535316,blue,,,,null,GW/teeth.jpg,GW/camera.jpg,,,,,,,,,,,,
1120.300000011921,,rt_thecrossant_black,536633,black_plus_sign,,,,49,,,1,0.9864864864864865,,,,,,,,,,
null,,color_black,536738,black_plus_sign,,,,null,,,,,,,,,,,,,,
null,,learn_phase(without_color),538743,black_plus_sign,,,,null,GW/soldier.jpg,GW/globe.jpg,,,,,,,,,,,,
null,,black_cross(without_color),539790,blue,,,,null,GW/soldier.jpg,GW/globe.jpg,,,,,,,,,,,,
null,,rt_plussign_withcolor,540293,blue,,,,null,GW/soldier.jpg,GW/globe.jpg,,,,,,,,,,,,
929,,rt_thecrossant_black,541252,black_plus_sign,,,,50,,,0,0.9733333333333334,,,,,,,,,,
null,,color_black,541356,black_plus_sign,,,,null,,,,,,,,,,,,,,
null,,learn_phase(without_color),543361,black_plus_sign,,,,null,GW/camera.jpg,GW/snail.jpg,,,,,,,,,,,,
null,,black_cross(without_color),544129,green,,,,null,GW/camera.jpg,GW/snail.jpg,,,,,,,,,,,,
null,,rt_plussign_withcolor,544632,green,,,,null,GW/camera.jpg,GW/snail.jpg,,,,,,,,,,,,
1822.6000000238419,,rt_thecrossant_black,545870,black_plus_sign,,,,50,,,1,0.9736842105263158,,,,,,,,,,
null,,color_black,545974,black_plus_sign,,,,null,,,,,,,,,,,,,,
null,,learn_phase(without_color),547979,black_plus_sign,,,,null,GW/globe.jpg,GW/teeth.jpg,,,,,,,,,,,,
null,,black_cross(without_color),548660,blue,,,,null,GW/globe.jpg,GW/teeth.jpg,,,,,,,,,,,,
null,,rt_plussign_withcolor,549163,blue,,,,null,GW/globe.jpg,GW/teeth.jpg,,,,,,,,,,,,
1028,,rt_thecrossant_black,550489,black_plus_sign,,,,49,,,1,0.974025974025974,,,,,,,,,,
null,,color_black,550593,black_plus_sign,,,,null,,,,,,,,,,,,,,
null,,learn_phase(without_color),552599,black_plus_sign,,,,null,GW/camera.jpg,GW/wheelchair.jpg,,,,,,,,,,,,
null,,black_cross(without_color),553579,green,,,,null,GW/camera.jpg,GW/wheelchair.jpg,,,,,,,,,,,,
null,,rt_plussign_withcolor,554081,green,,,,null,GW/camera.jpg,GW/wheelchair.jpg,,,,,,,,,,,,
1208.9000000357628,,rt_thecrossant_black,555109,black_plus_sign,,,,50,,,1,0.9743589743589743,,,,,,,,,,
null,,color_black,555213,black_plus_sign,,,,null,,,,,,,,,,,,,,
null,,learn_phase(without_color),557217,black_plus_sign,,,,null,GW/barrel.jpg,GW/soldier.jpg,,,,,,,,,,,,
null,,black_cross(without_color),558268,blue,,,,null,GW/barrel.jpg,GW/soldier.jpg,,,,,,,,,,,,
null,,rt_plussign_withcolor,558771,blue,,,,null,GW/barrel.jpg,GW/soldier.jpg,,,,,,,,,,,,
1102.5,,rt_thecrossant_black,559737,black_plus_sign,,,,49,,,1,0.9746835443037974,,,,,,,,,,
null,,color_black,559840,black_plus_sign,,,,null,,,,,,,,,,,,,,
null,,learn_phase(without_color),561845,black_plus_sign,,,,null,GW/camera.jpg,GW/wheelchair.jpg,,,,,,,,,,,,
null,,black_cross(without_color),562672,green,,,,null,GW/camera.jpg,GW/wheelchair.jpg,,,,,,,,,,,,
null,,rt_plussign_withcolor,563175,green,,,,null,GW/camera.jpg,GW/wheelchair.jpg,,,,,,,,,,,,
1510.699999988079,,rt_thecrossant_black,564354,black_plus_sign,,,,50,,,1,0.975,,,,,,,,,,
null,,color_black,564457,black_plus_sign,,,,null,,,,,,,,,,,,,,
null,,learn_phase(without_color),566461,black_plus_sign,,,,null,GW/dustpan.jpg,GW/hat.jpg,,,,,,,,,,,,
null,,black_cross(without_color),566873,blue,,,,null,GW/dustpan.jpg,GW/hat.jpg,,,,,,,,,,,,
null,,rt_plussign_withcolor,567377,blue,,,,null,GW/dustpan.jpg,GW/hat.jpg,,,,,,,,,,,,
1482.2000000476837,,rt_thecrossant_black,568972,black_plus_sign,,,,49,,,1,0.9753086419753086,,,,,,,,,,
null,,color_black,569078,black_plus_sign,,,,null,,,,,,,,,,,,,,
null,,learn_phase(without_color),571083,black_plus_sign,,,,null,GW/teeth.jpg,GW/gong.jpg,,,,,,,,,,,,
null,,black_cross(without_color),571778,green,,,,null,GW/teeth.jpg,GW/gong.jpg,,,,,,,,,,,,
null,,rt_plussign_withcolor,572281,green,,,,null,GW/teeth.jpg,GW/gong.jpg,,,,,,,,,,,,
895.5,,rt_thecrossant_black,573593,black_plus_sign,,,,50,,,1,0.975609756097561,,,,,,,,,,
null,,color_black,573696,black_plus_sign,,,,null,,,,,,,,,,,,,,
null,,learn_phase(without_color),575702,black_plus_sign,,,,null,GW/teeth.jpg,GW/camera.jpg,,,,,,,,,,,,
null,,black_cross(without_color),576672,blue,,,,null,GW/teeth.jpg,GW/camera.jpg,,,,,,,,,,,,
null,,rt_plussign_withcolor,577175,blue,,,,null,GW/teeth.jpg,GW/camera.jpg,,,,,,,,,,,,
1023.6000000238419,,rt_thecrossant_black,578211,black_plus_sign,,,,49,,,1,0.9759036144578314,,,,,,,,,,
null,,color_black,578314,black_plus_sign,,,,null,,,,,,,,,,,,,,
null,,learn_phase(without_color),580319,black_plus_sign,,,,null,GW/globe.jpg,GW/snail.jpg,,,,,,,,,,,,
null,,black_cross(without_color),581264,green,,,,null,GW/globe.jpg,GW/snail.jpg,,,,,,,,,,,,
null,,rt_plussign_withcolor,581767,green,,,,null,GW/globe.jpg,GW/snail.jpg,,,,,,,,,,,,
1227.800000011921,,rt_thecrossant_black,582828,black_plus_sign,,,,50,,,1,0.9761904761904762,,,,,,,,,,
null,,color_black,582932,black_plus_sign,,,,null,,,,,,,,,,,,,,
null,,learn_phase(without_color),584936,black_plus_sign,,,,null,GW/teeth.jpg,GW/gong.jpg,,,,,,,,,,,,
null,,black_cross(without_color),585653,green,,,,null,GW/teeth.jpg,GW/gong.jpg,,,,,,,,,,,,
null,,rt_plussign_withcolor,586156,green,,,,null,GW/teeth.jpg,GW/gong.jpg,,,,,,,,,,,,
1320.699999988079,,rt_thecrossant_black,587445,black_plus_sign,,,,50,,,1,0.9764705882352941,,,,,,,,,,
null,,color_black,587548,black_plus_sign,,,,null,,,,,,,,,,,,,,
null,,learn_phase(without_color),589552,black_plus_sign,,,,null,GW/snail.jpg,GW/paint.jpg,,,,,,,,,,,,
null,,black_cross(without_color),590237,blue,,,,null,GW/snail.jpg,GW/paint.jpg,,,,,,,,,,,,
null,,rt_plussign_withcolor,590739,blue,,,,null,GW/snail.jpg,GW/paint.jpg,,,,,,,,,,,,
1440.5,,rt_thecrossant_black,592062,black_plus_sign,,,,49,,,1,0.9767441860465116,,,,,,,,,,
null,,color_black,592166,black_plus_sign,,,,null,,,,,,,,,,,,,,
null,,learn_phase(without_color),594169,black_plus_sign,,,,null,GW/jukebox.jpg,GW/barrel.jpg,,,,,,,,,,,,
null,,black_cross(without_color),595038,green,,,,null,GW/jukebox.jpg,GW/barrel.jpg,,,,,,,,,,,,
null,,rt_plussign_withcolor,595540,green,,,,null,GW/jukebox.jpg,GW/barrel.jpg,,,,,,,,,,,,
1094.7000000476837,,rt_thecrossant_black,596679,black_plus_sign,,,,50,,,1,0.9770114942528736,,,,,,,,,,
null,,color_black,596782,black_plus_sign,,,,null,,,,,,,,,,,,,,
null,,learn_phase(without_color),598787,black_plus_sign,,,,null,GW/teeth.jpg,GW/gong.jpg,,,,,,,,,,,,
null,,black_cross(without_color),599623,blue,,,,null,GW/teeth.jpg,GW/gong.jpg,,,,,,,,,,,,
null,,rt_plussign_withcolor,600126,blue,,,,null,GW/teeth.jpg,GW/gong.jpg,,,,,,,,,,,,
1177,,rt_thecrossant_black,601296,black_plus_sign,,,,49,,,1,0.9772727272727273,,,,,,,,,,
null,,color_black,601401,black_plus_sign,,,,null,,,,,,,,,,,,,,
null,,learn_phase(without_color),603406,black_plus_sign,,,,null,GW/snail.jpg,GW/paint.jpg,,,,,,,,,,,,
null,,black_cross(without_color),604435,blue,,,,null,GW/snail.jpg,GW/paint.jpg,,,,,,,,,,,,
null,,rt_plussign_withcolor,604939,blue,,,,null,GW/snail.jpg,GW/paint.jpg,,,,,,,,,,,,
1224.800000011921,,rt_thecrossant_black,605916,black_plus_sign,,,,49,,,1,0.9775280898876404,,,,,,,,,,
null,,color_black,606020,black_plus_sign,,,,null,,,,,,,,,,,,,,
null,,learn_phase(without_color),608025,black_plus_sign,,,,null,GW/globe.jpg,GW/teeth.jpg,,,,,,,,,,,,
null,,black_cross(without_color),608959,green,,,,null,GW/globe.jpg,GW/teeth.jpg,,,,,,,,,,,,
null,,rt_plussign_withcolor,609462,green,,,,null,GW/globe.jpg,GW/teeth.jpg,,,,,,,,,,,,
1428.199999988079,,rt_thecrossant_black,610533,black_plus_sign,,,,50,,,1,0.9777777777777777,,,,,,,,,,
null,,color_black,610638,black_plus_sign,,,,null,,,,,,,,,,,,,,
null,,learn_phase(without_color),612644,black_plus_sign,,,,null,GW/paint.jpg,GW/basket.jpg,,,,,,,,,,,,
null,,black_cross(without_color),613716,green,,,,null,GW/paint.jpg,GW/basket.jpg,,,,,,,,,,,,
null,,rt_plussign_withcolor,614219,green,,,,null,GW/paint.jpg,GW/basket.jpg,,,,,,,,,,,,
1411.800000011921,,rt_thecrossant_black,615153,black_plus_sign,,,,50,,,1,0.978021978021978,,,,,,,,,,
null,,color_black,615256,black_plus_sign,,,,null,,,,,,,,,,,,,,
null,,learn_phase(without_color),617260,black_plus_sign,,,,null,GW/snail.jpg,GW/paint.jpg,,,,,,,,,,,,
null,,black_cross(without_color),618120,green,,,,null,GW/snail.jpg,GW/paint.jpg,,,,,,,,,,,,
null,,rt_plussign_withcolor,618624,green,,,,null,GW/snail.jpg,GW/paint.jpg,,,,,,,,,,,,
1368.1000000238419,,rt_thecrossant_black,619769,black_plus_sign,,,,50,,,1,0.9782608695652174,,,,,,,,,,
null,,color_black,619874,black_plus_sign,,,,null,,,,,,,,,,,,,,
null,,learn_phase(without_color),621879,black_plus_sign,,,,null,GW/teeth.jpg,GW/camera.jpg,,,,,,,,,,,,
null,,black_cross(without_color),622591,blue,,,,null,GW/teeth.jpg,GW/camera.jpg,,,,,,,,,,,,
null,,rt_plussign_withcolor,623094,blue,,,,null,GW/teeth.jpg,GW/camera.jpg,,,,,,,,,,,,
1250,,rt_thecrossant_black,624390,black_plus_sign,,,,49,,,1,0.978494623655914,,,,,,,,,,
null,,color_black,624495,black_plus_sign,,,,null,,,,,,,,,,,,,,
null,,learn_phase(without_color),626500,black_plus_sign,,,,null,GW/barrel.jpg,GW/soldier.jpg,,,,,,,,,,,,
null,,black_cross(without_color),627065,blue,,,,null,GW/barrel.jpg,GW/soldier.jpg,,,,,,,,,,,,
null,,rt_plussign_withcolor,627569,blue,,,,null,GW/barrel.jpg,GW/soldier.jpg,,,,,,,,,,,,
1057.0999999642372,,rt_thecrossant_black,629018,black_plus_sign,,,,49,,,1,0.9787234042553191,,,,,,,,,,
null,,color_black,629120,black_plus_sign,,,,null,,,,,,,,,,,,,,
null,,learn_phase(without_color),631124,black_plus_sign,,,,null,GW/jukebox.jpg,GW/barrel.jpg,,,,,,,,,,,,
null,,black_cross(without_color),631683,green,,,,null,GW/jukebox.jpg,GW/barrel.jpg,,,,,,,,,,,,
null,,rt_plussign_withcolor,632185,green,,,,null,GW/jukebox.jpg,GW/barrel.jpg,,,,,,,,,,,,
932,,rt_thecrossant_black,633631,black_plus_sign,,,,50,,,1,0.9789473684210527,,,,,,,,,,
null,,color_black,633735,black_plus_sign,,,,null,,,,,,,,,,,,,,
null,,learn_phase(without_color),635739,black_plus_sign,,,,null,GW/globe.jpg,GW/snail.jpg,,,,,,,,,,,,
null,,black_cross(without_color),636462,blue,,,,null,GW/globe.jpg,GW/snail.jpg,,,,,,,,,,,,
null,,rt_plussign_withcolor,636966,blue,,,,null,GW/globe.jpg,GW/snail.jpg,,,,,,,,,,,,
987.9000000357628,,rt_thecrossant_black,638266,black_plus_sign,,,,49,,,1,0.9791666666666666,,,,,,,,,,
null,,color_black,638369,black_plus_sign,,,,null,,,,,,,,,,,,,,
null,,learn_phase(without_color),640375,black_plus_sign,,,,null,GW/barrel.jpg,GW/soldier.jpg,,,,,,,,,,,,
null,,black_cross(without_color),641205,blue,,,,null,GW/barrel.jpg,GW/soldier.jpg,,,,,,,,,,,,
null,,rt_plussign_withcolor,641708,blue,,,,null,GW/barrel.jpg,GW/soldier.jpg,,,,,,,,,,,,
1102.699999988079,,rt_thecrossant_black,642884,black_plus_sign,,,,49,,,1,0.979381443298969,,,,,,,,,,
null,,color_black,642988,black_plus_sign,,,,null,,,,,,,,,,,,,,
null,,learn_phase(without_color),644993,black_plus_sign,,,,null,GW/globe.jpg,GW/teeth.jpg,,,,,,,,,,,,
null,,black_cross(without_color),645489,blue,,,,null,GW/globe.jpg,GW/teeth.jpg,,,,,,,,,,,,
null,,rt_plussign_withcolor,645992,blue,,,,null,GW/globe.jpg,GW/teeth.jpg,,,,,,,,,,,,
1187.800000011921,,rt_thecrossant_black,647504,black_plus_sign,,,,49,,,1,0.9795918367346939,,,,,,,,,,
null,,color_black,647608,black_plus_sign,,,,null,,,,,,,,,,,,,,
null,,learn_phase(without_color),649613,black_plus_sign,,,,null,GW/camera.jpg,GW/wheelchair.jpg,,,,,,,,,,,,
null,,black_cross(without_color),650274,green,,,,null,GW/camera.jpg,GW/wheelchair.jpg,,,,,,,,,,,,
null,,rt_plussign_withcolor,650777,green,,,,null,GW/camera.jpg,GW/wheelchair.jpg,,,,,,,,,,,,
1088.199999988079,,rt_thecrossant_black,652121,black_plus_sign,,,,50,,,1,0.9797979797979798,,,,,,,,,,
null,,color_black,652224,black_plus_sign,,,,null,,,,,,,,,,,,,,
null,,learn_phase(without_color),654229,black_plus_sign,,,,null,GW/teeth.jpg,GW/camera.jpg,,,,,,,,,,,,
null,,black_cross(without_color),654658,blue,,,,null,GW/teeth.jpg,GW/camera.jpg,,,,,,,,,,,,
null,,rt_plussign_withcolor,655161,blue,,,,null,GW/teeth.jpg,GW/camera.jpg,,,,,,,,,,,,
1075.3999999761581,,rt_thecrossant_black,656739,black_plus_sign,,,,49,,,1,0.98,,,,,,,,,,
null,,color_black,656843,black_plus_sign,,,,null,,,,,,,,,,,,,,
null,,learn_phase(without_color),658848,black_plus_sign,,,,null,GW/paint.jpg,GW/basket.jpg,,,,,,,,,,,,
null,,black_cross(without_color),659308,green,,,,null,GW/paint.jpg,GW/basket.jpg,,,,,,,,,,,,
null,,rt_plussign_withcolor,659811,green,,,,null,GW/paint.jpg,GW/basket.jpg,,,,,,,,,,,,
844.1999999880791,,rt_thecrossant_black,661358,black_plus_sign,,,,49,,,0,0.9702970297029703,,,,,,,,,,
null,,color_black,661462,black_plus_sign,,,,null,,,,,,,,,,,,,,
null,,learn_phase(without_color),663468,black_plus_sign,,,,null,GW/teeth.jpg,GW/gong.jpg,,,,,,,,,,,,
null,,black_cross(without_color),663986,green,,,,null,GW/teeth.jpg,GW/gong.jpg,,,,,,,,,,,,
null,,rt_plussign_withcolor,664489,green,,,,null,GW/teeth.jpg,GW/gong.jpg,,,,,,,,,,,,
785.5,,rt_thecrossant_black,665978,black_plus_sign,,,,50,,,1,0.9705882352941176,,,,,,,,,,
null,,color_black,666082,black_plus_sign,,,,null,,,,,,,,,,,,,,
null,,learn_phase(without_color),668089,black_plus_sign,,,,null,GW/soldier.jpg,GW/paint.jpg,,,,,,,,,,,,
null,,black_cross(without_color),668520,blue,,,,null,GW/soldier.jpg,GW/paint.jpg,,,,,,,,,,,,
null,,rt_plussign_withcolor,669023,blue,,,,null,GW/soldier.jpg,GW/paint.jpg,,,,,,,,,,,,
1137.1000000238419,,rt_thecrossant_black,670598,black_plus_sign,,,,49,,,1,0.970873786407767,,,,,,,,,,
null,,color_black,670701,black_plus_sign,,,,null,,,,,,,,,,,,,,
null,,learn_phase(without_color),672706,black_plus_sign,,,,null,GW/teeth.jpg,GW/snail.jpg,,,,,,,,,,,,
null,,black_cross(without_color),673777,blue,,,,null,GW/teeth.jpg,GW/snail.jpg,,,,,,,,,,,,
null,,rt_plussign_withcolor,674280,blue,,,,null,GW/teeth.jpg,GW/snail.jpg,,,,,,,,,,,,
882.6999999880791,,rt_thecrossant_black,675215,black_plus_sign,,,,49,,,1,0.9711538461538461,,,,,,,,,,
null,,color_black,675319,black_plus_sign,,,,null,,,,,,,,,,,,,,
null,,learn_phase(without_color),677327,black_plus_sign,,,,null,GW/dustpan.jpg,GW/hat.jpg,,,,,,,,,,,,
null,,black_cross(without_color),677777,green,,,,null,GW/dustpan.jpg,GW/hat.jpg,,,,,,,,,,,,
null,,rt_plussign_withcolor,678280,green,,,,null,GW/dustpan.jpg,GW/hat.jpg,,,,,,,,,,,,
1516.1000000238419,,rt_thecrossant_black,679836,black_plus_sign,,,,50,,,1,0.9714285714285714,,,,,,,,,,
null,,color_black,679939,black_plus_sign,,,,null,,,,,,,,,,,,,,
null,,learn_phase(without_color),681943,black_plus_sign,,,,null,GW/soldier.jpg,GW/globe.jpg,,,,,,,,,,,,
null,,black_cross(without_color),682373,blue,,,,null,GW/soldier.jpg,GW/globe.jpg,,,,,,,,,,,,
null,,rt_plussign_withcolor,682880,blue,,,,null,GW/soldier.jpg,GW/globe.jpg,,,,,,,,,,,,
931.3000000119209,,rt_thecrossant_black,684455,black_plus_sign,,,,49,,,1,0.9716981132075472,,,,,,,,,,
null,,color_black,684560,black_plus_sign,,,,null,,,,,,,,,,,,,,
null,,learn_phase(without_color),686566,black_plus_sign,,,,null,GW/globe.jpg,GW/snail.jpg,,,,,,,,,,,,
null,,black_cross(without_color),687634,blue,,,,null,GW/globe.jpg,GW/snail.jpg,,,,,,,,,,,,
null,,rt_plussign_withcolor,688136,blue,,,,null,GW/globe.jpg,GW/snail.jpg,,,,,,,,,,,,
769.5,,rt_thecrossant_black,689074,black_plus_sign,,,,49,,,1,0.9719626168224299,,,,,,,,,,
null,,color_black,689178,black_plus_sign,,,,null,,,,,,,,,,,,,,
null,,learn_phase(without_color),691182,black_plus_sign,,,,null,GW/dustpan.jpg,GW/basket.jpg,,,,,,,,,,,,
null,,black_cross(without_color),692176,blue,,,,null,GW/dustpan.jpg,GW/basket.jpg,,,,,,,,,,,,
null,,rt_plussign_withcolor,692678,blue,,,,null,GW/dustpan.jpg,GW/basket.jpg,,,,,,,,,,,,
1437.9000000357628,,rt_thecrossant_black,693691,black_plus_sign,,,,49,,,1,0.9722222222222222,,,,,,,,,,
null,,color_black,693808,black_plus_sign,,,,null,,,,,,,,,,,,,,
null,,learn_phase(without_color),695813,black_plus_sign,,,,null,GW/paint.jpg,GW/basket.jpg,,,,,,,,,,,,
null,,black_cross(without_color),696733,blue,,,,null,GW/paint.jpg,GW/basket.jpg,,,,,,,,,,,,
null,,rt_plussign_withcolor,697236,blue,,,,null,GW/paint.jpg,GW/basket.jpg,,,,,,,,,,,,
1439.199999988079,,rt_thecrossant_black,698323,black_plus_sign,,,,49,,,1,0.9724770642201835,,,,,,,,,,
null,,color_black,698426,black_plus_sign,,,,null,,,,,,,,,,,,,,
null,,learn_phase(without_color),700430,black_plus_sign,,,,null,GW/snail.jpg,GW/paint.jpg,,,,,,,,,,,,
null,,black_cross(without_color),700915,blue,,,,null,GW/snail.jpg,GW/paint.jpg,,,,,,,,,,,,
null,,rt_plussign_withcolor,701418,blue,,,,null,GW/snail.jpg,GW/paint.jpg,,,,,,,,,,,,
1295.1000000238419,,rt_thecrossant_black,702941,black_plus_sign,,,,49,,,1,0.9727272727272728,,,,,,,,,,
null,,color_black,703045,black_plus_sign,,,,null,,,,,,,,,,,,,,
null,,learn_phase(without_color),705050,black_plus_sign,,,,null,GW/camera.jpg,GW/wheelchair.jpg,,,,,,,,,,,,
null,,black_cross(without_color),705660,blue,,,,null,GW/camera.jpg,GW/wheelchair.jpg,,,,,,,,,,,,
null,,rt_plussign_withcolor,706163,blue,,,,null,GW/camera.jpg,GW/wheelchair.jpg,,,,,,,,,,,,
633.1999999880791,,rt_thecrossant_black,707559,black_plus_sign,,,,49,,,1,0.972972972972973,,,,,,,,,,
null,,color_black,707663,black_plus_sign,,,,null,,,,,,,,,,,,,,
null,,learn_phase(without_color),709668,black_plus_sign,,,,null,GW/camera.jpg,GW/snail.jpg,,,,,,,,,,,,
null,,black_cross(without_color),710323,green,,,,null,GW/camera.jpg,GW/snail.jpg,,,,,,,,,,,,
null,,rt_plussign_withcolor,710826,green,,,,null,GW/camera.jpg,GW/snail.jpg,,,,,,,,,,,,
1051.1000000238419,,rt_thecrossant_black,712176,black_plus_sign,,,,50,,,1,0.9732142857142857,,,,,,,,,,
null,,color_black,712280,black_plus_sign,,,,null,,,,,,,,,,,,,,
null,,learn_phase(without_color),714285,black_plus_sign,,,,null,GW/dustpan.jpg,GW/hat.jpg,,,,,,,,,,,,
null,,black_cross(without_color),715282,blue,,,,null,GW/dustpan.jpg,GW/hat.jpg,,,,,,,,,,,,
null,,rt_plussign_withcolor,715785,blue,,,,null,GW/dustpan.jpg,GW/hat.jpg,,,,,,,,,,,,
1036.5,,rt_thecrossant_black,716795,black_plus_sign,,,,49,,,1,0.9734513274336283,,,,,,,,,,
null,,color_black,716900,black_plus_sign,,,,null,,,,,,,,,,,,,,
null,,learn_phase(without_color),718905,black_plus_sign,,,,null,GW/camera.jpg,GW/wheelchair.jpg,,,,,,,,,,,,
null,,black_cross(without_color),719489,green,,,,null,GW/camera.jpg,GW/wheelchair.jpg,,,,,,,,,,,,
null,,rt_plussign_withcolor,719992,green,,,,null,GW/camera.jpg,GW/wheelchair.jpg,,,,,,,,,,,,
1432.8999999761581,,rt_thecrossant_black,721416,black_plus_sign,,,,50,,,1,0.9736842105263158,,,,,,,,,,
null,,color_black,721519,black_plus_sign,,,,null,,,,,,,,,,,,,,
null,,learn_phase(without_color),723524,black_plus_sign,,,,null,GW/barrel.jpg,GW/soldier.jpg,,,,,,,,,,,,
null,,black_cross(without_color),724236,green,,,,null,GW/barrel.jpg,GW/soldier.jpg,,,,,,,,,,,,
null,,rt_plussign_withcolor,724739,green,,,,null,GW/barrel.jpg,GW/soldier.jpg,,,,,,,,,,,,
1036.6000000238419,,rt_thecrossant_black,726033,black_plus_sign,,,,50,,,1,0.9739130434782609,,,,,,,,,,
null,,color_black,726135,black_plus_sign,,,,null,,,,,,,,,,,,,,
null,,learn_phase(without_color),728140,black_plus_sign,,,,null,GW/teeth.jpg,GW/camera.jpg,,,,,,,,,,,,
null,,black_cross(without_color),729023,blue,,,,null,GW/teeth.jpg,GW/camera.jpg,,,,,,,,,,,,
null,,rt_plussign_withcolor,729526,blue,,,,null,GW/teeth.jpg,GW/camera.jpg,,,,,,,,,,,,
1102.2000000476837,,rt_thecrossant_black,730651,black_plus_sign,,,,49,,,1,0.9741379310344828,,,,,,,,,,
null,,color_black,730755,black_plus_sign,,,,null,,,,,,,,,,,,,,
null,,learn_phase(without_color),732760,black_plus_sign,,,,null,GW/teeth.jpg,GW/gong.jpg,,,,,,,,,,,,
null,,black_cross(without_color),733467,green,,,,null,GW/teeth.jpg,GW/gong.jpg,,,,,,,,,,,,
null,,rt_plussign_withcolor,733970,green,,,,null,GW/teeth.jpg,GW/gong.jpg,,,,,,,,,,,,
1147.300000011921,,rt_thecrossant_black,735271,black_plus_sign,,,,50,,,1,0.9743589743589743,,,,,,,,,,
null,,color_black,735389,black_plus_sign,,,,null,,,,,,,,,,,,,,
null,,learn_phase(without_color),737394,black_plus_sign,,,,null,GW/soldier.jpg,GW/paint.jpg,,,,,,,,,,,,
null,,black_cross(without_color),738214,blue,,,,null,GW/soldier.jpg,GW/paint.jpg,,,,,,,,,,,,
408.80000001192093,,rt_plussign_withcolor,738722,blue,,,,49,GW/soldier.jpg,GW/paint.jpg,,,,,,,,,,,,
null,,rt_thecrossant_black,739909,black_plus_sign,,,,null,,,1,0.9745762711864406,,,,,,,,,,
null,,color_black,740016,black_plus_sign,,,,null,,,,,,,,,,,,,,
null,,learn_phase(without_color),742020,black_plus_sign,,,,null,GW/globe.jpg,GW/teeth.jpg,,,,,,,,,,,,
null,,black_cross(without_color),742842,blue,,,,null,GW/globe.jpg,GW/teeth.jpg,,,,,,,,,,,,
null,,rt_plussign_withcolor,743344,blue,,,,null,GW/globe.jpg,GW/teeth.jpg,,,,,,,,,,,,
959.8999999761581,,rt_thecrossant_black,744531,black_plus_sign,,,,49,,,1,0.9747899159663865,,,,,,,,,,
null,,color_black,744634,black_plus_sign,,,,null,,,,,,,,,,,,,,
null,,learn_phase(without_color),746639,black_plus_sign,,,,null,GW/jukebox.jpg,GW/barrel.jpg,,,,,,,,,,,,
null,,black_cross(without_color),747566,green,,,,null,GW/jukebox.jpg,GW/barrel.jpg,,,,,,,,,,,,
480.80000001192093,,rt_plussign_withcolor,748069,green,,,,50,GW/jukebox.jpg,GW/barrel.jpg,,,,,,,,,,,,
null,,rt_thecrossant_black,749150,black_plus_sign,,,,null,,,1,0.975,,,,,,,,,,
null,,color_black,749254,black_plus_sign,,,,null,,,,,,,,,,,,,,
null,,learn_phase(without_color),751259,black_plus_sign,,,,null,GW/camera.jpg,GW/snail.jpg,,,,,,,,,,,,
null,,black_cross(without_color),751743,green,,,,null,GW/camera.jpg,GW/snail.jpg,,,,,,,,,,,,
null,,rt_plussign_withcolor,752246,green,,,,null,GW/camera.jpg,GW/snail.jpg,,,,,,,,,,,,
1196.5999999642372,,rt_thecrossant_black,753768,black_plus_sign,,,,50,,,1,0.9752066115702479,,,,,,,,,,
null,,color_black,753872,black_plus_sign,,,,null,,,,,,,,,,,,,,
null,,learn_phase(without_color),755877,black_plus_sign,,,,null,GW/paint.jpg,GW/basket.jpg,,,,,,,,,,,,
null,,black_cross(without_color),756728,blue,,,,null,GW/paint.jpg,GW/basket.jpg,,,,,,,,,,,,
480.60000002384186,,rt_plussign_withcolor,757230,blue,,,,49,GW/paint.jpg,GW/basket.jpg,,,,,,,,,,,,
null,,rt_thecrossant_black,758387,black_plus_sign,,,,null,,,1,0.9754098360655737,,,,,,,,,,
null,,color_black,758491,black_plus_sign,,,,null,,,,,,,,,,,,,,
null,,learn_phase(without_color),760496,black_plus_sign,,,,null,GW/soldier.jpg,GW/paint.jpg,,,,,,,,,,,,
null,,black_cross(without_color),761305,blue,,,,null,GW/soldier.jpg,GW/paint.jpg,,,,,,,,,,,,
499.80000001192093,,rt_plussign_withcolor,761809,blue,,,,49,GW/soldier.jpg,GW/paint.jpg,,,,,,,,,,,,
null,,rt_thecrossant_black,763008,black_plus_sign,,,,null,,,1,0.975609756097561,,,,,,,,,,
null,,color_black,763111,black_plus_sign,,,,null,,,,,,,,,,,,,,
null,,learn_phase(without_color),765115,black_plus_sign,,,,null,GW/soldier.jpg,GW/globe.jpg,,,,,,,,,,,,
null,,black_cross(without_color),765699,blue,,,,null,GW/soldier.jpg,GW/globe.jpg,,,,,,,,,,,,
null,,rt_plussign_withcolor,766201,blue,,,,null,GW/soldier.jpg,GW/globe.jpg,,,,,,,,,,,,
1057,,rt_thecrossant_black,767624,black_plus_sign,,,,49,,,1,0.9758064516129032,,,,,,,,,,
null,,color_black,767727,black_plus_sign,,,,null,,,,,,,,,,,,,,
null,,learn_phase(without_color),769733,black_plus_sign,,,,null,GW/teeth.jpg,GW/snail.jpg,,,,,,,,,,,,
null,,black_cross(without_color),770545,green,,,,null,GW/teeth.jpg,GW/snail.jpg,,,,,,,,,,,,
null,,rt_plussign_withcolor,771049,green,,,,null,GW/teeth.jpg,GW/snail.jpg,,,,,,,,,,,,
820.1999999880791,,rt_thecrossant_black,772243,black_plus_sign,,,,50,,,1,0.976,,,,,,,,,,
null,,color_black,772347,black_plus_sign,,,,null,,,,,,,,,,,,,,
null,,learn_phase(without_color),774352,black_plus_sign,,,,null,GW/barrel.jpg,GW/dustpan.jpg,,,,,,,,,,,,
null,,black_cross(without_color),775350,blue,,,,null,GW/barrel.jpg,GW/dustpan.jpg,,,,,,,,,,,,
null,,rt_plussign_withcolor,775853,blue,,,,null,GW/barrel.jpg,GW/dustpan.jpg,,,,,,,,,,,,
1001.2999999523163,,rt_thecrossant_black,776862,black_plus_sign,,,,49,,,1,0.9761904761904762,,,,,,,,,,
null,,color_black,776966,black_plus_sign,,,,null,,,,,,,,,,,,,,
null,,learn_phase(without_color),778972,black_plus_sign,,,,null,GW/dustpan.jpg,GW/basket.jpg,,,,,,,,,,,,
null,,black_cross(without_color),779668,blue,,,,null,GW/dustpan.jpg,GW/basket.jpg,,,,,,,,,,,,
null,,rt_plussign_withcolor,780170,blue,,,,null,GW/dustpan.jpg,GW/basket.jpg,,,,,,,,,,,,
1095.4000000357628,,rt_thecrossant_black,781481,black_plus_sign,,,,49,,,1,0.9763779527559056,,,,,,,,,,
null,,color_black,781584,black_plus_sign,,,,null,,,,,,,,,,,,,,
null,,learn_phase(without_color),783589,black_plus_sign,,,,null,GW/teeth.jpg,GW/snail.jpg,,,,,,,,,,,,
null,,black_cross(without_color),784637,blue,,,,null,GW/teeth.jpg,GW/snail.jpg,,,,,,,,,,,,
null,,rt_plussign_withcolor,785141,blue,,,,null,GW/teeth.jpg,GW/snail.jpg,,,,,,,,,,,,
887,,rt_thecrossant_black,786100,black_plus_sign,,,,49,,,1,0.9765625,,,,,,,,,,
null,,color_black,786203,black_plus_sign,,,,null,,,,,,,,,,,,,,
25824.30000001192,,intro_1,812032,instruct,,0,Start,,,,,,,,,,,,,,,
null,,directmemory_phase,818537,GW/barrel.jpg,,,,null,,,0,0,GW/gong.jpg,GW/basket.jpg,GW/dustpan.jpg,GW/dustpan.jpg,GW/basket.jpg,GW/gong.jpg,0,,,
null,,html-keyboard-response,819542,<p></p>,,,,null,,,,,,,,,,,,,,
2673.5,,directmemory_phase,822219,GW/soldier.jpg,,,,50,,,1,0.5,GW/snail.jpg,GW/globe.jpg,GW/hat.jpg,GW/globe.jpg,GW/snail.jpg,GW/hat.jpg,1,,,
null,,html-keyboard-response,823224,<p></p>,,,,null,,,,,,,,,,,,,,
2601.099999964237,,directmemory_phase,825828,GW/camera.jpg,,,,50,,,0,0.3333333333333333,GW/barrel.jpg,GW/gong.jpg,GW/snail.jpg,GW/snail.jpg,GW/gong.jpg,GW/barrel.jpg,0.5,closer,,
null,,html-keyboard-response,826832,<p></p>,,,,null,,,,,,,,,,,,,,
2118.399999976158,,directmemory_phase,828954,GW/barrel.jpg,,,,51,,,1,0.5,GW/teeth.jpg,GW/basket.jpg,GW/jukebox.jpg,GW/jukebox.jpg,GW/basket.jpg,GW/teeth.jpg,1,,,
null,,html-keyboard-response,829959,<p></p>,,,,null,,,,,,,,,,,,,,
1981.300000011921,,directmemory_phase,831944,GW/camera.jpg,,,,51,,,1,0.6,GW/dustpan.jpg,GW/paint.jpg,GW/teeth.jpg,GW/teeth.jpg,GW/paint.jpg,GW/dustpan.jpg,1,,,
null,,html-keyboard-response,832948,<p></p>,,,,null,,,,,,,,,,,,,,
1861.7000000476837,,directmemory_phase,834813,GW/basket.jpg,,,,49,,,1,0.6666666666666666,GW/dustpan.jpg,GW/wheelchair.jpg,GW/snail.jpg,GW/dustpan.jpg,GW/snail.jpg,GW/wheelchair.jpg,1,,,
null,,html-keyboard-response,835818,<p></p>,,,,null,,,,,,,,,,,,,,
2075.400000035763,,directmemory_phase,837898,GW/globe.jpg,,,,49,,,1,0.7142857142857143,GW/teeth.jpg,GW/basket.jpg,GW/gong.jpg,GW/teeth.jpg,GW/gong.jpg,GW/basket.jpg,1,,,
null,,html-keyboard-response,838902,<p></p>,,,,null,,,,,,,,,,,,,,
1958,,directmemory_phase,840864,GW/paint.jpg,,,,51,,,1,0.75,GW/jukebox.jpg,GW/camera.jpg,GW/basket.jpg,GW/basket.jpg,GW/camera.jpg,GW/jukebox.jpg,1,,,
null,,html-keyboard-response,841868,<p></p>,,,,null,,,,,,,,,,,,,,
1711.6000000238419,,directmemory_phase,843583,GW/snail.jpg,,,,51,,,1,0.7777777777777778,GW/dustpan.jpg,GW/basket.jpg,GW/teeth.jpg,GW/teeth.jpg,GW/basket.jpg,GW/dustpan.jpg,1,,,
null,,html-keyboard-response,844587,<p></p>,,,,null,,,,,,,,,,,,,,
1646.7999999523163,,directmemory_phase,846238,GW/paint.jpg,,,,49,,,1,0.8,GW/soldier.jpg,GW/hat.jpg,GW/dustpan.jpg,GW/soldier.jpg,GW/dustpan.jpg,GW/hat.jpg,1,,,
null,,html-keyboard-response,847242,<p></p>,,,,null,,,,,,,,,,,,,,
1512.8999999761581,,directmemory_phase,848758,GW/teeth.jpg,,,,51,,,1,0.8181818181818182,GW/basket.jpg,GW/paint.jpg,GW/gong.jpg,GW/gong.jpg,GW/paint.jpg,GW/basket.jpg,1,,,
null,,html-keyboard-response,849761,<p></p>,,,,null,,,,,,,,,,,,,,
2095.599999964237,,directmemory_phase,851859,GW/globe.jpg,,,,51,,,1,0.8333333333333334,GW/basket.jpg,GW/camera.jpg,GW/snail.jpg,GW/snail.jpg,GW/camera.jpg,GW/basket.jpg,1,,,
null,,html-keyboard-response,852863,<p></p>,,,,null,,,,,,,,,,,,,,
1862.8999999761581,,directmemory_phase,854729,GW/gong.jpg,,,,50,,,0,0.7692307692307693,GW/paint.jpg,GW/globe.jpg,GW/teeth.jpg,GW/teeth.jpg,GW/globe.jpg,GW/paint.jpg,0.5,closer,,
null,,html-keyboard-response,855732,<p></p>,,,,null,,,,,,,,,,,,,,
1489.199999988079,,directmemory_phase,857225,GW/jukebox.jpg,,,,51,,,1,0.7857142857142857,GW/teeth.jpg,GW/dustpan.jpg,GW/barrel.jpg,GW/barrel.jpg,GW/dustpan.jpg,GW/teeth.jpg,1,,,
null,,html-keyboard-response,858230,<p></p>,,,,null,,,,,,,,,,,,,,
1373.3999999761581,,directmemory_phase,859608,GW/basket.jpg,,,,49,,,1,0.8,GW/paint.jpg,GW/globe.jpg,GW/hat.jpg,GW/paint.jpg,GW/hat.jpg,GW/globe.jpg,1,,,
null,,html-keyboard-response,860612,<p></p>,,,,null,,,,,,,,,,,,,,
1124.1000000238419,,directmemory_phase,861740,GW/wheelchair.jpg,,,,51,,,1,0.8125,GW/soldier.jpg,GW/snail.jpg,GW/camera.jpg,GW/camera.jpg,GW/snail.jpg,GW/soldier.jpg,1,,,
null,,html-keyboard-response,862743,<p></p>,,,,null,,,,,,,,,,,,,,
2053.2999999523163,,directmemory_phase,864800,GW/globe.jpg,,,,50,,,1,0.8235294117647058,GW/barrel.jpg,GW/soldier.jpg,GW/hat.jpg,GW/soldier.jpg,GW/barrel.jpg,GW/hat.jpg,1,,,
null,,html-keyboard-response,865804,<p></p>,,,,null,,,,,,,,,,,,,,
2246.100000023842,,directmemory_phase,868054,GW/snail.jpg,,,,51,,,1,0.8333333333333334,GW/hat.jpg,GW/basket.jpg,GW/paint.jpg,GW/paint.jpg,GW/basket.jpg,GW/hat.jpg,1,,,
null,,html-keyboard-response,869059,<p></p>,,,,null,,,,,,,,,,,,,,
1287.1000000238419,,directmemory_phase,870349,GW/camera.jpg,,,,50,,,1,0.8421052631578947,GW/globe.jpg,GW/wheelchair.jpg,GW/dustpan.jpg,GW/wheelchair.jpg,GW/globe.jpg,GW/dustpan.jpg,1,,,
null,,html-keyboard-response,871352,<p></p>,,,,null,,,,,,,,,,,,,,
1977.0999999642372,,directmemory_phase,873333,GW/paint.jpg,,,,51,,,1,0.85,GW/hat.jpg,GW/teeth.jpg,GW/snail.jpg,GW/snail.jpg,GW/teeth.jpg,GW/hat.jpg,1,,,
null,,html-keyboard-response,874336,<p></p>,,,,null,,,,,,,,,,,,,,
2061.600000023842,,directmemory_phase,876401,GW/dustpan.jpg,,,,49,,,0,0.8095238095238095,GW/snail.jpg,GW/soldier.jpg,GW/hat.jpg,GW/hat.jpg,GW/soldier.jpg,GW/snail.jpg,0.5,closer,,
null,,html-keyboard-response,877405,<p></p>,,,,null,,,,,,,,,,,,,,
2286.099999964237,,directmemory_phase,879695,GW/barrel.jpg,,,,49,,,1,0.8181818181818182,GW/soldier.jpg,GW/snail.jpg,GW/paint.jpg,GW/soldier.jpg,GW/paint.jpg,GW/snail.jpg,1,,,
null,,html-keyboard-response,880699,<p></p>,,,,null,,,,,,,,,,,,,,
2444.399999976158,,directmemory_phase,883147,GW/snail.jpg,,,,51,,,0,0.782608695652174,GW/soldier.jpg,GW/camera.jpg,GW/dustpan.jpg,GW/camera.jpg,GW/soldier.jpg,GW/dustpan.jpg,0.5,closer,,
null,,html-keyboard-response,884151,<p></p>,,,,null,,,,,,,,,,,,,,
1736.5999999642372,,directmemory_phase,885891,GW/dustpan.jpg,,,,51,,,1,0.7916666666666666,GW/snail.jpg,GW/paint.jpg,GW/basket.jpg,GW/basket.jpg,GW/paint.jpg,GW/snail.jpg,1,,,
null,,html-keyboard-response,886895,<p></p>,,,,null,,,,,,,,,,,,,,
2117.900000035763,,directmemory_phase,889016,GW/teeth.jpg,,,,51,,,1,0.8,GW/barrel.jpg,GW/paint.jpg,GW/camera.jpg,GW/camera.jpg,GW/paint.jpg,GW/barrel.jpg,1,,,
null,,html-keyboard-response,890020,<p></p>,,,,null,,,,,,,,,,,,,,
2236.300000011921,,directmemory_phase,892260,GW/soldier.jpg,,,,51,,,1,0.8076923076923077,GW/gong.jpg,GW/teeth.jpg,GW/paint.jpg,GW/paint.jpg,GW/teeth.jpg,GW/gong.jpg,1,,,
null,,html-keyboard-response,893262,<p></p>,,,,null,,,,,,,,,,,,,,
1832.0999999642372,,directmemory_phase,895097,GW/snail.jpg,,,,49,,,1,0.8148148148148148,GW/globe.jpg,GW/dustpan.jpg,GW/soldier.jpg,GW/globe.jpg,GW/soldier.jpg,GW/dustpan.jpg,1,,,
null,,html-keyboard-response,896100,<p></p>,,,,null,,,,,,,,,,,,,,
1905.5,,directmemory_phase,898009,GW/soldier.jpg,,,,49,,,1,0.8214285714285714,GW/barrel.jpg,GW/gong.jpg,GW/jukebox.jpg,GW/barrel.jpg,GW/jukebox.jpg,GW/gong.jpg,1,,,
null,,html-keyboard-response,899014,<p></p>,,,,null,,,,,,,,,,,,,,
2222,,directmemory_phase,901239,GW/hat.jpg,,,,51,,,1,0.8275862068965517,GW/jukebox.jpg,GW/basket.jpg,GW/dustpan.jpg,GW/dustpan.jpg,GW/basket.jpg,GW/jukebox.jpg,1,,,
null,,html-keyboard-response,902243,<p></p>,,,,null,,,,,,,,,,,,,,
2316.100000023842,,directmemory_phase,904563,GW/teeth.jpg,,,,51,,,1,0.8333333333333334,GW/barrel.jpg,GW/paint.jpg,GW/globe.jpg,GW/globe.jpg,GW/paint.jpg,GW/barrel.jpg,1,,,
null,,html-keyboard-response,905567,<p></p>,,,,null,,,,,,,,,,,,,,
2236.599999964237,,directmemory_phase,907807,GW/dustpan.jpg,,,,50,,,0,0.8064516129032258,GW/barrel.jpg,GW/snail.jpg,GW/jukebox.jpg,GW/barrel.jpg,GW/jukebox.jpg,GW/snail.jpg,0.5,closer,,
null,,html-keyboard-response,908812,<p></p>,,,,null,,,,,,,,,,,,,,
2577.699999988079,,directmemory_phase,911393,GW/teeth.jpg,,,,49,,,1,0.8125,GW/snail.jpg,GW/dustpan.jpg,GW/wheelchair.jpg,GW/snail.jpg,GW/wheelchair.jpg,GW/dustpan.jpg,1,,,
null,,html-keyboard-response,912399,<p></p>,,,,null,,,,,,,,,,,,,,
32030.5,,intro_1,944432,instruct,,0,,,,,,,,,,,,,,,,
19457.5,,intro_2,963892,instruct,,1,Next,,,,,,,,,,,,,,,
5881.600000023842,,intro_3,969777,instruct,,1,Next,,,,,,,,,,,,,,,
17542.19999998808,,intro_4,987322,instruct,,1,Next,,,,,,,,,,,,,,,
23358.200000047684,,intro_5,1010683,instruct,,1,Next,,,,,,,,,,,,,,,
5353.699999988079,,intro_6,1016039,instruct,,1,Next,,,,,,,,,,,,,,,
2868.899999976158,,intro_7,1018910,instruct,,0,Previous,,,,,,,,,,,,,,,
43351,,intro_6,1062264,instruct,,1,Next,,,,,,,,,,,,,,,
12928.899999976158,,intro_7,1075195,instruct,,1,Next,,,,,,,,,,,,,,,
10888.700000047684,,intro_8,1086086,instruct,,1,Next,,,,,,,,,,,,,,,
3014.7999999523163,,shortestpath_phase,1089104,GW/hat.jpg,,,,50,GW/gong.jpg,GW/barrel.jpg,1,1,,,,GW/barrel.jpg,,,,,Four Edge Diff,Two Edge Six Edge
null,,html-keyboard-response,1090108,<p></p>,,,,null,,,,,,,,,,,,,,
2547.5,,shortestpath_phase,1092658,GW/wheelchair.jpg,,,,50,GW/snail.jpg,GW/paint.jpg,0,0.5,,,,GW/snail.jpg,,,,,One Edge Diff,Two Edge Three Edge
null,,html-keyboard-response,1093662,<p></p>,,,,null,,,,,,,,,,,,,,
2117.899999976158,,shortestpath_phase,1095784,GW/barrel.jpg,,,,50,GW/wheelchair.jpg,GW/globe.jpg,1,0.6666666666666666,,,,GW/globe.jpg,,,,,Three Edge Diff,Two Edge Five Edge
null,,html-keyboard-response,1096789,<p></p>,,,,null,,,,,,,,,,,,,,
2577.5,,shortestpath_phase,1099369,GW/camera.jpg,,,,49,GW/soldier.jpg,GW/hat.jpg,1,0.75,,,,GW/soldier.jpg,,,,,Two Edge Diff,Three Edge Five Edge
null,,html-keyboard-response,1100379,<p></p>,,,,null,,,,,,,,,,,,,,
2994.800000011921,,shortestpath_phase,1103376,GW/hat.jpg,,,,50,GW/soldier.jpg,GW/barrel.jpg,1,0.8,,,,GW/barrel.jpg,,,,,One Edge Diff,Two Edge Three Edge
null,,html-keyboard-response,1104379,<p></p>,,,,null,,,,,,,,,,,,,,
2685.599999964237,,shortestpath_phase,1107069,GW/wheelchair.jpg,,,,50,GW/hat.jpg,GW/snail.jpg,1,0.8333333333333334,,,,GW/snail.jpg,,,,,Four Edge Diff,Two Edge Six Edge
null,,html-keyboard-response,1108074,<p></p>,,,,null,,,,,,,,,,,,,,
2704.100000023842,,shortestpath_phase,1110782,GW/jukebox.jpg,,,,50,GW/camera.jpg,GW/hat.jpg,1,0.8571428571428571,,,,GW/hat.jpg,,,,,Two Edge Diff,Three Edge Five Edge
null,,html-keyboard-response,1111787,<p></p>,,,,null,,,,,,,,,,,,,,
2180.2000000476837,,shortestpath_phase,1113970,GW/barrel.jpg,,,,50,GW/wheelchair.jpg,GW/basket.jpg,1,0.875,,,,GW/basket.jpg,,,,,Three Edge Diff,Three Edge Six Edge
null,,html-keyboard-response,1114975,<p></p>,,,,null,,,,,,,,,,,,,,
2386.300000011921,,shortestpath_phase,1117366,GW/dustpan.jpg,,,,50,GW/gong.jpg,GW/soldier.jpg,1,0.8888888888888888,,,,GW/soldier.jpg,,,,,Three Edge Diff,Three Edge Six Edge
null,,html-keyboard-response,1118370,<p></p>,,,,null,,,,,,,,,,,,,,
2658.100000023842,,shortestpath_phase,1121031,GW/gong.jpg,,,,49,GW/globe.jpg,GW/hat.jpg,1,0.9,,,,GW/globe.jpg,,,,,Four Edge Diff,Two Edge Six Edge
null,,html-keyboard-response,1122037,<p></p>,,,,null,,,,,,,,,,,,,,
2283,,shortestpath_phase,1124323,GW/soldier.jpg,,,,49,GW/teeth.jpg,GW/hat.jpg,1,0.9090909090909091,,,,GW/teeth.jpg,,,,,One Edge Diff,Two Edge Three Edge
null,,html-keyboard-response,1125328,<p></p>,,,,null,,,,,,,,,,,,,,
3135.199999988079,,shortestpath_phase,1128466,GW/jukebox.jpg,,,,49,GW/dustpan.jpg,GW/teeth.jpg,1,0.9166666666666666,,,,GW/dustpan.jpg,,,,,Two Edge Diff,Two Edge Four Edge
null,,html-keyboard-response,1129469,<p></p>,,,,null,,,,,,,,,,,,,,
3621.600000023842,,shortestpath_phase,1133094,GW/snail.jpg,,,,50,GW/dustpan.jpg,GW/soldier.jpg,1,0.9230769230769231,,,,GW/soldier.jpg,,,,,One Edge Diff,Two Edge Three Edge
null,,html-keyboard-response,1134098,<p></p>,,,,null,,,,,,,,,,,,,,
2299.5,,shortestpath_phase,1136401,GW/dustpan.jpg,,,,50,GW/wheelchair.jpg,GW/jukebox.jpg,1,0.9285714285714286,,,,GW/jukebox.jpg,,,,,Three Edge Diff,Two Edge Five Edge
null,,html-keyboard-response,1137406,<p></p>,,,,null,,,,,,,,,,,,,,
2170.699999988079,,shortestpath_phase,1139580,GW/camera.jpg,,,,50,GW/jukebox.jpg,GW/gong.jpg,1,0.9333333333333333,,,,GW/gong.jpg,,,,,Three Edge Diff,Three Edge Six Edge
null,,html-keyboard-response,1140584,<p></p>,,,,null,,,,,,,,,,,,,,
2402.900000035763,,shortestpath_phase,1142990,GW/wheelchair.jpg,,,,50,GW/barrel.jpg,GW/teeth.jpg,1,0.9375,,,,GW/teeth.jpg,,,,,Three Edge Diff,Three Edge Six Edge
null,,html-keyboard-response,1143994,<p></p>,,,,null,,,,,,,,,,,,,,
2076.399999976158,,shortestpath_phase,1146074,GW/soldier.jpg,,,,49,GW/hat.jpg,GW/basket.jpg,0,0.8823529411764706,,,,GW/basket.jpg,,,,,One Edge Diff,Two Edge Three Edge
null,,html-keyboard-response,1147079,<p></p>,,,,null,,,,,,,,,,,,,,
2667.600000023842,,shortestpath_phase,1149750,GW/teeth.jpg,,,,50,GW/wheelchair.jpg,GW/jukebox.jpg,0,0.8333333333333334,,,,GW/wheelchair.jpg,,,,,Two Edge Diff,Two Edge Four Edge
null,,html-keyboard-response,1150755,<p></p>,,,,null,,,,,,,,,,,,,,
2856,,shortestpath_phase,1153614,GW/jukebox.jpg,,,,49,GW/snail.jpg,GW/wheelchair.jpg,1,0.8421052631578947,,,,GW/snail.jpg,,,,,Two Edge Diff,Four Edge Six Edge
null,,html-keyboard-response,1154619,<p></p>,,,,null,,,,,,,,,,,,,,
1599.9000000357628,,shortestpath_phase,1156222,GW/dustpan.jpg,,,,49,GW/soldier.jpg,GW/camera.jpg,1,0.85,,,,GW/soldier.jpg,,,,,Two Edge Diff,Two Edge Four Edge
null,,html-keyboard-response,1157226,<p></p>,,,,null,,,,,,,,,,,,,,
1504.1000000238419,,shortestpath_phase,1158733,GW/jukebox.jpg,,,,49,GW/globe.jpg,GW/camera.jpg,1,0.8571428571428571,,,,GW/globe.jpg,,,,,Two Edge Diff,Three Edge Five Edge
null,,html-keyboard-response,1159738,<p></p>,,,,null,,,,,,,,,,,,,,
2039.0999999642372,,shortestpath_phase,1161779,GW/teeth.jpg,,,,49,GW/soldier.jpg,GW/hat.jpg,1,0.8636363636363636,,,,GW/soldier.jpg,,,,,Three Edge Diff,Two Edge Five Edge
null,,html-keyboard-response,1162783,<p></p>,,,,null,,,,,,,,,,,,,,
1919,,shortestpath_phase,1164705,GW/dustpan.jpg,,,,50,GW/camera.jpg,GW/globe.jpg,1,0.8695652173913043,,,,GW/globe.jpg,,,,,One Edge Diff,Three Edge Four Edge
null,,html-keyboard-response,1165709,<p></p>,,,,null,,,,,,,,,,,,,,
2157.2999999523163,,shortestpath_phase,1167870,GW/wheelchair.jpg,,,,49,GW/barrel.jpg,GW/hat.jpg,1,0.875,,,,GW/barrel.jpg,,,,,One Edge Diff,Five Edge Six Edge
null,,html-keyboard-response,1168874,<p></p>,,,,null,,,,,,,,,,,,,,
1893.699999988079,,shortestpath_phase,1170772,GW/dustpan.jpg,,,,50,GW/gong.jpg,GW/paint.jpg,1,0.88,,,,GW/paint.jpg,,,,,Three Edge Diff,Three Edge Six Edge
null,,html-keyboard-response,1171776,<p></p>,,,,null,,,,,,,,,,,,,,
2435.5,,shortestpath_phase,1174215,GW/jukebox.jpg,,,,49,GW/snail.jpg,GW/camera.jpg,1,0.8846153846153846,,,,GW/snail.jpg,,,,,One Edge Diff,Four Edge Five Edge
null,,html-keyboard-response,1175219,<p></p>,,,,null,,,,,,,,,,,,,,
1935.1000000238419,,shortestpath_phase,1177157,GW/camera.jpg,,,,50,GW/hat.jpg,GW/dustpan.jpg,1,0.8888888888888888,,,,GW/dustpan.jpg,,,,,One Edge Diff,Four Edge Five Edge
null,,html-keyboard-response,1178162,<p></p>,,,,null,,,,,,,,,,,,,,
3493.800000011921,,shortestpath_phase,1181659,GW/hat.jpg,,,,50,GW/snail.jpg,GW/gong.jpg,0,0.8571428571428571,,,,GW/snail.jpg,,,,,Two Edge Diff,Four Edge Six Edge
null,,html-keyboard-response,1182664,<p></p>,,,,null,,,,,,,,,,,,,,
1605.2999999523163,,shortestpath_phase,1184273,GW/wheelchair.jpg,,,,49,GW/soldier.jpg,GW/jukebox.jpg,1,0.8620689655172413,,,,GW/soldier.jpg,,,,,Two Edge Diff,Four Edge Six Edge
null,,html-keyboard-response,1185279,<p></p>,,,,null,,,,,,,,,,,,,,
2659.300000011921,,shortestpath_phase,1187941,GW/teeth.jpg,,,,50,GW/hat.jpg,GW/jukebox.jpg,1,0.8666666666666667,,,,GW/jukebox.jpg,,,,,One Edge Diff,Four Edge Five Edge
null,,html-keyboard-response,1188945,<p></p>,,,,null,,,,,,,,,,,,,,
2458.899999976158,,shortestpath_phase,1191407,GW/gong.jpg,,,,49,GW/barrel.jpg,GW/jukebox.jpg,1,0.8709677419354839,,,,GW/barrel.jpg,,,,,One Edge Diff,Four Edge Five Edge
null,,html-keyboard-response,1192412,<p></p>,,,,null,,,,,,,,,,,,,,
2626.099999964237,,shortestpath_phase,1195041,GW/jukebox.jpg,,,,50,GW/wheelchair.jpg,GW/teeth.jpg,1,0.875,,,,GW/teeth.jpg,,,,,Two Edge Diff,Four Edge Six Edge
null,,html-keyboard-response,1196045,<p></p>,,,,null,,,,,,,,,,,,,,
1638.300000011921,,shortestpath_phase,1197687,GW/globe.jpg,,,,49,GW/paint.jpg,GW/hat.jpg,1,0.8787878787878788,,,,GW/paint.jpg,,,,,Two Edge Diff,Two Edge Four Edge
null,,html-keyboard-response,1198691,<p></p>,,,,null,,,,,,,,,,,,,,
2785.5,,shortestpath_phase,1201480,GW/gong.jpg,,,,49,GW/jukebox.jpg,GW/wheelchair.jpg,0,0.8529411764705882,,,,GW/wheelchair.jpg,,,,,Two Edge Diff,Three Edge Five Edge
null,,html-keyboard-response,1202484,<p></p>,,,,null,,,,,,,,,,,,,,
1870.5,,shortestpath_phase,1204357,GW/barrel.jpg,,,,49,GW/hat.jpg,GW/snail.jpg,1,0.8571428571428571,,,,GW/hat.jpg,,,,,One Edge Diff,Two Edge Three Edge
null,,html-keyboard-response,1205359,<p></p>,,,,null,,,,,,,,,,,,,,
2645.400000035763,,shortestpath_phase,1208008,GW/wheelchair.jpg,,,,49,GW/snail.jpg,GW/jukebox.jpg,1,0.8611111111111112,,,,GW/snail.jpg,,,,,Four Edge Diff,Two Edge Six Edge
null,,html-keyboard-response,1209013,<p></p>,,,,null,,,,,,,,,,,,,,
2028.1000000238419,,shortestpath_phase,1211044,GW/gong.jpg,,,,49,GW/hat.jpg,GW/dustpan.jpg,0,0.8378378378378378,,,,GW/dustpan.jpg,,,,,One Edge Diff,Five Edge Six Edge
null,,html-keyboard-response,1212048,<p></p>,,,,null,,,,,,,,,,,,,,
3312,,shortestpath_phase,1215363,GW/wheelchair.jpg,,,,50,GW/basket.jpg,GW/snail.jpg,1,0.8421052631578947,,,,GW/snail.jpg,,,,,Two Edge Diff,Two Edge Four Edge
null,,html-keyboard-response,1216367,<p></p>,,,,null,,,,,,,,,,,,,,
2173.5,,shortestpath_phase,1218543,GW/jukebox.jpg,,,,49,GW/camera.jpg,GW/wheelchair.jpg,1,0.8461538461538461,,,,GW/camera.jpg,,,,,One Edge Diff,Five Edge Six Edge
null,,html-keyboard-response,1219548,<p></p>,,,,null,,,,,,,,,,,,,,
2115.5,,shortestpath_phase,1221667,GW/wheelchair.jpg,,,,49,GW/jukebox.jpg,GW/basket.jpg,0,0.825,,,,GW/basket.jpg,,,,,Two Edge Diff,Four Edge Six Edge
null,,html-keyboard-response,1222672,<p></p>,,,,null,,,,,,,,,,,,,,
1590.9000000357628,,shortestpath_phase,1224267,GW/hat.jpg,,,,50,GW/wheelchair.jpg,GW/snail.jpg,1,0.8292682926829268,,,,GW/snail.jpg,,,,,Two Edge Diff,Four Edge Six Edge
null,,html-keyboard-response,1225272,<p></p>,,,,null,,,,,,,,,,,,,,
1568.699999988079,,shortestpath_phase,1226843,GW/jukebox.jpg,,,,49,GW/soldier.jpg,GW/wheelchair.jpg,1,0.8333333333333334,,,,GW/soldier.jpg,,,,,Four Edge Diff,Two Edge Six Edge
null,,html-keyboard-response,1227848,<p></p>,,,,null,,,,,,,,,,,,,,
1875.699999988079,,shortestpath_phase,1229727,GW/snail.jpg,,,,49,GW/basket.jpg,GW/dustpan.jpg,1,0.8372093023255814,,,,GW/basket.jpg,,,,,One Edge Diff,Two Edge Three Edge
null,,html-keyboard-response,1230730,<p></p>,,,,null,,,,,,,,,,,,,,
1881.300000011921,,shortestpath_phase,1232615,GW/wheelchair.jpg,,,,50,GW/barrel.jpg,GW/gong.jpg,1,0.8409090909090909,,,,GW/gong.jpg,,,,,Two Edge Diff,Three Edge Five Edge
null,,html-keyboard-response,1233619,<p></p>,,,,null,,,,,,,,,,,,,,
1869.699999988079,,shortestpath_phase,1235492,GW/dustpan.jpg,,,,49,GW/globe.jpg,GW/teeth.jpg,1,0.8444444444444444,,,,GW/globe.jpg,,,,,One Edge Diff,Three Edge Four Edge
null,,html-keyboard-response,1236497,<p></p>,,,,null,,,,,,,,,,,,,,
1997.199999988079,,shortestpath_phase,1238497,GW/wheelchair.jpg,,,,49,GW/teeth.jpg,GW/hat.jpg,1,0.8478260869565217,,,,GW/teeth.jpg,,,,,Four Edge Diff,Two Edge Six Edge
null,,html-keyboard-response,1239506,<p></p>,,,,null,,,,,,,,,,,,,,
2710.199999988079,,shortestpath_phase,1242219,GW/jukebox.jpg,,,,49,GW/gong.jpg,GW/wheelchair.jpg,1,0.851063829787234,,,,GW/gong.jpg,,,,,One Edge Diff,Five Edge Six Edge
null,,html-keyboard-response,1243234,<p></p>,,,,null,,,,,,,,,,,,,,
2217.699999988079,,shortestpath_phase,1245455,GW/barrel.jpg,,,,49,GW/basket.jpg,GW/wheelchair.jpg,1,0.8541666666666666,,,,GW/basket.jpg,,,,,Three Edge Diff,Two Edge Five Edge
null,,html-keyboard-response,1246460,<p></p>,,,,null,,,,,,,,,,,,,,
3039.900000035763,,shortestpath_phase,1249503,GW/gong.jpg,,,,49,GW/camera.jpg,GW/hat.jpg,1,0.8571428571428571,,,,GW/camera.jpg,,,,,Four Edge Diff,Two Edge Six Edge
null,,html-keyboard-response,1250508,<p></p>,,,,null,,,,,,,,,,,,,,
2991.699999988079,,shortestpath_phase,1253502,GW/hat.jpg,,,,49,GW/teeth.jpg,GW/jukebox.jpg,0,0.84,,,,GW/jukebox.jpg,,,,,Two Edge Diff,Three Edge Five Edge
null,,html-keyboard-response,1254506,<p></p>,,,,null,,,,,,,,,,,,,,
1568.300000011921,,shortestpath_phase,1256078,GW/gong.jpg,,,,50,GW/dustpan.jpg,GW/globe.jpg,1,0.8431372549019608,,,,GW/globe.jpg,,,,,Three Edge Diff,Three Edge Six Edge
null,,html-keyboard-response,1257083,<p></p>,,,,null,,,,,,,,,,,,,,
2037.199999988079,,shortestpath_phase,1259124,GW/hat.jpg,,,,50,GW/wheelchair.jpg,GW/teeth.jpg,1,0.8461538461538461,,,,GW/teeth.jpg,,,,,One Edge Diff,Five Edge Six Edge
null,,html-keyboard-response,1260128,<p></p>,,,,null,,,,,,,,,,,,,,
3183.599999964237,,shortestpath_phase,1263315,GW/camera.jpg,,,,50,GW/barrel.jpg,GW/gong.jpg,1,0.8490566037735849,,,,GW/gong.jpg,,,,,Two Edge Diff,Two Edge Four Edge
null,,html-keyboard-response,1264319,<p></p>,,,,null,,,,,,,,,,,,,,
3525,,shortestpath_phase,1267848,GW/hat.jpg,,,,49,GW/gong.jpg,GW/globe.jpg,0,0.8333333333333334,,,,GW/globe.jpg,,,,,Two Edge Diff,Four Edge Six Edge
null,,html-keyboard-response,1268856,<p></p>,,,,null,,,,,,,,,,,,,,
2271.400000035763,,shortestpath_phase,1271131,GW/wheelchair.jpg,,,,49,GW/teeth.jpg,GW/jukebox.jpg,1,0.8363636363636363,,,,GW/teeth.jpg,,,,,Four Edge Diff,Two Edge Six Edge
null,,html-keyboard-response,1272135,<p></p>,,,,null,,,,,,,,,,,,,,
3176.199999988079,,shortestpath_phase,1275315,GW/jukebox.jpg,,,,50,GW/gong.jpg,GW/basket.jpg,1,0.8392857142857143,,,,GW/basket.jpg,,,,,Two Edge Diff,Three Edge Five Edge
null,,html-keyboard-response,1276319,<p></p>,,,,null,,,,,,,,,,,,,,
2316.300000011921,,shortestpath_phase,1278639,GW/camera.jpg,,,,49,GW/jukebox.jpg,GW/barrel.jpg,0,0.8245614035087719,,,,GW/barrel.jpg,,,,,One Edge Diff,Four Edge Five Edge
null,,html-keyboard-response,1279643,<p></p>,,,,null,,,,,,,,,,,,,,
1663.199999988079,,shortestpath_phase,1281310,GW/teeth.jpg,,,,50,GW/hat.jpg,GW/paint.jpg,1,0.8275862068965517,,,,GW/paint.jpg,,,,,Three Edge Diff,Two Edge Five Edge
null,,html-keyboard-response,1282314,<p></p>,,,,null,,,,,,,,,,,,,,
3103.100000023842,,shortestpath_phase,1285421,GW/barrel.jpg,,,,49,GW/gong.jpg,GW/basket.jpg,0,0.8135593220338984,,,,GW/basket.jpg,,,,,Two Edge Diff,Two Edge Four Edge
null,,html-keyboard-response,1286425,<p></p>,,,,null,,,,,,,,,,,,,,
1688.199999988079,,shortestpath_phase,1288117,GW/wheelchair.jpg,,,,50,GW/dustpan.jpg,GW/snail.jpg,1,0.8166666666666667,,,,GW/snail.jpg,,,,,Three Edge Diff,Two Edge Five Edge
null,,html-keyboard-response,1289121,<p></p>,,,,null,,,,,,,,,,,,,,
3070.600000023842,,shortestpath_phase,1292195,GW/basket.jpg,,,,49,GW/hat.jpg,GW/globe.jpg,1,0.819672131147541,,,,GW/hat.jpg,,,,,One Edge Diff,Two Edge Three Edge
null,,html-keyboard-response,1293200,<p></p>,,,,null,,,,,,,,,,,,,,
1289.5,,shortestpath_phase,1294493,GW/wheelchair.jpg,,,,49,GW/gong.jpg,GW/basket.jpg,1,0.8225806451612904,,,,GW/gong.jpg,,,,,One Edge Diff,Three Edge Four Edge
null,,html-keyboard-response,1295497,<p></p>,,,,null,,,,,,,,,,,,,,
1909.5999999642372,,shortestpath_phase,1297411,GW/globe.jpg,,,,50,GW/dustpan.jpg,GW/hat.jpg,0,0.8095238095238095,,,,GW/dustpan.jpg,,,,,One Edge Diff,Three Edge Four Edge
null,,html-keyboard-response,1298416,<p></p>,,,,null,,,,,,,,,,,,,,
2117.100000023842,,shortestpath_phase,1300536,GW/hat.jpg,,,,50,GW/gong.jpg,GW/teeth.jpg,1,0.8125,,,,GW/teeth.jpg,,,,,One Edge Diff,Five Edge Six Edge
null,,html-keyboard-response,1301541,<p></p>,,,,null,,,,,,,,,,,,,,
1854.199999988079,,shortestpath_phase,1303398,GW/barrel.jpg,,,,49,GW/gong.jpg,GW/snail.jpg,0,0.8,,,,GW/snail.jpg,,,,,One Edge Diff,Three Edge Four Edge
null,,html-keyboard-response,1304410,<p></p>,,,,null,,,,,,,,,,,,,,
1940.6000000238419,,shortestpath_phase,1306353,GW/basket.jpg,,,,49,GW/teeth.jpg,GW/wheelchair.jpg,1,0.803030303030303,,,,GW/teeth.jpg,,,,,One Edge Diff,Three Edge Four Edge
null,,html-keyboard-response,1307355,<p></p>,,,,null,,,,,,,,,,,,,,
2377.100000023842,,shortestpath_phase,1309735,GW/wheelchair.jpg,,,,49,GW/jukebox.jpg,GW/dustpan.jpg,0,0.7910447761194029,,,,GW/dustpan.jpg,,,,,One Edge Diff,Five Edge Six Edge
null,,html-keyboard-response,1310739,<p></p>,,,,null,,,,,,,,,,,,,,
2061.199999988079,,shortestpath_phase,1312804,GW/gong.jpg,,,,50,GW/hat.jpg,GW/barrel.jpg,1,0.7941176470588235,,,,GW/barrel.jpg,,,,,Two Edge Diff,Four Edge Six Edge
null,,html-keyboard-response,1313808,<p></p>,,,,null,,,,,,,,,,,,,,
1854.7999999523163,,shortestpath_phase,1315667,GW/wheelchair.jpg,,,,50,GW/dustpan.jpg,GW/hat.jpg,0,0.782608695652174,,,,GW/dustpan.jpg,,,,,One Edge Diff,Five Edge Six Edge
null,,html-keyboard-response,1316672,<p></p>,,,,null,,,,,,,,,,,,,,
1773.4000000357628,,shortestpath_phase,1318448,GW/camera.jpg,,,,49,GW/jukebox.jpg,GW/paint.jpg,0,0.7714285714285715,,,,GW/paint.jpg,,,,,Three Edge Diff,Three Edge Six Edge
null,,html-keyboard-response,1319453,<p></p>,,,,null,,,,,,,,,,,,,,
2538.300000011921,,shortestpath_phase,1321995,GW/wheelchair.jpg,,,,49,GW/soldier.jpg,GW/hat.jpg,1,0.7746478873239436,,,,GW/soldier.jpg,,,,,Two Edge Diff,Four Edge Six Edge
null,,html-keyboard-response,1322999,<p></p>,,,,null,,,,,,,,,,,,,,
2228.2000000476837,,shortestpath_phase,1325231,GW/gong.jpg,,,,50,GW/dustpan.jpg,GW/camera.jpg,1,0.7777777777777778,,,,GW/camera.jpg,,,,,Three Edge Diff,Three Edge Six Edge
null,,html-keyboard-response,1326236,<p></p>,,,,null,,,,,,,,,,,,,,
2395.899999976158,,shortestpath_phase,1328634,GW/wheelchair.jpg,,,,49,GW/hat.jpg,GW/basket.jpg,0,0.7671232876712328,,,,GW/basket.jpg,,,,,Two Edge Diff,Four Edge Six Edge
null,,html-keyboard-response,1329638,<p></p>,,,,null,,,,,,,,,,,,,,
1838.1000000238419,,shortestpath_phase,1331480,GW/teeth.jpg,,,,50,GW/basket.jpg,GW/paint.jpg,1,0.7702702702702703,,,,GW/paint.jpg,,,,,One Edge Diff,Two Edge Three Edge
null,,html-keyboard-response,1332484,<p></p>,,,,null,,,,,,,,,,,,,,
1813.8999999761581,,shortestpath_phase,1334302,GW/gong.jpg,,,,49,GW/snail.jpg,GW/hat.jpg,1,0.7733333333333333,,,,GW/snail.jpg,,,,,Four Edge Diff,Two Edge Six Edge
null,,html-keyboard-response,1335307,<p></p>,,,,null,,,,,,,,,,,,,,
3447.199999988079,,shortestpath_phase,1338756,GW/dustpan.jpg,,,,50,GW/gong.jpg,GW/camera.jpg,1,0.7763157894736842,,,,GW/camera.jpg,,,,,One Edge Diff,Four Edge Five Edge
null,,html-keyboard-response,1339760,<p></p>,,,,null,,,,,,,,,,,,,,
1670.800000011921,,shortestpath_phase,1341434,GW/wheelchair.jpg,,,,49,GW/snail.jpg,GW/dustpan.jpg,1,0.7792207792207793,,,,GW/snail.jpg,,,,,Three Edge Diff,Three Edge Six Edge
null,,html-keyboard-response,1342439,<p></p>,,,,null,,,,,,,,,,,,,,
1782.0999999642372,,shortestpath_phase,1344225,GW/camera.jpg,,,,49,GW/jukebox.jpg,GW/paint.jpg,0,0.7692307692307693,,,,GW/paint.jpg,,,,,Three Edge Diff,Two Edge Five Edge
null,,html-keyboard-response,1345229,<p></p>,,,,null,,,,,,,,,,,,,,
2467.300000011921,,shortestpath_phase,1347700,GW/wheelchair.jpg,,,,50,GW/dustpan.jpg,GW/teeth.jpg,1,0.7721518987341772,,,,GW/teeth.jpg,,,,,Three Edge Diff,Three Edge Six Edge
null,,html-keyboard-response,1348705,<p></p>,,,,null,,,,,,,,,,,,,,
3953.899999976158,,shortestpath_phase,1352663,GW/camera.jpg,,,,49,GW/gong.jpg,GW/hat.jpg,1,0.775,,,,GW/gong.jpg,,,,,Three Edge Diff,Two Edge Five Edge
null,,html-keyboard-response,1353669,<p></p>,,,,null,,,,,,,,,,,,,,
1883.0999999642372,,shortestpath_phase,1355556,GW/dustpan.jpg,,,,49,GW/paint.jpg,GW/snail.jpg,1,0.7777777777777778,,,,GW/paint.jpg,,,,,One Edge Diff,Two Edge Three Edge
null,,html-keyboard-response,1356560,<p></p>,,,,null,,,,,,,,,,,,,,
2513.699999988079,,shortestpath_phase,1359078,GW/gong.jpg,,,,49,GW/camera.jpg,GW/soldier.jpg,1,0.7804878048780488,,,,GW/camera.jpg,,,,,One Edge Diff,Two Edge Three Edge
null,,html-keyboard-response,1360083,<p></p>,,,,null,,,,,,,,,,,,,,
2212.099999964237,,shortestpath_phase,1362298,GW/wheelchair.jpg,,,,49,GW/jukebox.jpg,GW/barrel.jpg,0,0.7710843373493976,,,,GW/barrel.jpg,,,,,One Edge Diff,Five Edge Six Edge
null,,html-keyboard-response,1363303,<p></p>,,,,null,,,,,,,,,,,,,,
1798.5,,shortestpath_phase,1365105,GW/gong.jpg,,,,49,GW/basket.jpg,GW/hat.jpg,1,0.7738095238095238,,,,GW/basket.jpg,,,,,Two Edge Diff,Four Edge Six Edge
null,,html-keyboard-response,1366109,<p></p>,,,,null,,,,,,,,,,,,,,
1290.699999988079,,shortestpath_phase,1367402,GW/dustpan.jpg,,,,49,GW/soldier.jpg,GW/wheelchair.jpg,1,0.7764705882352941,,,,GW/soldier.jpg,,,,,Three Edge Diff,Two Edge Five Edge
null,,html-keyboard-response,1368407,<p></p>,,,,null,,,,,,,,,,,,,,
1583.0999999642372,,shortestpath_phase,1369994,GW/hat.jpg,,,,50,GW/camera.jpg,GW/basket.jpg,1,0.7790697674418605,,,,GW/basket.jpg,,,,,Three Edge Diff,Two Edge Five Edge
null,,html-keyboard-response,1370999,<p></p>,,,,null,,,,,,,,,,,,,,
1781.4000000357628,,shortestpath_phase,1372784,GW/soldier.jpg,,,,49,GW/wheelchair.jpg,GW/gong.jpg,0,0.7701149425287356,,,,GW/gong.jpg,,,,,One Edge Diff,Three Edge Four Edge
null,,html-keyboard-response,1373788,<p></p>,,,,null,,,,,,,,,,,,,,
2539.399999976158,,shortestpath_phase,1376331,GW/hat.jpg,,,,50,GW/teeth.jpg,GW/paint.jpg,1,0.7727272727272727,,,,GW/paint.jpg,,,,,Two Edge Diff,Three Edge Five Edge
null,,html-keyboard-response,1377336,<p></p>,,,,null,,,,,,,,,,,,,,
2743.599999964237,,shortestpath_phase,1380084,GW/jukebox.jpg,,,,49,GW/wheelchair.jpg,GW/dustpan.jpg,0,0.7640449438202247,,,,GW/dustpan.jpg,,,,,Four Edge Diff,Two Edge Six Edge
null,,html-keyboard-response,1381090,<p></p>,,,,null,,,,,,,,,,,,,,
1407.199999988079,,shortestpath_phase,1382500,GW/hat.jpg,,,,49,GW/soldier.jpg,GW/camera.jpg,1,0.7666666666666667,,,,GW/soldier.jpg,,,,,Two Edge Diff,Three Edge Five Edge
null,,html-keyboard-response,1383506,<p></p>,,,,null,,,,,,,,,,,,,,
2108.800000011921,,shortestpath_phase,1385618,GW/gong.jpg,,,,50,GW/dustpan.jpg,GW/camera.jpg,1,0.7692307692307693,,,,GW/camera.jpg,,,,,Three Edge Diff,Two Edge Five Edge
null,,html-keyboard-response,1386623,<p></p>,,,,null,,,,,,,,,,,,,,
1994.0999999642372,,shortestpath_phase,1388622,GW/hat.jpg,,,,49,GW/globe.jpg,GW/wheelchair.jpg,1,0.7717391304347826,,,,GW/globe.jpg,,,,,Two Edge Diff,Four Edge Six Edge
null,,html-keyboard-response,1389627,<p></p>,,,,null,,,,,,,,,,,,,,
2077.800000011921,,shortestpath_phase,1391708,GW/wheelchair.jpg,,,,49,GW/gong.jpg,GW/dustpan.jpg,1,0.7741935483870968,,,,GW/gong.jpg,,,,,Two Edge Diff,Three Edge Five Edge
null,,html-keyboard-response,1392713,<p></p>,,,,null,,,,,,,,,,,,,,
2195.699999988079,,shortestpath_phase,1394912,GW/hat.jpg,,,,49,GW/barrel.jpg,GW/camera.jpg,1,0.776595744680851,,,,GW/barrel.jpg,,,,,Three Edge Diff,Three Edge Six Edge
null,,html-keyboard-response,1395917,<p></p>,,,,null,,,,,,,,,,,,,,
1368.8999999761581,,shortestpath_phase,1397290,GW/gong.jpg,,,,49,GW/globe.jpg,GW/jukebox.jpg,1,0.7789473684210526,,,,GW/globe.jpg,,,,,Three Edge Diff,Three Edge Six Edge
null,,html-keyboard-response,1398294,<p></p>,,,,null,,,,,,,,,,,,,,
1423.3999999761581,,shortestpath_phase,1399722,GW/hat.jpg,,,,49,GW/basket.jpg,GW/wheelchair.jpg,1,0.78125,,,,GW/basket.jpg,,,,,Four Edge Diff,Two Edge Six Edge
null,,html-keyboard-response,1400727,<p></p>,,,,null,,,,,,,,,,,,,,
1631.300000011921,,shortestpath_phase,1402362,GW/paint.jpg,,,,49,GW/barrel.jpg,GW/gong.jpg,1,0.7835051546391752,,,,GW/barrel.jpg,,,,,One Edge Diff,Two Edge Three Edge
null,,html-keyboard-response,1403368,<p></p>,,,,null,,,,,,,,,,,,,,
1916.3999999761581,,shortestpath_phase,1405287,GW/hat.jpg,,,,50,GW/gong.jpg,GW/basket.jpg,1,0.7857142857142857,,,,GW/basket.jpg,,,,,Four Edge Diff,Two Edge Six Edge
null,,html-keyboard-response,1406307,<p></p>,,,,null,,,,,,,,,,,,,,
1878.5,,shortestpath_phase,1408189,GW/jukebox.jpg,,,,50,GW/camera.jpg,GW/teeth.jpg,1,0.7878787878787878,,,,GW/teeth.jpg,,,,,One Edge Diff,Four Edge Five Edge
null,,html-keyboard-response,1409194,<p></p>,,,,null,,,,,,,,,,,,,,
2499,,shortestpath_phase,1411696,GW/hat.jpg,,,,49,GW/wheelchair.jpg,GW/camera.jpg,0,0.78,,,,GW/camera.jpg,,,,,One Edge Diff,Five Edge Six Edge
null,,html-keyboard-response,1412701,<p></p>,,,,null,,,,,,,,,,,,,,
2682.899999976158,,shortestpath_phase,1415387,GW/gong.jpg,,,,50,GW/hat.jpg,GW/jukebox.jpg,1,0.7821782178217822,,,,GW/jukebox.jpg,,,,,One Edge Diff,Five Edge Six Edge
null,,html-keyboard-response,1416391,<p></p>,,,,null,,,,,,,,,,,,,,
2260.300000011921,,shortestpath_phase,1418655,GW/barrel.jpg,,,,49,GW/camera.jpg,GW/wheelchair.jpg,1,0.7843137254901961,,,,GW/camera.jpg,,,,,One Edge Diff,Four Edge Five Edge
null,,html-keyboard-response,1419660,<p></p>,,,,null,,,,,,,,,,,,,,
3041.399999976158,,shortestpath_phase,1422705,GW/jukebox.jpg,,,,50,GW/snail.jpg,GW/globe.jpg,1,0.7864077669902912,,,,GW/globe.jpg,,,,,One Edge Diff,Three Edge Four Edge
null,,html-keyboard-response,1423710,<p></p>,,,,null,,,,,,,,,,,,,,
1272.3999999761581,,shortestpath_phase,1424986,GW/snail.jpg,,,,49,GW/basket.jpg,GW/jukebox.jpg,1,0.7884615384615384,,,,GW/basket.jpg,,,,,Two Edge Diff,Two Edge Four Edge
null,,html-keyboard-response,1425991,<p></p>,,,,null,,,,,,,,,,,,,,
1089.4000000357628,,shortestpath_phase,1427084,GW/gong.jpg,,,,50,GW/basket.jpg,GW/globe.jpg,1,0.7904761904761904,,,,GW/globe.jpg,,,,,Two Edge Diff,Two Edge Four Edge
null,,html-keyboard-response,1428090,<p></p>,,,,null,,,,,,,,,,,,,,
1612.800000011921,,shortestpath_phase,1429706,GW/wheelchair.jpg,,,,49,GW/soldier.jpg,GW/barrel.jpg,1,0.7924528301886793,,,,GW/soldier.jpg,,,,,One Edge Diff,Four Edge Five Edge
null,,html-keyboard-response,1430713,<p></p>,,,,null,,,,,,,,,,,,,,
1279.699999988079,,shortestpath_phase,1431996,GW/camera.jpg,,,,50,GW/dustpan.jpg,GW/jukebox.jpg,0,0.7850467289719626,,,,GW/dustpan.jpg,,,,,One Edge Diff,Four Edge Five Edge
null,,html-keyboard-response,1433000,<p></p>,,,,null,,,,,,,,,,,,,,
1169.6000000238419,,shortestpath_phase,1434174,GW/hat.jpg,,,,49,GW/barrel.jpg,GW/wheelchair.jpg,1,0.7870370370370371,,,,GW/barrel.jpg,,,,,Four Edge Diff,Two Edge Six Edge
null,,html-keyboard-response,1435178,<p></p>,,,,null,,,,,,,,,,,,,,
3000.5,,shortestpath_phase,1438182,GW/gong.jpg,,,,50,GW/basket.jpg,GW/jukebox.jpg,0,0.7798165137614679,,,,GW/basket.jpg,,,,,One Edge Diff,Four Edge Five Edge
null,,html-keyboard-response,1439187,<p></p>,,,,null,,,,,,,,,,,,,,
2275.399999976158,,shortestpath_phase,1441466,GW/dustpan.jpg,,,,50,GW/teeth.jpg,GW/paint.jpg,1,0.7818181818181819,,,,GW/paint.jpg,,,,,Two Edge Diff,Two Edge Four Edge
null,,html-keyboard-response,1442470,<p></p>,,,,null,,,,,,,,,,,,,,
1823.6000000238419,,shortestpath_phase,1444297,GW/basket.jpg,,,,50,GW/wheelchair.jpg,GW/snail.jpg,1,0.7837837837837838,,,,GW/snail.jpg,,,,,Two Edge Diff,Two Edge Four Edge
null,,html-keyboard-response,1445302,<p></p>,,,,null,,,,,,,,,,,,,,
2934.2000000476837,,shortestpath_phase,1448239,GW/wheelchair.jpg,,,,50,GW/dustpan.jpg,GW/paint.jpg,1,0.7857142857142857,,,,GW/paint.jpg,,,,,Two Edge Diff,Three Edge Five Edge
null,,html-keyboard-response,1449243,<p></p>,,,,null,,,,,,,,,,,,,,
3417.400000035763,,shortestpath_phase,1452664,GW/jukebox.jpg,,,,50,GW/teeth.jpg,GW/gong.jpg,0,0.7787610619469026,,,,GW/teeth.jpg,,,,,One Edge Diff,Four Edge Five Edge
null,,html-keyboard-response,1453668,<p></p>,,,,null,,,,,,,,,,,,,,
2067.399999976158,,shortestpath_phase,1455739,GW/soldier.jpg,,,,49,GW/wheelchair.jpg,GW/hat.jpg,0,0.7719298245614035,,,,GW/hat.jpg,,,,,One Edge Diff,Three Edge Four Edge
null,,html-keyboard-response,1456741,<p></p>,,,,null,,,,,,,,,,,,,,
1771.5,,shortestpath_phase,1458515,GW/barrel.jpg,,,,49,GW/snail.jpg,GW/camera.jpg,1,0.7739130434782608,,,,GW/snail.jpg,,,,,One Edge Diff,Three Edge Four Edge
null,,html-keyboard-response,1459520,<p></p>,,,,null,,,,,,,,,,,,,,
2673,,shortestpath_phase,1462196,GW/hat.jpg,,,,49,GW/camera.jpg,GW/gong.jpg,1,0.7758620689655172,,,,GW/camera.jpg,,,,,One Edge Diff,Five Edge Six Edge
null,,html-keyboard-response,1463202,<p></p>,,,,null,,,,,,,,,,,,,,
2903.600000023842,,shortestpath_phase,1466109,GW/gong.jpg,,,,49,GW/snail.jpg,GW/dustpan.jpg,1,0.7777777777777778,,,,GW/snail.jpg,,,,,Three Edge Diff,Two Edge Five Edge
null,,html-keyboard-response,1467113,<p></p>,,,,null,,,,,,,,,,,,,,
2546.100000023842,,shortestpath_phase,1469662,GW/jukebox.jpg,,,,49,GW/hat.jpg,GW/snail.jpg,1,0.7796610169491526,,,,GW/hat.jpg,,,,,One Edge Diff,Three Edge Four Edge
null,,html-keyboard-response,1470668,<p></p>,,,,null,,,,,,,,,,,,,,
2392.7999999523163,,shortestpath_phase,1473064,GW/camera.jpg,,,,50,GW/basket.jpg,GW/barrel.jpg,0,0.773109243697479,,,,GW/basket.jpg,,,,,One Edge Diff,Three Edge Four Edge
null,,html-keyboard-response,1474067,<p></p>,,,,null,,,,,,,,,,,,,,
1737,,shortestpath_phase,1475807,GW/jukebox.jpg,,,,49,GW/soldier.jpg,GW/teeth.jpg,1,0.775,,,,GW/soldier.jpg,,,,,Two Edge Diff,Two Edge Four Edge
null,,html-keyboard-response,1476815,<p></p>,,,,null,,,,,,,,,,,,,,
2811.599999964237,,shortestpath_phase,1479630,GW/teeth.jpg,,,,49,GW/hat.jpg,GW/barrel.jpg,0,0.768595041322314,,,,GW/barrel.jpg,,,,,Two Edge Diff,Three Edge Five Edge
null,,html-keyboard-response,1480634,<p></p>,,,,null,,,,,,,,,,,,,,
23295.5,,intro_1,1503932,instruct,,0,,,,,,,,,,,,,,,,
29926.600000023842,,intro_2,1533862,instruct,,1,Next,,,,,,,,,,,,,,,
4390.400000035763,,intro_3,1538256,instruct,,1,Next,,,,,,,,,,,,,,,
