rt,responses,trial_type,time_elapsed,stimulus,graphorder,button_pressed,response,key_press,stimulus_left,stimulus_right,accuracy,cumulative_accuracy,stimulus_down_left,stimulus_down_mid,stimulus_down_right,stimulus_correct,stimulus_short,stimulus_far,weighted_accuracy,missedtrial,condition,specific_pairs
31458.30000001192,{worker_id:67e05b915918b92290ec67a3},id_enter,31464,id_enter,GW/paint.jpg; GW/snail.jpg; GW/hat.jpg; GW/basket.jpg; GW/globe.jpg; GW/camera.jpg; GW/wheelchair.jpg; GW/barrel.jpg; GW/teeth.jpg; GW/jukebox.jpg; GW/soldier.jpg; GW/gong.jpg; GW/dustpan.jpg,,,,,,,,,,,,,,,,,
26940.5,,fullscreen,58412,fullscreen,,0,,,,,,,,,,,,,,,,
23119.399999976158,,intro_1,81549,instruct,,0,,,,,,,,,,,,,,,,
41939.69999998808,,intro_2,123491,instruct,,1,Next,,,,,,,,,,,,,,,
17342.69999998808,,intro_3,140836,instruct,,1,Next,,,,,,,,,,,,,,,
null,,learn_prac_1,142839,lean_prac_1,,,,null,,,,,,,,,,,,,,
null,,html-keyboard-response,143843,<p></p>,,,,null,,,,,,,,,,,,,,
7484.599999964237,,intro_1,151330,instruct,,0,,,,,,,,,,,,,,,,
11144.799999952316,,intro_2,162487,instruct,,1,Next,,,,,,,,,,,,,,,
null,,learn_prac_2,164494,lean_prac_2,,,,null,,,,,,,,,,,,,,
null,,html-keyboard-response,165497,<p></p>,,,,null,,,,,,,,,,,,,,
22970.399999976158,,intro_1,188469,instruct,,0,,,,,,,,,,,,,,,,
12956.900000035763,,intro_2,201428,instruct,,1,Next,,,,,,,,,,,,,,,
24506.899999976158,,intro_3,225936,instruct,,1,Next,,,,,,,,,,,,,,,
null,,prac_atten_color_black,226766,black_plus_sign,,,,null,,,,,,,,,,,,,,
null,,prac_atten_color,227344,prac_stop_color,,,,null,,,,,,,,,,,,,,
232.29999995231628,,prac_atten_color_black,229357,black_plus_sign,,,,49,,,,,,,,,,,,,,
null,,prac_atten_color_black,230186,black_plus_sign,,,,null,,,,,,,,,,,,,,
529.1000000238419,,prac_atten_color,231166,prac_stop_color,,,,50,,,,,,,,,,,,,,
null,,prac_atten_color_black,233168,black_plus_sign,,,,null,,,,,,,,,,,,,,
null,,prac_atten_color_black,233596,black_plus_sign,,,,null,,,,,,,,,,,,,,
661,,prac_atten_color,234533,prac_stop_color,,,,50,,,,,,,,,,,,,,
null,,prac_atten_color_black,236546,black_plus_sign,,,,null,,,,,,,,,,,,,,
null,,prac_atten_color_black,237014,black_plus_sign,,,,null,,,,,,,,,,,,,,
496.19999998807907,,prac_atten_color,237837,prac_stop_color,,,,49,,,,,,,,,,,,,,
null,,prac_atten_color_black,239841,black_plus_sign,,,,null,,,,,,,,,,,,,,
null,,prac_atten_color_black,240424,black_plus_sign,,,,null,,,,,,,,,,,,,,
604.7000000476837,,prac_atten_color,241304,prac_stop_color,,,,50,,,,,,,,,,,,,,
null,,prac_atten_color_black,243307,black_plus_sign,,,,null,,,,,,,,,,,,,,
null,,prac_atten_color_black,243837,black_plus_sign,,,,null,,,,,,,,,,,,,,
604.6000000238419,,prac_atten_color,244555,prac_stop_color,,,,49,,,,,,,,,,,,,,
null,,prac_atten_color_black,246557,black_plus_sign,,,,null,,,,,,,,,,,,,,
7876.600000023842,,attentioncheck_help,254437,instruct,,,,32,,,,,,,,,,,,,,
null,,prac_atten_color_black,255124,black_plus_sign,,,,null,,,,,,,,,,,,,,
606.6999999880791,,prac_atten_color,255952,prac_stop_color,,,,49,,,,,,,,,,,,,,
null,,prac_atten_color_black,257955,black_plus_sign,,,,null,,,,,,,,,,,,,,
null,,prac_atten_color_black,258541,black_plus_sign,,,,null,,,,,,,,,,,,,,
565.8000000119209,,prac_atten_color,259277,prac_stop_color,,,,50,,,,,,,,,,,,,,
null,,prac_atten_color_black,261289,black_plus_sign,,,,null,,,,,,,,,,,,,,
null,,prac_atten_color_black,261968,black_plus_sign,,,,null,,,,,,,,,,,,,,
798.4000000357628,,prac_atten_color,262918,prac_stop_color,,,,49,,,,,,,,,,,,,,
null,,prac_atten_color_black,264920,black_plus_sign,,,,null,,,,,,,,,,,,,,
null,,prac_atten_color_black,265378,black_plus_sign,,,,null,,,,,,,,,,,,,,
null,,prac_atten_color,265804,prac_stop_color,,,,null,,,,,,,,,,,,,,
224.39999997615814,,prac_atten_color_black,267807,black_plus_sign,,,,49,,,,,,,,,,,,,,
31019.69999998808,,attentioncheck_feedback,298831,cross_check_feedback,,0,,,,,,,,,,,,,,,,
11437.699999988079,,last_instruct,310269,instruct,,,,32,,,,,,,,,,,,,,
null,,learn_phase(without_color),312286,black_plus_sign,,,,null,GW/barrel.jpg,GW/jukebox.jpg,,,,,,,,,,,,
null,,black_cross(without_color),312931,blue,,,,null,GW/barrel.jpg,GW/jukebox.jpg,,,,,,,,,,,,
null,,rt_plussign_withcolor,313438,blue,,,,null,GW/barrel.jpg,GW/jukebox.jpg,,,,,,,,,,,,
790.8999999761581,,rt_thecrossant_black,314812,black_plus_sign,,,,49,,,1,1,,,,,,,,,,
null,,color_black,314916,black_plus_sign,,,,null,,,,,,,,,,,,,,
null,,learn_phase(without_color),316921,black_plus_sign,,,,null,GW/hat.jpg,GW/soldier.jpg,,,,,,,,,,,,
null,,black_cross(without_color),317832,green,,,,null,GW/hat.jpg,GW/soldier.jpg,,,,,,,,,,,,
null,,rt_plussign_withcolor,318341,green,,,,null,GW/hat.jpg,GW/soldier.jpg,,,,,,,,,,,,
1243.3999999761581,,rt_thecrossant_black,319437,black_plus_sign,,,,50,,,1,1,,,,,,,,,,
null,,color_black,319541,black_plus_sign,,,,null,,,,,,,,,,,,,,
null,,learn_phase(without_color),321554,black_plus_sign,,,,null,GW/hat.jpg,GW/camera.jpg,,,,,,,,,,,,
null,,black_cross(without_color),322448,green,,,,null,GW/hat.jpg,GW/camera.jpg,,,,,,,,,,,,
null,,rt_plussign_withcolor,322951,green,,,,null,GW/hat.jpg,GW/camera.jpg,,,,,,,,,,,,
1081.199999988079,,rt_thecrossant_black,324079,black_plus_sign,,,,50,,,1,1,,,,,,,,,,
null,,color_black,324183,black_plus_sign,,,,null,,,,,,,,,,,,,,
null,,learn_phase(without_color),326186,black_plus_sign,,,,null,GW/wheelchair.jpg,GW/teeth.jpg,,,,,,,,,,,,
null,,black_cross(without_color),327258,blue,,,,null,GW/wheelchair.jpg,GW/teeth.jpg,,,,,,,,,,,,
null,,rt_plussign_withcolor,327761,blue,,,,null,GW/wheelchair.jpg,GW/teeth.jpg,,,,,,,,,,,,
1062.8999999761581,,rt_thecrossant_black,328709,black_plus_sign,,,,49,,,1,1,,,,,,,,,,
null,,color_black,328813,black_plus_sign,,,,null,,,,,,,,,,,,,,
null,,learn_phase(without_color),330820,black_plus_sign,,,,null,GW/hat.jpg,GW/camera.jpg,,,,,,,,,,,,
null,,black_cross(without_color),331521,blue,,,,null,GW/hat.jpg,GW/camera.jpg,,,,,,,,,,,,
null,,rt_plussign_withcolor,332023,blue,,,,null,GW/hat.jpg,GW/camera.jpg,,,,,,,,,,,,
1287.7999999523163,,rt_thecrossant_black,333329,black_plus_sign,,,,49,,,1,1,,,,,,,,,,
null,,color_black,333432,black_plus_sign,,,,null,,,,,,,,,,,,,,
null,,learn_phase(without_color),335436,black_plus_sign,,,,null,GW/wheelchair.jpg,GW/dustpan.jpg,,,,,,,,,,,,
null,,black_cross(without_color),336235,blue,,,,null,GW/wheelchair.jpg,GW/dustpan.jpg,,,,,,,,,,,,
null,,rt_plussign_withcolor,336739,blue,,,,null,GW/wheelchair.jpg,GW/dustpan.jpg,,,,,,,,,,,,
869.8000000119209,,rt_thecrossant_black,337948,black_plus_sign,,,,49,,,1,1,,,,,,,,,,
null,,color_black,338053,black_plus_sign,,,,null,,,,,,,,,,,,,,
null,,learn_phase(without_color),340059,black_plus_sign,,,,null,GW/wheelchair.jpg,GW/teeth.jpg,,,,,,,,,,,,
null,,black_cross(without_color),340863,blue,,,,null,GW/wheelchair.jpg,GW/teeth.jpg,,,,,,,,,,,,
null,,rt_plussign_withcolor,341366,blue,,,,null,GW/wheelchair.jpg,GW/teeth.jpg,,,,,,,,,,,,
1021.0999999642372,,rt_thecrossant_black,342575,black_plus_sign,,,,49,,,1,1,,,,,,,,,,
null,,color_black,342678,black_plus_sign,,,,null,,,,,,,,,,,,,,
null,,learn_phase(without_color),344682,black_plus_sign,,,,null,GW/soldier.jpg,GW/gong.jpg,,,,,,,,,,,,
null,,black_cross(without_color),345410,blue,,,,null,GW/soldier.jpg,GW/gong.jpg,,,,,,,,,,,,
null,,rt_plussign_withcolor,345912,blue,,,,null,GW/soldier.jpg,GW/gong.jpg,,,,,,,,,,,,
1115,,rt_thecrossant_black,347188,black_plus_sign,,,,49,,,1,1,,,,,,,,,,
null,,color_black,347306,black_plus_sign,,,,null,,,,,,,,,,,,,,
null,,learn_phase(without_color),349322,black_plus_sign,,,,null,GW/snail.jpg,GW/hat.jpg,,,,,,,,,,,,
null,,black_cross(without_color),349877,green,,,,null,GW/snail.jpg,GW/hat.jpg,,,,,,,,,,,,
null,,rt_plussign_withcolor,350380,green,,,,null,GW/snail.jpg,GW/hat.jpg,,,,,,,,,,,,
1011.3000000119209,,rt_thecrossant_black,351831,black_plus_sign,,,,50,,,1,1,,,,,,,,,,
null,,color_black,351934,black_plus_sign,,,,null,,,,,,,,,,,,,,
null,,learn_phase(without_color),353939,black_plus_sign,,,,null,GW/camera.jpg,GW/wheelchair.jpg,,,,,,,,,,,,
null,,black_cross(without_color),354756,green,,,,null,GW/camera.jpg,GW/wheelchair.jpg,,,,,,,,,,,,
null,,rt_plussign_withcolor,355258,green,,,,null,GW/camera.jpg,GW/wheelchair.jpg,,,,,,,,,,,,
999.4000000357628,,rt_thecrossant_black,356452,black_plus_sign,,,,50,,,1,1,,,,,,,,,,
null,,color_black,356555,black_plus_sign,,,,null,,,,,,,,,,,,,,
null,,learn_phase(without_color),358560,black_plus_sign,,,,null,GW/wheelchair.jpg,GW/dustpan.jpg,,,,,,,,,,,,
null,,black_cross(without_color),359320,green,,,,null,GW/wheelchair.jpg,GW/dustpan.jpg,,,,,,,,,,,,
null,,rt_plussign_withcolor,359823,green,,,,null,GW/wheelchair.jpg,GW/dustpan.jpg,,,,,,,,,,,,
1069.2000000476837,,rt_thecrossant_black,361084,black_plus_sign,,,,50,,,1,1,,,,,,,,,,
null,,color_black,361187,black_plus_sign,,,,null,,,,,,,,,,,,,,
null,,learn_phase(without_color),363192,black_plus_sign,,,,null,GW/basket.jpg,GW/gong.jpg,,,,,,,,,,,,
null,,black_cross(without_color),363826,green,,,,null,GW/basket.jpg,GW/gong.jpg,,,,,,,,,,,,
null,,rt_plussign_withcolor,364328,green,,,,null,GW/basket.jpg,GW/gong.jpg,,,,,,,,,,,,
1020.1999999880791,,rt_thecrossant_black,365701,black_plus_sign,,,,50,,,1,1,,,,,,,,,,
null,,color_black,365804,black_plus_sign,,,,null,,,,,,,,,,,,,,
null,,learn_phase(without_color),367807,black_plus_sign,,,,null,GW/hat.jpg,GW/soldier.jpg,,,,,,,,,,,,
null,,black_cross(without_color),368263,green,,,,null,GW/hat.jpg,GW/soldier.jpg,,,,,,,,,,,,
null,,rt_plussign_withcolor,368765,green,,,,null,GW/hat.jpg,GW/soldier.jpg,,,,,,,,,,,,
845,,rt_thecrossant_black,370329,black_plus_sign,,,,50,,,1,1,,,,,,,,,,
null,,color_black,370433,black_plus_sign,,,,null,,,,,,,,,,,,,,
null,,learn_phase(without_color),372437,black_plus_sign,,,,null,GW/wheelchair.jpg,GW/dustpan.jpg,,,,,,,,,,,,
null,,black_cross(without_color),373287,green,,,,null,GW/wheelchair.jpg,GW/dustpan.jpg,,,,,,,,,,,,
null,,rt_plussign_withcolor,373789,green,,,,null,GW/wheelchair.jpg,GW/dustpan.jpg,,,,,,,,,,,,
856.1999999880791,,rt_thecrossant_black,374958,black_plus_sign,,,,50,,,1,1,,,,,,,,,,
null,,color_black,375061,black_plus_sign,,,,null,,,,,,,,,,,,,,
null,,learn_phase(without_color),377078,black_plus_sign,,,,null,GW/barrel.jpg,GW/teeth.jpg,,,,,,,,,,,,
null,,black_cross(without_color),377564,blue,,,,null,GW/barrel.jpg,GW/teeth.jpg,,,,,,,,,,,,
null,,rt_plussign_withcolor,378066,blue,,,,null,GW/barrel.jpg,GW/teeth.jpg,,,,,,,,,,,,
1058.300000011921,,rt_thecrossant_black,379601,black_plus_sign,,,,49,,,1,1,,,,,,,,,,
null,,color_black,379704,black_plus_sign,,,,null,,,,,,,,,,,,,,
null,,learn_phase(without_color),381708,black_plus_sign,,,,null,GW/basket.jpg,GW/globe.jpg,,,,,,,,,,,,
null,,black_cross(without_color),382753,green,,,,null,GW/basket.jpg,GW/globe.jpg,,,,,,,,,,,,
null,,rt_plussign_withcolor,383255,green,,,,null,GW/basket.jpg,GW/globe.jpg,,,,,,,,,,,,
758.8999999761581,,rt_thecrossant_black,384216,black_plus_sign,,,,50,,,1,1,,,,,,,,,,
null,,color_black,384317,black_plus_sign,,,,null,,,,,,,,,,,,,,
null,,learn_phase(without_color),386319,black_plus_sign,,,,null,GW/wheelchair.jpg,GW/teeth.jpg,,,,,,,,,,,,
null,,black_cross(without_color),387418,blue,,,,null,GW/wheelchair.jpg,GW/teeth.jpg,,,,,,,,,,,,
null,,rt_plussign_withcolor,387920,blue,,,,null,GW/wheelchair.jpg,GW/teeth.jpg,,,,,,,,,,,,
1359.5,,rt_thecrossant_black,388829,black_plus_sign,,,,49,,,1,1,,,,,,,,,,
null,,color_black,388938,black_plus_sign,,,,null,,,,,,,,,,,,,,
null,,learn_phase(without_color),390944,black_plus_sign,,,,null,GW/barrel.jpg,GW/teeth.jpg,,,,,,,,,,,,
null,,black_cross(without_color),391351,green,,,,null,GW/barrel.jpg,GW/teeth.jpg,,,,,,,,,,,,
null,,rt_plussign_withcolor,391853,green,,,,null,GW/barrel.jpg,GW/teeth.jpg,,,,,,,,,,,,
1400.300000011921,,rt_thecrossant_black,393453,black_plus_sign,,,,50,,,1,1,,,,,,,,,,
null,,color_black,393557,black_plus_sign,,,,null,,,,,,,,,,,,,,
null,,learn_phase(without_color),395561,black_plus_sign,,,,null,GW/hat.jpg,GW/soldier.jpg,,,,,,,,,,,,
null,,black_cross(without_color),396507,blue,,,,null,GW/hat.jpg,GW/soldier.jpg,,,,,,,,,,,,
null,,rt_plussign_withcolor,397021,blue,,,,null,GW/hat.jpg,GW/soldier.jpg,,,,,,,,,,,,
860.5999999642372,,rt_thecrossant_black,398085,black_plus_sign,,,,49,,,1,1,,,,,,,,,,
null,,color_black,398188,black_plus_sign,,,,null,,,,,,,,,,,,,,
null,,learn_phase(without_color),400192,black_plus_sign,,,,null,GW/soldier.jpg,GW/gong.jpg,,,,,,,,,,,,
null,,black_cross(without_color),401044,green,,,,null,GW/soldier.jpg,GW/gong.jpg,,,,,,,,,,,,
null,,rt_plussign_withcolor,401546,green,,,,null,GW/soldier.jpg,GW/gong.jpg,,,,,,,,,,,,
1082.5,,rt_thecrossant_black,402701,black_plus_sign,,,,50,,,1,1,,,,,,,,,,
null,,color_black,402804,black_plus_sign,,,,null,,,,,,,,,,,,,,
null,,learn_phase(without_color),404808,black_plus_sign,,,,null,GW/hat.jpg,GW/soldier.jpg,,,,,,,,,,,,
null,,black_cross(without_color),405415,blue,,,,null,GW/hat.jpg,GW/soldier.jpg,,,,,,,,,,,,
null,,rt_plussign_withcolor,405918,blue,,,,null,GW/hat.jpg,GW/soldier.jpg,,,,,,,,,,,,
1721.800000011921,,rt_thecrossant_black,407323,black_plus_sign,,,,49,,,1,1,,,,,,,,,,
null,,color_black,407426,black_plus_sign,,,,null,,,,,,,,,,,,,,
null,,learn_phase(without_color),409440,black_plus_sign,,,,null,GW/snail.jpg,GW/hat.jpg,,,,,,,,,,,,
null,,black_cross(without_color),410160,blue,,,,null,GW/snail.jpg,GW/hat.jpg,,,,,,,,,,,,
null,,rt_plussign_withcolor,410663,blue,,,,null,GW/snail.jpg,GW/hat.jpg,,,,,,,,,,,,
793.7999999523163,,rt_thecrossant_black,411951,black_plus_sign,,,,50,,,0,0.9545454545454546,,,,,,,,,,
null,,color_black,412054,black_plus_sign,,,,null,,,,,,,,,,,,,,
null,,learn_phase(without_color),414058,black_plus_sign,,,,null,GW/paint.jpg,GW/snail.jpg,,,,,,,,,,,,
null,,black_cross(without_color),415033,green,,,,null,GW/paint.jpg,GW/snail.jpg,,,,,,,,,,,,
null,,rt_plussign_withcolor,415536,green,,,,null,GW/paint.jpg,GW/snail.jpg,,,,,,,,,,,,
1029.5,,rt_thecrossant_black,416567,black_plus_sign,,,,50,,,1,0.9565217391304348,,,,,,,,,,
null,,color_black,416670,black_plus_sign,,,,null,,,,,,,,,,,,,,
null,,learn_phase(without_color),418686,black_plus_sign,,,,null,GW/barrel.jpg,GW/jukebox.jpg,,,,,,,,,,,,
null,,black_cross(without_color),419469,green,,,,null,GW/barrel.jpg,GW/jukebox.jpg,,,,,,,,,,,,
null,,rt_plussign_withcolor,419987,green,,,,null,GW/barrel.jpg,GW/jukebox.jpg,,,,,,,,,,,,
1162.699999988079,,rt_thecrossant_black,421210,black_plus_sign,,,,50,,,1,0.9583333333333334,,,,,,,,,,
null,,color_black,421313,black_plus_sign,,,,null,,,,,,,,,,,,,,
null,,learn_phase(without_color),423331,black_plus_sign,,,,null,GW/basket.jpg,GW/gong.jpg,,,,,,,,,,,,
null,,black_cross(without_color),424014,blue,,,,null,GW/basket.jpg,GW/gong.jpg,,,,,,,,,,,,
null,,rt_plussign_withcolor,424516,blue,,,,null,GW/basket.jpg,GW/gong.jpg,,,,,,,,,,,,
1121.800000011921,,rt_thecrossant_black,425841,black_plus_sign,,,,49,,,1,0.96,,,,,,,,,,
null,,color_black,425943,black_plus_sign,,,,null,,,,,,,,,,,,,,
null,,learn_phase(without_color),427948,black_plus_sign,,,,null,GW/wheelchair.jpg,GW/teeth.jpg,,,,,,,,,,,,
null,,black_cross(without_color),428667,green,,,,null,GW/wheelchair.jpg,GW/teeth.jpg,,,,,,,,,,,,
null,,rt_plussign_withcolor,429170,green,,,,null,GW/wheelchair.jpg,GW/teeth.jpg,,,,,,,,,,,,
1006.8000000119209,,rt_thecrossant_black,430462,black_plus_sign,,,,50,,,1,0.9615384615384616,,,,,,,,,,
null,,color_black,430565,black_plus_sign,,,,null,,,,,,,,,,,,,,
null,,learn_phase(without_color),432568,black_plus_sign,,,,null,GW/barrel.jpg,GW/jukebox.jpg,,,,,,,,,,,,
null,,black_cross(without_color),433405,blue,,,,null,GW/barrel.jpg,GW/jukebox.jpg,,,,,,,,,,,,
null,,rt_plussign_withcolor,433907,blue,,,,null,GW/barrel.jpg,GW/jukebox.jpg,,,,,,,,,,,,
1082.5,,rt_thecrossant_black,435082,black_plus_sign,,,,49,,,1,0.9629629629629629,,,,,,,,,,
null,,color_black,435187,black_plus_sign,,,,null,,,,,,,,,,,,,,
null,,learn_phase(without_color),437190,black_plus_sign,,,,null,GW/hat.jpg,GW/camera.jpg,,,,,,,,,,,,
null,,black_cross(without_color),437714,green,,,,null,GW/hat.jpg,GW/camera.jpg,,,,,,,,,,,,
null,,rt_plussign_withcolor,438216,green,,,,null,GW/hat.jpg,GW/camera.jpg,,,,,,,,,,,,
1137.4000000357628,,rt_thecrossant_black,439700,black_plus_sign,,,,50,,,1,0.9642857142857143,,,,,,,,,,
null,,color_black,439803,black_plus_sign,,,,null,,,,,,,,,,,,,,
null,,learn_phase(without_color),441819,black_plus_sign,,,,null,GW/wheelchair.jpg,GW/barrel.jpg,,,,,,,,,,,,
null,,black_cross(without_color),442378,blue,,,,null,GW/wheelchair.jpg,GW/barrel.jpg,,,,,,,,,,,,
null,,rt_plussign_withcolor,442881,blue,,,,null,GW/wheelchair.jpg,GW/barrel.jpg,,,,,,,,,,,,
860.7999999523163,,rt_thecrossant_black,444343,black_plus_sign,,,,49,,,1,0.9655172413793104,,,,,,,,,,
null,,color_black,444447,black_plus_sign,,,,null,,,,,,,,,,,,,,
null,,learn_phase(without_color),446451,black_plus_sign,,,,null,GW/barrel.jpg,GW/jukebox.jpg,,,,,,,,,,,,
null,,black_cross(without_color),447044,blue,,,,null,GW/barrel.jpg,GW/jukebox.jpg,,,,,,,,,,,,
null,,rt_plussign_withcolor,447546,blue,,,,null,GW/barrel.jpg,GW/jukebox.jpg,,,,,,,,,,,,
818.8999999761581,,rt_thecrossant_black,448959,black_plus_sign,,,,49,,,1,0.9666666666666667,,,,,,,,,,
null,,color_black,449076,black_plus_sign,,,,null,,,,,,,,,,,,,,
null,,learn_phase(without_color),451082,black_plus_sign,,,,null,GW/camera.jpg,GW/teeth.jpg,,,,,,,,,,,,
null,,black_cross(without_color),451562,green,,,,null,GW/camera.jpg,GW/teeth.jpg,,,,,,,,,,,,
null,,rt_plussign_withcolor,452064,green,,,,null,GW/camera.jpg,GW/teeth.jpg,,,,,,,,,,,,
1323.5,,rt_thecrossant_black,453601,black_plus_sign,,,,50,,,1,0.967741935483871,,,,,,,,,,
null,,color_black,453705,black_plus_sign,,,,null,,,,,,,,,,,,,,
null,,learn_phase(without_color),455710,black_plus_sign,,,,null,GW/soldier.jpg,GW/gong.jpg,,,,,,,,,,,,
null,,black_cross(without_color),456360,blue,,,,null,GW/soldier.jpg,GW/gong.jpg,,,,,,,,,,,,
null,,rt_plussign_withcolor,456863,blue,,,,null,GW/soldier.jpg,GW/gong.jpg,,,,,,,,,,,,
717.5,,rt_thecrossant_black,458220,black_plus_sign,,,,49,,,1,0.96875,,,,,,,,,,
null,,color_black,458322,black_plus_sign,,,,null,,,,,,,,,,,,,,
null,,learn_phase(without_color),460326,black_plus_sign,,,,null,GW/snail.jpg,GW/basket.jpg,,,,,,,,,,,,
null,,black_cross(without_color),460853,blue,,,,null,GW/snail.jpg,GW/basket.jpg,,,,,,,,,,,,
null,,rt_plussign_withcolor,461355,blue,,,,null,GW/snail.jpg,GW/basket.jpg,,,,,,,,,,,,
1077.6000000238419,,rt_thecrossant_black,462849,black_plus_sign,,,,49,,,1,0.9696969696969697,,,,,,,,,,
null,,color_black,462952,black_plus_sign,,,,null,,,,,,,,,,,,,,
null,,learn_phase(without_color),464957,black_plus_sign,,,,null,GW/camera.jpg,GW/wheelchair.jpg,,,,,,,,,,,,
null,,black_cross(without_color),465610,blue,,,,null,GW/camera.jpg,GW/wheelchair.jpg,,,,,,,,,,,,
null,,rt_plussign_withcolor,466112,blue,,,,null,GW/camera.jpg,GW/wheelchair.jpg,,,,,,,,,,,,
1591.5,,rt_thecrossant_black,467470,black_plus_sign,,,,49,,,1,0.9705882352941176,,,,,,,,,,
null,,color_black,467574,black_plus_sign,,,,null,,,,,,,,,,,,,,
null,,learn_phase(without_color),469577,black_plus_sign,,,,null,GW/barrel.jpg,GW/teeth.jpg,,,,,,,,,,,,
null,,black_cross(without_color),470486,blue,,,,null,GW/barrel.jpg,GW/teeth.jpg,,,,,,,,,,,,
492.30000001192093,,rt_plussign_withcolor,470989,blue,,,,49,GW/barrel.jpg,GW/teeth.jpg,,,,,,,,,,,,
null,,rt_thecrossant_black,472086,black_plus_sign,,,,null,,,1,0.9714285714285714,,,,,,,,,,
null,,color_black,472189,black_plus_sign,,,,null,,,,,,,,,,,,,,
null,,learn_phase(without_color),474194,black_plus_sign,,,,null,GW/soldier.jpg,GW/gong.jpg,,,,,,,,,,,,
null,,black_cross(without_color),475205,green,,,,null,GW/soldier.jpg,GW/gong.jpg,,,,,,,,,,,,
null,,rt_plussign_withcolor,475721,green,,,,null,GW/soldier.jpg,GW/gong.jpg,,,,,,,,,,,,
1078.300000011921,,rt_thecrossant_black,476725,black_plus_sign,,,,50,,,1,0.9722222222222222,,,,,,,,,,
null,,color_black,476829,black_plus_sign,,,,null,,,,,,,,,,,,,,
null,,learn_phase(without_color),478834,black_plus_sign,,,,null,GW/hat.jpg,GW/camera.jpg,,,,,,,,,,,,
null,,black_cross(without_color),479798,green,,,,null,GW/hat.jpg,GW/camera.jpg,,,,,,,,,,,,
null,,rt_plussign_withcolor,480314,green,,,,null,GW/hat.jpg,GW/camera.jpg,,,,,,,,,,,,
1536,,rt_thecrossant_black,481357,black_plus_sign,,,,50,,,1,0.972972972972973,,,,,,,,,,
null,,color_black,481461,black_plus_sign,,,,null,,,,,,,,,,,,,,
null,,learn_phase(without_color),483468,black_plus_sign,,,,null,GW/barrel.jpg,GW/jukebox.jpg,,,,,,,,,,,,
null,,black_cross(without_color),483983,green,,,,null,GW/barrel.jpg,GW/jukebox.jpg,,,,,,,,,,,,
null,,rt_plussign_withcolor,484486,green,,,,null,GW/barrel.jpg,GW/jukebox.jpg,,,,,,,,,,,,
1416.300000011921,,rt_thecrossant_black,485978,black_plus_sign,,,,50,,,1,0.9736842105263158,,,,,,,,,,
null,,color_black,486081,black_plus_sign,,,,null,,,,,,,,,,,,,,
null,,learn_phase(without_color),488098,black_plus_sign,,,,null,GW/teeth.jpg,GW/soldier.jpg,,,,,,,,,,,,
null,,black_cross(without_color),488680,blue,,,,null,GW/teeth.jpg,GW/soldier.jpg,,,,,,,,,,,,
null,,rt_plussign_withcolor,489182,blue,,,,null,GW/teeth.jpg,GW/soldier.jpg,,,,,,,,,,,,
978.5999999642372,,rt_thecrossant_black,490615,black_plus_sign,,,,49,,,1,0.9743589743589743,,,,,,,,,,
null,,color_black,490724,black_plus_sign,,,,null,,,,,,,,,,,,,,
null,,learn_phase(without_color),492728,black_plus_sign,,,,null,GW/basket.jpg,GW/gong.jpg,,,,,,,,,,,,
null,,black_cross(without_color),493315,blue,,,,null,GW/basket.jpg,GW/gong.jpg,,,,,,,,,,,,
null,,rt_plussign_withcolor,493818,blue,,,,null,GW/basket.jpg,GW/gong.jpg,,,,,,,,,,,,
901.8999999761581,,rt_thecrossant_black,495245,black_plus_sign,,,,49,,,1,0.975,,,,,,,,,,
null,,color_black,495349,black_plus_sign,,,,null,,,,,,,,,,,,,,
null,,learn_phase(without_color),497354,black_plus_sign,,,,null,GW/basket.jpg,GW/globe.jpg,,,,,,,,,,,,
null,,black_cross(without_color),498165,blue,,,,null,GW/basket.jpg,GW/globe.jpg,,,,,,,,,,,,
null,,rt_plussign_withcolor,498667,blue,,,,null,GW/basket.jpg,GW/globe.jpg,,,,,,,,,,,,
902.8999999761581,,rt_thecrossant_black,499863,black_plus_sign,,,,49,,,1,0.975609756097561,,,,,,,,,,
null,,color_black,499967,black_plus_sign,,,,null,,,,,,,,,,,,,,
null,,learn_phase(without_color),501981,black_plus_sign,,,,null,GW/barrel.jpg,GW/teeth.jpg,,,,,,,,,,,,
null,,black_cross(without_color),502763,green,,,,null,GW/barrel.jpg,GW/teeth.jpg,,,,,,,,,,,,
null,,rt_plussign_withcolor,503266,green,,,,null,GW/barrel.jpg,GW/teeth.jpg,,,,,,,,,,,,
1604.6000000238419,,rt_thecrossant_black,504501,black_plus_sign,,,,50,,,1,0.9761904761904762,,,,,,,,,,
null,,color_black,504604,black_plus_sign,,,,null,,,,,,,,,,,,,,
null,,learn_phase(without_color),506608,black_plus_sign,,,,null,GW/snail.jpg,GW/basket.jpg,,,,,,,,,,,,
null,,black_cross(without_color),507636,green,,,,null,GW/snail.jpg,GW/basket.jpg,,,,,,,,,,,,
null,,rt_plussign_withcolor,508138,green,,,,null,GW/snail.jpg,GW/basket.jpg,,,,,,,,,,,,
1341.8999999761581,,rt_thecrossant_black,509117,black_plus_sign,,,,50,,,1,0.9767441860465116,,,,,,,,,,
null,,color_black,509231,black_plus_sign,,,,null,,,,,,,,,,,,,,
null,,learn_phase(without_color),511235,black_plus_sign,,,,null,GW/snail.jpg,GW/hat.jpg,,,,,,,,,,,,
null,,black_cross(without_color),512275,green,,,,null,GW/snail.jpg,GW/hat.jpg,,,,,,,,,,,,
null,,rt_plussign_withcolor,512778,green,,,,null,GW/snail.jpg,GW/hat.jpg,,,,,,,,,,,,
1264.8999999761581,,rt_thecrossant_black,513744,black_plus_sign,,,,50,,,1,0.9772727272727273,,,,,,,,,,
null,,color_black,513847,black_plus_sign,,,,null,,,,,,,,,,,,,,
null,,learn_phase(without_color),515851,black_plus_sign,,,,null,GW/soldier.jpg,GW/gong.jpg,,,,,,,,,,,,
null,,black_cross(without_color),516542,green,,,,null,GW/soldier.jpg,GW/gong.jpg,,,,,,,,,,,,
null,,rt_plussign_withcolor,517058,green,,,,null,GW/soldier.jpg,GW/gong.jpg,,,,,,,,,,,,
1189.8999999761581,,rt_thecrossant_black,518373,black_plus_sign,,,,50,,,1,0.9777777777777777,,,,,,,,,,
null,,color_black,518476,black_plus_sign,,,,null,,,,,,,,,,,,,,
null,,learn_phase(without_color),520481,black_plus_sign,,,,null,GW/barrel.jpg,GW/teeth.jpg,,,,,,,,,,,,
null,,black_cross(without_color),521397,blue,,,,null,GW/barrel.jpg,GW/teeth.jpg,,,,,,,,,,,,
null,,rt_plussign_withcolor,521899,blue,,,,null,GW/barrel.jpg,GW/teeth.jpg,,,,,,,,,,,,
1081.5999999642372,,rt_thecrossant_black,522991,black_plus_sign,,,,49,,,1,0.9782608695652174,,,,,,,,,,
null,,color_black,523094,black_plus_sign,,,,null,,,,,,,,,,,,,,
null,,learn_phase(without_color),525098,black_plus_sign,,,,null,GW/paint.jpg,GW/snail.jpg,,,,,,,,,,,,
null,,black_cross(without_color),525594,green,,,,null,GW/paint.jpg,GW/snail.jpg,,,,,,,,,,,,
null,,rt_plussign_withcolor,526096,green,,,,null,GW/paint.jpg,GW/snail.jpg,,,,,,,,,,,,
1274.7000000476837,,rt_thecrossant_black,527605,black_plus_sign,,,,50,,,1,0.9787234042553191,,,,,,,,,,
null,,color_black,527708,black_plus_sign,,,,null,,,,,,,,,,,,,,
null,,learn_phase(without_color),529712,black_plus_sign,,,,null,GW/teeth.jpg,GW/soldier.jpg,,,,,,,,,,,,
null,,black_cross(without_color),530607,green,,,,null,GW/teeth.jpg,GW/soldier.jpg,,,,,,,,,,,,
null,,rt_plussign_withcolor,531110,green,,,,null,GW/teeth.jpg,GW/soldier.jpg,,,,,,,,,,,,
875.9000000357628,,rt_thecrossant_black,532226,black_plus_sign,,,,50,,,1,0.9791666666666666,,,,,,,,,,
null,,color_black,532328,black_plus_sign,,,,null,,,,,,,,,,,,,,
null,,learn_phase(without_color),534333,black_plus_sign,,,,null,GW/soldier.jpg,GW/gong.jpg,,,,,,,,,,,,
null,,black_cross(without_color),535202,green,,,,null,GW/soldier.jpg,GW/gong.jpg,,,,,,,,,,,,
null,,rt_plussign_withcolor,535705,green,,,,null,GW/soldier.jpg,GW/gong.jpg,,,,,,,,,,,,
1841.199999988079,,rt_thecrossant_black,536843,black_plus_sign,,,,50,,,1,0.9795918367346939,,,,,,,,,,
null,,color_black,536956,black_plus_sign,,,,null,,,,,,,,,,,,,,
null,,learn_phase(without_color),538960,black_plus_sign,,,,null,GW/wheelchair.jpg,GW/barrel.jpg,,,,,,,,,,,,
null,,black_cross(without_color),540048,green,,,,null,GW/wheelchair.jpg,GW/barrel.jpg,,,,,,,,,,,,
null,,rt_plussign_withcolor,540549,green,,,,null,GW/wheelchair.jpg,GW/barrel.jpg,,,,,,,,,,,,
1200.0999999642372,,rt_thecrossant_black,541469,black_plus_sign,,,,50,,,1,0.98,,,,,,,,,,
null,,color_black,541573,black_plus_sign,,,,null,,,,,,,,,,,,,,
null,,learn_phase(without_color),543586,black_plus_sign,,,,null,GW/teeth.jpg,GW/soldier.jpg,,,,,,,,,,,,
null,,black_cross(without_color),544010,blue,,,,null,GW/teeth.jpg,GW/soldier.jpg,,,,,,,,,,,,
null,,rt_plussign_withcolor,544524,blue,,,,null,GW/teeth.jpg,GW/soldier.jpg,,,,,,,,,,,,
1615.800000011921,,rt_thecrossant_black,546107,black_plus_sign,,,,49,,,1,0.9803921568627451,,,,,,,,,,
null,,color_black,546210,black_plus_sign,,,,null,,,,,,,,,,,,,,
null,,learn_phase(without_color),548216,black_plus_sign,,,,null,GW/hat.jpg,GW/soldier.jpg,,,,,,,,,,,,
null,,black_cross(without_color),549299,green,,,,null,GW/hat.jpg,GW/soldier.jpg,,,,,,,,,,,,
null,,rt_plussign_withcolor,549803,green,,,,null,GW/hat.jpg,GW/soldier.jpg,,,,,,,,,,,,
896.5,,rt_thecrossant_black,550726,black_plus_sign,,,,50,,,1,0.9807692307692307,,,,,,,,,,
null,,color_black,550829,black_plus_sign,,,,null,,,,,,,,,,,,,,
null,,learn_phase(without_color),552840,black_plus_sign,,,,null,GW/wheelchair.jpg,GW/dustpan.jpg,,,,,,,,,,,,
null,,black_cross(without_color),553476,green,,,,null,GW/wheelchair.jpg,GW/dustpan.jpg,,,,,,,,,,,,
null,,rt_plussign_withcolor,553991,green,,,,null,GW/wheelchair.jpg,GW/dustpan.jpg,,,,,,,,,,,,
1335.1000000238419,,rt_thecrossant_black,555364,black_plus_sign,,,,50,,,1,0.9811320754716981,,,,,,,,,,
null,,color_black,555467,black_plus_sign,,,,null,,,,,,,,,,,,,,
null,,learn_phase(without_color),557472,black_plus_sign,,,,null,GW/hat.jpg,GW/camera.jpg,,,,,,,,,,,,
null,,black_cross(without_color),558045,blue,,,,null,GW/hat.jpg,GW/camera.jpg,,,,,,,,,,,,
null,,rt_plussign_withcolor,558547,blue,,,,null,GW/hat.jpg,GW/camera.jpg,,,,,,,,,,,,
944.5,,rt_thecrossant_black,559989,black_plus_sign,,,,49,,,1,0.9814814814814815,,,,,,,,,,
null,,color_black,560092,black_plus_sign,,,,null,,,,,,,,,,,,,,
null,,learn_phase(without_color),562101,black_plus_sign,,,,null,GW/camera.jpg,GW/teeth.jpg,,,,,,,,,,,,
null,,black_cross(without_color),562729,blue,,,,null,GW/camera.jpg,GW/teeth.jpg,,,,,,,,,,,,
null,,rt_plussign_withcolor,563232,blue,,,,null,GW/camera.jpg,GW/teeth.jpg,,,,,,,,,,,,
766.6999999880791,,rt_thecrossant_black,564624,black_plus_sign,,,,49,,,1,0.9818181818181818,,,,,,,,,,
null,,color_black,564728,black_plus_sign,,,,null,,,,,,,,,,,,,,
null,,learn_phase(without_color),566732,black_plus_sign,,,,null,GW/paint.jpg,GW/snail.jpg,,,,,,,,,,,,
null,,black_cross(without_color),567446,green,,,,null,GW/paint.jpg,GW/snail.jpg,,,,,,,,,,,,
null,,rt_plussign_withcolor,567948,green,,,,null,GW/paint.jpg,GW/snail.jpg,,,,,,,,,,,,
937.5,,rt_thecrossant_black,569241,black_plus_sign,,,,50,,,1,0.9821428571428571,,,,,,,,,,
null,,color_black,569344,black_plus_sign,,,,null,,,,,,,,,,,,,,
null,,learn_phase(without_color),571350,black_plus_sign,,,,null,GW/wheelchair.jpg,GW/dustpan.jpg,,,,,,,,,,,,
null,,black_cross(without_color),572351,green,,,,null,GW/wheelchair.jpg,GW/dustpan.jpg,,,,,,,,,,,,
null,,rt_plussign_withcolor,572853,green,,,,null,GW/wheelchair.jpg,GW/dustpan.jpg,,,,,,,,,,,,
1029.3999999761581,,rt_thecrossant_black,573869,black_plus_sign,,,,50,,,1,0.9824561403508771,,,,,,,,,,
null,,color_black,573972,black_plus_sign,,,,null,,,,,,,,,,,,,,
null,,learn_phase(without_color),575977,black_plus_sign,,,,null,GW/barrel.jpg,GW/teeth.jpg,,,,,,,,,,,,
null,,black_cross(without_color),576627,blue,,,,null,GW/barrel.jpg,GW/teeth.jpg,,,,,,,,,,,,
null,,rt_plussign_withcolor,577145,blue,,,,null,GW/barrel.jpg,GW/teeth.jpg,,,,,,,,,,,,
1494.3999999761581,,rt_thecrossant_black,578501,black_plus_sign,,,,49,,,1,0.9827586206896551,,,,,,,,,,
null,,color_black,578605,black_plus_sign,,,,null,,,,,,,,,,,,,,
null,,learn_phase(without_color),580620,black_plus_sign,,,,null,GW/camera.jpg,GW/teeth.jpg,,,,,,,,,,,,
null,,black_cross(without_color),581428,green,,,,null,GW/camera.jpg,GW/teeth.jpg,,,,,,,,,,,,
null,,rt_plussign_withcolor,581930,green,,,,null,GW/camera.jpg,GW/teeth.jpg,,,,,,,,,,,,
1051.8999999761581,,rt_thecrossant_black,583128,black_plus_sign,,,,50,,,1,0.9830508474576272,,,,,,,,,,
null,,color_black,583231,black_plus_sign,,,,null,,,,,,,,,,,,,,
null,,learn_phase(without_color),585235,black_plus_sign,,,,null,GW/camera.jpg,GW/wheelchair.jpg,,,,,,,,,,,,
null,,black_cross(without_color),585870,green,,,,null,GW/camera.jpg,GW/wheelchair.jpg,,,,,,,,,,,,
null,,rt_plussign_withcolor,586373,green,,,,null,GW/camera.jpg,GW/wheelchair.jpg,,,,,,,,,,,,
1325.800000011921,,rt_thecrossant_black,587744,black_plus_sign,,,,50,,,1,0.9833333333333333,,,,,,,,,,
null,,color_black,587847,black_plus_sign,,,,null,,,,,,,,,,,,,,
null,,learn_phase(without_color),589851,black_plus_sign,,,,null,GW/wheelchair.jpg,GW/teeth.jpg,,,,,,,,,,,,
null,,black_cross(without_color),590290,green,,,,null,GW/wheelchair.jpg,GW/teeth.jpg,,,,,,,,,,,,
null,,rt_plussign_withcolor,590793,green,,,,null,GW/wheelchair.jpg,GW/teeth.jpg,,,,,,,,,,,,
1679.0999999642372,,rt_thecrossant_black,592360,black_plus_sign,,,,50,,,1,0.9836065573770492,,,,,,,,,,
null,,color_black,592464,black_plus_sign,,,,null,,,,,,,,,,,,,,
null,,learn_phase(without_color),594476,black_plus_sign,,,,null,GW/camera.jpg,GW/wheelchair.jpg,,,,,,,,,,,,
null,,black_cross(without_color),594916,blue,,,,null,GW/camera.jpg,GW/wheelchair.jpg,,,,,,,,,,,,
null,,rt_plussign_withcolor,595419,blue,,,,null,GW/camera.jpg,GW/wheelchair.jpg,,,,,,,,,,,,
780.5,,rt_thecrossant_black,596985,black_plus_sign,,,,49,,,1,0.9838709677419355,,,,,,,,,,
null,,color_black,597088,black_plus_sign,,,,null,,,,,,,,,,,,,,
null,,learn_phase(without_color),599093,black_plus_sign,,,,null,GW/snail.jpg,GW/basket.jpg,,,,,,,,,,,,
null,,black_cross(without_color),599655,green,,,,null,GW/snail.jpg,GW/basket.jpg,,,,,,,,,,,,
null,,rt_plussign_withcolor,600158,green,,,,null,GW/snail.jpg,GW/basket.jpg,,,,,,,,,,,,
1421.9000000357628,,rt_thecrossant_black,601602,black_plus_sign,,,,50,,,1,0.9841269841269841,,,,,,,,,,
null,,color_black,601706,black_plus_sign,,,,null,,,,,,,,,,,,,,
null,,learn_phase(without_color),603710,black_plus_sign,,,,null,GW/basket.jpg,GW/globe.jpg,,,,,,,,,,,,
null,,black_cross(without_color),604815,green,,,,null,GW/basket.jpg,GW/globe.jpg,,,,,,,,,,,,
null,,rt_plussign_withcolor,605318,green,,,,null,GW/basket.jpg,GW/globe.jpg,,,,,,,,,,,,
1140,,rt_thecrossant_black,606228,black_plus_sign,,,,50,,,1,0.984375,,,,,,,,,,
null,,color_black,606333,black_plus_sign,,,,null,,,,,,,,,,,,,,
null,,learn_phase(without_color),608338,black_plus_sign,,,,null,GW/paint.jpg,GW/snail.jpg,,,,,,,,,,,,
null,,black_cross(without_color),609052,blue,,,,null,GW/paint.jpg,GW/snail.jpg,,,,,,,,,,,,
null,,rt_plussign_withcolor,609554,blue,,,,null,GW/paint.jpg,GW/snail.jpg,,,,,,,,,,,,
1697,,rt_thecrossant_black,610854,black_plus_sign,,,,49,,,1,0.9846153846153847,,,,,,,,,,
null,,color_black,610958,black_plus_sign,,,,null,,,,,,,,,,,,,,
null,,learn_phase(without_color),612962,black_plus_sign,,,,null,GW/camera.jpg,GW/wheelchair.jpg,,,,,,,,,,,,
null,,black_cross(without_color),613671,green,,,,null,GW/camera.jpg,GW/wheelchair.jpg,,,,,,,,,,,,
null,,rt_plussign_withcolor,614173,green,,,,null,GW/camera.jpg,GW/wheelchair.jpg,,,,,,,,,,,,
1115,,rt_thecrossant_black,615472,black_plus_sign,,,,50,,,1,0.9848484848484849,,,,,,,,,,
null,,color_black,615589,black_plus_sign,,,,null,,,,,,,,,,,,,,
null,,learn_phase(without_color),617593,black_plus_sign,,,,null,GW/teeth.jpg,GW/soldier.jpg,,,,,,,,,,,,
null,,black_cross(without_color),618018,green,,,,null,GW/teeth.jpg,GW/soldier.jpg,,,,,,,,,,,,
null,,rt_plussign_withcolor,618521,green,,,,null,GW/teeth.jpg,GW/soldier.jpg,,,,,,,,,,,,
1123.9000000357628,,rt_thecrossant_black,620109,black_plus_sign,,,,50,,,1,0.9850746268656716,,,,,,,,,,
null,,color_black,620213,black_plus_sign,,,,null,,,,,,,,,,,,,,
null,,learn_phase(without_color),622217,black_plus_sign,,,,null,GW/wheelchair.jpg,GW/barrel.jpg,,,,,,,,,,,,
null,,black_cross(without_color),623111,blue,,,,null,GW/wheelchair.jpg,GW/barrel.jpg,,,,,,,,,,,,
null,,rt_plussign_withcolor,623612,blue,,,,null,GW/wheelchair.jpg,GW/barrel.jpg,,,,,,,,,,,,
828.3999999761581,,rt_thecrossant_black,624725,black_plus_sign,,,,49,,,1,0.9852941176470589,,,,,,,,,,
null,,color_black,624829,black_plus_sign,,,,null,,,,,,,,,,,,,,
null,,learn_phase(without_color),626835,black_plus_sign,,,,null,GW/basket.jpg,GW/gong.jpg,,,,,,,,,,,,
null,,black_cross(without_color),627264,blue,,,,null,GW/basket.jpg,GW/gong.jpg,,,,,,,,,,,,
null,,rt_plussign_withcolor,627766,blue,,,,null,GW/basket.jpg,GW/gong.jpg,,,,,,,,,,,,
1428.800000011921,,rt_thecrossant_black,629344,black_plus_sign,,,,49,,,1,0.9855072463768116,,,,,,,,,,
null,,color_black,629448,black_plus_sign,,,,null,,,,,,,,,,,,,,
null,,learn_phase(without_color),631453,black_plus_sign,,,,null,GW/snail.jpg,GW/basket.jpg,,,,,,,,,,,,
null,,black_cross(without_color),632017,green,,,,null,GW/snail.jpg,GW/basket.jpg,,,,,,,,,,,,
null,,rt_plussign_withcolor,632520,green,,,,null,GW/snail.jpg,GW/basket.jpg,,,,,,,,,,,,
1497.199999988079,,rt_thecrossant_black,633961,black_plus_sign,,,,50,,,1,0.9857142857142858,,,,,,,,,,
null,,color_black,634064,black_plus_sign,,,,null,,,,,,,,,,,,,,
null,,learn_phase(without_color),636070,black_plus_sign,,,,null,GW/hat.jpg,GW/soldier.jpg,,,,,,,,,,,,
null,,black_cross(without_color),636633,blue,,,,null,GW/hat.jpg,GW/soldier.jpg,,,,,,,,,,,,
null,,rt_plussign_withcolor,637135,blue,,,,null,GW/hat.jpg,GW/soldier.jpg,,,,,,,,,,,,
1629.0999999642372,,rt_thecrossant_black,638581,black_plus_sign,,,,49,,,1,0.9859154929577465,,,,,,,,,,
null,,color_black,638685,black_plus_sign,,,,null,,,,,,,,,,,,,,
null,,learn_phase(without_color),640697,black_plus_sign,,,,null,GW/camera.jpg,GW/wheelchair.jpg,,,,,,,,,,,,
null,,black_cross(without_color),641249,blue,,,,null,GW/camera.jpg,GW/wheelchair.jpg,,,,,,,,,,,,
null,,rt_plussign_withcolor,641751,blue,,,,null,GW/camera.jpg,GW/wheelchair.jpg,,,,,,,,,,,,
902.6999999880791,,rt_thecrossant_black,643207,black_plus_sign,,,,49,,,1,0.9861111111111112,,,,,,,,,,
null,,color_black,643311,black_plus_sign,,,,null,,,,,,,,,,,,,,
null,,learn_phase(without_color),645315,black_plus_sign,,,,null,GW/barrel.jpg,GW/teeth.jpg,,,,,,,,,,,,
null,,black_cross(without_color),645796,blue,,,,null,GW/barrel.jpg,GW/teeth.jpg,,,,,,,,,,,,
null,,rt_plussign_withcolor,646312,blue,,,,null,GW/barrel.jpg,GW/teeth.jpg,,,,,,,,,,,,
1232,,rt_thecrossant_black,647840,black_plus_sign,,,,49,,,1,0.9863013698630136,,,,,,,,,,
null,,color_black,647946,black_plus_sign,,,,null,,,,,,,,,,,,,,
null,,learn_phase(without_color),649950,black_plus_sign,,,,null,GW/soldier.jpg,GW/gong.jpg,,,,,,,,,,,,
null,,black_cross(without_color),650757,green,,,,null,GW/soldier.jpg,GW/gong.jpg,,,,,,,,,,,,
null,,rt_plussign_withcolor,651260,green,,,,null,GW/soldier.jpg,GW/gong.jpg,,,,,,,,,,,,
null,,rt_thecrossant_black,652460,black_plus_sign,,,,null,,,,0.9863013698630136,,,,,,,,,,
null,,color_black,652565,black_plus_sign,,,,null,,,,,,,,,,,,,,
null,,learn_phase(without_color),654570,black_plus_sign,,,,null,GW/camera.jpg,GW/wheelchair.jpg,,,,,,,,,,,,
null,,black_cross(without_color),655429,green,,,,null,GW/camera.jpg,GW/wheelchair.jpg,,,,,,,,,,,,
null,,rt_plussign_withcolor,655944,green,,,,null,GW/camera.jpg,GW/wheelchair.jpg,,,,,,,,,,,,
1357.2999999523163,,rt_thecrossant_black,657105,black_plus_sign,,,,50,,,1,0.9864864864864865,,,,,,,,,,
null,,color_black,657208,black_plus_sign,,,,null,,,,,,,,,,,,,,
null,,learn_phase(without_color),659220,black_plus_sign,,,,null,GW/teeth.jpg,GW/soldier.jpg,,,,,,,,,,,,
null,,black_cross(without_color),659895,blue,,,,null,GW/teeth.jpg,GW/soldier.jpg,,,,,,,,,,,,
null,,rt_plussign_withcolor,660396,blue,,,,null,GW/teeth.jpg,GW/soldier.jpg,,,,,,,,,,,,
1232.5,,rt_thecrossant_black,661727,black_plus_sign,,,,49,,,1,0.9866666666666667,,,,,,,,,,
null,,color_black,661831,black_plus_sign,,,,null,,,,,,,,,,,,,,
null,,learn_phase(without_color),663834,black_plus_sign,,,,null,GW/wheelchair.jpg,GW/barrel.jpg,,,,,,,,,,,,
null,,black_cross(without_color),664831,green,,,,null,GW/wheelchair.jpg,GW/barrel.jpg,,,,,,,,,,,,
null,,rt_plussign_withcolor,665333,green,,,,null,GW/wheelchair.jpg,GW/barrel.jpg,,,,,,,,,,,,
1030.3999999761581,,rt_thecrossant_black,666354,black_plus_sign,,,,50,,,1,0.9868421052631579,,,,,,,,,,
null,,color_black,666458,black_plus_sign,,,,null,,,,,,,,,,,,,,
null,,learn_phase(without_color),668463,black_plus_sign,,,,null,GW/basket.jpg,GW/globe.jpg,,,,,,,,,,,,
null,,black_cross(without_color),668875,blue,,,,null,GW/basket.jpg,GW/globe.jpg,,,,,,,,,,,,
null,,rt_plussign_withcolor,669377,blue,,,,null,GW/basket.jpg,GW/globe.jpg,,,,,,,,,,,,
1388.0999999642372,,rt_thecrossant_black,670972,black_plus_sign,,,,49,,,1,0.987012987012987,,,,,,,,,,
null,,color_black,671076,black_plus_sign,,,,null,,,,,,,,,,,,,,
null,,learn_phase(without_color),673080,black_plus_sign,,,,null,GW/snail.jpg,GW/basket.jpg,,,,,,,,,,,,
null,,black_cross(without_color),673996,green,,,,null,GW/snail.jpg,GW/basket.jpg,,,,,,,,,,,,
null,,rt_plussign_withcolor,674499,green,,,,null,GW/snail.jpg,GW/basket.jpg,,,,,,,,,,,,
697.6999999880791,,rt_thecrossant_black,675590,black_plus_sign,,,,50,,,1,0.9871794871794872,,,,,,,,,,
null,,color_black,675694,black_plus_sign,,,,null,,,,,,,,,,,,,,
null,,learn_phase(without_color),677699,black_plus_sign,,,,null,GW/wheelchair.jpg,GW/dustpan.jpg,,,,,,,,,,,,
null,,black_cross(without_color),678543,blue,,,,null,GW/wheelchair.jpg,GW/dustpan.jpg,,,,,,,,,,,,
110.29999995231628,,rt_plussign_withcolor,679045,blue,,,,49,GW/wheelchair.jpg,GW/dustpan.jpg,,,,,,,,,,,,
null,,rt_thecrossant_black,680208,black_plus_sign,,,,null,,,1,0.9873417721518988,,,,,,,,,,
null,,color_black,680311,black_plus_sign,,,,null,,,,,,,,,,,,,,
null,,learn_phase(without_color),682315,black_plus_sign,,,,null,GW/snail.jpg,GW/hat.jpg,,,,,,,,,,,,
null,,black_cross(without_color),682972,blue,,,,null,GW/snail.jpg,GW/hat.jpg,,,,,,,,,,,,
null,,rt_plussign_withcolor,683475,blue,,,,null,GW/snail.jpg,GW/hat.jpg,,,,,,,,,,,,
1013,,rt_thecrossant_black,684838,black_plus_sign,,,,49,,,1,0.9875,,,,,,,,,,
null,,color_black,684941,black_plus_sign,,,,null,,,,,,,,,,,,,,
null,,learn_phase(without_color),686947,black_plus_sign,,,,null,GW/basket.jpg,GW/globe.jpg,,,,,,,,,,,,
null,,black_cross(without_color),687834,blue,,,,null,GW/basket.jpg,GW/globe.jpg,,,,,,,,,,,,
null,,rt_plussign_withcolor,688336,blue,,,,null,GW/basket.jpg,GW/globe.jpg,,,,,,,,,,,,
1032.7000000476837,,rt_thecrossant_black,689456,black_plus_sign,,,,49,,,1,0.9876543209876543,,,,,,,,,,
null,,color_black,689558,black_plus_sign,,,,null,,,,,,,,,,,,,,
null,,learn_phase(without_color),691564,black_plus_sign,,,,null,GW/snail.jpg,GW/basket.jpg,,,,,,,,,,,,
null,,black_cross(without_color),692635,blue,,,,null,GW/snail.jpg,GW/basket.jpg,,,,,,,,,,,,
null,,rt_plussign_withcolor,693137,blue,,,,null,GW/snail.jpg,GW/basket.jpg,,,,,,,,,,,,
1079.1000000238419,,rt_thecrossant_black,694074,black_plus_sign,,,,49,,,1,0.9878048780487805,,,,,,,,,,
null,,color_black,694177,black_plus_sign,,,,null,,,,,,,,,,,,,,
null,,learn_phase(without_color),696182,black_plus_sign,,,,null,GW/paint.jpg,GW/snail.jpg,,,,,,,,,,,,
null,,black_cross(without_color),696787,blue,,,,null,GW/paint.jpg,GW/snail.jpg,,,,,,,,,,,,
null,,rt_plussign_withcolor,697290,blue,,,,null,GW/paint.jpg,GW/snail.jpg,,,,,,,,,,,,
1425.1000000238419,,rt_thecrossant_black,698693,black_plus_sign,,,,49,,,1,0.9879518072289156,,,,,,,,,,
null,,color_black,698802,black_plus_sign,,,,null,,,,,,,,,,,,,,
null,,learn_phase(without_color),700807,black_plus_sign,,,,null,GW/teeth.jpg,GW/soldier.jpg,,,,,,,,,,,,
null,,black_cross(without_color),701902,blue,,,,null,GW/teeth.jpg,GW/soldier.jpg,,,,,,,,,,,,
null,,rt_plussign_withcolor,702405,blue,,,,null,GW/teeth.jpg,GW/soldier.jpg,,,,,,,,,,,,
867.5999999642372,,rt_thecrossant_black,703317,black_plus_sign,,,,49,,,1,0.9880952380952381,,,,,,,,,,
null,,color_black,703422,black_plus_sign,,,,null,,,,,,,,,,,,,,
null,,learn_phase(without_color),705425,black_plus_sign,,,,null,GW/wheelchair.jpg,GW/dustpan.jpg,,,,,,,,,,,,
null,,black_cross(without_color),706206,green,,,,null,GW/wheelchair.jpg,GW/dustpan.jpg,,,,,,,,,,,,
null,,rt_plussign_withcolor,706722,green,,,,null,GW/wheelchair.jpg,GW/dustpan.jpg,,,,,,,,,,,,
1462.8999999761581,,rt_thecrossant_black,707946,black_plus_sign,,,,50,,,1,0.9882352941176471,,,,,,,,,,
null,,color_black,708049,black_plus_sign,,,,null,,,,,,,,,,,,,,
null,,learn_phase(without_color),710056,black_plus_sign,,,,null,GW/snail.jpg,GW/basket.jpg,,,,,,,,,,,,
null,,black_cross(without_color),711159,blue,,,,null,GW/snail.jpg,GW/basket.jpg,,,,,,,,,,,,
null,,rt_plussign_withcolor,711671,blue,,,,null,GW/snail.jpg,GW/basket.jpg,,,,,,,,,,,,
1074.7999999523163,,rt_thecrossant_black,712576,black_plus_sign,,,,49,,,1,0.9883720930232558,,,,,,,,,,
null,,color_black,712694,black_plus_sign,,,,null,,,,,,,,,,,,,,
null,,learn_phase(without_color),714699,black_plus_sign,,,,null,GW/camera.jpg,GW/wheelchair.jpg,,,,,,,,,,,,
null,,black_cross(without_color),715400,blue,,,,null,GW/camera.jpg,GW/wheelchair.jpg,,,,,,,,,,,,
null,,rt_plussign_withcolor,715910,blue,,,,null,GW/camera.jpg,GW/wheelchair.jpg,,,,,,,,,,,,
1380.699999988079,,rt_thecrossant_black,717216,black_plus_sign,,,,49,,,1,0.9885057471264368,,,,,,,,,,
null,,color_black,717320,black_plus_sign,,,,null,,,,,,,,,,,,,,
null,,learn_phase(without_color),719332,black_plus_sign,,,,null,GW/snail.jpg,GW/hat.jpg,,,,,,,,,,,,
null,,black_cross(without_color),720434,blue,,,,null,GW/snail.jpg,GW/hat.jpg,,,,,,,,,,,,
null,,rt_plussign_withcolor,720937,blue,,,,null,GW/snail.jpg,GW/hat.jpg,,,,,,,,,,,,
1239.3999999761581,,rt_thecrossant_black,721842,black_plus_sign,,,,49,,,1,0.9886363636363636,,,,,,,,,,
null,,color_black,721946,black_plus_sign,,,,null,,,,,,,,,,,,,,
null,,learn_phase(without_color),723963,black_plus_sign,,,,null,GW/camera.jpg,GW/teeth.jpg,,,,,,,,,,,,
null,,black_cross(without_color),724811,green,,,,null,GW/camera.jpg,GW/teeth.jpg,,,,,,,,,,,,
null,,rt_plussign_withcolor,725313,green,,,,null,GW/camera.jpg,GW/teeth.jpg,,,,,,,,,,,,
2089.600000023842,,rt_thecrossant_black,726482,black_plus_sign,,,,50,,,1,0.9887640449438202,,,,,,,,,,
null,,color_black,726586,black_plus_sign,,,,null,,,,,,,,,,,,,,
null,,learn_phase(without_color),728591,black_plus_sign,,,,null,GW/hat.jpg,GW/camera.jpg,,,,,,,,,,,,
null,,black_cross(without_color),729418,blue,,,,null,GW/hat.jpg,GW/camera.jpg,,,,,,,,,,,,
null,,rt_plussign_withcolor,729921,blue,,,,null,GW/hat.jpg,GW/camera.jpg,,,,,,,,,,,,
1135.5,,rt_thecrossant_black,731101,black_plus_sign,,,,49,,,1,0.9888888888888889,,,,,,,,,,
null,,color_black,731205,black_plus_sign,,,,null,,,,,,,,,,,,,,
null,,learn_phase(without_color),733210,black_plus_sign,,,,null,GW/barrel.jpg,GW/teeth.jpg,,,,,,,,,,,,
null,,black_cross(without_color),733809,blue,,,,null,GW/barrel.jpg,GW/teeth.jpg,,,,,,,,,,,,
null,,rt_plussign_withcolor,734312,blue,,,,null,GW/barrel.jpg,GW/teeth.jpg,,,,,,,,,,,,
995.5,,rt_thecrossant_black,735726,black_plus_sign,,,,49,,,1,0.989010989010989,,,,,,,,,,
null,,color_black,735830,black_plus_sign,,,,null,,,,,,,,,,,,,,
null,,learn_phase(without_color),737835,black_plus_sign,,,,null,GW/hat.jpg,GW/camera.jpg,,,,,,,,,,,,
null,,black_cross(without_color),738897,green,,,,null,GW/hat.jpg,GW/camera.jpg,,,,,,,,,,,,
null,,rt_plussign_withcolor,739399,green,,,,null,GW/hat.jpg,GW/camera.jpg,,,,,,,,,,,,
739.3999999761581,,rt_thecrossant_black,740344,black_plus_sign,,,,49,,,0,0.9782608695652174,,,,,,,,,,
null,,color_black,740448,black_plus_sign,,,,null,,,,,,,,,,,,,,
null,,learn_phase(without_color),742454,black_plus_sign,,,,null,GW/wheelchair.jpg,GW/teeth.jpg,,,,,,,,,,,,
null,,black_cross(without_color),743072,green,,,,null,GW/wheelchair.jpg,GW/teeth.jpg,,,,,,,,,,,,
null,,rt_plussign_withcolor,743576,green,,,,null,GW/wheelchair.jpg,GW/teeth.jpg,,,,,,,,,,,,
1474.3999999761581,,rt_thecrossant_black,744965,black_plus_sign,,,,50,,,1,0.978494623655914,,,,,,,,,,
null,,color_black,745070,black_plus_sign,,,,null,,,,,,,,,,,,,,
null,,learn_phase(without_color),747075,black_plus_sign,,,,null,GW/teeth.jpg,GW/soldier.jpg,,,,,,,,,,,,
null,,black_cross(without_color),747751,green,,,,null,GW/teeth.jpg,GW/soldier.jpg,,,,,,,,,,,,
null,,rt_plussign_withcolor,748253,green,,,,null,GW/teeth.jpg,GW/soldier.jpg,,,,,,,,,,,,
1496.5,,rt_thecrossant_black,749585,black_plus_sign,,,,50,,,1,0.9787234042553191,,,,,,,,,,
null,,color_black,749704,black_plus_sign,,,,null,,,,,,,,,,,,,,
null,,learn_phase(without_color),751709,black_plus_sign,,,,null,GW/barrel.jpg,GW/jukebox.jpg,,,,,,,,,,,,
null,,black_cross(without_color),752583,blue,,,,null,GW/barrel.jpg,GW/jukebox.jpg,,,,,,,,,,,,
null,,rt_plussign_withcolor,753085,blue,,,,null,GW/barrel.jpg,GW/jukebox.jpg,,,,,,,,,,,,
1480.199999988079,,rt_thecrossant_black,754219,black_plus_sign,,,,49,,,1,0.9789473684210527,,,,,,,,,,
null,,color_black,754323,black_plus_sign,,,,null,,,,,,,,,,,,,,
null,,learn_phase(without_color),756328,black_plus_sign,,,,null,GW/hat.jpg,GW/soldier.jpg,,,,,,,,,,,,
null,,black_cross(without_color),757253,green,,,,null,GW/hat.jpg,GW/soldier.jpg,,,,,,,,,,,,
null,,rt_plussign_withcolor,757756,green,,,,null,GW/hat.jpg,GW/soldier.jpg,,,,,,,,,,,,
1315.2000000476837,,rt_thecrossant_black,758837,black_plus_sign,,,,50,,,1,0.9791666666666666,,,,,,,,,,
null,,color_black,758941,black_plus_sign,,,,null,,,,,,,,,,,,,,
null,,learn_phase(without_color),760960,black_plus_sign,,,,null,GW/camera.jpg,GW/teeth.jpg,,,,,,,,,,,,
null,,black_cross(without_color),761888,blue,,,,null,GW/camera.jpg,GW/teeth.jpg,,,,,,,,,,,,
null,,rt_plussign_withcolor,762391,blue,,,,null,GW/camera.jpg,GW/teeth.jpg,,,,,,,,,,,,
1151.699999988079,,rt_thecrossant_black,763472,black_plus_sign,,,,49,,,1,0.979381443298969,,,,,,,,,,
null,,color_black,763576,black_plus_sign,,,,null,,,,,,,,,,,,,,
null,,learn_phase(without_color),765581,black_plus_sign,,,,null,GW/hat.jpg,GW/soldier.jpg,,,,,,,,,,,,
null,,black_cross(without_color),766178,blue,,,,null,GW/hat.jpg,GW/soldier.jpg,,,,,,,,,,,,
null,,rt_plussign_withcolor,766680,blue,,,,null,GW/hat.jpg,GW/soldier.jpg,,,,,,,,,,,,
1569.8999999761581,,rt_thecrossant_black,768094,black_plus_sign,,,,49,,,1,0.9795918367346939,,,,,,,,,,
null,,color_black,768197,black_plus_sign,,,,null,,,,,,,,,,,,,,
null,,learn_phase(without_color),770202,black_plus_sign,,,,null,GW/soldier.jpg,GW/gong.jpg,,,,,,,,,,,,
null,,black_cross(without_color),771252,green,,,,null,GW/soldier.jpg,GW/gong.jpg,,,,,,,,,,,,
null,,rt_plussign_withcolor,771755,green,,,,null,GW/soldier.jpg,GW/gong.jpg,,,,,,,,,,,,
815.9000000357628,,rt_thecrossant_black,772711,black_plus_sign,,,,50,,,1,0.9797979797979798,,,,,,,,,,
null,,color_black,772815,black_plus_sign,,,,null,,,,,,,,,,,,,,
null,,learn_phase(without_color),774821,black_plus_sign,,,,null,GW/camera.jpg,GW/teeth.jpg,,,,,,,,,,,,
null,,black_cross(without_color),775658,green,,,,null,GW/camera.jpg,GW/teeth.jpg,,,,,,,,,,,,
null,,rt_plussign_withcolor,776161,green,,,,null,GW/camera.jpg,GW/teeth.jpg,,,,,,,,,,,,
1396.2000000476837,,rt_thecrossant_black,777334,black_plus_sign,,,,50,,,1,0.98,,,,,,,,,,
null,,color_black,777438,black_plus_sign,,,,null,,,,,,,,,,,,,,
null,,learn_phase(without_color),779443,black_plus_sign,,,,null,GW/basket.jpg,GW/gong.jpg,,,,,,,,,,,,
null,,black_cross(without_color),780528,green,,,,null,GW/basket.jpg,GW/gong.jpg,,,,,,,,,,,,
null,,rt_plussign_withcolor,781030,green,,,,null,GW/basket.jpg,GW/gong.jpg,,,,,,,,,,,,
1055,,rt_thecrossant_black,781967,black_plus_sign,,,,50,,,1,0.9801980198019802,,,,,,,,,,
null,,color_black,782071,black_plus_sign,,,,null,,,,,,,,,,,,,,
null,,learn_phase(without_color),784076,black_plus_sign,,,,null,GW/hat.jpg,GW/camera.jpg,,,,,,,,,,,,
null,,black_cross(without_color),785151,green,,,,null,GW/hat.jpg,GW/camera.jpg,,,,,,,,,,,,
null,,rt_plussign_withcolor,785654,green,,,,null,GW/hat.jpg,GW/camera.jpg,,,,,,,,,,,,
1579.8999999761581,,rt_thecrossant_black,786599,black_plus_sign,,,,50,,,1,0.9803921568627451,,,,,,,,,,
null,,color_black,786703,black_plus_sign,,,,null,,,,,,,,,,,,,,
null,,learn_phase(without_color),788707,black_plus_sign,,,,null,GW/basket.jpg,GW/gong.jpg,,,,,,,,,,,,
null,,black_cross(without_color),789238,blue,,,,null,GW/basket.jpg,GW/gong.jpg,,,,,,,,,,,,
null,,rt_plussign_withcolor,789741,blue,,,,null,GW/basket.jpg,GW/gong.jpg,,,,,,,,,,,,
1511.300000011921,,rt_thecrossant_black,791217,black_plus_sign,,,,49,,,1,0.9805825242718447,,,,,,,,,,
null,,color_black,791329,black_plus_sign,,,,null,,,,,,,,,,,,,,
null,,learn_phase(without_color),793344,black_plus_sign,,,,null,GW/wheelchair.jpg,GW/barrel.jpg,,,,,,,,,,,,
null,,black_cross(without_color),794181,blue,,,,null,GW/wheelchair.jpg,GW/barrel.jpg,,,,,,,,,,,,
null,,rt_plussign_withcolor,794683,blue,,,,null,GW/wheelchair.jpg,GW/barrel.jpg,,,,,,,,,,,,
890.3999999761581,,rt_thecrossant_black,795853,black_plus_sign,,,,49,,,1,0.9807692307692307,,,,,,,,,,
null,,color_black,795957,black_plus_sign,,,,null,,,,,,,,,,,,,,
null,,learn_phase(without_color),797962,black_plus_sign,,,,null,GW/wheelchair.jpg,GW/dustpan.jpg,,,,,,,,,,,,
null,,black_cross(without_color),798842,blue,,,,null,GW/wheelchair.jpg,GW/dustpan.jpg,,,,,,,,,,,,
null,,rt_plussign_withcolor,799344,blue,,,,null,GW/wheelchair.jpg,GW/dustpan.jpg,,,,,,,,,,,,
1749.9000000357628,,rt_thecrossant_black,800472,black_plus_sign,,,,49,,,1,0.9809523809523809,,,,,,,,,,
null,,color_black,800581,black_plus_sign,,,,null,,,,,,,,,,,,,,
null,,learn_phase(without_color),802587,black_plus_sign,,,,null,GW/barrel.jpg,GW/jukebox.jpg,,,,,,,,,,,,
null,,black_cross(without_color),803046,blue,,,,null,GW/barrel.jpg,GW/jukebox.jpg,,,,,,,,,,,,
null,,rt_plussign_withcolor,803548,blue,,,,null,GW/barrel.jpg,GW/jukebox.jpg,,,,,,,,,,,,
1154.7999999523163,,rt_thecrossant_black,805099,black_plus_sign,,,,49,,,1,0.9811320754716981,,,,,,,,,,
null,,color_black,805204,black_plus_sign,,,,null,,,,,,,,,,,,,,
null,,learn_phase(without_color),807209,black_plus_sign,,,,null,GW/basket.jpg,GW/gong.jpg,,,,,,,,,,,,
null,,black_cross(without_color),808289,green,,,,null,GW/basket.jpg,GW/gong.jpg,,,,,,,,,,,,
null,,rt_plussign_withcolor,808792,green,,,,null,GW/basket.jpg,GW/gong.jpg,,,,,,,,,,,,
1263.8999999761581,,rt_thecrossant_black,809721,black_plus_sign,,,,50,,,1,0.9813084112149533,,,,,,,,,,
null,,color_black,809825,black_plus_sign,,,,null,,,,,,,,,,,,,,
null,,learn_phase(without_color),811831,black_plus_sign,,,,null,GW/wheelchair.jpg,GW/barrel.jpg,,,,,,,,,,,,
null,,black_cross(without_color),812567,blue,,,,null,GW/wheelchair.jpg,GW/barrel.jpg,,,,,,,,,,,,
null,,rt_plussign_withcolor,813070,blue,,,,null,GW/wheelchair.jpg,GW/barrel.jpg,,,,,,,,,,,,
1396.300000011921,,rt_thecrossant_black,814358,black_plus_sign,,,,49,,,1,0.9814814814814815,,,,,,,,,,
null,,color_black,814464,black_plus_sign,,,,null,,,,,,,,,,,,,,
null,,learn_phase(without_color),816478,black_plus_sign,,,,null,GW/paint.jpg,GW/snail.jpg,,,,,,,,,,,,
null,,black_cross(without_color),817581,green,,,,null,GW/paint.jpg,GW/snail.jpg,,,,,,,,,,,,
null,,rt_plussign_withcolor,818085,green,,,,null,GW/paint.jpg,GW/snail.jpg,,,,,,,,,,,,
900.3000000119209,,rt_thecrossant_black,818993,black_plus_sign,,,,50,,,1,0.981651376146789,,,,,,,,,,
null,,color_black,819096,black_plus_sign,,,,null,,,,,,,,,,,,,,
null,,learn_phase(without_color),821101,black_plus_sign,,,,null,GW/wheelchair.jpg,GW/barrel.jpg,,,,,,,,,,,,
null,,black_cross(without_color),821970,green,,,,null,GW/wheelchair.jpg,GW/barrel.jpg,,,,,,,,,,,,
null,,rt_plussign_withcolor,822473,green,,,,null,GW/wheelchair.jpg,GW/barrel.jpg,,,,,,,,,,,,
1335.6000000238419,,rt_thecrossant_black,823611,black_plus_sign,,,,50,,,1,0.9818181818181818,,,,,,,,,,
null,,color_black,823728,black_plus_sign,,,,null,,,,,,,,,,,,,,
null,,learn_phase(without_color),825734,black_plus_sign,,,,null,GW/wheelchair.jpg,GW/teeth.jpg,,,,,,,,,,,,
null,,black_cross(without_color),826578,green,,,,null,GW/wheelchair.jpg,GW/teeth.jpg,,,,,,,,,,,,
null,,rt_plussign_withcolor,827081,green,,,,null,GW/wheelchair.jpg,GW/teeth.jpg,,,,,,,,,,,,
1310.199999988079,,rt_thecrossant_black,828261,black_plus_sign,,,,50,,,1,0.9819819819819819,,,,,,,,,,
null,,color_black,828365,black_plus_sign,,,,null,,,,,,,,,,,,,,
null,,learn_phase(without_color),830371,black_plus_sign,,,,null,GW/camera.jpg,GW/teeth.jpg,,,,,,,,,,,,
null,,black_cross(without_color),831149,green,,,,null,GW/camera.jpg,GW/teeth.jpg,,,,,,,,,,,,
null,,rt_plussign_withcolor,831651,green,,,,null,GW/camera.jpg,GW/teeth.jpg,,,,,,,,,,,,
1401.8999999761581,,rt_thecrossant_black,832882,black_plus_sign,,,,50,,,1,0.9821428571428571,,,,,,,,,,
null,,color_black,832986,black_plus_sign,,,,null,,,,,,,,,,,,,,
null,,learn_phase(without_color),835000,black_plus_sign,,,,null,GW/teeth.jpg,GW/soldier.jpg,,,,,,,,,,,,
null,,black_cross(without_color),835563,green,,,,null,GW/teeth.jpg,GW/soldier.jpg,,,,,,,,,,,,
null,,rt_plussign_withcolor,836066,green,,,,null,GW/teeth.jpg,GW/soldier.jpg,,,,,,,,,,,,
1077.6000000238419,,rt_thecrossant_black,837520,black_plus_sign,,,,50,,,1,0.9823008849557522,,,,,,,,,,
null,,color_black,837624,black_plus_sign,,,,null,,,,,,,,,,,,,,
null,,learn_phase(without_color),839629,black_plus_sign,,,,null,GW/basket.jpg,GW/globe.jpg,,,,,,,,,,,,
null,,black_cross(without_color),840237,blue,,,,null,GW/basket.jpg,GW/globe.jpg,,,,,,,,,,,,
null,,rt_plussign_withcolor,840742,blue,,,,null,GW/basket.jpg,GW/globe.jpg,,,,,,,,,,,,
1095.9000000357628,,rt_thecrossant_black,842141,black_plus_sign,,,,49,,,1,0.9824561403508771,,,,,,,,,,
null,,color_black,842245,black_plus_sign,,,,null,,,,,,,,,,,,,,
null,,learn_phase(without_color),844252,black_plus_sign,,,,null,GW/camera.jpg,GW/teeth.jpg,,,,,,,,,,,,
null,,black_cross(without_color),845298,blue,,,,null,GW/camera.jpg,GW/teeth.jpg,,,,,,,,,,,,
null,,rt_plussign_withcolor,845802,blue,,,,null,GW/camera.jpg,GW/teeth.jpg,,,,,,,,,,,,
718.1999999880791,,rt_thecrossant_black,846769,black_plus_sign,,,,49,,,1,0.9826086956521739,,,,,,,,,,
null,,color_black,846874,black_plus_sign,,,,null,,,,,,,,,,,,,,
null,,learn_phase(without_color),848879,black_plus_sign,,,,null,GW/snail.jpg,GW/hat.jpg,,,,,,,,,,,,
null,,black_cross(without_color),849959,green,,,,null,GW/snail.jpg,GW/hat.jpg,,,,,,,,,,,,
null,,rt_plussign_withcolor,850461,green,,,,null,GW/snail.jpg,GW/hat.jpg,,,,,,,,,,,,
1255,,rt_thecrossant_black,851390,black_plus_sign,,,,50,,,1,0.9827586206896551,,,,,,,,,,
null,,color_black,851493,black_plus_sign,,,,null,,,,,,,,,,,,,,
null,,learn_phase(without_color),853496,black_plus_sign,,,,null,GW/basket.jpg,GW/gong.jpg,,,,,,,,,,,,
null,,black_cross(without_color),853993,blue,,,,null,GW/basket.jpg,GW/gong.jpg,,,,,,,,,,,,
null,,rt_plussign_withcolor,854496,blue,,,,null,GW/basket.jpg,GW/gong.jpg,,,,,,,,,,,,
1523.8999999761581,,rt_thecrossant_black,856012,black_plus_sign,,,,49,,,1,0.9829059829059829,,,,,,,,,,
null,,color_black,856117,black_plus_sign,,,,null,,,,,,,,,,,,,,
null,,learn_phase(without_color),858123,black_plus_sign,,,,null,GW/wheelchair.jpg,GW/barrel.jpg,,,,,,,,,,,,
null,,black_cross(without_color),859113,green,,,,null,GW/wheelchair.jpg,GW/barrel.jpg,,,,,,,,,,,,
null,,rt_plussign_withcolor,859616,green,,,,null,GW/wheelchair.jpg,GW/barrel.jpg,,,,,,,,,,,,
768.2000000476837,,rt_thecrossant_black,860645,black_plus_sign,,,,50,,,1,0.9830508474576272,,,,,,,,,,
null,,color_black,860748,black_plus_sign,,,,null,,,,,,,,,,,,,,
null,,learn_phase(without_color),862755,black_plus_sign,,,,null,GW/snail.jpg,GW/basket.jpg,,,,,,,,,,,,
null,,black_cross(without_color),863243,blue,,,,null,GW/snail.jpg,GW/basket.jpg,,,,,,,,,,,,
null,,rt_plussign_withcolor,863757,blue,,,,null,GW/snail.jpg,GW/basket.jpg,,,,,,,,,,,,
1473.6000000238419,,rt_thecrossant_black,865278,black_plus_sign,,,,49,,,1,0.9831932773109243,,,,,,,,,,
null,,color_black,865382,black_plus_sign,,,,null,,,,,,,,,,,,,,
null,,learn_phase(without_color),867400,black_plus_sign,,,,null,GW/paint.jpg,GW/snail.jpg,,,,,,,,,,,,
null,,black_cross(without_color),868172,green,,,,null,GW/paint.jpg,GW/snail.jpg,,,,,,,,,,,,
null,,rt_plussign_withcolor,868675,green,,,,null,GW/paint.jpg,GW/snail.jpg,,,,,,,,,,,,
782.0999999642372,,rt_thecrossant_black,869913,black_plus_sign,,,,50,,,1,0.9833333333333333,,,,,,,,,,
null,,color_black,870016,black_plus_sign,,,,null,,,,,,,,,,,,,,
null,,learn_phase(without_color),872021,black_plus_sign,,,,null,GW/snail.jpg,GW/hat.jpg,,,,,,,,,,,,
null,,black_cross(without_color),872644,blue,,,,null,GW/snail.jpg,GW/hat.jpg,,,,,,,,,,,,
null,,rt_plussign_withcolor,873146,blue,,,,null,GW/snail.jpg,GW/hat.jpg,,,,,,,,,,,,
1107,,rt_thecrossant_black,874531,black_plus_sign,,,,49,,,1,0.9834710743801653,,,,,,,,,,
null,,color_black,874634,black_plus_sign,,,,null,,,,,,,,,,,,,,
null,,learn_phase(without_color),876641,black_plus_sign,,,,null,GW/basket.jpg,GW/globe.jpg,,,,,,,,,,,,
null,,black_cross(without_color),877143,blue,,,,null,GW/basket.jpg,GW/globe.jpg,,,,,,,,,,,,
null,,rt_plussign_withcolor,877646,blue,,,,null,GW/basket.jpg,GW/globe.jpg,,,,,,,,,,,,
831.3999999761581,,rt_thecrossant_black,879151,black_plus_sign,,,,49,,,1,0.9836065573770492,,,,,,,,,,
null,,color_black,879254,black_plus_sign,,,,null,,,,,,,,,,,,,,
null,,learn_phase(without_color),881263,black_plus_sign,,,,null,GW/paint.jpg,GW/snail.jpg,,,,,,,,,,,,
null,,black_cross(without_color),881786,blue,,,,null,GW/paint.jpg,GW/snail.jpg,,,,,,,,,,,,
null,,rt_plussign_withcolor,882289,blue,,,,null,GW/paint.jpg,GW/snail.jpg,,,,,,,,,,,,
852,,rt_thecrossant_black,883775,black_plus_sign,,,,49,,,1,0.983739837398374,,,,,,,,,,
null,,color_black,883879,black_plus_sign,,,,null,,,,,,,,,,,,,,
null,,learn_phase(without_color),885885,black_plus_sign,,,,null,GW/barrel.jpg,GW/jukebox.jpg,,,,,,,,,,,,
null,,black_cross(without_color),886962,blue,,,,null,GW/barrel.jpg,GW/jukebox.jpg,,,,,,,,,,,,
null,,rt_plussign_withcolor,887465,blue,,,,null,GW/barrel.jpg,GW/jukebox.jpg,,,,,,,,,,,,
937.8000000119209,,rt_thecrossant_black,888410,black_plus_sign,,,,49,,,1,0.9838709677419355,,,,,,,,,,
null,,color_black,888515,black_plus_sign,,,,null,,,,,,,,,,,,,,
null,,learn_phase(without_color),890520,black_plus_sign,,,,null,GW/snail.jpg,GW/hat.jpg,,,,,,,,,,,,
null,,black_cross(without_color),891253,green,,,,null,GW/snail.jpg,GW/hat.jpg,,,,,,,,,,,,
null,,rt_plussign_withcolor,891755,green,,,,null,GW/snail.jpg,GW/hat.jpg,,,,,,,,,,,,
1493.5999999642372,,rt_thecrossant_black,893031,black_plus_sign,,,,50,,,1,0.984,,,,,,,,,,
null,,color_black,893135,black_plus_sign,,,,null,,,,,,,,,,,,,,
null,,learn_phase(without_color),895140,black_plus_sign,,,,null,GW/wheelchair.jpg,GW/teeth.jpg,,,,,,,,,,,,
null,,black_cross(without_color),895731,green,,,,null,GW/wheelchair.jpg,GW/teeth.jpg,,,,,,,,,,,,
null,,rt_plussign_withcolor,896235,green,,,,null,GW/wheelchair.jpg,GW/teeth.jpg,,,,,,,,,,,,
1088,,rt_thecrossant_black,897656,black_plus_sign,,,,50,,,1,0.9841269841269841,,,,,,,,,,
null,,color_black,897774,black_plus_sign,,,,null,,,,,,,,,,,,,,
null,,learn_phase(without_color),899780,black_plus_sign,,,,null,GW/basket.jpg,GW/globe.jpg,,,,,,,,,,,,
null,,black_cross(without_color),900651,green,,,,null,GW/basket.jpg,GW/globe.jpg,,,,,,,,,,,,
null,,rt_plussign_withcolor,901155,green,,,,null,GW/basket.jpg,GW/globe.jpg,,,,,,,,,,,,
991.8999999761581,,rt_thecrossant_black,902293,black_plus_sign,,,,50,,,1,0.984251968503937,,,,,,,,,,
null,,color_black,902398,black_plus_sign,,,,null,,,,,,,,,,,,,,
335706.90000003576,,intro_1,1238110,instruct,,0,Start,,,,,,,,,,,,,,,
3350.599999964237,,directmemory_phase,1241464,GW/barrel.jpg,,,,51,,,0,0,GW/wheelchair.jpg,GW/snail.jpg,GW/soldier.jpg,GW/wheelchair.jpg,GW/soldier.jpg,GW/snail.jpg,0.5,closer,,
null,,html-keyboard-response,1242476,<p></p>,,,,null,,,,,,,,,,,,,,
2220.199999988079,,directmemory_phase,1244699,GW/globe.jpg,,,,50,,,1,0.5,GW/snail.jpg,GW/basket.jpg,GW/teeth.jpg,GW/basket.jpg,GW/snail.jpg,GW/teeth.jpg,1,,,
null,,html-keyboard-response,1245713,<p></p>,,,,null,,,,,,,,,,,,,,
1853.699999988079,,directmemory_phase,1247570,GW/dustpan.jpg,,,,50,,,1,0.6666666666666666,GW/camera.jpg,GW/wheelchair.jpg,GW/jukebox.jpg,GW/wheelchair.jpg,GW/camera.jpg,GW/jukebox.jpg,1,,,
null,,html-keyboard-response,1248575,<p></p>,,,,null,,,,,,,,,,,,,,
1942.300000011921,,directmemory_phase,1250520,GW/hat.jpg,,,,51,,,1,0.75,GW/barrel.jpg,GW/gong.jpg,GW/soldier.jpg,GW/soldier.jpg,GW/gong.jpg,GW/barrel.jpg,1,,,
null,,html-keyboard-response,1251525,<p></p>,,,,null,,,,,,,,,,,,,,
4705,,directmemory_phase,1256232,GW/jukebox.jpg,,,,49,,,1,0.8,GW/barrel.jpg,GW/camera.jpg,GW/wheelchair.jpg,GW/barrel.jpg,GW/wheelchair.jpg,GW/camera.jpg,1,,,
null,,html-keyboard-response,1257241,<p></p>,,,,null,,,,,,,,,,,,,,
2295.900000035763,,directmemory_phase,1259540,GW/soldier.jpg,,,,50,,,1,0.8333333333333334,GW/snail.jpg,GW/gong.jpg,GW/paint.jpg,GW/gong.jpg,GW/snail.jpg,GW/paint.jpg,1,,,
null,,html-keyboard-response,1260553,<p></p>,,,,null,,,,,,,,,,,,,,
3379.199999988079,,directmemory_phase,1263935,GW/basket.jpg,,,,51,,,1,0.8571428571428571,GW/teeth.jpg,GW/soldier.jpg,GW/snail.jpg,GW/snail.jpg,GW/soldier.jpg,GW/teeth.jpg,1,,,
null,,html-keyboard-response,1264940,<p></p>,,,,null,,,,,,,,,,,,,,
3510.2000000476837,,directmemory_phase,1268453,GW/wheelchair.jpg,,,,49,,,0,0.75,GW/basket.jpg,GW/jukebox.jpg,GW/barrel.jpg,GW/barrel.jpg,GW/jukebox.jpg,GW/basket.jpg,0.5,closer,,
null,,html-keyboard-response,1269457,<p></p>,,,,null,,,,,,,,,,,,,,
4689.5,,directmemory_phase,1274150,GW/basket.jpg,,,,51,,,0,0.6666666666666666,GW/gong.jpg,GW/camera.jpg,GW/paint.jpg,GW/gong.jpg,GW/paint.jpg,GW/camera.jpg,0.5,closer,,
null,,html-keyboard-response,1275167,<p></p>,,,,null,,,,,,,,,,,,,,
5338.699999988079,,directmemory_phase,1280508,GW/camera.jpg,,,,51,,,0,0.6,GW/dustpan.jpg,GW/hat.jpg,GW/gong.jpg,GW/hat.jpg,GW/dustpan.jpg,GW/gong.jpg,0.5,closer,,
null,,html-keyboard-response,1281513,<p></p>,,,,null,,,,,,,,,,,,,,
4081.699999988079,,directmemory_phase,1285596,GW/gong.jpg,,,,49,,,1,0.6363636363636364,GW/basket.jpg,GW/wheelchair.jpg,GW/globe.jpg,GW/basket.jpg,GW/globe.jpg,GW/wheelchair.jpg,1,,,
null,,html-keyboard-response,1286601,<p></p>,,,,null,,,,,,,,,,,,,,
2020.2000000476837,,directmemory_phase,1288624,GW/camera.jpg,,,,51,,,1,0.6666666666666666,GW/globe.jpg,GW/soldier.jpg,GW/teeth.jpg,GW/teeth.jpg,GW/soldier.jpg,GW/globe.jpg,1,,,
null,,html-keyboard-response,1289629,<p></p>,,,,null,,,,,,,,,,,,,,
4112.800000011921,,directmemory_phase,1293744,GW/snail.jpg,,,,51,,,1,0.6923076923076923,GW/barrel.jpg,GW/camera.jpg,GW/paint.jpg,GW/paint.jpg,GW/camera.jpg,GW/barrel.jpg,1,,,
null,,html-keyboard-response,1294749,<p></p>,,,,null,,,,,,,,,,,,,,
1640.4000000357628,,directmemory_phase,1296392,GW/wheelchair.jpg,,,,51,,,1,0.7142857142857143,GW/paint.jpg,GW/soldier.jpg,GW/dustpan.jpg,GW/dustpan.jpg,GW/soldier.jpg,GW/paint.jpg,1,,,
null,,html-keyboard-response,1297397,<p></p>,,,,null,,,,,,,,,,,,,,
2870.5,,directmemory_phase,1300270,GW/hat.jpg,,,,49,,,1,0.7333333333333333,GW/camera.jpg,GW/dustpan.jpg,GW/paint.jpg,GW/camera.jpg,GW/paint.jpg,GW/dustpan.jpg,1,,,
null,,html-keyboard-response,1301282,<p></p>,,,,null,,,,,,,,,,,,,,
2827.699999988079,,directmemory_phase,1304112,GW/soldier.jpg,,,,50,,,0,0.6875,GW/dustpan.jpg,GW/snail.jpg,GW/teeth.jpg,GW/teeth.jpg,GW/snail.jpg,GW/dustpan.jpg,0.5,closer,,
null,,html-keyboard-response,1305117,<p></p>,,,,null,,,,,,,,,,,,,,
4680.099999964237,,directmemory_phase,1309800,GW/snail.jpg,,,,50,,,0,0.6470588235294118,GW/wheelchair.jpg,GW/globe.jpg,GW/basket.jpg,GW/basket.jpg,GW/globe.jpg,GW/wheelchair.jpg,0.5,closer,,
null,,html-keyboard-response,1310805,<p></p>,,,,null,,,,,,,,,,,,,,
2983.399999976158,,directmemory_phase,1313791,GW/wheelchair.jpg,,,,49,,,0,0.6111111111111112,GW/soldier.jpg,GW/teeth.jpg,GW/gong.jpg,GW/teeth.jpg,GW/soldier.jpg,GW/gong.jpg,0.5,closer,,
null,,html-keyboard-response,1314804,<p></p>,,,,null,,,,,,,,,,,,,,
1454.3999999761581,,directmemory_phase,1316261,GW/hat.jpg,,,,51,,,1,0.631578947368421,GW/barrel.jpg,GW/basket.jpg,GW/snail.jpg,GW/snail.jpg,GW/basket.jpg,GW/barrel.jpg,1,,,
null,,html-keyboard-response,1317264,<p></p>,,,,null,,,,,,,,,,,,,,
1733.5999999642372,,directmemory_phase,1319001,GW/teeth.jpg,,,,50,,,0,0.6,GW/basket.jpg,GW/hat.jpg,GW/wheelchair.jpg,GW/wheelchair.jpg,GW/hat.jpg,GW/basket.jpg,0.5,closer,,
null,,html-keyboard-response,1320005,<p></p>,,,,null,,,,,,,,,,,,,,
1601,,directmemory_phase,1321609,GW/soldier.jpg,,,,49,,,0,0.5714285714285714,GW/dustpan.jpg,GW/snail.jpg,GW/hat.jpg,GW/hat.jpg,GW/snail.jpg,GW/dustpan.jpg,0.5,closer,,
null,,html-keyboard-response,1322613,<p></p>,,,,null,,,,,,,,,,,,,,
1623.699999988079,,directmemory_phase,1324240,GW/paint.jpg,,,,50,,,0,0.5454545454545454,GW/teeth.jpg,GW/basket.jpg,GW/snail.jpg,GW/snail.jpg,GW/basket.jpg,GW/teeth.jpg,0.5,closer,,
null,,html-keyboard-response,1325244,<p></p>,,,,null,,,,,,,,,,,,,,
1330,,directmemory_phase,1326577,GW/gong.jpg,,,,51,,,0,0.5217391304347826,GW/snail.jpg,GW/soldier.jpg,GW/paint.jpg,GW/soldier.jpg,GW/snail.jpg,GW/paint.jpg,0.5,closer,,
null,,html-keyboard-response,1327581,<p></p>,,,,null,,,,,,,,,,,,,,
1572.9000000357628,,directmemory_phase,1329157,GW/snail.jpg,,,,49,,,1,0.5416666666666666,GW/hat.jpg,GW/teeth.jpg,GW/soldier.jpg,GW/hat.jpg,GW/soldier.jpg,GW/teeth.jpg,1,,,
null,,html-keyboard-response,1330162,<p></p>,,,,null,,,,,,,,,,,,,,
1529.8999999761581,,directmemory_phase,1331695,GW/camera.jpg,,,,50,,,0,0.52,GW/wheelchair.jpg,GW/basket.jpg,GW/soldier.jpg,GW/wheelchair.jpg,GW/soldier.jpg,GW/basket.jpg,0.5,closer,,
null,,html-keyboard-response,1332699,<p></p>,,,,null,,,,,,,,,,,,,,
1912.2000000476837,,directmemory_phase,1334614,GW/teeth.jpg,,,,49,,,1,0.5384615384615384,GW/soldier.jpg,GW/snail.jpg,GW/jukebox.jpg,GW/soldier.jpg,GW/jukebox.jpg,GW/snail.jpg,1,,,
null,,html-keyboard-response,1335619,<p></p>,,,,null,,,,,,,,,,,,,,
1631.2000000476837,,directmemory_phase,1337252,GW/wheelchair.jpg,,,,50,,,0,0.5185185185185185,GW/camera.jpg,GW/basket.jpg,GW/soldier.jpg,GW/camera.jpg,GW/soldier.jpg,GW/basket.jpg,0.5,closer,,
null,,html-keyboard-response,1338257,<p></p>,,,,null,,,,,,,,,,,,,,
1552.9000000357628,,directmemory_phase,1339813,GW/teeth.jpg,,,,49,,,1,0.5357142857142857,GW/barrel.jpg,GW/snail.jpg,GW/dustpan.jpg,GW/barrel.jpg,GW/dustpan.jpg,GW/snail.jpg,1,,,
null,,html-keyboard-response,1340817,<p></p>,,,,null,,,,,,,,,,,,,,
1256.800000011921,,directmemory_phase,1342075,GW/basket.jpg,,,,50,,,0,0.5172413793103449,GW/globe.jpg,GW/teeth.jpg,GW/hat.jpg,GW/globe.jpg,GW/hat.jpg,GW/teeth.jpg,0.5,closer,,
null,,html-keyboard-response,1343085,<p></p>,,,,null,,,,,,,,,,,,,,
1475.300000011921,,directmemory_phase,1344563,GW/teeth.jpg,,,,51,,,1,0.5333333333333333,GW/snail.jpg,GW/gong.jpg,GW/camera.jpg,GW/camera.jpg,GW/gong.jpg,GW/snail.jpg,1,,,
null,,html-keyboard-response,1345568,<p></p>,,,,null,,,,,,,,,,,,,,
2886.699999988079,,directmemory_phase,1348458,GW/barrel.jpg,,,,50,,,1,0.5483870967741935,GW/dustpan.jpg,GW/jukebox.jpg,GW/gong.jpg,GW/jukebox.jpg,GW/dustpan.jpg,GW/gong.jpg,1,,,
null,,html-keyboard-response,1349463,<p></p>,,,,null,,,,,,,,,,,,,,
2318.100000023842,,directmemory_phase,1351783,,,,,51,,,1,0.5625,,,,,,,0.5,closer,,
null,,html-keyboard-response,1352788,<p></p>,,,,null,,,,,,,,,,,,,,
18827.19999998808,,intro_1,1371618,instruct,,0,,,,,,,,,,,,,,,,
10313.400000035763,,intro_2,1381934,instruct,,1,Next,,,,,,,,,,,,,,,
9979.300000011921,,intro_3,1391917,instruct,,1,Next,,,,,,,,,,,,,,,
19508.5,,intro_4,1411430,instruct,,1,Next,,,,,,,,,,,,,,,
23696,,intro_5,1435129,instruct,,1,Next,,,,,,,,,,,,,,,
14721.399999976158,,intro_6,1449854,instruct,,1,Next,,,,,,,,,,,,,,,
11149.5,,intro_7,1461006,instruct,,1,Next,,,,,,,,,,,,,,,
64773.89999997616,,intro_8,1525783,instruct,,1,Next,,,,,,,,,,,,,,,
1997.3999999761581,,shortestpath_phase,1527783,GW/paint.jpg,,,,49,GW/jukebox.jpg,GW/dustpan.jpg,0,0,,,,GW/dustpan.jpg,,,,,One Edge Diff,Five Edge Six Edge
null,,html-keyboard-response,1528790,<p></p>,,,,null,,,,,,,,,,,,,,
2263.399999976158,,shortestpath_phase,1531056,GW/jukebox.jpg,,,,49,GW/basket.jpg,GW/globe.jpg,1,0.5,,,,GW/basket.jpg,,,,,One Edge Diff,Five Edge Six Edge
null,,html-keyboard-response,1532060,<p></p>,,,,null,,,,,,,,,,,,,,
4234.899999976158,,shortestpath_phase,1536296,GW/globe.jpg,,,,50,GW/teeth.jpg,GW/snail.jpg,1,0.6666666666666666,,,,GW/snail.jpg,,,,,Two Edge Diff,Two Edge Four Edge
null,,html-keyboard-response,1537300,<p></p>,,,,null,,,,,,,,,,,,,,
3779.600000023842,,shortestpath_phase,1541083,GW/basket.jpg,,,,49,GW/wheelchair.jpg,GW/dustpan.jpg,1,0.75,,,,GW/wheelchair.jpg,,,,,One Edge Diff,Four Edge Five Edge
null,,html-keyboard-response,1542087,<p></p>,,,,null,,,,,,,,,,,,,,
1959.699999988079,,shortestpath_phase,1544050,GW/globe.jpg,,,,50,GW/jukebox.jpg,GW/camera.jpg,1,0.8,,,,GW/camera.jpg,,,,,Two Edge Diff,Four Edge Six Edge
null,,html-keyboard-response,1545055,<p></p>,,,,null,,,,,,,,,,,,,,
1690.1000000238419,,shortestpath_phase,1546747,GW/jukebox.jpg,,,,49,GW/dustpan.jpg,GW/teeth.jpg,0,0.6666666666666666,,,,GW/teeth.jpg,,,,,One Edge Diff,Two Edge Three Edge
null,,html-keyboard-response,1547752,<p></p>,,,,null,,,,,,,,,,,,,,
2378.699999988079,,shortestpath_phase,1550133,GW/barrel.jpg,,,,50,GW/soldier.jpg,GW/paint.jpg,0,0.5714285714285714,,,,GW/soldier.jpg,,,,,Three Edge Diff,Three Edge Six Edge
null,,html-keyboard-response,1551138,<p></p>,,,,null,,,,,,,,,,,,,,
1721.8999999761581,,shortestpath_phase,1552863,GW/snail.jpg,,,,49,GW/teeth.jpg,GW/dustpan.jpg,1,0.625,,,,GW/teeth.jpg,,,,,One Edge Diff,Three Edge Four Edge
null,,html-keyboard-response,1553868,<p></p>,,,,null,,,,,,,,,,,,,,
1466.800000011921,,shortestpath_phase,1555338,GW/jukebox.jpg,,,,50,GW/paint.jpg,GW/basket.jpg,1,0.6666666666666666,,,,GW/basket.jpg,,,,,One Edge Diff,Five Edge Six Edge
null,,html-keyboard-response,1556344,<p></p>,,,,null,,,,,,,,,,,,,,
1526.300000011921,,shortestpath_phase,1557873,GW/globe.jpg,,,,50,GW/teeth.jpg,GW/barrel.jpg,0,0.6,,,,GW/teeth.jpg,,,,,One Edge Diff,Four Edge Five Edge
null,,html-keyboard-response,1558878,<p></p>,,,,null,,,,,,,,,,,,,,
2852.900000035763,,shortestpath_phase,1561734,GW/jukebox.jpg,,,,50,GW/paint.jpg,GW/snail.jpg,1,0.6363636363636364,,,,GW/snail.jpg,,,,,One Edge Diff,Five Edge Six Edge
null,,html-keyboard-response,1562738,<p></p>,,,,null,,,,,,,,,,,,,,
1731.300000011921,,shortestpath_phase,1564473,GW/dustpan.jpg,,,,49,GW/teeth.jpg,GW/paint.jpg,1,0.6666666666666666,,,,GW/teeth.jpg,,,,,Three Edge Diff,Three Edge Six Edge
null,,html-keyboard-response,1565476,<p></p>,,,,null,,,,,,,,,,,,,,
2501.900000035763,,shortestpath_phase,1567981,GW/soldier.jpg,,,,49,GW/basket.jpg,GW/paint.jpg,1,0.6923076923076923,,,,GW/basket.jpg,,,,,One Edge Diff,Two Edge Three Edge
null,,html-keyboard-response,1568986,<p></p>,,,,null,,,,,,,,,,,,,,
4137.600000023842,,shortestpath_phase,1573126,GW/paint.jpg,,,,50,GW/teeth.jpg,GW/barrel.jpg,0,0.6428571428571429,,,,GW/teeth.jpg,,,,,One Edge Diff,Four Edge Five Edge
null,,html-keyboard-response,1574145,<p></p>,,,,null,,,,,,,,,,,,,,
2181.100000023842,,shortestpath_phase,1576329,GW/globe.jpg,,,,49,GW/snail.jpg,GW/wheelchair.jpg,1,0.6666666666666666,,,,GW/snail.jpg,,,,,Three Edge Diff,Two Edge Five Edge
null,,html-keyboard-response,1577333,<p></p>,,,,null,,,,,,,,,,,,,,
2143.599999964237,,shortestpath_phase,1579480,GW/jukebox.jpg,,,,49,GW/teeth.jpg,GW/globe.jpg,1,0.6875,,,,GW/teeth.jpg,,,,,Four Edge Diff,Two Edge Six Edge
null,,html-keyboard-response,1580486,<p></p>,,,,null,,,,,,,,,,,,,,
2041.4000000357628,,shortestpath_phase,1582530,GW/wheelchair.jpg,,,,50,GW/hat.jpg,GW/paint.jpg,0,0.6470588235294118,,,,GW/hat.jpg,,,,,Two Edge Diff,Two Edge Four Edge
null,,html-keyboard-response,1583536,<p></p>,,,,null,,,,,,,,,,,,,,
1187.6000000238419,,shortestpath_phase,1584726,GW/jukebox.jpg,,,,49,GW/snail.jpg,GW/dustpan.jpg,0,0.6111111111111112,,,,GW/dustpan.jpg,,,,,Two Edge Diff,Three Edge Five Edge
null,,html-keyboard-response,1585731,<p></p>,,,,null,,,,,,,,,,,,,,
2579.5,,shortestpath_phase,1588314,GW/globe.jpg,,,,49,GW/jukebox.jpg,GW/snail.jpg,0,0.5789473684210527,,,,GW/snail.jpg,,,,,Four Edge Diff,Two Edge Six Edge
null,,html-keyboard-response,1589319,<p></p>,,,,null,,,,,,,,,,,,,,
2969.800000011921,,shortestpath_phase,1592292,GW/dustpan.jpg,,,,50,GW/basket.jpg,GW/hat.jpg,1,0.6,,,,GW/hat.jpg,,,,,Two Edge Diff,Three Edge Five Edge
null,,html-keyboard-response,1593298,<p></p>,,,,null,,,,,,,,,,,,,,
1717.800000011921,,shortestpath_phase,1595019,GW/globe.jpg,,,,50,GW/camera.jpg,GW/snail.jpg,1,0.6190476190476191,,,,GW/snail.jpg,,,,,Two Edge Diff,Two Edge Four Edge
null,,html-keyboard-response,1596024,<p></p>,,,,null,,,,,,,,,,,,,,
1199.5,,shortestpath_phase,1597227,GW/paint.jpg,,,,49,GW/camera.jpg,GW/dustpan.jpg,1,0.6363636363636364,,,,GW/camera.jpg,,,,,Two Edge Diff,Three Edge Five Edge
null,,html-keyboard-response,1598232,<p></p>,,,,null,,,,,,,,,,,,,,
1700.199999988079,,shortestpath_phase,1599935,GW/globe.jpg,,,,50,GW/snail.jpg,GW/soldier.jpg,0,0.6086956521739131,,,,GW/snail.jpg,,,,,One Edge Diff,Two Edge Three Edge
null,,html-keyboard-response,1600940,<p></p>,,,,null,,,,,,,,,,,,,,
2555.800000011921,,shortestpath_phase,1603499,GW/wheelchair.jpg,,,,49,GW/globe.jpg,GW/paint.jpg,0,0.5833333333333334,,,,GW/paint.jpg,,,,,One Edge Diff,Four Edge Five Edge
null,,html-keyboard-response,1604505,<p></p>,,,,null,,,,,,,,,,,,,,
1490.5,,shortestpath_phase,1605998,GW/jukebox.jpg,,,,50,GW/snail.jpg,GW/soldier.jpg,1,0.6,,,,GW/soldier.jpg,,,,,Two Edge Diff,Three Edge Five Edge
null,,html-keyboard-response,1607015,<p></p>,,,,null,,,,,,,,,,,,,,
3391.300000011921,,shortestpath_phase,1610409,GW/snail.jpg,,,,50,GW/barrel.jpg,GW/gong.jpg,1,0.6153846153846154,,,,GW/gong.jpg,,,,,Two Edge Diff,Two Edge Four Edge
null,,html-keyboard-response,1611420,<p></p>,,,,null,,,,,,,,,,,,,,
1801.1000000238419,,shortestpath_phase,1613224,GW/jukebox.jpg,,,,49,GW/paint.jpg,GW/wheelchair.jpg,0,0.5925925925925926,,,,GW/wheelchair.jpg,,,,,Four Edge Diff,Two Edge Six Edge
null,,html-keyboard-response,1614242,<p></p>,,,,null,,,,,,,,,,,,,,
3669.900000035763,,shortestpath_phase,1617915,GW/basket.jpg,,,,50,GW/paint.jpg,GW/dustpan.jpg,0,0.5714285714285714,,,,GW/paint.jpg,,,,,Three Edge Diff,Three Edge Six Edge
null,,html-keyboard-response,1618932,<p></p>,,,,null,,,,,,,,,,,,,,
1372.5999999642372,,shortestpath_phase,1620307,GW/wheelchair.jpg,,,,50,GW/basket.jpg,GW/soldier.jpg,1,0.5862068965517241,,,,GW/soldier.jpg,,,,,Two Edge Diff,Two Edge Four Edge
null,,html-keyboard-response,1621310,<p></p>,,,,null,,,,,,,,,,,,,,
3063.899999976158,,shortestpath_phase,1624377,GW/jukebox.jpg,,,,49,GW/teeth.jpg,GW/paint.jpg,1,0.6,,,,GW/teeth.jpg,,,,,Four Edge Diff,Two Edge Six Edge
null,,html-keyboard-response,1625382,<p></p>,,,,null,,,,,,,,,,,,,,
1226.699999988079,,shortestpath_phase,1626611,GW/globe.jpg,,,,49,GW/gong.jpg,GW/paint.jpg,1,0.6129032258064516,,,,GW/gong.jpg,,,,,One Edge Diff,Two Edge Three Edge
null,,html-keyboard-response,1627616,<p></p>,,,,null,,,,,,,,,,,,,,
4342,,shortestpath_phase,1631961,GW/dustpan.jpg,,,,49,GW/teeth.jpg,GW/globe.jpg,1,0.625,,,,GW/teeth.jpg,,,,,Four Edge Diff,Two Edge Six Edge
null,,html-keyboard-response,1632966,<p></p>,,,,null,,,,,,,,,,,,,,
1160.800000011921,,shortestpath_phase,1634130,GW/jukebox.jpg,,,,50,GW/basket.jpg,GW/wheelchair.jpg,1,0.6363636363636364,,,,GW/wheelchair.jpg,,,,,Three Edge Diff,Three Edge Six Edge
null,,html-keyboard-response,1635135,<p></p>,,,,null,,,,,,,,,,,,,,
1855.5,,shortestpath_phase,1636993,GW/soldier.jpg,,,,50,GW/jukebox.jpg,GW/barrel.jpg,1,0.6470588235294118,,,,GW/barrel.jpg,,,,,One Edge Diff,Two Edge Three Edge
null,,html-keyboard-response,1637998,<p></p>,,,,null,,,,,,,,,,,,,,
4289.800000011921,,shortestpath_phase,1642290,GW/dustpan.jpg,,,,49,GW/camera.jpg,GW/basket.jpg,1,0.6571428571428571,,,,GW/camera.jpg,,,,,Three Edge Diff,Three Edge Six Edge
null,,html-keyboard-response,1643295,<p></p>,,,,null,,,,,,,,,,,,,,
1661.9000000357628,,shortestpath_phase,1644959,GW/basket.jpg,,,,49,GW/hat.jpg,GW/jukebox.jpg,1,0.6666666666666666,,,,GW/hat.jpg,,,,,Three Edge Diff,Three Edge Six Edge
null,,html-keyboard-response,1645965,<p></p>,,,,null,,,,,,,,,,,,,,
1747.2000000476837,,shortestpath_phase,1647715,GW/barrel.jpg,,,,50,GW/camera.jpg,GW/basket.jpg,0,0.6486486486486487,,,,GW/camera.jpg,,,,,Two Edge Diff,Two Edge Four Edge
null,,html-keyboard-response,1648726,<p></p>,,,,null,,,,,,,,,,,,,,
1006.8999999761581,,shortestpath_phase,1649735,GW/soldier.jpg,,,,49,GW/wheelchair.jpg,GW/globe.jpg,1,0.6578947368421053,,,,GW/wheelchair.jpg,,,,,One Edge Diff,Two Edge Three Edge
null,,html-keyboard-response,1650739,<p></p>,,,,null,,,,,,,,,,,,,,
776.0999999642372,,shortestpath_phase,1651518,GW/globe.jpg,,,,49,GW/wheelchair.jpg,GW/camera.jpg,0,0.6410256410256411,,,,GW/camera.jpg,,,,,One Edge Diff,Four Edge Five Edge
null,,html-keyboard-response,1652523,<p></p>,,,,null,,,,,,,,,,,,,,
1227.800000011921,,shortestpath_phase,1653753,GW/barrel.jpg,,,,50,GW/globe.jpg,GW/soldier.jpg,1,0.65,,,,GW/soldier.jpg,,,,,Three Edge Diff,Two Edge Five Edge
null,,html-keyboard-response,1654758,<p></p>,,,,null,,,,,,,,,,,,,,
1118.199999988079,,shortestpath_phase,1655880,GW/hat.jpg,,,,50,GW/jukebox.jpg,GW/globe.jpg,1,0.6585365853658537,,,,GW/globe.jpg,,,,,One Edge Diff,Three Edge Four Edge
null,,html-keyboard-response,1656885,<p></p>,,,,null,,,,,,,,,,,,,,
2127.7999999523163,,shortestpath_phase,1659016,GW/barrel.jpg,,,,49,GW/globe.jpg,GW/dustpan.jpg,0,0.6428571428571429,,,,GW/dustpan.jpg,,,,,Three Edge Diff,Three Edge Six Edge
null,,html-keyboard-response,1660021,<p></p>,,,,null,,,,,,,,,,,,,,
1815.300000011921,,shortestpath_phase,1661839,GW/paint.jpg,,,,49,GW/soldier.jpg,GW/teeth.jpg,1,0.6511627906976745,,,,GW/soldier.jpg,,,,,One Edge Diff,Three Edge Four Edge
null,,html-keyboard-response,1662844,<p></p>,,,,null,,,,,,,,,,,,,,
1204.800000011921,,shortestpath_phase,1664052,GW/basket.jpg,,,,49,GW/jukebox.jpg,GW/barrel.jpg,0,0.6363636363636364,,,,GW/barrel.jpg,,,,,One Edge Diff,Four Edge Five Edge
null,,html-keyboard-response,1665056,<p></p>,,,,null,,,,,,,,,,,,,,
1487.6000000238419,,shortestpath_phase,1666547,GW/gong.jpg,,,,50,GW/camera.jpg,GW/dustpan.jpg,0,0.6222222222222222,,,,GW/camera.jpg,,,,,One Edge Diff,Three Edge Four Edge
null,,html-keyboard-response,1667551,<p></p>,,,,null,,,,,,,,,,,,,,
1227,,shortestpath_phase,1668780,GW/globe.jpg,,,,50,GW/jukebox.jpg,GW/wheelchair.jpg,1,0.6304347826086957,,,,GW/wheelchair.jpg,,,,,One Edge Diff,Five Edge Six Edge
null,,html-keyboard-response,1669786,<p></p>,,,,null,,,,,,,,,,,,,,
2008.699999988079,,shortestpath_phase,1671798,GW/jukebox.jpg,,,,49,GW/gong.jpg,GW/paint.jpg,1,0.6382978723404256,,,,GW/gong.jpg,,,,,Two Edge Diff,Four Edge Six Edge
null,,html-keyboard-response,1672803,<p></p>,,,,null,,,,,,,,,,,,,,
3777.199999988079,,shortestpath_phase,1676584,GW/dustpan.jpg,,,,50,GW/teeth.jpg,GW/snail.jpg,0,0.625,,,,GW/teeth.jpg,,,,,Two Edge Diff,Two Edge Four Edge
null,,html-keyboard-response,1677600,<p></p>,,,,null,,,,,,,,,,,,,,
3669.400000035763,,shortestpath_phase,1681273,GW/paint.jpg,,,,50,GW/dustpan.jpg,GW/soldier.jpg,1,0.6326530612244898,,,,GW/soldier.jpg,,,,,Two Edge Diff,Three Edge Five Edge
null,,html-keyboard-response,1682278,<p></p>,,,,null,,,,,,,,,,,,,,
2509.399999976158,,shortestpath_phase,1684790,GW/globe.jpg,,,,49,GW/gong.jpg,GW/dustpan.jpg,1,0.64,,,,GW/gong.jpg,,,,,Four Edge Diff,Two Edge Six Edge
null,,html-keyboard-response,1685801,<p></p>,,,,null,,,,,,,,,,,,,,
2818,,shortestpath_phase,1688622,GW/paint.jpg,,,,49,GW/barrel.jpg,GW/jukebox.jpg,1,0.6470588235294118,,,,GW/barrel.jpg,,,,,One Edge Diff,Five Edge Six Edge
null,,html-keyboard-response,1689627,<p></p>,,,,null,,,,,,,,,,,,,,
1771.7999999523163,,shortestpath_phase,1691402,GW/globe.jpg,,,,50,GW/teeth.jpg,GW/dustpan.jpg,0,0.6346153846153846,,,,GW/teeth.jpg,,,,,Two Edge Diff,Four Edge Six Edge
null,,html-keyboard-response,1692407,<p></p>,,,,null,,,,,,,,,,,,,,
2698.300000011921,,shortestpath_phase,1695108,GW/paint.jpg,,,,50,GW/wheelchair.jpg,GW/jukebox.jpg,0,0.6226415094339622,,,,GW/wheelchair.jpg,,,,,Two Edge Diff,Four Edge Six Edge
null,,html-keyboard-response,1696120,<p></p>,,,,null,,,,,,,,,,,,,,
1667.300000011921,,shortestpath_phase,1697790,GW/dustpan.jpg,,,,49,GW/globe.jpg,GW/snail.jpg,0,0.6111111111111112,,,,GW/snail.jpg,,,,,Two Edge Diff,Four Edge Six Edge
null,,html-keyboard-response,1698796,<p></p>,,,,null,,,,,,,,,,,,,,
2282.300000011921,,shortestpath_phase,1701081,GW/paint.jpg,,,,49,GW/barrel.jpg,GW/hat.jpg,0,0.6,,,,GW/hat.jpg,,,,,Three Edge Diff,Two Edge Five Edge
null,,html-keyboard-response,1702086,<p></p>,,,,null,,,,,,,,,,,,,,
2608.400000035763,,shortestpath_phase,1704697,GW/jukebox.jpg,,,,50,GW/camera.jpg,GW/snail.jpg,0,0.5892857142857143,,,,GW/camera.jpg,,,,,Two Edge Diff,Three Edge Five Edge
null,,html-keyboard-response,1705701,<p></p>,,,,null,,,,,,,,,,,,,,
1971.5,,shortestpath_phase,1707675,GW/globe.jpg,,,,49,GW/wheelchair.jpg,GW/snail.jpg,0,0.5789473684210527,,,,GW/snail.jpg,,,,,Three Edge Diff,Three Edge Six Edge
null,,html-keyboard-response,1708689,<p></p>,,,,null,,,,,,,,,,,,,,
1569.3999999761581,,shortestpath_phase,1710261,GW/jukebox.jpg,,,,50,GW/gong.jpg,GW/globe.jpg,0,0.5689655172413793,,,,GW/gong.jpg,,,,,Two Edge Diff,Four Edge Six Edge
null,,html-keyboard-response,1711272,<p></p>,,,,null,,,,,,,,,,,,,,
1411.5999999642372,,shortestpath_phase,1712687,GW/globe.jpg,,,,50,GW/camera.jpg,GW/dustpan.jpg,0,0.559322033898305,,,,GW/camera.jpg,,,,,Two Edge Diff,Four Edge Six Edge
null,,html-keyboard-response,1713705,<p></p>,,,,null,,,,,,,,,,,,,,
2032.5,,shortestpath_phase,1715741,GW/jukebox.jpg,,,,49,GW/hat.jpg,GW/paint.jpg,1,0.5666666666666667,,,,GW/hat.jpg,,,,,Two Edge Diff,Four Edge Six Edge
null,,html-keyboard-response,1716746,<p></p>,,,,null,,,,,,,,,,,,,,
5608,,shortestpath_phase,1722357,GW/dustpan.jpg,,,,49,GW/globe.jpg,GW/camera.jpg,0,0.5573770491803278,,,,GW/camera.jpg,,,,,Four Edge Diff,Two Edge Six Edge
null,,html-keyboard-response,1723364,<p></p>,,,,null,,,,,,,,,,,,,,
845.9000000357628,,shortestpath_phase,1724213,GW/paint.jpg,,,,49,GW/teeth.jpg,GW/jukebox.jpg,1,0.5645161290322581,,,,GW/teeth.jpg,,,,,Two Edge Diff,Four Edge Six Edge
null,,html-keyboard-response,1725227,<p></p>,,,,null,,,,,,,,,,,,,,
2997.399999976158,,shortestpath_phase,1728227,GW/wheelchair.jpg,,,,50,GW/basket.jpg,GW/hat.jpg,1,0.5714285714285714,,,,GW/hat.jpg,,,,,Two Edge Diff,Two Edge Four Edge
null,,html-keyboard-response,1729241,<p></p>,,,,null,,,,,,,,,,,,,,
2852.5,,shortestpath_phase,1732096,GW/globe.jpg,,,,49,GW/wheelchair.jpg,GW/paint.jpg,0,0.5625,,,,GW/paint.jpg,,,,,Two Edge Diff,Three Edge Five Edge
null,,html-keyboard-response,1733106,<p></p>,,,,null,,,,,,,,,,,,,,
2827.100000023842,,shortestpath_phase,1735936,GW/barrel.jpg,,,,49,GW/paint.jpg,GW/hat.jpg,0,0.5538461538461539,,,,GW/hat.jpg,,,,,Two Edge Diff,Three Edge Five Edge
null,,html-keyboard-response,1736942,<p></p>,,,,null,,,,,,,,,,,,,,
2605.699999988079,,shortestpath_phase,1739552,GW/globe.jpg,,,,50,GW/wheelchair.jpg,GW/gong.jpg,1,0.5606060606060606,,,,GW/gong.jpg,,,,,Three Edge Diff,Two Edge Five Edge
null,,html-keyboard-response,1740557,<p></p>,,,,null,,,,,,,,,,,,,,
3641.600000023842,,shortestpath_phase,1744202,GW/barrel.jpg,,,,50,GW/camera.jpg,GW/globe.jpg,0,0.5522388059701493,,,,GW/camera.jpg,,,,,Three Edge Diff,Two Edge Five Edge
null,,html-keyboard-response,1745207,<p></p>,,,,null,,,,,,,,,,,,,,
2810.199999988079,,shortestpath_phase,1748020,GW/dustpan.jpg,,,,49,GW/globe.jpg,GW/paint.jpg,0,0.5441176470588235,,,,GW/paint.jpg,,,,,One Edge Diff,Five Edge Six Edge
null,,html-keyboard-response,1749024,<p></p>,,,,null,,,,,,,,,,,,,,
2621.199999988079,,shortestpath_phase,1751649,GW/globe.jpg,,,,49,GW/snail.jpg,GW/dustpan.jpg,1,0.5507246376811594,,,,GW/snail.jpg,,,,,Four Edge Diff,Two Edge Six Edge
null,,html-keyboard-response,1752654,<p></p>,,,,null,,,,,,,,,,,,,,
3200.599999964237,,shortestpath_phase,1755858,GW/paint.jpg,,,,50,GW/hat.jpg,GW/jukebox.jpg,0,0.5428571428571428,,,,GW/hat.jpg,,,,,Four Edge Diff,Two Edge Six Edge
null,,html-keyboard-response,1756864,<p></p>,,,,null,,,,,,,,,,,,,,
1481.199999988079,,shortestpath_phase,1758348,GW/jukebox.jpg,,,,50,GW/snail.jpg,GW/globe.jpg,0,0.5352112676056338,,,,GW/snail.jpg,,,,,One Edge Diff,Five Edge Six Edge
null,,html-keyboard-response,1759353,<p></p>,,,,null,,,,,,,,,,,,,,
1792.7000000476837,,shortestpath_phase,1761148,GW/globe.jpg,,,,49,GW/wheelchair.jpg,GW/hat.jpg,0,0.5277777777777778,,,,GW/hat.jpg,,,,,Two Edge Diff,Three Edge Five Edge
null,,html-keyboard-response,1762152,<p></p>,,,,null,,,,,,,,,,,,,,
1759.699999988079,,shortestpath_phase,1763915,GW/jukebox.jpg,,,,50,GW/basket.jpg,GW/wheelchair.jpg,1,0.5342465753424658,,,,GW/wheelchair.jpg,,,,,Three Edge Diff,Two Edge Five Edge
null,,html-keyboard-response,1764931,<p></p>,,,,null,,,,,,,,,,,,,,
1662.7999999523163,,shortestpath_phase,1766597,GW/basket.jpg,,,,50,GW/hat.jpg,GW/wheelchair.jpg,0,0.527027027027027,,,,GW/hat.jpg,,,,,Two Edge Diff,Two Edge Four Edge
null,,html-keyboard-response,1767603,<p></p>,,,,null,,,,,,,,,,,,,,
2290.100000023842,,shortestpath_phase,1769895,GW/snail.jpg,,,,50,GW/globe.jpg,GW/jukebox.jpg,0,0.52,,,,GW/globe.jpg,,,,,Three Edge Diff,Two Edge Five Edge
null,,html-keyboard-response,1770910,<p></p>,,,,null,,,,,,,,,,,,,,
1511.5999999642372,,shortestpath_phase,1772425,GW/jukebox.jpg,,,,50,GW/hat.jpg,GW/globe.jpg,0,0.5131578947368421,,,,GW/hat.jpg,,,,,Two Edge Diff,Four Edge Six Edge
null,,html-keyboard-response,1773431,<p></p>,,,,null,,,,,,,,,,,,,,
2053.300000011921,,shortestpath_phase,1775487,GW/teeth.jpg,,,,50,GW/globe.jpg,GW/basket.jpg,1,0.5194805194805194,,,,GW/basket.jpg,,,,,One Edge Diff,Three Edge Four Edge
null,,html-keyboard-response,1776492,<p></p>,,,,null,,,,,,,,,,,,,,
1199.199999988079,,shortestpath_phase,1777694,GW/paint.jpg,,,,49,GW/hat.jpg,GW/dustpan.jpg,1,0.5256410256410257,,,,GW/hat.jpg,,,,,Three Edge Diff,Two Edge Five Edge
null,,html-keyboard-response,1778699,<p></p>,,,,null,,,,,,,,,,,,,,
1444.3999999761581,,shortestpath_phase,1780145,GW/jukebox.jpg,,,,50,GW/basket.jpg,GW/teeth.jpg,1,0.5316455696202531,,,,GW/teeth.jpg,,,,,Three Edge Diff,Three Edge Six Edge
null,,html-keyboard-response,1781152,<p></p>,,,,null,,,,,,,,,,,,,,
1673.7000000476837,,shortestpath_phase,1782828,GW/globe.jpg,,,,49,GW/dustpan.jpg,GW/wheelchair.jpg,0,0.525,,,,GW/wheelchair.jpg,,,,,One Edge Diff,Five Edge Six Edge
null,,html-keyboard-response,1783835,<p></p>,,,,null,,,,,,,,,,,,,,
1282.300000011921,,shortestpath_phase,1785120,GW/soldier.jpg,,,,49,GW/snail.jpg,GW/dustpan.jpg,1,0.5308641975308642,,,,GW/snail.jpg,,,,,One Edge Diff,Two Edge Three Edge
null,,html-keyboard-response,1786125,<p></p>,,,,null,,,,,,,,,,,,,,
1451.5,,shortestpath_phase,1787580,GW/jukebox.jpg,,,,49,GW/globe.jpg,GW/wheelchair.jpg,0,0.524390243902439,,,,GW/wheelchair.jpg,,,,,Four Edge Diff,Two Edge Six Edge
null,,html-keyboard-response,1788586,<p></p>,,,,null,,,,,,,,,,,,,,
2144.199999988079,,shortestpath_phase,1790733,GW/globe.jpg,,,,50,GW/barrel.jpg,GW/dustpan.jpg,0,0.5180722891566265,,,,GW/barrel.jpg,,,,,One Edge Diff,Five Edge Six Edge
null,,html-keyboard-response,1791738,<p></p>,,,,null,,,,,,,,,,,,,,
1163.8999999761581,,shortestpath_phase,1792905,GW/gong.jpg,,,,50,GW/hat.jpg,GW/paint.jpg,0,0.5119047619047619,,,,GW/hat.jpg,,,,,One Edge Diff,Two Edge Three Edge
null,,html-keyboard-response,1793909,<p></p>,,,,null,,,,,,,,,,,,,,
3150.300000011921,,shortestpath_phase,1797062,GW/globe.jpg,,,,49,GW/jukebox.jpg,GW/barrel.jpg,0,0.5058823529411764,,,,GW/barrel.jpg,,,,,One Edge Diff,Five Edge Six Edge
null,,html-keyboard-response,1798067,<p></p>,,,,null,,,,,,,,,,,,,,
2670.300000011921,,shortestpath_phase,1800741,GW/gong.jpg,,,,49,GW/jukebox.jpg,GW/wheelchair.jpg,0,0.5,,,,GW/wheelchair.jpg,,,,,One Edge Diff,Three Edge Four Edge
null,,html-keyboard-response,1801753,<p></p>,,,,null,,,,,,,,,,,,,,
856.8999999761581,,shortestpath_phase,1802612,GW/globe.jpg,,,,50,GW/teeth.jpg,GW/wheelchair.jpg,0,0.4942528735632184,,,,GW/teeth.jpg,,,,,One Edge Diff,Four Edge Five Edge
null,,html-keyboard-response,1803618,<p></p>,,,,null,,,,,,,,,,,,,,
909.2999999523163,,shortestpath_phase,1804530,GW/soldier.jpg,,,,49,GW/paint.jpg,GW/barrel.jpg,0,0.48863636363636365,,,,GW/barrel.jpg,,,,,One Edge Diff,Two Edge Three Edge
null,,html-keyboard-response,1805535,<p></p>,,,,null,,,,,,,,,,,,,,
2551.899999976158,,shortestpath_phase,1808090,GW/paint.jpg,,,,49,GW/globe.jpg,GW/wheelchair.jpg,1,0.4943820224719101,,,,GW/globe.jpg,,,,,One Edge Diff,Three Edge Four Edge
null,,html-keyboard-response,1809102,<p></p>,,,,null,,,,,,,,,,,,,,
1721.3999999761581,,shortestpath_phase,1810826,GW/hat.jpg,,,,49,GW/dustpan.jpg,GW/basket.jpg,0,0.4888888888888889,,,,GW/basket.jpg,,,,,One Edge Diff,Two Edge Three Edge
null,,html-keyboard-response,1811831,<p></p>,,,,null,,,,,,,,,,,,,,
2405.5,,shortestpath_phase,1814240,GW/snail.jpg,,,,49,GW/globe.jpg,GW/jukebox.jpg,1,0.4945054945054945,,,,GW/globe.jpg,,,,,Three Edge Diff,Three Edge Six Edge
null,,html-keyboard-response,1815245,<p></p>,,,,null,,,,,,,,,,,,,,
1085.5,,shortestpath_phase,1816333,GW/dustpan.jpg,,,,50,GW/globe.jpg,GW/gong.jpg,1,0.5,,,,GW/gong.jpg,,,,,Two Edge Diff,Four Edge Six Edge
null,,html-keyboard-response,1817339,<p></p>,,,,null,,,,,,,,,,,,,,
1733.5,,shortestpath_phase,1819076,GW/globe.jpg,,,,50,GW/jukebox.jpg,GW/teeth.jpg,1,0.5053763440860215,,,,GW/teeth.jpg,,,,,Two Edge Diff,Four Edge Six Edge
null,,html-keyboard-response,1820084,<p></p>,,,,null,,,,,,,,,,,,,,
3288.100000023842,,shortestpath_phase,1823375,GW/snail.jpg,,,,50,GW/jukebox.jpg,GW/barrel.jpg,1,0.5106382978723404,,,,GW/barrel.jpg,,,,,One Edge Diff,Four Edge Five Edge
null,,html-keyboard-response,1824381,<p></p>,,,,null,,,,,,,,,,,,,,
944.3000000119209,,shortestpath_phase,1825328,GW/globe.jpg,,,,49,GW/jukebox.jpg,GW/gong.jpg,0,0.5052631578947369,,,,GW/gong.jpg,,,,,Four Edge Diff,Two Edge Six Edge
null,,html-keyboard-response,1826334,<p></p>,,,,null,,,,,,,,,,,,,,
3544.899999976158,,shortestpath_phase,1829882,GW/paint.jpg,,,,50,GW/dustpan.jpg,GW/basket.jpg,1,0.5104166666666666,,,,GW/basket.jpg,,,,,Three Edge Diff,Two Edge Five Edge
null,,html-keyboard-response,1830888,<p></p>,,,,null,,,,,,,,,,,,,,
2040.8999999761581,,shortestpath_phase,1832932,GW/globe.jpg,,,,50,GW/gong.jpg,GW/camera.jpg,0,0.5051546391752577,,,,GW/gong.jpg,,,,,Two Edge Diff,Two Edge Four Edge
null,,html-keyboard-response,1833938,<p></p>,,,,null,,,,,,,,,,,,,,
1407.8999999761581,,shortestpath_phase,1835348,GW/basket.jpg,,,,49,GW/wheelchair.jpg,GW/camera.jpg,0,0.5,,,,GW/camera.jpg,,,,,One Edge Diff,Three Edge Four Edge
null,,html-keyboard-response,1836352,<p></p>,,,,null,,,,,,,,,,,,,,
3881.100000023842,,shortestpath_phase,1840236,GW/snail.jpg,,,,49,GW/gong.jpg,GW/jukebox.jpg,1,0.5050505050505051,,,,GW/gong.jpg,,,,,Three Edge Diff,Three Edge Six Edge
null,,html-keyboard-response,1841241,<p></p>,,,,null,,,,,,,,,,,,,,
2123.599999964237,,shortestpath_phase,1843368,GW/jukebox.jpg,,,,50,GW/hat.jpg,GW/basket.jpg,0,0.5,,,,GW/hat.jpg,,,,,One Edge Diff,Four Edge Five Edge
null,,html-keyboard-response,1844373,<p></p>,,,,null,,,,,,,,,,,,,,
2566.600000023842,,shortestpath_phase,1846942,GW/snail.jpg,,,,49,GW/soldier.jpg,GW/jukebox.jpg,1,0.504950495049505,,,,GW/soldier.jpg,,,,,Three Edge Diff,Three Edge Six Edge
null,,html-keyboard-response,1847959,<p></p>,,,,null,,,,,,,,,,,,,,
3155.199999988079,,shortestpath_phase,1851117,GW/dustpan.jpg,,,,50,GW/globe.jpg,GW/basket.jpg,1,0.5098039215686274,,,,GW/basket.jpg,,,,,One Edge Diff,Five Edge Six Edge
null,,html-keyboard-response,1852122,<p></p>,,,,null,,,,,,,,,,,,,,
649.3999999761581,,shortestpath_phase,1852775,GW/wheelchair.jpg,,,,49,GW/snail.jpg,GW/globe.jpg,1,0.5145631067961165,,,,GW/snail.jpg,,,,,Two Edge Diff,Three Edge Five Edge
null,,html-keyboard-response,1853780,<p></p>,,,,null,,,,,,,,,,,,,,
1334,,shortestpath_phase,1855116,GW/hat.jpg,,,,49,GW/teeth.jpg,GW/globe.jpg,1,0.5192307692307693,,,,GW/teeth.jpg,,,,,One Edge Diff,Two Edge Three Edge
null,,html-keyboard-response,1856120,<p></p>,,,,null,,,,,,,,,,,,,,
2683.100000023842,,shortestpath_phase,1858805,GW/wheelchair.jpg,,,,50,GW/snail.jpg,GW/paint.jpg,0,0.5142857142857142,,,,GW/snail.jpg,,,,,One Edge Diff,Three Edge Four Edge
null,,html-keyboard-response,1859811,<p></p>,,,,null,,,,,,,,,,,,,,
1049.6000000238419,,shortestpath_phase,1860863,GW/paint.jpg,,,,49,GW/wheelchair.jpg,GW/gong.jpg,0,0.5094339622641509,,,,GW/gong.jpg,,,,,One Edge Diff,Three Edge Four Edge
null,,html-keyboard-response,1861866,<p></p>,,,,null,,,,,,,,,,,,,,
2761.199999988079,,shortestpath_phase,1864630,GW/snail.jpg,,,,50,GW/dustpan.jpg,GW/soldier.jpg,1,0.514018691588785,,,,GW/soldier.jpg,,,,,Two Edge Diff,Two Edge Four Edge
null,,html-keyboard-response,1865636,<p></p>,,,,null,,,,,,,,,,,,,,
1086.800000011921,,shortestpath_phase,1866726,GW/dustpan.jpg,,,,49,GW/gong.jpg,GW/basket.jpg,1,0.5185185185185185,,,,GW/gong.jpg,,,,,One Edge Diff,Four Edge Five Edge
null,,html-keyboard-response,1867731,<p></p>,,,,null,,,,,,,,,,,,,,
1632.5,,shortestpath_phase,1869367,GW/snail.jpg,,,,49,GW/jukebox.jpg,GW/soldier.jpg,0,0.5137614678899083,,,,GW/soldier.jpg,,,,,Three Edge Diff,Two Edge Five Edge
null,,html-keyboard-response,1870371,<p></p>,,,,null,,,,,,,,,,,,,,
1259.5,,shortestpath_phase,1871634,GW/dustpan.jpg,,,,50,GW/globe.jpg,GW/barrel.jpg,1,0.5181818181818182,,,,GW/barrel.jpg,,,,,Four Edge Diff,Two Edge Six Edge
null,,html-keyboard-response,1872640,<p></p>,,,,null,,,,,,,,,,,,,,
696.6000000238419,,shortestpath_phase,1873339,GW/jukebox.jpg,,,,49,GW/camera.jpg,GW/hat.jpg,1,0.5225225225225225,,,,GW/camera.jpg,,,,,One Edge Diff,Three Edge Four Edge
null,,html-keyboard-response,1874346,<p></p>,,,,null,,,,,,,,,,,,,,
915.0999999642372,,shortestpath_phase,1875264,GW/dustpan.jpg,,,,49,GW/paint.jpg,GW/teeth.jpg,0,0.5178571428571429,,,,GW/teeth.jpg,,,,,Three Edge Diff,Two Edge Five Edge
null,,html-keyboard-response,1876282,<p></p>,,,,null,,,,,,,,,,,,,,
849,,shortestpath_phase,1877133,GW/jukebox.jpg,,,,49,GW/soldier.jpg,GW/gong.jpg,1,0.5221238938053098,,,,GW/soldier.jpg,,,,,One Edge Diff,Three Edge Four Edge
null,,html-keyboard-response,1878138,<p></p>,,,,null,,,,,,,,,,,,,,
791,,shortestpath_phase,1878932,GW/basket.jpg,,,,49,GW/teeth.jpg,GW/dustpan.jpg,1,0.5263157894736842,,,,GW/teeth.jpg,,,,,Two Edge Diff,Three Edge Five Edge
null,,html-keyboard-response,1879937,<p></p>,,,,null,,,,,,,,,,,,,,
834.8000000119209,,shortestpath_phase,1880775,GW/jukebox.jpg,,,,49,GW/snail.jpg,GW/gong.jpg,0,0.5217391304347826,,,,GW/gong.jpg,,,,,One Edge Diff,Four Edge Five Edge
null,,html-keyboard-response,1881781,<p></p>,,,,null,,,,,,,,,,,,,,
752.1000000238419,,shortestpath_phase,1882536,GW/basket.jpg,,,,49,GW/soldier.jpg,GW/dustpan.jpg,1,0.5258620689655172,,,,GW/soldier.jpg,,,,,Three Edge Diff,Two Edge Five Edge
null,,html-keyboard-response,1883544,<p></p>,,,,null,,,,,,,,,,,,,,
823.8000000119209,,shortestpath_phase,1884371,GW/gong.jpg,,,,49,GW/barrel.jpg,GW/teeth.jpg,0,0.5213675213675214,,,,GW/teeth.jpg,,,,,One Edge Diff,Two Edge Three Edge
null,,html-keyboard-response,1885374,<p></p>,,,,null,,,,,,,,,,,,,,
683.6000000238419,,shortestpath_phase,1886061,GW/paint.jpg,,,,49,GW/wheelchair.jpg,GW/basket.jpg,0,0.5169491525423728,,,,GW/basket.jpg,,,,,Two Edge Diff,Two Edge Four Edge
null,,html-keyboard-response,1887067,<p></p>,,,,null,,,,,,,,,,,,,,
2697.599999964237,,shortestpath_phase,1889768,GW/barrel.jpg,,,,50,GW/globe.jpg,GW/hat.jpg,1,0.5210084033613446,,,,GW/hat.jpg,,,,,Two Edge Diff,Three Edge Five Edge
null,,html-keyboard-response,1890773,<p></p>,,,,null,,,,,,,,,,,,,,
616.1999999880791,,shortestpath_phase,1891392,GW/paint.jpg,,,,49,GW/basket.jpg,GW/jukebox.jpg,1,0.525,,,,GW/basket.jpg,,,,,Four Edge Diff,Two Edge Six Edge
null,,html-keyboard-response,1892398,<p></p>,,,,null,,,,,,,,,,,,,,
4758,,shortestpath_phase,1897159,,,,,49,,,1,0.5289256198347108,,,,,,,,,One Edge Diff,Four Edge Five Edge
null,,html-keyboard-response,1898165,<p></p>,,,,null,,,,,,,,,,,,,,
37169.5,,intro_1,1935337,instruct,,0,,,,,,,,,,,,,,,,
19943.399999976158,,intro_2,1955285,instruct,,1,Next,,,,,,,,,,,,,,,
4990.800000011921,,intro_3,1960281,instruct,,1,Next,,,,,,,,,,,,,,,
