rt,responses,trial_type,time_elapsed,stimulus,graphorder,button_pressed,response,key_press,stimulus_left,stimulus_right,accuracy,cumulative_accuracy,stimulus_down_left,stimulus_down_mid,stimulus_down_right,stimulus_correct,stimulus_short,stimulus_far,weighted_accuracy,missedtrial,condition,specific_pairs
29383.299999952316,{worker_id:67e2f86dfcb60829d2e451d3},id_enter,29385,id_enter,GW/teeth.jpg; GW/snail.jpg; GW/globe.jpg; GW/dustpan.jpg; GW/basket.jpg; GW/barrel.jpg; GW/gong.jpg; GW/camera.jpg; GW/wheelchair.jpg; GW/paint.jpg; GW/jukebox.jpg; GW/hat.jpg; GW/soldier.jpg,,,,,,,,,,,,,,,,,
11932.800000071526,,fullscreen,41530,fullscreen,,0,,,,,,,,,,,,,,,,
13371.699999928474,,intro_1,54990,instruct,,0,,,,,,,,,,,,,,,,
17309.899999976158,,intro_2,72308,instruct,,1,Next,,,,,,,,,,,,,,,
15918.5,,intro_3,88234,instruct,,1,Next,,,,,,,,,,,,,,,
null,,learn_prac_1,90244,lean_prac_1,,,,null,,,,,,,,,,,,,,
null,,html-keyboard-response,91250,<p></p>,,,,null,,,,,,,,,,,,,,
6955.600000023842,,intro_1,98208,instruct,,0,,,,,,,,,,,,,,,,
8321.699999928474,,intro_2,106535,instruct,,1,Next,,,,,,,,,,,,,,,
null,,learn_prac_2,108544,lean_prac_2,,,,null,,,,,,,,,,,,,,
null,,html-keyboard-response,109550,<p></p>,,,,null,,,,,,,,,,,,,,
2553.600000023842,,intro_1,112106,instruct,,0,,,,,,,,,,,,,,,,
6986.600000023842,,intro_2,119096,instruct,,1,Next,,,,,,,,,,,,,,,
27667.700000047684,,intro_3,146767,instruct,,1,Next,,,,,,,,,,,,,,,
null,,prac_atten_color_black,147344,black_plus_sign,,,,null,,,,,,,,,,,,,,
null,,prac_atten_color,148185,prac_stop_color,,,,null,,,,,,,,,,,,,,
69.60000002384186,,prac_atten_color_black,150190,black_plus_sign,,,,49,,,,,,,,,,,,,,
null,,prac_atten_color_black,150764,black_plus_sign,,,,null,,,,,,,,,,,,,,
509.60000002384186,,prac_atten_color,151743,prac_stop_color,,,,50,,,,,,,,,,,,,,
null,,prac_atten_color_black,153759,black_plus_sign,,,,null,,,,,,,,,,,,,,
null,,prac_atten_color_black,154190,black_plus_sign,,,,null,,,,,,,,,,,,,,
523.6000000238419,,prac_atten_color,154855,prac_stop_color,,,,50,,,,,,,,,,,,,,
null,,prac_atten_color_black,156863,black_plus_sign,,,,null,,,,,,,,,,,,,,
null,,prac_atten_color_black,157620,black_plus_sign,,,,null,,,,,,,,,,,,,,
null,,prac_atten_color,158232,prac_stop_color,,,,null,,,,,,,,,,,,,,
13,,prac_atten_color_black,160233,black_plus_sign,,,,49,,,,,,,,,,,,,,
null,,prac_atten_color_black,161036,black_plus_sign,,,,null,,,,,,,,,,,,,,
null,,prac_atten_color,161512,prac_stop_color,,,,null,,,,,,,,,,,,,,
143.59999990463257,,prac_atten_color_black,163521,black_plus_sign,,,,50,,,,,,,,,,,,,,
null,,prac_atten_color_black,164465,black_plus_sign,,,,null,,,,,,,,,,,,,,
443.40000009536743,,prac_atten_color,165227,prac_stop_color,,,,50,,,,,,,,,,,,,,
null,,prac_atten_color_black,167236,black_plus_sign,,,,null,,,,,,,,,,,,,,
null,,prac_atten_color_black,167886,black_plus_sign,,,,null,,,,,,,,,,,,,,
637.5,,prac_atten_color,168730,prac_stop_color,,,,49,,,,,,,,,,,,,,
null,,prac_atten_color_black,170737,black_plus_sign,,,,null,,,,,,,,,,,,,,
null,,prac_atten_color_black,171305,black_plus_sign,,,,null,,,,,,,,,,,,,,
645,,prac_atten_color,171990,prac_stop_color,,,,50,,,,,,,,,,,,,,
null,,prac_atten_color_black,174007,black_plus_sign,,,,null,,,,,,,,,,,,,,
null,,prac_atten_color_black,174738,black_plus_sign,,,,null,,,,,,,,,,,,,,
671.2000000476837,,prac_atten_color,175744,prac_stop_color,,,,49,,,,,,,,,,,,,,
null,,prac_atten_color_black,177754,black_plus_sign,,,,null,,,,,,,,,,,,,,
null,,prac_atten_color_black,178162,black_plus_sign,,,,null,,,,,,,,,,,,,,
null,,prac_atten_color,178626,prac_stop_color,,,,null,,,,,,,,,,,,,,
593.2000000476837,,prac_atten_color_black,180635,black_plus_sign,,,,49,,,,,,,,,,,,,,
6477.799999952316,,attentioncheck_feedback,187116,cross_check_feedback,,0,,,,,,,,,,,,,,,,
26179.799999952316,,last_instruct,213298,instruct,,,,32,,,,,,,,,,,,,,
null,,learn_phase(without_color),215305,black_plus_sign,,,,null,GW/barrel.jpg,GW/gong.jpg,,,,,,,,,,,,
null,,black_cross(without_color),216227,blue,,,,null,GW/barrel.jpg,GW/gong.jpg,,,,,,,,,,,,
null,,rt_plussign_withcolor,216732,blue,,,,null,GW/barrel.jpg,GW/gong.jpg,,,,,,,,,,,,
1510.1000000238419,,rt_thecrossant_black,217819,black_plus_sign,,,,49,,,1,1,,,,,,,,,,
null,,color_black,217929,black_plus_sign,,,,null,,,,,,,,,,,,,,
null,,learn_phase(without_color),219934,black_plus_sign,,,,null,GW/dustpan.jpg,GW/hat.jpg,,,,,,,,,,,,
null,,black_cross(without_color),220806,green,,,,null,GW/dustpan.jpg,GW/hat.jpg,,,,,,,,,,,,
null,,rt_plussign_withcolor,221310,green,,,,null,GW/dustpan.jpg,GW/hat.jpg,,,,,,,,,,,,
886.5999999046326,,rt_thecrossant_black,222460,black_plus_sign,,,,50,,,1,1,,,,,,,,,,
null,,color_black,222567,black_plus_sign,,,,null,,,,,,,,,,,,,,
null,,learn_phase(without_color),224584,black_plus_sign,,,,null,GW/gong.jpg,GW/soldier.jpg,,,,,,,,,,,,
null,,black_cross(without_color),225640,blue,,,,null,GW/gong.jpg,GW/soldier.jpg,,,,,,,,,,,,
null,,rt_plussign_withcolor,226154,blue,,,,null,GW/gong.jpg,GW/soldier.jpg,,,,,,,,,,,,
1284.7999999523163,,rt_thecrossant_black,227120,black_plus_sign,,,,49,,,1,1,,,,,,,,,,
null,,color_black,227228,black_plus_sign,,,,null,,,,,,,,,,,,,,
null,,learn_phase(without_color),229231,black_plus_sign,,,,null,GW/teeth.jpg,GW/snail.jpg,,,,,,,,,,,,
null,,black_cross(without_color),229770,green,,,,null,GW/teeth.jpg,GW/snail.jpg,,,,,,,,,,,,
null,,rt_plussign_withcolor,230287,green,,,,null,GW/teeth.jpg,GW/snail.jpg,,,,,,,,,,,,
1218.1999999284744,,rt_thecrossant_black,231761,black_plus_sign,,,,50,,,1,1,,,,,,,,,,
null,,color_black,231874,black_plus_sign,,,,null,,,,,,,,,,,,,,
null,,learn_phase(without_color),233884,black_plus_sign,,,,null,GW/globe.jpg,GW/jukebox.jpg,,,,,,,,,,,,
null,,black_cross(without_color),234742,green,,,,null,GW/globe.jpg,GW/jukebox.jpg,,,,,,,,,,,,
null,,rt_plussign_withcolor,235249,green,,,,null,GW/globe.jpg,GW/jukebox.jpg,,,,,,,,,,,,
1050.5,,rt_thecrossant_black,236407,black_plus_sign,,,,50,,,1,1,,,,,,,,,,
null,,color_black,236515,black_plus_sign,,,,null,,,,,,,,,,,,,,
null,,learn_phase(without_color),238524,black_plus_sign,,,,null,GW/barrel.jpg,GW/gong.jpg,,,,,,,,,,,,
null,,black_cross(without_color),239367,blue,,,,null,GW/barrel.jpg,GW/gong.jpg,,,,,,,,,,,,
null,,rt_plussign_withcolor,239871,blue,,,,null,GW/barrel.jpg,GW/gong.jpg,,,,,,,,,,,,
1185.6999999284744,,rt_thecrossant_black,241052,black_plus_sign,,,,49,,,1,1,,,,,,,,,,
null,,color_black,241161,black_plus_sign,,,,null,,,,,,,,,,,,,,
null,,learn_phase(without_color),243179,black_plus_sign,,,,null,GW/teeth.jpg,GW/snail.jpg,,,,,,,,,,,,
null,,black_cross(without_color),243676,blue,,,,null,GW/teeth.jpg,GW/snail.jpg,,,,,,,,,,,,
null,,rt_plussign_withcolor,244188,blue,,,,null,GW/teeth.jpg,GW/snail.jpg,,,,,,,,,,,,
1880.1000000238419,,rt_thecrossant_black,245709,black_plus_sign,,,,49,,,1,1,,,,,,,,,,
null,,color_black,245814,black_plus_sign,,,,null,,,,,,,,,,,,,,
null,,learn_phase(without_color),247826,black_plus_sign,,,,null,GW/gong.jpg,GW/camera.jpg,,,,,,,,,,,,
null,,black_cross(without_color),248421,green,,,,null,GW/gong.jpg,GW/camera.jpg,,,,,,,,,,,,
null,,rt_plussign_withcolor,248931,green,,,,null,GW/gong.jpg,GW/camera.jpg,,,,,,,,,,,,
634.2999999523163,,rt_thecrossant_black,250354,black_plus_sign,,,,50,,,1,1,,,,,,,,,,
null,,color_black,250463,black_plus_sign,,,,null,,,,,,,,,,,,,,
null,,learn_phase(without_color),252466,black_plus_sign,,,,null,GW/gong.jpg,GW/wheelchair.jpg,,,,,,,,,,,,
null,,black_cross(without_color),253555,green,,,,null,GW/gong.jpg,GW/wheelchair.jpg,,,,,,,,,,,,
null,,rt_plussign_withcolor,254072,green,,,,null,GW/gong.jpg,GW/wheelchair.jpg,,,,,,,,,,,,
716.1000000238419,,rt_thecrossant_black,254999,black_plus_sign,,,,50,,,1,1,,,,,,,,,,
null,,color_black,255103,black_plus_sign,,,,null,,,,,,,,,,,,,,
null,,learn_phase(without_color),257111,black_plus_sign,,,,null,GW/jukebox.jpg,GW/hat.jpg,,,,,,,,,,,,
null,,black_cross(without_color),257598,blue,,,,null,GW/jukebox.jpg,GW/hat.jpg,,,,,,,,,,,,
441.7000000476837,,rt_plussign_withcolor,258105,blue,,,,49,GW/jukebox.jpg,GW/hat.jpg,,,,,,,,,,,,
null,,rt_thecrossant_black,259634,black_plus_sign,,,,null,,,1,1,,,,,,,,,,
null,,color_black,259746,black_plus_sign,,,,null,,,,,,,,,,,,,,
null,,learn_phase(without_color),261760,black_plus_sign,,,,null,GW/snail.jpg,GW/globe.jpg,,,,,,,,,,,,
null,,black_cross(without_color),262472,blue,,,,null,GW/snail.jpg,GW/globe.jpg,,,,,,,,,,,,
null,,rt_plussign_withcolor,262982,blue,,,,null,GW/snail.jpg,GW/globe.jpg,,,,,,,,,,,,
1034.3000000715256,,rt_thecrossant_black,264294,black_plus_sign,,,,49,,,1,1,,,,,,,,,,
null,,color_black,264396,black_plus_sign,,,,null,,,,,,,,,,,,,,
null,,learn_phase(without_color),266402,black_plus_sign,,,,null,GW/camera.jpg,GW/wheelchair.jpg,,,,,,,,,,,,
null,,black_cross(without_color),267100,green,,,,null,GW/camera.jpg,GW/wheelchair.jpg,,,,,,,,,,,,
null,,rt_plussign_withcolor,267608,green,,,,null,GW/camera.jpg,GW/wheelchair.jpg,,,,,,,,,,,,
902.7999999523163,,rt_thecrossant_black,268923,black_plus_sign,,,,50,,,1,1,,,,,,,,,,
null,,color_black,269031,black_plus_sign,,,,null,,,,,,,,,,,,,,
null,,learn_phase(without_color),271034,black_plus_sign,,,,null,GW/jukebox.jpg,GW/hat.jpg,,,,,,,,,,,,
null,,black_cross(without_color),271785,green,,,,null,GW/jukebox.jpg,GW/hat.jpg,,,,,,,,,,,,
418.89999997615814,,rt_plussign_withcolor,272298,green,,,,50,GW/jukebox.jpg,GW/hat.jpg,,,,,,,,,,,,
null,,rt_thecrossant_black,273553,black_plus_sign,,,,null,,,1,1,,,,,,,,,,
null,,color_black,273666,black_plus_sign,,,,null,,,,,,,,,,,,,,
null,,learn_phase(without_color),275670,black_plus_sign,,,,null,GW/wheelchair.jpg,GW/jukebox.jpg,,,,,,,,,,,,
null,,black_cross(without_color),276524,green,,,,null,GW/wheelchair.jpg,GW/jukebox.jpg,,,,,,,,,,,,
null,,rt_plussign_withcolor,277028,green,,,,null,GW/wheelchair.jpg,GW/jukebox.jpg,,,,,,,,,,,,
951.6999999284744,,rt_thecrossant_black,278205,black_plus_sign,,,,50,,,1,1,,,,,,,,,,
null,,color_black,278322,black_plus_sign,,,,null,,,,,,,,,,,,,,
null,,learn_phase(without_color),280332,black_plus_sign,,,,null,GW/snail.jpg,GW/dustpan.jpg,,,,,,,,,,,,
null,,black_cross(without_color),280742,green,,,,null,GW/snail.jpg,GW/dustpan.jpg,,,,,,,,,,,,
null,,rt_plussign_withcolor,281244,green,,,,null,GW/snail.jpg,GW/dustpan.jpg,,,,,,,,,,,,
940.5,,rt_thecrossant_black,282858,black_plus_sign,,,,50,,,1,1,,,,,,,,,,
null,,color_black,282973,black_plus_sign,,,,null,,,,,,,,,,,,,,
null,,learn_phase(without_color),284978,black_plus_sign,,,,null,GW/wheelchair.jpg,GW/jukebox.jpg,,,,,,,,,,,,
null,,black_cross(without_color),285873,green,,,,null,GW/wheelchair.jpg,GW/jukebox.jpg,,,,,,,,,,,,
435.39999997615814,,rt_plussign_withcolor,286383,green,,,,50,GW/wheelchair.jpg,GW/jukebox.jpg,,,,,,,,,,,,
null,,rt_thecrossant_black,287503,black_plus_sign,,,,null,,,1,1,,,,,,,,,,
null,,color_black,287615,black_plus_sign,,,,null,,,,,,,,,,,,,,
null,,learn_phase(without_color),289618,black_plus_sign,,,,null,GW/dustpan.jpg,GW/hat.jpg,,,,,,,,,,,,
null,,black_cross(without_color),290147,green,,,,null,GW/dustpan.jpg,GW/hat.jpg,,,,,,,,,,,,
457,,rt_plussign_withcolor,290653,green,,,,50,GW/dustpan.jpg,GW/hat.jpg,,,,,,,,,,,,
null,,rt_thecrossant_black,292142,black_plus_sign,,,,null,,,1,1,,,,,,,,,,
null,,color_black,292252,black_plus_sign,,,,null,,,,,,,,,,,,,,
null,,learn_phase(without_color),294261,black_plus_sign,,,,null,GW/camera.jpg,GW/paint.jpg,,,,,,,,,,,,
null,,black_cross(without_color),295162,green,,,,null,GW/camera.jpg,GW/paint.jpg,,,,,,,,,,,,
351.1999999284744,,rt_plussign_withcolor,295670,green,,,,50,GW/camera.jpg,GW/paint.jpg,,,,,,,,,,,,
null,,rt_thecrossant_black,296789,black_plus_sign,,,,null,,,1,1,,,,,,,,,,
null,,color_black,296899,black_plus_sign,,,,null,,,,,,,,,,,,,,
null,,learn_phase(without_color),298902,black_plus_sign,,,,null,GW/dustpan.jpg,GW/basket.jpg,,,,,,,,,,,,
null,,black_cross(without_color),299923,green,,,,null,GW/dustpan.jpg,GW/basket.jpg,,,,,,,,,,,,
441,,rt_plussign_withcolor,300433,green,,,,50,GW/dustpan.jpg,GW/basket.jpg,,,,,,,,,,,,
null,,rt_thecrossant_black,301423,black_plus_sign,,,,null,,,1,1,,,,,,,,,,
null,,color_black,301533,black_plus_sign,,,,null,,,,,,,,,,,,,,
null,,learn_phase(without_color),303540,black_plus_sign,,,,null,GW/jukebox.jpg,GW/hat.jpg,,,,,,,,,,,,
null,,black_cross(without_color),304500,green,,,,null,GW/jukebox.jpg,GW/hat.jpg,,,,,,,,,,,,
460.5,,rt_plussign_withcolor,305002,green,,,,50,GW/jukebox.jpg,GW/hat.jpg,,,,,,,,,,,,
null,,rt_thecrossant_black,306055,black_plus_sign,,,,null,,,1,1,,,,,,,,,,
null,,color_black,306157,black_plus_sign,,,,null,,,,,,,,,,,,,,
null,,learn_phase(without_color),308167,black_plus_sign,,,,null,GW/dustpan.jpg,GW/hat.jpg,,,,,,,,,,,,
null,,black_cross(without_color),308852,green,,,,null,GW/dustpan.jpg,GW/hat.jpg,,,,,,,,,,,,
468.7000000476837,,rt_plussign_withcolor,309358,green,,,,50,GW/dustpan.jpg,GW/hat.jpg,,,,,,,,,,,,
null,,rt_thecrossant_black,310689,black_plus_sign,,,,null,,,1,1,,,,,,,,,,
null,,color_black,310800,black_plus_sign,,,,null,,,,,,,,,,,,,,
null,,learn_phase(without_color),312802,black_plus_sign,,,,null,GW/barrel.jpg,GW/wheelchair.jpg,,,,,,,,,,,,
null,,black_cross(without_color),313416,green,,,,null,GW/barrel.jpg,GW/wheelchair.jpg,,,,,,,,,,,,
480,,rt_plussign_withcolor,313925,green,,,,50,GW/barrel.jpg,GW/wheelchair.jpg,,,,,,,,,,,,
null,,rt_thecrossant_black,315333,black_plus_sign,,,,null,,,1,1,,,,,,,,,,
null,,color_black,315449,black_plus_sign,,,,null,,,,,,,,,,,,,,
null,,learn_phase(without_color),317455,black_plus_sign,,,,null,GW/camera.jpg,GW/paint.jpg,,,,,,,,,,,,
null,,black_cross(without_color),317955,blue,,,,null,GW/camera.jpg,GW/paint.jpg,,,,,,,,,,,,
null,,rt_plussign_withcolor,318458,blue,,,,null,GW/camera.jpg,GW/paint.jpg,,,,,,,,,,,,
1011.2000000476837,,rt_thecrossant_black,319985,black_plus_sign,,,,50,,,0,0.9565217391304348,,,,,,,,,,
null,,color_black,320089,black_plus_sign,,,,null,,,,,,,,,,,,,,
null,,learn_phase(without_color),322093,black_plus_sign,,,,null,GW/gong.jpg,GW/wheelchair.jpg,,,,,,,,,,,,
null,,black_cross(without_color),323102,blue,,,,null,GW/gong.jpg,GW/wheelchair.jpg,,,,,,,,,,,,
508.2000000476837,,rt_plussign_withcolor,323612,blue,,,,49,GW/gong.jpg,GW/wheelchair.jpg,,,,,,,,,,,,
null,,rt_thecrossant_black,324618,black_plus_sign,,,,null,,,1,0.9583333333333334,,,,,,,,,,
null,,color_black,324725,black_plus_sign,,,,null,,,,,,,,,,,,,,
null,,learn_phase(without_color),326742,black_plus_sign,,,,null,GW/globe.jpg,GW/barrel.jpg,,,,,,,,,,,,
null,,black_cross(without_color),327364,green,,,,null,GW/globe.jpg,GW/barrel.jpg,,,,,,,,,,,,
null,,rt_plussign_withcolor,327872,green,,,,null,GW/globe.jpg,GW/barrel.jpg,,,,,,,,,,,,
1194.8000000715256,,rt_thecrossant_black,329269,black_plus_sign,,,,50,,,1,0.96,,,,,,,,,,
null,,color_black,329373,black_plus_sign,,,,null,,,,,,,,,,,,,,
null,,learn_phase(without_color),331378,black_plus_sign,,,,null,GW/dustpan.jpg,GW/basket.jpg,,,,,,,,,,,,
null,,black_cross(without_color),332073,green,,,,null,GW/dustpan.jpg,GW/basket.jpg,,,,,,,,,,,,
null,,rt_plussign_withcolor,332582,green,,,,null,GW/dustpan.jpg,GW/basket.jpg,,,,,,,,,,,,
1665.6000000238419,,rt_thecrossant_black,333911,black_plus_sign,,,,50,,,1,0.9615384615384616,,,,,,,,,,
null,,color_black,334022,black_plus_sign,,,,null,,,,,,,,,,,,,,
null,,learn_phase(without_color),336030,black_plus_sign,,,,null,GW/wheelchair.jpg,GW/jukebox.jpg,,,,,,,,,,,,
null,,black_cross(without_color),336508,green,,,,null,GW/wheelchair.jpg,GW/jukebox.jpg,,,,,,,,,,,,
null,,rt_plussign_withcolor,337017,green,,,,null,GW/wheelchair.jpg,GW/jukebox.jpg,,,,,,,,,,,,
1030.6000000238419,,rt_thecrossant_black,338551,black_plus_sign,,,,50,,,1,0.9629629629629629,,,,,,,,,,
null,,color_black,338655,black_plus_sign,,,,null,,,,,,,,,,,,,,
null,,learn_phase(without_color),340658,black_plus_sign,,,,null,GW/globe.jpg,GW/jukebox.jpg,,,,,,,,,,,,
null,,black_cross(without_color),341161,blue,,,,null,GW/globe.jpg,GW/jukebox.jpg,,,,,,,,,,,,
499.89999997615814,,rt_plussign_withcolor,341663,blue,,,,49,GW/globe.jpg,GW/jukebox.jpg,,,,,,,,,,,,
null,,rt_thecrossant_black,343188,black_plus_sign,,,,null,,,1,0.9642857142857143,,,,,,,,,,
null,,color_black,343303,black_plus_sign,,,,null,,,,,,,,,,,,,,
null,,learn_phase(without_color),345311,black_plus_sign,,,,null,GW/dustpan.jpg,GW/basket.jpg,,,,,,,,,,,,
null,,black_cross(without_color),345908,green,,,,null,GW/dustpan.jpg,GW/basket.jpg,,,,,,,,,,,,
null,,rt_plussign_withcolor,346413,green,,,,null,GW/dustpan.jpg,GW/basket.jpg,,,,,,,,,,,,
641.8999999761581,,rt_thecrossant_black,347835,black_plus_sign,,,,50,,,1,0.9655172413793104,,,,,,,,,,
null,,color_black,347946,black_plus_sign,,,,null,,,,,,,,,,,,,,
null,,learn_phase(without_color),349951,black_plus_sign,,,,null,GW/globe.jpg,GW/barrel.jpg,,,,,,,,,,,,
null,,black_cross(without_color),350816,green,,,,null,GW/globe.jpg,GW/barrel.jpg,,,,,,,,,,,,
453.2999999523163,,rt_plussign_withcolor,351323,green,,,,50,GW/globe.jpg,GW/barrel.jpg,,,,,,,,,,,,
null,,rt_thecrossant_black,352483,black_plus_sign,,,,null,,,1,0.9666666666666667,,,,,,,,,,
null,,color_black,352600,black_plus_sign,,,,null,,,,,,,,,,,,,,
null,,learn_phase(without_color),354610,black_plus_sign,,,,null,GW/camera.jpg,GW/wheelchair.jpg,,,,,,,,,,,,
null,,black_cross(without_color),355166,green,,,,null,GW/camera.jpg,GW/wheelchair.jpg,,,,,,,,,,,,
493.89999997615814,,rt_plussign_withcolor,355667,green,,,,50,GW/camera.jpg,GW/wheelchair.jpg,,,,,,,,,,,,
null,,rt_thecrossant_black,357122,black_plus_sign,,,,null,,,1,0.967741935483871,,,,,,,,,,
null,,color_black,357230,black_plus_sign,,,,null,,,,,,,,,,,,,,
null,,learn_phase(without_color),359249,black_plus_sign,,,,null,GW/barrel.jpg,GW/wheelchair.jpg,,,,,,,,,,,,
null,,black_cross(without_color),359728,green,,,,null,GW/barrel.jpg,GW/wheelchair.jpg,,,,,,,,,,,,
485.40000009536743,,rt_plussign_withcolor,360232,green,,,,50,GW/barrel.jpg,GW/wheelchair.jpg,,,,,,,,,,,,
null,,rt_thecrossant_black,361770,black_plus_sign,,,,null,,,1,0.96875,,,,,,,,,,
null,,color_black,361885,black_plus_sign,,,,null,,,,,,,,,,,,,,
null,,learn_phase(without_color),363890,black_plus_sign,,,,null,GW/teeth.jpg,GW/snail.jpg,,,,,,,,,,,,
null,,black_cross(without_color),364905,green,,,,null,GW/teeth.jpg,GW/snail.jpg,,,,,,,,,,,,
null,,rt_plussign_withcolor,365407,green,,,,null,GW/teeth.jpg,GW/snail.jpg,,,,,,,,,,,,
575.7000000476837,,rt_thecrossant_black,366415,black_plus_sign,,,,50,,,1,0.9696969696969697,,,,,,,,,,
null,,color_black,366526,black_plus_sign,,,,null,,,,,,,,,,,,,,
null,,learn_phase(without_color),368536,black_plus_sign,,,,null,GW/camera.jpg,GW/wheelchair.jpg,,,,,,,,,,,,
null,,black_cross(without_color),369398,green,,,,null,GW/camera.jpg,GW/wheelchair.jpg,,,,,,,,,,,,
445.7999999523163,,rt_plussign_withcolor,369905,green,,,,50,GW/camera.jpg,GW/wheelchair.jpg,,,,,,,,,,,,
null,,rt_thecrossant_black,371060,black_plus_sign,,,,null,,,1,0.9705882352941176,,,,,,,,,,
null,,color_black,371168,black_plus_sign,,,,null,,,,,,,,,,,,,,
null,,learn_phase(without_color),373178,black_plus_sign,,,,null,GW/barrel.jpg,GW/wheelchair.jpg,,,,,,,,,,,,
null,,black_cross(without_color),374168,blue,,,,null,GW/barrel.jpg,GW/wheelchair.jpg,,,,,,,,,,,,
null,,rt_plussign_withcolor,374671,blue,,,,null,GW/barrel.jpg,GW/wheelchair.jpg,,,,,,,,,,,,
1013.1000000238419,,rt_thecrossant_black,375700,black_plus_sign,,,,49,,,1,0.9714285714285714,,,,,,,,,,
null,,color_black,375808,black_plus_sign,,,,null,,,,,,,,,,,,,,
null,,learn_phase(without_color),377821,black_plus_sign,,,,null,GW/globe.jpg,GW/barrel.jpg,,,,,,,,,,,,
null,,black_cross(without_color),378751,blue,,,,null,GW/globe.jpg,GW/barrel.jpg,,,,,,,,,,,,
null,,rt_plussign_withcolor,379260,blue,,,,null,GW/globe.jpg,GW/barrel.jpg,,,,,,,,,,,,
1153.8000000715256,,rt_thecrossant_black,380343,black_plus_sign,,,,49,,,1,0.9722222222222222,,,,,,,,,,
null,,color_black,380446,black_plus_sign,,,,null,,,,,,,,,,,,,,
null,,learn_phase(without_color),382451,black_plus_sign,,,,null,GW/barrel.jpg,GW/gong.jpg,,,,,,,,,,,,
null,,black_cross(without_color),383212,blue,,,,null,GW/barrel.jpg,GW/gong.jpg,,,,,,,,,,,,
null,,rt_plussign_withcolor,383721,blue,,,,null,GW/barrel.jpg,GW/gong.jpg,,,,,,,,,,,,
1104.1000000238419,,rt_thecrossant_black,384995,black_plus_sign,,,,49,,,1,0.972972972972973,,,,,,,,,,
null,,color_black,385099,black_plus_sign,,,,null,,,,,,,,,,,,,,
null,,learn_phase(without_color),387105,black_plus_sign,,,,null,GW/snail.jpg,GW/dustpan.jpg,,,,,,,,,,,,
null,,black_cross(without_color),387922,blue,,,,null,GW/snail.jpg,GW/dustpan.jpg,,,,,,,,,,,,
477.7999999523163,,rt_plussign_withcolor,388433,blue,,,,49,GW/snail.jpg,GW/dustpan.jpg,,,,,,,,,,,,
null,,rt_thecrossant_black,389630,black_plus_sign,,,,null,,,1,0.9736842105263158,,,,,,,,,,
null,,color_black,389733,black_plus_sign,,,,null,,,,,,,,,,,,,,
null,,learn_phase(without_color),391736,black_plus_sign,,,,null,GW/teeth.jpg,GW/snail.jpg,,,,,,,,,,,,
null,,black_cross(without_color),392421,green,,,,null,GW/teeth.jpg,GW/snail.jpg,,,,,,,,,,,,
null,,rt_plussign_withcolor,392928,green,,,,null,GW/teeth.jpg,GW/snail.jpg,,,,,,,,,,,,
913.7000000476837,,rt_thecrossant_black,394254,black_plus_sign,,,,50,,,1,0.9743589743589743,,,,,,,,,,
null,,color_black,394356,black_plus_sign,,,,null,,,,,,,,,,,,,,
null,,learn_phase(without_color),396359,black_plus_sign,,,,null,GW/camera.jpg,GW/wheelchair.jpg,,,,,,,,,,,,
null,,black_cross(without_color),396769,blue,,,,null,GW/camera.jpg,GW/wheelchair.jpg,,,,,,,,,,,,
null,,rt_plussign_withcolor,397272,blue,,,,null,GW/camera.jpg,GW/wheelchair.jpg,,,,,,,,,,,,
1363.8999999761581,,rt_thecrossant_black,398876,black_plus_sign,,,,49,,,1,0.975,,,,,,,,,,
null,,color_black,398982,black_plus_sign,,,,null,,,,,,,,,,,,,,
null,,learn_phase(without_color),400991,black_plus_sign,,,,null,GW/gong.jpg,GW/soldier.jpg,,,,,,,,,,,,
null,,black_cross(without_color),401549,blue,,,,null,GW/gong.jpg,GW/soldier.jpg,,,,,,,,,,,,
null,,rt_plussign_withcolor,402057,blue,,,,null,GW/gong.jpg,GW/soldier.jpg,,,,,,,,,,,,
665.1000000238419,,rt_thecrossant_black,403515,black_plus_sign,,,,49,,,1,0.975609756097561,,,,,,,,,,
null,,color_black,403624,black_plus_sign,,,,null,,,,,,,,,,,,,,
null,,learn_phase(without_color),405629,black_plus_sign,,,,null,GW/dustpan.jpg,GW/basket.jpg,,,,,,,,,,,,
null,,black_cross(without_color),406597,blue,,,,null,GW/dustpan.jpg,GW/basket.jpg,,,,,,,,,,,,
null,,rt_plussign_withcolor,407101,blue,,,,null,GW/dustpan.jpg,GW/basket.jpg,,,,,,,,,,,,
1094.0999999046326,,rt_thecrossant_black,408146,black_plus_sign,,,,49,,,1,0.9761904761904762,,,,,,,,,,
null,,color_black,408249,black_plus_sign,,,,null,,,,,,,,,,,,,,
null,,learn_phase(without_color),410260,black_plus_sign,,,,null,GW/camera.jpg,GW/paint.jpg,,,,,,,,,,,,
null,,black_cross(without_color),411059,green,,,,null,GW/camera.jpg,GW/paint.jpg,,,,,,,,,,,,
null,,rt_plussign_withcolor,411562,green,,,,null,GW/camera.jpg,GW/paint.jpg,,,,,,,,,,,,
1190.2999999523163,,rt_thecrossant_black,412799,black_plus_sign,,,,50,,,1,0.9767441860465116,,,,,,,,,,
null,,color_black,412908,black_plus_sign,,,,null,,,,,,,,,,,,,,
null,,learn_phase(without_color),414924,black_plus_sign,,,,null,GW/snail.jpg,GW/globe.jpg,,,,,,,,,,,,
null,,black_cross(without_color),415652,blue,,,,null,GW/snail.jpg,GW/globe.jpg,,,,,,,,,,,,
null,,rt_plussign_withcolor,416157,blue,,,,null,GW/snail.jpg,GW/globe.jpg,,,,,,,,,,,,
1018.8999999761581,,rt_thecrossant_black,417436,black_plus_sign,,,,49,,,1,0.9772727272727273,,,,,,,,,,
null,,color_black,417546,black_plus_sign,,,,null,,,,,,,,,,,,,,
null,,learn_phase(without_color),419552,black_plus_sign,,,,null,GW/gong.jpg,GW/soldier.jpg,,,,,,,,,,,,
null,,black_cross(without_color),420539,green,,,,null,GW/gong.jpg,GW/soldier.jpg,,,,,,,,,,,,
null,,rt_plussign_withcolor,421047,green,,,,null,GW/gong.jpg,GW/soldier.jpg,,,,,,,,,,,,
915.7999999523163,,rt_thecrossant_black,422084,black_plus_sign,,,,50,,,1,0.9777777777777777,,,,,,,,,,
null,,color_black,422194,black_plus_sign,,,,null,,,,,,,,,,,,,,
null,,learn_phase(without_color),424197,black_plus_sign,,,,null,GW/camera.jpg,GW/wheelchair.jpg,,,,,,,,,,,,
null,,black_cross(without_color),424607,blue,,,,null,GW/camera.jpg,GW/wheelchair.jpg,,,,,,,,,,,,
null,,rt_plussign_withcolor,425112,blue,,,,null,GW/camera.jpg,GW/wheelchair.jpg,,,,,,,,,,,,
2067.899999976158,,rt_thecrossant_black,426717,black_plus_sign,,,,49,,,1,0.9782608695652174,,,,,,,,,,
null,,color_black,426825,black_plus_sign,,,,null,,,,,,,,,,,,,,
null,,learn_phase(without_color),428832,black_plus_sign,,,,null,GW/wheelchair.jpg,GW/jukebox.jpg,,,,,,,,,,,,
null,,black_cross(without_color),429887,blue,,,,null,GW/wheelchair.jpg,GW/jukebox.jpg,,,,,,,,,,,,
null,,rt_plussign_withcolor,430396,blue,,,,null,GW/wheelchair.jpg,GW/jukebox.jpg,,,,,,,,,,,,
506.39999997615814,,rt_thecrossant_black,431352,black_plus_sign,,,,49,,,1,0.9787234042553191,,,,,,,,,,
null,,color_black,431457,black_plus_sign,,,,null,,,,,,,,,,,,,,
null,,learn_phase(without_color),433462,black_plus_sign,,,,null,GW/barrel.jpg,GW/gong.jpg,,,,,,,,,,,,
null,,black_cross(without_color),433989,blue,,,,null,GW/barrel.jpg,GW/gong.jpg,,,,,,,,,,,,
null,,rt_plussign_withcolor,434496,blue,,,,null,GW/barrel.jpg,GW/gong.jpg,,,,,,,,,,,,
2375.7999999523163,,rt_thecrossant_black,435990,black_plus_sign,,,,49,,,1,0.9791666666666666,,,,,,,,,,
null,,color_black,436100,black_plus_sign,,,,null,,,,,,,,,,,,,,
null,,learn_phase(without_color),438104,black_plus_sign,,,,null,GW/gong.jpg,GW/wheelchair.jpg,,,,,,,,,,,,
null,,black_cross(without_color),438525,green,,,,null,GW/gong.jpg,GW/wheelchair.jpg,,,,,,,,,,,,
null,,rt_plussign_withcolor,439034,green,,,,null,GW/gong.jpg,GW/wheelchair.jpg,,,,,,,,,,,,
796.3999999761581,,rt_thecrossant_black,440632,black_plus_sign,,,,50,,,1,0.9795918367346939,,,,,,,,,,
null,,color_black,440743,black_plus_sign,,,,null,,,,,,,,,,,,,,
null,,learn_phase(without_color),442752,black_plus_sign,,,,null,GW/gong.jpg,GW/camera.jpg,,,,,,,,,,,,
null,,black_cross(without_color),443741,green,,,,null,GW/gong.jpg,GW/camera.jpg,,,,,,,,,,,,
492.2999999523163,,rt_plussign_withcolor,444248,green,,,,50,GW/gong.jpg,GW/camera.jpg,,,,,,,,,,,,
null,,rt_thecrossant_black,445274,black_plus_sign,,,,null,,,1,0.98,,,,,,,,,,
null,,color_black,445389,black_plus_sign,,,,null,,,,,,,,,,,,,,
null,,learn_phase(without_color),447399,black_plus_sign,,,,null,GW/barrel.jpg,GW/wheelchair.jpg,,,,,,,,,,,,
null,,black_cross(without_color),447899,blue,,,,null,GW/barrel.jpg,GW/wheelchair.jpg,,,,,,,,,,,,
null,,rt_plussign_withcolor,448403,blue,,,,null,GW/barrel.jpg,GW/wheelchair.jpg,,,,,,,,,,,,
1275.6000000238419,,rt_thecrossant_black,449926,black_plus_sign,,,,49,,,1,0.9803921568627451,,,,,,,,,,
null,,color_black,450034,black_plus_sign,,,,null,,,,,,,,,,,,,,
null,,learn_phase(without_color),452041,black_plus_sign,,,,null,GW/globe.jpg,GW/barrel.jpg,,,,,,,,,,,,
null,,black_cross(without_color),452529,green,,,,null,GW/globe.jpg,GW/barrel.jpg,,,,,,,,,,,,
384.60000002384186,,rt_plussign_withcolor,453031,green,,,,50,GW/globe.jpg,GW/barrel.jpg,,,,,,,,,,,,
null,,rt_thecrossant_black,454562,black_plus_sign,,,,null,,,1,0.9807692307692307,,,,,,,,,,
null,,color_black,454671,black_plus_sign,,,,null,,,,,,,,,,,,,,
null,,learn_phase(without_color),456680,black_plus_sign,,,,null,GW/snail.jpg,GW/globe.jpg,,,,,,,,,,,,
null,,black_cross(without_color),457717,blue,,,,null,GW/snail.jpg,GW/globe.jpg,,,,,,,,,,,,
391.7000000476837,,rt_plussign_withcolor,458228,blue,,,,49,GW/snail.jpg,GW/globe.jpg,,,,,,,,,,,,
null,,rt_thecrossant_black,459207,black_plus_sign,,,,null,,,1,0.9811320754716981,,,,,,,,,,
null,,color_black,459314,black_plus_sign,,,,null,,,,,,,,,,,,,,
null,,learn_phase(without_color),461322,black_plus_sign,,,,null,GW/barrel.jpg,GW/wheelchair.jpg,,,,,,,,,,,,
null,,black_cross(without_color),462381,green,,,,null,GW/barrel.jpg,GW/wheelchair.jpg,,,,,,,,,,,,
null,,rt_plussign_withcolor,462893,green,,,,null,GW/barrel.jpg,GW/wheelchair.jpg,,,,,,,,,,,,
1282.5,,rt_thecrossant_black,463854,black_plus_sign,,,,50,,,1,0.9814814814814815,,,,,,,,,,
null,,color_black,463957,black_plus_sign,,,,null,,,,,,,,,,,,,,
null,,learn_phase(without_color),465972,black_plus_sign,,,,null,GW/camera.jpg,GW/paint.jpg,,,,,,,,,,,,
null,,black_cross(without_color),466972,green,,,,null,GW/camera.jpg,GW/paint.jpg,,,,,,,,,,,,
null,,rt_plussign_withcolor,467482,green,,,,null,GW/camera.jpg,GW/paint.jpg,,,,,,,,,,,,
1520.3999999761581,,rt_thecrossant_black,468501,black_plus_sign,,,,50,,,1,0.9818181818181818,,,,,,,,,,
null,,color_black,468605,black_plus_sign,,,,null,,,,,,,,,,,,,,
null,,learn_phase(without_color),470615,black_plus_sign,,,,null,GW/barrel.jpg,GW/gong.jpg,,,,,,,,,,,,
null,,black_cross(without_color),471617,blue,,,,null,GW/barrel.jpg,GW/gong.jpg,,,,,,,,,,,,
null,,rt_plussign_withcolor,472132,blue,,,,null,GW/barrel.jpg,GW/gong.jpg,,,,,,,,,,,,
1099.5,,rt_thecrossant_black,473142,black_plus_sign,,,,49,,,1,0.9821428571428571,,,,,,,,,,
null,,color_black,473246,black_plus_sign,,,,null,,,,,,,,,,,,,,
null,,learn_phase(without_color),475257,black_plus_sign,,,,null,GW/globe.jpg,GW/jukebox.jpg,,,,,,,,,,,,
null,,black_cross(without_color),475872,blue,,,,null,GW/globe.jpg,GW/jukebox.jpg,,,,,,,,,,,,
null,,rt_plussign_withcolor,476379,blue,,,,null,GW/globe.jpg,GW/jukebox.jpg,,,,,,,,,,,,
1351.7999999523163,,rt_thecrossant_black,477771,black_plus_sign,,,,49,,,1,0.9824561403508771,,,,,,,,,,
null,,color_black,477883,black_plus_sign,,,,null,,,,,,,,,,,,,,
null,,learn_phase(without_color),479890,black_plus_sign,,,,null,GW/globe.jpg,GW/barrel.jpg,,,,,,,,,,,,
null,,black_cross(without_color),480837,blue,,,,null,GW/globe.jpg,GW/barrel.jpg,,,,,,,,,,,,
null,,rt_plussign_withcolor,481347,blue,,,,null,GW/globe.jpg,GW/barrel.jpg,,,,,,,,,,,,
822.5,,rt_thecrossant_black,482412,black_plus_sign,,,,49,,,1,0.9827586206896551,,,,,,,,,,
null,,color_black,482521,black_plus_sign,,,,null,,,,,,,,,,,,,,
null,,learn_phase(without_color),484524,black_plus_sign,,,,null,GW/wheelchair.jpg,GW/jukebox.jpg,,,,,,,,,,,,
null,,black_cross(without_color),485325,green,,,,null,GW/wheelchair.jpg,GW/jukebox.jpg,,,,,,,,,,,,
null,,rt_plussign_withcolor,485834,green,,,,null,GW/wheelchair.jpg,GW/jukebox.jpg,,,,,,,,,,,,
1146.6000000238419,,rt_thecrossant_black,487056,black_plus_sign,,,,50,,,1,0.9830508474576272,,,,,,,,,,
null,,color_black,487159,black_plus_sign,,,,null,,,,,,,,,,,,,,
null,,learn_phase(without_color),489168,black_plus_sign,,,,null,GW/globe.jpg,GW/barrel.jpg,,,,,,,,,,,,
null,,black_cross(without_color),489707,green,,,,null,GW/globe.jpg,GW/barrel.jpg,,,,,,,,,,,,
null,,rt_plussign_withcolor,490211,green,,,,null,GW/globe.jpg,GW/barrel.jpg,,,,,,,,,,,,
1239.8999999761581,,rt_thecrossant_black,491692,black_plus_sign,,,,49,,,0,0.9666666666666667,,,,,,,,,,
null,,color_black,491799,black_plus_sign,,,,null,,,,,,,,,,,,,,
null,,learn_phase(without_color),493803,black_plus_sign,,,,null,GW/dustpan.jpg,GW/basket.jpg,,,,,,,,,,,,
null,,black_cross(without_color),494560,green,,,,null,GW/dustpan.jpg,GW/basket.jpg,,,,,,,,,,,,
null,,rt_plussign_withcolor,495068,green,,,,null,GW/dustpan.jpg,GW/basket.jpg,,,,,,,,,,,,
685.0999999046326,,rt_thecrossant_black,496319,black_plus_sign,,,,50,,,1,0.9672131147540983,,,,,,,,,,
null,,color_black,496421,black_plus_sign,,,,null,,,,,,,,,,,,,,
null,,learn_phase(without_color),498431,black_plus_sign,,,,null,GW/camera.jpg,GW/paint.jpg,,,,,,,,,,,,
null,,black_cross(without_color),499046,green,,,,null,GW/camera.jpg,GW/paint.jpg,,,,,,,,,,,,
446.7000000476837,,rt_plussign_withcolor,499552,green,,,,50,GW/camera.jpg,GW/paint.jpg,,,,,,,,,,,,
null,,rt_thecrossant_black,500948,black_plus_sign,,,,null,,,1,0.967741935483871,,,,,,,,,,
null,,color_black,501064,black_plus_sign,,,,null,,,,,,,,,,,,,,
null,,learn_phase(without_color),503082,black_plus_sign,,,,null,GW/gong.jpg,GW/wheelchair.jpg,,,,,,,,,,,,
null,,black_cross(without_color),504156,blue,,,,null,GW/gong.jpg,GW/wheelchair.jpg,,,,,,,,,,,,
null,,rt_plussign_withcolor,504672,blue,,,,null,GW/gong.jpg,GW/wheelchair.jpg,,,,,,,,,,,,
774.5,,rt_thecrossant_black,505623,black_plus_sign,,,,49,,,1,0.9682539682539683,,,,,,,,,,
null,,color_black,505725,black_plus_sign,,,,null,,,,,,,,,,,,,,
null,,learn_phase(without_color),507739,black_plus_sign,,,,null,GW/dustpan.jpg,GW/basket.jpg,,,,,,,,,,,,
null,,black_cross(without_color),508809,green,,,,null,GW/dustpan.jpg,GW/basket.jpg,,,,,,,,,,,,
null,,rt_plussign_withcolor,509326,green,,,,null,GW/dustpan.jpg,GW/basket.jpg,,,,,,,,,,,,
2058.2000000476837,,rt_thecrossant_black,510267,black_plus_sign,,,,50,,,1,0.96875,,,,,,,,,,
null,,color_black,510374,black_plus_sign,,,,null,,,,,,,,,,,,,,
null,,learn_phase(without_color),512382,black_plus_sign,,,,null,GW/gong.jpg,GW/wheelchair.jpg,,,,,,,,,,,,
null,,black_cross(without_color),513356,green,,,,null,GW/gong.jpg,GW/wheelchair.jpg,,,,,,,,,,,,
500.39999997615814,,rt_plussign_withcolor,513858,green,,,,50,GW/gong.jpg,GW/wheelchair.jpg,,,,,,,,,,,,
null,,rt_thecrossant_black,514920,black_plus_sign,,,,null,,,1,0.9692307692307692,,,,,,,,,,
null,,color_black,515035,black_plus_sign,,,,null,,,,,,,,,,,,,,
null,,learn_phase(without_color),517040,black_plus_sign,,,,null,GW/gong.jpg,GW/camera.jpg,,,,,,,,,,,,
null,,black_cross(without_color),517845,green,,,,null,GW/gong.jpg,GW/camera.jpg,,,,,,,,,,,,
481.2999999523163,,rt_plussign_withcolor,518350,green,,,,50,GW/gong.jpg,GW/camera.jpg,,,,,,,,,,,,
null,,rt_thecrossant_black,519564,black_plus_sign,,,,null,,,1,0.9696969696969697,,,,,,,,,,
null,,color_black,519673,black_plus_sign,,,,null,,,,,,,,,,,,,,
null,,learn_phase(without_color),521682,black_plus_sign,,,,null,GW/globe.jpg,GW/jukebox.jpg,,,,,,,,,,,,
null,,black_cross(without_color),522683,blue,,,,null,GW/globe.jpg,GW/jukebox.jpg,,,,,,,,,,,,
null,,rt_plussign_withcolor,523186,blue,,,,null,GW/globe.jpg,GW/jukebox.jpg,,,,,,,,,,,,
904.7999999523163,,rt_thecrossant_black,524196,black_plus_sign,,,,49,,,1,0.9701492537313433,,,,,,,,,,
null,,color_black,524299,black_plus_sign,,,,null,,,,,,,,,,,,,,
null,,learn_phase(without_color),526304,black_plus_sign,,,,null,GW/gong.jpg,GW/camera.jpg,,,,,,,,,,,,
null,,black_cross(without_color),526944,blue,,,,null,GW/gong.jpg,GW/camera.jpg,,,,,,,,,,,,
null,,rt_plussign_withcolor,527452,blue,,,,null,GW/gong.jpg,GW/camera.jpg,,,,,,,,,,,,
1508.5,,rt_thecrossant_black,528832,black_plus_sign,,,,49,,,1,0.9705882352941176,,,,,,,,,,
null,,color_black,528940,black_plus_sign,,,,null,,,,,,,,,,,,,,
null,,learn_phase(without_color),530949,black_plus_sign,,,,null,GW/gong.jpg,GW/wheelchair.jpg,,,,,,,,,,,,
null,,black_cross(without_color),531669,green,,,,null,GW/gong.jpg,GW/wheelchair.jpg,,,,,,,,,,,,
null,,rt_plussign_withcolor,532180,green,,,,null,GW/gong.jpg,GW/wheelchair.jpg,,,,,,,,,,,,
772.6000000238419,,rt_thecrossant_black,533476,black_plus_sign,,,,50,,,1,0.9710144927536232,,,,,,,,,,
null,,color_black,533589,black_plus_sign,,,,null,,,,,,,,,,,,,,
null,,learn_phase(without_color),535595,black_plus_sign,,,,null,GW/jukebox.jpg,GW/hat.jpg,,,,,,,,,,,,
null,,black_cross(without_color),536087,green,,,,null,GW/jukebox.jpg,GW/hat.jpg,,,,,,,,,,,,
null,,rt_plussign_withcolor,536589,green,,,,null,GW/jukebox.jpg,GW/hat.jpg,,,,,,,,,,,,
867.8999999761581,,rt_thecrossant_black,538103,black_plus_sign,,,,50,,,1,0.9714285714285714,,,,,,,,,,
null,,color_black,538212,black_plus_sign,,,,null,,,,,,,,,,,,,,
null,,learn_phase(without_color),540221,black_plus_sign,,,,null,GW/snail.jpg,GW/dustpan.jpg,,,,,,,,,,,,
null,,black_cross(without_color),540757,blue,,,,null,GW/snail.jpg,GW/dustpan.jpg,,,,,,,,,,,,
null,,rt_plussign_withcolor,541274,blue,,,,null,GW/snail.jpg,GW/dustpan.jpg,,,,,,,,,,,,
714.5,,rt_thecrossant_black,542758,black_plus_sign,,,,49,,,1,0.971830985915493,,,,,,,,,,
null,,color_black,542869,black_plus_sign,,,,null,,,,,,,,,,,,,,
null,,learn_phase(without_color),544874,black_plus_sign,,,,null,GW/dustpan.jpg,GW/hat.jpg,,,,,,,,,,,,
null,,black_cross(without_color),545564,green,,,,null,GW/dustpan.jpg,GW/hat.jpg,,,,,,,,,,,,
null,,rt_plussign_withcolor,546081,green,,,,null,GW/dustpan.jpg,GW/hat.jpg,,,,,,,,,,,,
639.8000000715256,,rt_thecrossant_black,547408,black_plus_sign,,,,50,,,1,0.9722222222222222,,,,,,,,,,
null,,color_black,547516,black_plus_sign,,,,null,,,,,,,,,,,,,,
null,,learn_phase(without_color),549529,black_plus_sign,,,,null,GW/snail.jpg,GW/globe.jpg,,,,,,,,,,,,
null,,black_cross(without_color),550309,green,,,,null,GW/snail.jpg,GW/globe.jpg,,,,,,,,,,,,
null,,rt_plussign_withcolor,550826,green,,,,null,GW/snail.jpg,GW/globe.jpg,,,,,,,,,,,,
872.3999999761581,,rt_thecrossant_black,552078,black_plus_sign,,,,50,,,1,0.9726027397260274,,,,,,,,,,
null,,color_black,552188,black_plus_sign,,,,null,,,,,,,,,,,,,,
null,,learn_phase(without_color),554193,black_plus_sign,,,,null,GW/barrel.jpg,GW/wheelchair.jpg,,,,,,,,,,,,
null,,black_cross(without_color),555016,blue,,,,null,GW/barrel.jpg,GW/wheelchair.jpg,,,,,,,,,,,,
181.10000002384186,,rt_plussign_withcolor,555520,blue,,,,49,GW/barrel.jpg,GW/wheelchair.jpg,,,,,,,,,,,,
null,,rt_thecrossant_black,556720,black_plus_sign,,,,null,,,1,0.972972972972973,,,,,,,,,,
null,,color_black,556831,black_plus_sign,,,,null,,,,,,,,,,,,,,
null,,learn_phase(without_color),558837,black_plus_sign,,,,null,GW/snail.jpg,GW/globe.jpg,,,,,,,,,,,,
null,,black_cross(without_color),559426,green,,,,null,GW/snail.jpg,GW/globe.jpg,,,,,,,,,,,,
null,,rt_plussign_withcolor,559940,green,,,,null,GW/snail.jpg,GW/globe.jpg,,,,,,,,,,,,
1008,,rt_thecrossant_black,561386,black_plus_sign,,,,50,,,1,0.9733333333333334,,,,,,,,,,
null,,color_black,561496,black_plus_sign,,,,null,,,,,,,,,,,,,,
null,,learn_phase(without_color),563514,black_plus_sign,,,,null,GW/dustpan.jpg,GW/basket.jpg,,,,,,,,,,,,
null,,black_cross(without_color),564083,blue,,,,null,GW/dustpan.jpg,GW/basket.jpg,,,,,,,,,,,,
null,,rt_plussign_withcolor,564594,blue,,,,null,GW/dustpan.jpg,GW/basket.jpg,,,,,,,,,,,,
1302.3000000715256,,rt_thecrossant_black,566045,black_plus_sign,,,,49,,,1,0.9736842105263158,,,,,,,,,,
null,,color_black,566152,black_plus_sign,,,,null,,,,,,,,,,,,,,
null,,learn_phase(without_color),568160,black_plus_sign,,,,null,GW/teeth.jpg,GW/snail.jpg,,,,,,,,,,,,
null,,black_cross(without_color),569216,blue,,,,null,GW/teeth.jpg,GW/snail.jpg,,,,,,,,,,,,
null,,rt_plussign_withcolor,569726,blue,,,,null,GW/teeth.jpg,GW/snail.jpg,,,,,,,,,,,,
1006.8000000715256,,rt_thecrossant_black,570697,black_plus_sign,,,,49,,,1,0.974025974025974,,,,,,,,,,
null,,color_black,570804,black_plus_sign,,,,null,,,,,,,,,,,,,,
null,,learn_phase(without_color),572810,black_plus_sign,,,,null,GW/snail.jpg,GW/globe.jpg,,,,,,,,,,,,
null,,black_cross(without_color),573450,blue,,,,null,GW/snail.jpg,GW/globe.jpg,,,,,,,,,,,,
null,,rt_plussign_withcolor,573957,blue,,,,null,GW/snail.jpg,GW/globe.jpg,,,,,,,,,,,,
1855.1000000238419,,rt_thecrossant_black,575333,black_plus_sign,,,,49,,,1,0.9743589743589743,,,,,,,,,,
null,,color_black,575442,black_plus_sign,,,,null,,,,,,,,,,,,,,
null,,learn_phase(without_color),577450,black_plus_sign,,,,null,GW/snail.jpg,GW/dustpan.jpg,,,,,,,,,,,,
null,,black_cross(without_color),578183,green,,,,null,GW/snail.jpg,GW/dustpan.jpg,,,,,,,,,,,,
null,,rt_plussign_withcolor,578693,green,,,,null,GW/snail.jpg,GW/dustpan.jpg,,,,,,,,,,,,
783.9000000953674,,rt_thecrossant_black,579968,black_plus_sign,,,,50,,,1,0.9746835443037974,,,,,,,,,,
null,,color_black,580071,black_plus_sign,,,,null,,,,,,,,,,,,,,
null,,learn_phase(without_color),582082,black_plus_sign,,,,null,GW/dustpan.jpg,GW/hat.jpg,,,,,,,,,,,,
null,,black_cross(without_color),583129,green,,,,null,GW/dustpan.jpg,GW/hat.jpg,,,,,,,,,,,,
null,,rt_plussign_withcolor,583632,green,,,,null,GW/dustpan.jpg,GW/hat.jpg,,,,,,,,,,,,
1097.2000000476837,,rt_thecrossant_black,584605,black_plus_sign,,,,50,,,1,0.975,,,,,,,,,,
null,,color_black,584709,black_plus_sign,,,,null,,,,,,,,,,,,,,
null,,learn_phase(without_color),586722,black_plus_sign,,,,null,GW/jukebox.jpg,GW/hat.jpg,,,,,,,,,,,,
null,,black_cross(without_color),587822,blue,,,,null,GW/jukebox.jpg,GW/hat.jpg,,,,,,,,,,,,
null,,rt_plussign_withcolor,588328,blue,,,,null,GW/jukebox.jpg,GW/hat.jpg,,,,,,,,,,,,
1328.6000000238419,,rt_thecrossant_black,589256,black_plus_sign,,,,49,,,1,0.9753086419753086,,,,,,,,,,
null,,color_black,589364,black_plus_sign,,,,null,,,,,,,,,,,,,,
null,,learn_phase(without_color),591368,black_plus_sign,,,,null,GW/globe.jpg,GW/barrel.jpg,,,,,,,,,,,,
null,,black_cross(without_color),592402,green,,,,null,GW/globe.jpg,GW/barrel.jpg,,,,,,,,,,,,
null,,rt_plussign_withcolor,592904,green,,,,null,GW/globe.jpg,GW/barrel.jpg,,,,,,,,,,,,
1355.8999999761581,,rt_thecrossant_black,593889,black_plus_sign,,,,50,,,1,0.975609756097561,,,,,,,,,,
null,,color_black,593998,black_plus_sign,,,,null,,,,,,,,,,,,,,
null,,learn_phase(without_color),596016,black_plus_sign,,,,null,GW/camera.jpg,GW/paint.jpg,,,,,,,,,,,,
null,,black_cross(without_color),596626,blue,,,,null,GW/camera.jpg,GW/paint.jpg,,,,,,,,,,,,
null,,rt_plussign_withcolor,597134,blue,,,,null,GW/camera.jpg,GW/paint.jpg,,,,,,,,,,,,
1359.1000000238419,,rt_thecrossant_black,598549,black_plus_sign,,,,49,,,1,0.9759036144578314,,,,,,,,,,
null,,color_black,598652,black_plus_sign,,,,null,,,,,,,,,,,,,,
null,,learn_phase(without_color),600664,black_plus_sign,,,,null,GW/snail.jpg,GW/dustpan.jpg,,,,,,,,,,,,
null,,black_cross(without_color),601478,green,,,,null,GW/snail.jpg,GW/dustpan.jpg,,,,,,,,,,,,
null,,rt_plussign_withcolor,601987,green,,,,null,GW/snail.jpg,GW/dustpan.jpg,,,,,,,,,,,,
1133.8999999761581,,rt_thecrossant_black,603193,black_plus_sign,,,,50,,,1,0.9761904761904762,,,,,,,,,,
null,,color_black,603299,black_plus_sign,,,,null,,,,,,,,,,,,,,
null,,learn_phase(without_color),605305,black_plus_sign,,,,null,GW/barrel.jpg,GW/gong.jpg,,,,,,,,,,,,
null,,black_cross(without_color),605765,blue,,,,null,GW/barrel.jpg,GW/gong.jpg,,,,,,,,,,,,
null,,rt_plussign_withcolor,606274,blue,,,,null,GW/barrel.jpg,GW/gong.jpg,,,,,,,,,,,,
1096.7000000476837,,rt_thecrossant_black,607824,black_plus_sign,,,,49,,,1,0.9764705882352941,,,,,,,,,,
null,,color_black,607927,black_plus_sign,,,,null,,,,,,,,,,,,,,
null,,learn_phase(without_color),609935,black_plus_sign,,,,null,GW/snail.jpg,GW/globe.jpg,,,,,,,,,,,,
null,,black_cross(without_color),610516,blue,,,,null,GW/snail.jpg,GW/globe.jpg,,,,,,,,,,,,
null,,rt_plussign_withcolor,611026,blue,,,,null,GW/snail.jpg,GW/globe.jpg,,,,,,,,,,,,
1240.7000000476837,,rt_thecrossant_black,612453,black_plus_sign,,,,50,,,0,0.9651162790697675,,,,,,,,,,
null,,color_black,612562,black_plus_sign,,,,null,,,,,,,,,,,,,,
null,,learn_phase(without_color),614574,black_plus_sign,,,,null,GW/globe.jpg,GW/barrel.jpg,,,,,,,,,,,,
null,,black_cross(without_color),615258,blue,,,,null,GW/globe.jpg,GW/barrel.jpg,,,,,,,,,,,,
null,,rt_plussign_withcolor,615767,blue,,,,null,GW/globe.jpg,GW/barrel.jpg,,,,,,,,,,,,
1312.7000000476837,,rt_thecrossant_black,617096,black_plus_sign,,,,49,,,1,0.9655172413793104,,,,,,,,,,
null,,color_black,617199,black_plus_sign,,,,null,,,,,,,,,,,,,,
null,,learn_phase(without_color),619205,black_plus_sign,,,,null,GW/teeth.jpg,GW/snail.jpg,,,,,,,,,,,,
null,,black_cross(without_color),619700,blue,,,,null,GW/teeth.jpg,GW/snail.jpg,,,,,,,,,,,,
null,,rt_plussign_withcolor,620208,blue,,,,null,GW/teeth.jpg,GW/snail.jpg,,,,,,,,,,,,
957.8999999761581,,rt_thecrossant_black,621736,black_plus_sign,,,,49,,,1,0.9659090909090909,,,,,,,,,,
null,,color_black,621846,black_plus_sign,,,,null,,,,,,,,,,,,,,
null,,learn_phase(without_color),623851,black_plus_sign,,,,null,GW/snail.jpg,GW/dustpan.jpg,,,,,,,,,,,,
null,,black_cross(without_color),624846,green,,,,null,GW/snail.jpg,GW/dustpan.jpg,,,,,,,,,,,,
497,,rt_plussign_withcolor,625350,green,,,,50,GW/snail.jpg,GW/dustpan.jpg,,,,,,,,,,,,
null,,rt_thecrossant_black,626377,black_plus_sign,,,,null,,,1,0.9662921348314607,,,,,,,,,,
null,,color_black,626494,black_plus_sign,,,,null,,,,,,,,,,,,,,
null,,learn_phase(without_color),628499,black_plus_sign,,,,null,GW/wheelchair.jpg,GW/jukebox.jpg,,,,,,,,,,,,
null,,black_cross(without_color),628987,green,,,,null,GW/wheelchair.jpg,GW/jukebox.jpg,,,,,,,,,,,,
null,,rt_plussign_withcolor,629490,green,,,,null,GW/wheelchair.jpg,GW/jukebox.jpg,,,,,,,,,,,,
1591.6000000238419,,rt_thecrossant_black,631014,black_plus_sign,,,,50,,,1,0.9666666666666667,,,,,,,,,,
null,,color_black,631122,black_plus_sign,,,,null,,,,,,,,,,,,,,
null,,learn_phase(without_color),633134,black_plus_sign,,,,null,GW/gong.jpg,GW/wheelchair.jpg,,,,,,,,,,,,
null,,black_cross(without_color),634037,blue,,,,null,GW/gong.jpg,GW/wheelchair.jpg,,,,,,,,,,,,
null,,rt_plussign_withcolor,634543,blue,,,,null,GW/gong.jpg,GW/wheelchair.jpg,,,,,,,,,,,,
782,,rt_thecrossant_black,635651,black_plus_sign,,,,49,,,1,0.967032967032967,,,,,,,,,,
null,,color_black,635757,black_plus_sign,,,,null,,,,,,,,,,,,,,
null,,learn_phase(without_color),637767,black_plus_sign,,,,null,GW/jukebox.jpg,GW/hat.jpg,,,,,,,,,,,,
null,,black_cross(without_color),638268,green,,,,null,GW/jukebox.jpg,GW/hat.jpg,,,,,,,,,,,,
null,,rt_plussign_withcolor,638770,green,,,,null,GW/jukebox.jpg,GW/hat.jpg,,,,,,,,,,,,
1624.7000000476837,,rt_thecrossant_black,640299,black_plus_sign,,,,50,,,1,0.967391304347826,,,,,,,,,,
null,,color_black,640408,black_plus_sign,,,,null,,,,,,,,,,,,,,
null,,learn_phase(without_color),642418,black_plus_sign,,,,null,GW/barrel.jpg,GW/wheelchair.jpg,,,,,,,,,,,,
null,,black_cross(without_color),643229,green,,,,null,GW/barrel.jpg,GW/wheelchair.jpg,,,,,,,,,,,,
null,,rt_plussign_withcolor,643738,green,,,,null,GW/barrel.jpg,GW/wheelchair.jpg,,,,,,,,,,,,
1285.5,,rt_thecrossant_black,644952,black_plus_sign,,,,50,,,1,0.967741935483871,,,,,,,,,,
null,,color_black,645060,black_plus_sign,,,,null,,,,,,,,,,,,,,
null,,learn_phase(without_color),647064,black_plus_sign,,,,null,GW/dustpan.jpg,GW/hat.jpg,,,,,,,,,,,,
null,,black_cross(without_color),647816,green,,,,null,GW/dustpan.jpg,GW/hat.jpg,,,,,,,,,,,,
null,,rt_plussign_withcolor,648320,green,,,,null,GW/dustpan.jpg,GW/hat.jpg,,,,,,,,,,,,
1046.5999999046326,,rt_thecrossant_black,649584,black_plus_sign,,,,50,,,1,0.9680851063829787,,,,,,,,,,
null,,color_black,649694,black_plus_sign,,,,null,,,,,,,,,,,,,,
null,,learn_phase(without_color),651704,black_plus_sign,,,,null,GW/snail.jpg,GW/dustpan.jpg,,,,,,,,,,,,
null,,black_cross(without_color),652570,blue,,,,null,GW/snail.jpg,GW/dustpan.jpg,,,,,,,,,,,,
null,,rt_plussign_withcolor,653082,blue,,,,null,GW/snail.jpg,GW/dustpan.jpg,,,,,,,,,,,,
941.8999999761581,,rt_thecrossant_black,654241,black_plus_sign,,,,49,,,1,0.968421052631579,,,,,,,,,,
null,,color_black,654352,black_plus_sign,,,,null,,,,,,,,,,,,,,
null,,learn_phase(without_color),656362,black_plus_sign,,,,null,GW/camera.jpg,GW/wheelchair.jpg,,,,,,,,,,,,
null,,black_cross(without_color),657304,green,,,,null,GW/camera.jpg,GW/wheelchair.jpg,,,,,,,,,,,,
null,,rt_plussign_withcolor,657807,green,,,,null,GW/camera.jpg,GW/wheelchair.jpg,,,,,,,,,,,,
1511.5,,rt_thecrossant_black,658878,black_plus_sign,,,,50,,,1,0.96875,,,,,,,,,,
null,,color_black,658987,black_plus_sign,,,,null,,,,,,,,,,,,,,
null,,learn_phase(without_color),660996,black_plus_sign,,,,null,GW/snail.jpg,GW/dustpan.jpg,,,,,,,,,,,,
null,,black_cross(without_color),661931,green,,,,null,GW/snail.jpg,GW/dustpan.jpg,,,,,,,,,,,,
null,,rt_plussign_withcolor,662439,green,,,,null,GW/snail.jpg,GW/dustpan.jpg,,,,,,,,,,,,
1394.3000000715256,,rt_thecrossant_black,663517,black_plus_sign,,,,50,,,1,0.9690721649484536,,,,,,,,,,
null,,color_black,663628,black_plus_sign,,,,null,,,,,,,,,,,,,,
null,,learn_phase(without_color),665647,black_plus_sign,,,,null,GW/barrel.jpg,GW/gong.jpg,,,,,,,,,,,,
null,,black_cross(without_color),666132,green,,,,null,GW/barrel.jpg,GW/gong.jpg,,,,,,,,,,,,
null,,rt_plussign_withcolor,666640,green,,,,null,GW/barrel.jpg,GW/gong.jpg,,,,,,,,,,,,
1630.3000000715256,,rt_thecrossant_black,668179,black_plus_sign,,,,50,,,1,0.9693877551020408,,,,,,,,,,
null,,color_black,668288,black_plus_sign,,,,null,,,,,,,,,,,,,,
null,,learn_phase(without_color),670302,black_plus_sign,,,,null,GW/camera.jpg,GW/paint.jpg,,,,,,,,,,,,
null,,black_cross(without_color),671138,green,,,,null,GW/camera.jpg,GW/paint.jpg,,,,,,,,,,,,
438.7000000476837,,rt_plussign_withcolor,671642,green,,,,50,GW/camera.jpg,GW/paint.jpg,,,,,,,,,,,,
null,,rt_thecrossant_black,672833,black_plus_sign,,,,null,,,1,0.9696969696969697,,,,,,,,,,
null,,color_black,672942,black_plus_sign,,,,null,,,,,,,,,,,,,,
null,,learn_phase(without_color),674948,black_plus_sign,,,,null,GW/gong.jpg,GW/camera.jpg,,,,,,,,,,,,
null,,black_cross(without_color),675444,blue,,,,null,GW/gong.jpg,GW/camera.jpg,,,,,,,,,,,,
null,,rt_plussign_withcolor,675958,blue,,,,null,GW/gong.jpg,GW/camera.jpg,,,,,,,,,,,,
983.7000000476837,,rt_thecrossant_black,677489,black_plus_sign,,,,49,,,1,0.97,,,,,,,,,,
null,,color_black,677591,black_plus_sign,,,,null,,,,,,,,,,,,,,
null,,learn_phase(without_color),679601,black_plus_sign,,,,null,GW/camera.jpg,GW/wheelchair.jpg,,,,,,,,,,,,
null,,black_cross(without_color),680612,green,,,,null,GW/camera.jpg,GW/wheelchair.jpg,,,,,,,,,,,,
379.10000002384186,,rt_plussign_withcolor,681116,green,,,,50,GW/camera.jpg,GW/wheelchair.jpg,,,,,,,,,,,,
null,,rt_thecrossant_black,682116,black_plus_sign,,,,null,,,1,0.9702970297029703,,,,,,,,,,
null,,color_black,682218,black_plus_sign,,,,null,,,,,,,,,,,,,,
null,,learn_phase(without_color),684223,black_plus_sign,,,,null,GW/gong.jpg,GW/soldier.jpg,,,,,,,,,,,,
null,,black_cross(without_color),685076,blue,,,,null,GW/gong.jpg,GW/soldier.jpg,,,,,,,,,,,,
null,,rt_plussign_withcolor,685583,blue,,,,null,GW/gong.jpg,GW/soldier.jpg,,,,,,,,,,,,
1571.7000000476837,,rt_thecrossant_black,686744,black_plus_sign,,,,49,,,1,0.9705882352941176,,,,,,,,,,
null,,color_black,686853,black_plus_sign,,,,null,,,,,,,,,,,,,,
null,,learn_phase(without_color),688857,black_plus_sign,,,,null,GW/gong.jpg,GW/camera.jpg,,,,,,,,,,,,
null,,black_cross(without_color),689472,blue,,,,null,GW/gong.jpg,GW/camera.jpg,,,,,,,,,,,,
null,,rt_plussign_withcolor,689987,blue,,,,null,GW/gong.jpg,GW/camera.jpg,,,,,,,,,,,,
1367.5,,rt_thecrossant_black,691387,black_plus_sign,,,,49,,,1,0.970873786407767,,,,,,,,,,
null,,color_black,691495,black_plus_sign,,,,null,,,,,,,,,,,,,,
null,,learn_phase(without_color),693513,black_plus_sign,,,,null,GW/gong.jpg,GW/soldier.jpg,,,,,,,,,,,,
null,,black_cross(without_color),694107,green,,,,null,GW/gong.jpg,GW/soldier.jpg,,,,,,,,,,,,
null,,rt_plussign_withcolor,694616,green,,,,null,GW/gong.jpg,GW/soldier.jpg,,,,,,,,,,,,
820.8000000715256,,rt_thecrossant_black,696050,black_plus_sign,,,,50,,,1,0.9711538461538461,,,,,,,,,,
null,,color_black,696153,black_plus_sign,,,,null,,,,,,,,,,,,,,
null,,learn_phase(without_color),698157,black_plus_sign,,,,null,GW/dustpan.jpg,GW/basket.jpg,,,,,,,,,,,,
null,,black_cross(without_color),699106,blue,,,,null,GW/dustpan.jpg,GW/basket.jpg,,,,,,,,,,,,
null,,rt_plussign_withcolor,699609,blue,,,,null,GW/dustpan.jpg,GW/basket.jpg,,,,,,,,,,,,
1012.3999999761581,,rt_thecrossant_black,700679,black_plus_sign,,,,49,,,1,0.9714285714285714,,,,,,,,,,
null,,color_black,700782,black_plus_sign,,,,null,,,,,,,,,,,,,,
null,,learn_phase(without_color),702799,black_plus_sign,,,,null,GW/gong.jpg,GW/wheelchair.jpg,,,,,,,,,,,,
null,,black_cross(without_color),703717,green,,,,null,GW/gong.jpg,GW/wheelchair.jpg,,,,,,,,,,,,
466.40000009536743,,rt_plussign_withcolor,704236,green,,,,50,GW/gong.jpg,GW/wheelchair.jpg,,,,,,,,,,,,
null,,rt_thecrossant_black,705335,black_plus_sign,,,,null,,,1,0.9716981132075472,,,,,,,,,,
null,,color_black,705438,black_plus_sign,,,,null,,,,,,,,,,,,,,
null,,learn_phase(without_color),707443,black_plus_sign,,,,null,GW/gong.jpg,GW/soldier.jpg,,,,,,,,,,,,
null,,black_cross(without_color),708513,blue,,,,null,GW/gong.jpg,GW/soldier.jpg,,,,,,,,,,,,
null,,rt_plussign_withcolor,709016,blue,,,,null,GW/gong.jpg,GW/soldier.jpg,,,,,,,,,,,,
1205.6000000238419,,rt_thecrossant_black,709952,black_plus_sign,,,,49,,,1,0.9719626168224299,,,,,,,,,,
null,,color_black,710062,black_plus_sign,,,,null,,,,,,,,,,,,,,
null,,learn_phase(without_color),712067,black_plus_sign,,,,null,GW/barrel.jpg,GW/wheelchair.jpg,,,,,,,,,,,,
null,,black_cross(without_color),712911,green,,,,null,GW/barrel.jpg,GW/wheelchair.jpg,,,,,,,,,,,,
null,,rt_plussign_withcolor,713423,green,,,,null,GW/barrel.jpg,GW/wheelchair.jpg,,,,,,,,,,,,
1408.2999999523163,,rt_thecrossant_black,714594,black_plus_sign,,,,50,,,1,0.9722222222222222,,,,,,,,,,
null,,color_black,714702,black_plus_sign,,,,null,,,,,,,,,,,,,,
null,,learn_phase(without_color),716713,black_plus_sign,,,,null,GW/dustpan.jpg,GW/hat.jpg,,,,,,,,,,,,
null,,black_cross(without_color),717463,blue,,,,null,GW/dustpan.jpg,GW/hat.jpg,,,,,,,,,,,,
null,,rt_plussign_withcolor,717970,blue,,,,null,GW/dustpan.jpg,GW/hat.jpg,,,,,,,,,,,,
1101.3999999761581,,rt_thecrossant_black,719251,black_plus_sign,,,,50,,,0,0.963302752293578,,,,,,,,,,
null,,color_black,719366,black_plus_sign,,,,null,,,,,,,,,,,,,,
null,,learn_phase(without_color),721372,black_plus_sign,,,,null,GW/camera.jpg,GW/wheelchair.jpg,,,,,,,,,,,,
null,,black_cross(without_color),722121,green,,,,null,GW/camera.jpg,GW/wheelchair.jpg,,,,,,,,,,,,
null,,rt_plussign_withcolor,722623,green,,,,null,GW/camera.jpg,GW/wheelchair.jpg,,,,,,,,,,,,
1011.5,,rt_thecrossant_black,723887,black_plus_sign,,,,50,,,1,0.9636363636363636,,,,,,,,,,
null,,color_black,723990,black_plus_sign,,,,null,,,,,,,,,,,,,,
null,,learn_phase(without_color),725998,black_plus_sign,,,,null,GW/wheelchair.jpg,GW/jukebox.jpg,,,,,,,,,,,,
null,,black_cross(without_color),726879,green,,,,null,GW/wheelchair.jpg,GW/jukebox.jpg,,,,,,,,,,,,
null,,rt_plussign_withcolor,727384,green,,,,null,GW/wheelchair.jpg,GW/jukebox.jpg,,,,,,,,,,,,
905.1000000238419,,rt_thecrossant_black,728516,black_plus_sign,,,,50,,,1,0.963963963963964,,,,,,,,,,
null,,color_black,728626,black_plus_sign,,,,null,,,,,,,,,,,,,,
null,,learn_phase(without_color),730637,black_plus_sign,,,,null,GW/globe.jpg,GW/jukebox.jpg,,,,,,,,,,,,
null,,black_cross(without_color),731047,blue,,,,null,GW/globe.jpg,GW/jukebox.jpg,,,,,,,,,,,,
null,,rt_plussign_withcolor,731556,blue,,,,null,GW/globe.jpg,GW/jukebox.jpg,,,,,,,,,,,,
1038.3999999761581,,rt_thecrossant_black,733169,black_plus_sign,,,,49,,,1,0.9642857142857143,,,,,,,,,,
null,,color_black,733284,black_plus_sign,,,,null,,,,,,,,,,,,,,
null,,learn_phase(without_color),735292,black_plus_sign,,,,null,GW/teeth.jpg,GW/snail.jpg,,,,,,,,,,,,
null,,black_cross(without_color),735822,green,,,,null,GW/teeth.jpg,GW/snail.jpg,,,,,,,,,,,,
null,,rt_plussign_withcolor,736328,green,,,,null,GW/teeth.jpg,GW/snail.jpg,,,,,,,,,,,,
1080.2999999523163,,rt_thecrossant_black,737823,black_plus_sign,,,,50,,,1,0.9646017699115044,,,,,,,,,,
null,,color_black,737932,black_plus_sign,,,,null,,,,,,,,,,,,,,
null,,learn_phase(without_color),739937,black_plus_sign,,,,null,GW/wheelchair.jpg,GW/jukebox.jpg,,,,,,,,,,,,
null,,black_cross(without_color),740982,green,,,,null,GW/wheelchair.jpg,GW/jukebox.jpg,,,,,,,,,,,,
null,,rt_plussign_withcolor,741490,green,,,,null,GW/wheelchair.jpg,GW/jukebox.jpg,,,,,,,,,,,,
823.6000000238419,,rt_thecrossant_black,742463,black_plus_sign,,,,50,,,1,0.9649122807017544,,,,,,,,,,
null,,color_black,742571,black_plus_sign,,,,null,,,,,,,,,,,,,,
null,,learn_phase(without_color),744584,black_plus_sign,,,,null,GW/snail.jpg,GW/globe.jpg,,,,,,,,,,,,
null,,black_cross(without_color),745632,blue,,,,null,GW/snail.jpg,GW/globe.jpg,,,,,,,,,,,,
null,,rt_plussign_withcolor,746142,blue,,,,null,GW/snail.jpg,GW/globe.jpg,,,,,,,,,,,,
1351.1999999284744,,rt_thecrossant_black,747124,black_plus_sign,,,,49,,,1,0.9652173913043478,,,,,,,,,,
null,,color_black,747232,black_plus_sign,,,,null,,,,,,,,,,,,,,
null,,learn_phase(without_color),749235,black_plus_sign,,,,null,GW/jukebox.jpg,GW/hat.jpg,,,,,,,,,,,,
null,,black_cross(without_color),749707,blue,,,,null,GW/jukebox.jpg,GW/hat.jpg,,,,,,,,,,,,
null,,rt_plussign_withcolor,750210,blue,,,,null,GW/jukebox.jpg,GW/hat.jpg,,,,,,,,,,,,
1929.3999999761581,,rt_thecrossant_black,751756,black_plus_sign,,,,49,,,1,0.9655172413793104,,,,,,,,,,
null,,color_black,751858,black_plus_sign,,,,null,,,,,,,,,,,,,,
null,,learn_phase(without_color),753866,black_plus_sign,,,,null,GW/gong.jpg,GW/soldier.jpg,,,,,,,,,,,,
null,,black_cross(without_color),754484,blue,,,,null,GW/gong.jpg,GW/soldier.jpg,,,,,,,,,,,,
null,,rt_plussign_withcolor,754992,blue,,,,null,GW/gong.jpg,GW/soldier.jpg,,,,,,,,,,,,
820.4000000953674,,rt_thecrossant_black,756391,black_plus_sign,,,,49,,,1,0.9658119658119658,,,,,,,,,,
null,,color_black,756508,black_plus_sign,,,,null,,,,,,,,,,,,,,
null,,learn_phase(without_color),758514,black_plus_sign,,,,null,GW/gong.jpg,GW/camera.jpg,,,,,,,,,,,,
null,,black_cross(without_color),759568,blue,,,,null,GW/gong.jpg,GW/camera.jpg,,,,,,,,,,,,
null,,rt_plussign_withcolor,760085,blue,,,,null,GW/gong.jpg,GW/camera.jpg,,,,,,,,,,,,
787.6000000238419,,rt_thecrossant_black,761051,black_plus_sign,,,,49,,,1,0.9661016949152542,,,,,,,,,,
null,,color_black,761168,black_plus_sign,,,,null,,,,,,,,,,,,,,
null,,learn_phase(without_color),763172,black_plus_sign,,,,null,GW/barrel.jpg,GW/gong.jpg,,,,,,,,,,,,
null,,black_cross(without_color),763737,green,,,,null,GW/barrel.jpg,GW/gong.jpg,,,,,,,,,,,,
null,,rt_plussign_withcolor,764242,green,,,,null,GW/barrel.jpg,GW/gong.jpg,,,,,,,,,,,,
1328.8000000715256,,rt_thecrossant_black,765684,black_plus_sign,,,,50,,,1,0.9663865546218487,,,,,,,,,,
null,,color_black,765792,black_plus_sign,,,,null,,,,,,,,,,,,,,
null,,learn_phase(without_color),767795,black_plus_sign,,,,null,GW/globe.jpg,GW/jukebox.jpg,,,,,,,,,,,,
null,,black_cross(without_color),768640,blue,,,,null,GW/globe.jpg,GW/jukebox.jpg,,,,,,,,,,,,
null,,rt_plussign_withcolor,769142,blue,,,,null,GW/globe.jpg,GW/jukebox.jpg,,,,,,,,,,,,
899.2999999523163,,rt_thecrossant_black,770306,black_plus_sign,,,,49,,,1,0.9666666666666667,,,,,,,,,,
null,,color_black,770408,black_plus_sign,,,,null,,,,,,,,,,,,,,
null,,learn_phase(without_color),772422,black_plus_sign,,,,null,GW/dustpan.jpg,GW/hat.jpg,,,,,,,,,,,,
null,,black_cross(without_color),772889,green,,,,null,GW/dustpan.jpg,GW/hat.jpg,,,,,,,,,,,,
null,,rt_plussign_withcolor,773394,green,,,,null,GW/dustpan.jpg,GW/hat.jpg,,,,,,,,,,,,
1201.7000000476837,,rt_thecrossant_black,774941,black_plus_sign,,,,50,,,1,0.9669421487603306,,,,,,,,,,
null,,color_black,775050,black_plus_sign,,,,null,,,,,,,,,,,,,,
null,,learn_phase(without_color),777068,black_plus_sign,,,,null,GW/teeth.jpg,GW/snail.jpg,,,,,,,,,,,,
null,,black_cross(without_color),777757,blue,,,,null,GW/teeth.jpg,GW/snail.jpg,,,,,,,,,,,,
null,,rt_plussign_withcolor,778275,blue,,,,null,GW/teeth.jpg,GW/snail.jpg,,,,,,,,,,,,
938,,rt_thecrossant_black,779603,black_plus_sign,,,,49,,,1,0.9672131147540983,,,,,,,,,,
null,,color_black,779711,black_plus_sign,,,,null,,,,,,,,,,,,,,
null,,learn_phase(without_color),781720,black_plus_sign,,,,null,GW/gong.jpg,GW/soldier.jpg,,,,,,,,,,,,
null,,black_cross(without_color),782255,green,,,,null,GW/gong.jpg,GW/soldier.jpg,,,,,,,,,,,,
null,,rt_plussign_withcolor,782766,green,,,,null,GW/gong.jpg,GW/soldier.jpg,,,,,,,,,,,,
1323.6000000238419,,rt_thecrossant_black,784249,black_plus_sign,,,,50,,,1,0.967479674796748,,,,,,,,,,
null,,color_black,784357,black_plus_sign,,,,null,,,,,,,,,,,,,,
null,,learn_phase(without_color),786362,black_plus_sign,,,,null,GW/gong.jpg,GW/camera.jpg,,,,,,,,,,,,
null,,black_cross(without_color),786815,blue,,,,null,GW/gong.jpg,GW/camera.jpg,,,,,,,,,,,,
null,,rt_plussign_withcolor,787322,blue,,,,null,GW/gong.jpg,GW/camera.jpg,,,,,,,,,,,,
1005.6000000238419,,rt_thecrossant_black,788892,black_plus_sign,,,,50,,,0,0.9596774193548387,,,,,,,,,,
null,,color_black,789000,black_plus_sign,,,,null,,,,,,,,,,,,,,
null,,learn_phase(without_color),791007,black_plus_sign,,,,null,GW/globe.jpg,GW/jukebox.jpg,,,,,,,,,,,,
null,,black_cross(without_color),791718,blue,,,,null,GW/globe.jpg,GW/jukebox.jpg,,,,,,,,,,,,
null,,rt_plussign_withcolor,792228,blue,,,,null,GW/globe.jpg,GW/jukebox.jpg,,,,,,,,,,,,
605.3999999761581,,rt_thecrossant_black,793541,black_plus_sign,,,,49,,,1,0.96,,,,,,,,,,
null,,color_black,793651,black_plus_sign,,,,null,,,,,,,,,,,,,,
null,,learn_phase(without_color),795657,black_plus_sign,,,,null,GW/jukebox.jpg,GW/hat.jpg,,,,,,,,,,,,
null,,black_cross(without_color),796363,blue,,,,null,GW/jukebox.jpg,GW/hat.jpg,,,,,,,,,,,,
null,,rt_plussign_withcolor,796868,blue,,,,null,GW/jukebox.jpg,GW/hat.jpg,,,,,,,,,,,,
1088.8000000715256,,rt_thecrossant_black,798181,black_plus_sign,,,,49,,,1,0.9603174603174603,,,,,,,,,,
null,,color_black,798289,black_plus_sign,,,,null,,,,,,,,,,,,,,
null,,learn_phase(without_color),800297,black_plus_sign,,,,null,GW/camera.jpg,GW/paint.jpg,,,,,,,,,,,,
null,,black_cross(without_color),801248,green,,,,null,GW/camera.jpg,GW/paint.jpg,,,,,,,,,,,,
null,,rt_plussign_withcolor,801757,green,,,,null,GW/camera.jpg,GW/paint.jpg,,,,,,,,,,,,
1011.8999999761581,,rt_thecrossant_black,802822,black_plus_sign,,,,50,,,1,0.9606299212598425,,,,,,,,,,
null,,color_black,802931,black_plus_sign,,,,null,,,,,,,,,,,,,,
null,,learn_phase(without_color),804938,black_plus_sign,,,,null,GW/globe.jpg,GW/jukebox.jpg,,,,,,,,,,,,
null,,black_cross(without_color),805971,green,,,,null,GW/globe.jpg,GW/jukebox.jpg,,,,,,,,,,,,
null,,rt_plussign_withcolor,806482,green,,,,null,GW/globe.jpg,GW/jukebox.jpg,,,,,,,,,,,,
null,,rt_thecrossant_black,807463,black_plus_sign,,,,null,,,,0.9606299212598425,,,,,,,,,,
null,,color_black,807571,black_plus_sign,,,,null,,,,,,,,,,,,,,
23272.5,,intro_1,830847,instruct,,0,Start,,,,,,,,,,,,,,,
null,,directmemory_phase,837353,GW/hat.jpg,,,,null,,,0,0,GW/jukebox.jpg,GW/teeth.jpg,GW/wheelchair.jpg,GW/jukebox.jpg,GW/wheelchair.jpg,GW/teeth.jpg,0,,,
null,,html-keyboard-response,838361,<p></p>,,,,null,,,,,,,,,,,,,,
null,,directmemory_phase,844880,GW/globe.jpg,,,,null,,,0,0,GW/soldier.jpg,GW/hat.jpg,GW/barrel.jpg,GW/barrel.jpg,GW/hat.jpg,GW/soldier.jpg,0,,,
null,,html-keyboard-response,845887,<p></p>,,,,null,,,,,,,,,,,,,,
1910.2999999523163,,directmemory_phase,847799,GW/dustpan.jpg,,,,49,,,0,0,GW/jukebox.jpg,GW/hat.jpg,GW/wheelchair.jpg,GW/hat.jpg,GW/jukebox.jpg,GW/wheelchair.jpg,0.5,closer,,
null,,html-keyboard-response,848813,<p></p>,,,,null,,,,,,,,,,,,,,
3558.5,,directmemory_phase,852374,GW/wheelchair.jpg,,,,49,,,1,0.25,GW/barrel.jpg,GW/teeth.jpg,GW/paint.jpg,GW/barrel.jpg,GW/paint.jpg,GW/teeth.jpg,1,,,
null,,html-keyboard-response,853382,<p></p>,,,,null,,,,,,,,,,,,,,
2111.100000023842,,directmemory_phase,855495,GW/snail.jpg,,,,49,,,1,0.4,GW/dustpan.jpg,GW/wheelchair.jpg,GW/jukebox.jpg,GW/dustpan.jpg,GW/jukebox.jpg,GW/wheelchair.jpg,1,,,
null,,html-keyboard-response,856513,<p></p>,,,,null,,,,,,,,,,,,,,
1887.7000000476837,,directmemory_phase,858403,GW/camera.jpg,,,,49,,,1,0.5,GW/gong.jpg,GW/hat.jpg,GW/jukebox.jpg,GW/gong.jpg,GW/jukebox.jpg,GW/hat.jpg,1,,,
null,,html-keyboard-response,859414,<p></p>,,,,null,,,,,,,,,,,,,,
1634.2999999523163,,directmemory_phase,861050,GW/dustpan.jpg,,,,50,,,1,0.5714285714285714,GW/jukebox.jpg,GW/basket.jpg,GW/camera.jpg,GW/basket.jpg,GW/jukebox.jpg,GW/camera.jpg,1,,,
null,,html-keyboard-response,862056,<p></p>,,,,null,,,,,,,,,,,,,,
3005.1999999284744,,directmemory_phase,865062,GW/jukebox.jpg,,,,50,,,0,0.5,GW/wheelchair.jpg,GW/paint.jpg,GW/camera.jpg,GW/wheelchair.jpg,GW/camera.jpg,GW/paint.jpg,0.5,closer,,
null,,html-keyboard-response,866074,<p></p>,,,,null,,,,,,,,,,,,,,
1955.8999999761581,,directmemory_phase,868033,GW/soldier.jpg,,,,50,,,0,0.4444444444444444,GW/gong.jpg,GW/snail.jpg,GW/barrel.jpg,GW/gong.jpg,GW/barrel.jpg,GW/snail.jpg,0.5,closer,,
null,,html-keyboard-response,869043,<p></p>,,,,null,,,,,,,,,,,,,,
2715.100000023842,,directmemory_phase,871760,GW/barrel.jpg,,,,51,,,1,0.5,GW/teeth.jpg,GW/jukebox.jpg,GW/globe.jpg,GW/globe.jpg,GW/jukebox.jpg,GW/teeth.jpg,1,,,
null,,html-keyboard-response,872780,<p></p>,,,,null,,,,,,,,,,,,,,
2040.6000000238419,,directmemory_phase,874822,GW/paint.jpg,,,,50,,,0,0.45454545454545453,GW/hat.jpg,GW/gong.jpg,GW/camera.jpg,GW/camera.jpg,GW/gong.jpg,GW/hat.jpg,0.5,closer,,
null,,html-keyboard-response,875831,<p></p>,,,,null,,,,,,,,,,,,,,
1081.8999999761581,,directmemory_phase,876914,GW/gong.jpg,,,,51,,,0,0.4166666666666667,GW/globe.jpg,GW/barrel.jpg,GW/snail.jpg,GW/barrel.jpg,GW/globe.jpg,GW/snail.jpg,0.5,closer,,
null,,html-keyboard-response,877921,<p></p>,,,,null,,,,,,,,,,,,,,
1597.9000000953674,,directmemory_phase,879521,GW/jukebox.jpg,,,,49,,,0,0.38461538461538464,GW/soldier.jpg,GW/dustpan.jpg,GW/globe.jpg,GW/globe.jpg,GW/dustpan.jpg,GW/soldier.jpg,0.5,closer,,
null,,html-keyboard-response,880525,<p></p>,,,,null,,,,,,,,,,,,,,
2668.399999976158,,directmemory_phase,883195,GW/gong.jpg,,,,51,,,0,0.35714285714285715,GW/camera.jpg,GW/dustpan.jpg,GW/paint.jpg,GW/camera.jpg,GW/paint.jpg,GW/dustpan.jpg,0.5,closer,,
null,,html-keyboard-response,884204,<p></p>,,,,null,,,,,,,,,,,,,,
1247.2999999523163,,directmemory_phase,885454,GW/barrel.jpg,,,,50,,,0,0.3333333333333333,GW/teeth.jpg,GW/jukebox.jpg,GW/wheelchair.jpg,GW/wheelchair.jpg,GW/jukebox.jpg,GW/teeth.jpg,0.5,closer,,
null,,html-keyboard-response,886465,<p></p>,,,,null,,,,,,,,,,,,,,
1863.2000000476837,,directmemory_phase,888330,GW/dustpan.jpg,,,,50,,,0,0.3125,GW/wheelchair.jpg,GW/globe.jpg,GW/snail.jpg,GW/snail.jpg,GW/globe.jpg,GW/wheelchair.jpg,0.5,closer,,
null,,html-keyboard-response,889335,<p></p>,,,,null,,,,,,,,,,,,,,
1557.6000000238419,,directmemory_phase,890895,GW/wheelchair.jpg,,,,51,,,1,0.35294117647058826,GW/basket.jpg,GW/paint.jpg,GW/camera.jpg,GW/camera.jpg,GW/paint.jpg,GW/basket.jpg,1,,,
null,,html-keyboard-response,891906,<p></p>,,,,null,,,,,,,,,,,,,,
1864.1000000238419,,directmemory_phase,893772,GW/globe.jpg,,,,51,,,0,0.3333333333333333,GW/snail.jpg,GW/paint.jpg,GW/dustpan.jpg,GW/snail.jpg,GW/dustpan.jpg,GW/paint.jpg,0.5,closer,,
null,,html-keyboard-response,894790,<p></p>,,,,null,,,,,,,,,,,,,,
2140.7000000476837,,directmemory_phase,896932,GW/gong.jpg,,,,49,,,0,0.3157894736842105,GW/hat.jpg,GW/globe.jpg,GW/wheelchair.jpg,GW/wheelchair.jpg,GW/globe.jpg,GW/hat.jpg,0.5,closer,,
null,,html-keyboard-response,897942,<p></p>,,,,null,,,,,,,,,,,,,,
2071,,directmemory_phase,900015,GW/jukebox.jpg,,,,51,,,1,0.35,GW/paint.jpg,GW/barrel.jpg,GW/hat.jpg,GW/hat.jpg,GW/barrel.jpg,GW/paint.jpg,1,,,
null,,html-keyboard-response,901021,<p></p>,,,,null,,,,,,,,,,,,,,
1477.2000000476837,,directmemory_phase,902500,GW/camera.jpg,,,,51,,,1,0.38095238095238093,GW/dustpan.jpg,GW/barrel.jpg,GW/wheelchair.jpg,GW/wheelchair.jpg,GW/barrel.jpg,GW/dustpan.jpg,1,,,
null,,html-keyboard-response,903510,<p></p>,,,,null,,,,,,,,,,,,,,
2141.7000000476837,,directmemory_phase,905653,GW/snail.jpg,,,,50,,,1,0.4090909090909091,GW/basket.jpg,GW/teeth.jpg,GW/gong.jpg,GW/teeth.jpg,GW/basket.jpg,GW/gong.jpg,1,,,
null,,html-keyboard-response,906670,<p></p>,,,,null,,,,,,,,,,,,,,
2284.399999976158,,directmemory_phase,908956,GW/camera.jpg,,,,50,,,1,0.43478260869565216,GW/barrel.jpg,GW/paint.jpg,GW/globe.jpg,GW/paint.jpg,GW/barrel.jpg,GW/globe.jpg,1,,,
null,,html-keyboard-response,909963,<p></p>,,,,null,,,,,,,,,,,,,,
2459.600000023842,,directmemory_phase,912425,GW/wheelchair.jpg,,,,51,,,1,0.4583333333333333,GW/snail.jpg,GW/paint.jpg,GW/jukebox.jpg,GW/jukebox.jpg,GW/paint.jpg,GW/snail.jpg,1,,,
null,,html-keyboard-response,913434,<p></p>,,,,null,,,,,,,,,,,,,,
1789.2000000476837,,directmemory_phase,915225,GW/teeth.jpg,,,,50,,,0,0.44,GW/snail.jpg,GW/jukebox.jpg,GW/dustpan.jpg,GW/snail.jpg,GW/dustpan.jpg,GW/jukebox.jpg,0.5,closer,,
null,,html-keyboard-response,916232,<p></p>,,,,null,,,,,,,,,,,,,,
2224.399999976158,,directmemory_phase,918459,GW/hat.jpg,,,,49,,,1,0.46153846153846156,GW/dustpan.jpg,GW/camera.jpg,GW/wheelchair.jpg,GW/dustpan.jpg,GW/wheelchair.jpg,GW/camera.jpg,1,,,
null,,html-keyboard-response,919469,<p></p>,,,,null,,,,,,,,,,,,,,
1527.5,,directmemory_phase,920999,GW/snail.jpg,,,,50,,,0,0.4444444444444444,GW/camera.jpg,GW/barrel.jpg,GW/globe.jpg,GW/globe.jpg,GW/barrel.jpg,GW/camera.jpg,0.5,closer,,
null,,html-keyboard-response,922010,<p></p>,,,,null,,,,,,,,,,,,,,
1712.2000000476837,,directmemory_phase,923724,GW/basket.jpg,,,,51,,,0,0.42857142857142855,GW/dustpan.jpg,GW/jukebox.jpg,GW/hat.jpg,GW/dustpan.jpg,GW/hat.jpg,GW/jukebox.jpg,0.5,closer,,
null,,html-keyboard-response,924739,<p></p>,,,,null,,,,,,,,,,,,,,
1061.5,,directmemory_phase,925802,GW/gong.jpg,,,,50,,,0,0.41379310344827586,GW/snail.jpg,GW/paint.jpg,GW/soldier.jpg,GW/soldier.jpg,GW/paint.jpg,GW/snail.jpg,0.5,closer,,
null,,html-keyboard-response,926812,<p></p>,,,,null,,,,,,,,,,,,,,
1207.1999999284744,,directmemory_phase,928021,GW/globe.jpg,,,,51,,,0,0.4,GW/jukebox.jpg,GW/camera.jpg,GW/dustpan.jpg,GW/jukebox.jpg,GW/dustpan.jpg,GW/camera.jpg,0.5,closer,,
null,,html-keyboard-response,929031,<p></p>,,,,null,,,,,,,,,,,,,,
1526.5,,directmemory_phase,930560,GW/barrel.jpg,,,,50,,,0,0.3870967741935484,GW/paint.jpg,GW/jukebox.jpg,GW/gong.jpg,GW/gong.jpg,GW/jukebox.jpg,GW/paint.jpg,0.5,closer,,
null,,html-keyboard-response,931578,<p></p>,,,,null,,,,,,,,,,,,,,
null,,directmemory_phase,938088,,,,,null,,,0,0.375,,,,,,,0,,,
null,,html-keyboard-response,939092,<p></p>,,,,null,,,,,,,,,,,,,,
85151.80000007153,,intro_1,1024247,instruct,,0,,,,,,,,,,,,,,,,
10907.700000047684,,intro_2,1035159,instruct,,1,Next,,,,,,,,,,,,,,,
4120.700000047684,,intro_3,1039285,instruct,,1,Next,,,,,,,,,,,,,,,
5144.400000095367,,intro_4,1044433,instruct,,1,Next,,,,,,,,,,,,,,,
6498.899999976158,,intro_5,1050936,instruct,,1,Next,,,,,,,,,,,,,,,
1950.2999999523163,,intro_6,1052890,instruct,,1,Next,,,,,,,,,,,,,,,
941.1000000238419,,intro_7,1053834,instruct,,1,Next,,,,,,,,,,,,,,,
18542.900000095367,,intro_8,1072382,instruct,,1,Next,,,,,,,,,,,,,,,
1782.8999999761581,,shortestpath_phase,1074171,GW/soldier.jpg,,,,49,GW/barrel.jpg,GW/basket.jpg,1,1,,,,GW/barrel.jpg,,,,,Four Edge Diff,Two Edge Six Edge
null,,html-keyboard-response,1075182,<p></p>,,,,null,,,,,,,,,,,,,,
1628.1000000238419,,shortestpath_phase,1076812,GW/dustpan.jpg,,,,49,GW/paint.jpg,GW/jukebox.jpg,0,0.5,,,,GW/jukebox.jpg,,,,,Three Edge Diff,Two Edge Five Edge
null,,html-keyboard-response,1077817,<p></p>,,,,null,,,,,,,,,,,,,,
1795.2999999523163,,shortestpath_phase,1079614,GW/soldier.jpg,,,,49,GW/teeth.jpg,GW/camera.jpg,0,0.3333333333333333,,,,GW/camera.jpg,,,,,Three Edge Diff,Two Edge Five Edge
null,,html-keyboard-response,1080617,<p></p>,,,,null,,,,,,,,,,,,,,
1615.7000000476837,,shortestpath_phase,1082235,GW/paint.jpg,,,,49,GW/snail.jpg,GW/basket.jpg,1,0.5,,,,GW/snail.jpg,,,,,One Edge Diff,Five Edge Six Edge
null,,html-keyboard-response,1083249,<p></p>,,,,null,,,,,,,,,,,,,,
1563.4000000953674,,shortestpath_phase,1084814,GW/basket.jpg,,,,49,GW/soldier.jpg,GW/wheelchair.jpg,0,0.4,,,,GW/wheelchair.jpg,,,,,Two Edge Diff,Four Edge Six Edge
null,,html-keyboard-response,1085826,<p></p>,,,,null,,,,,,,,,,,,,,
1569.2999999523163,,shortestpath_phase,1087398,GW/soldier.jpg,,,,49,GW/dustpan.jpg,GW/snail.jpg,0,0.3333333333333333,,,,GW/snail.jpg,,,,,One Edge Diff,Four Edge Five Edge
null,,html-keyboard-response,1088406,<p></p>,,,,null,,,,,,,,,,,,,,
1539.7000000476837,,shortestpath_phase,1089947,GW/paint.jpg,,,,49,GW/dustpan.jpg,GW/teeth.jpg,1,0.42857142857142855,,,,GW/dustpan.jpg,,,,,One Edge Diff,Five Edge Six Edge
null,,html-keyboard-response,1090960,<p></p>,,,,null,,,,,,,,,,,,,,
1217.7999999523163,,shortestpath_phase,1092180,GW/soldier.jpg,,,,50,GW/wheelchair.jpg,GW/dustpan.jpg,0,0.375,,,,GW/wheelchair.jpg,,,,,Three Edge Diff,Three Edge Six Edge
null,,html-keyboard-response,1093184,<p></p>,,,,null,,,,,,,,,,,,,,
1615.5,,shortestpath_phase,1094801,GW/teeth.jpg,,,,50,GW/gong.jpg,GW/jukebox.jpg,1,0.4444444444444444,,,,GW/jukebox.jpg,,,,,One Edge Diff,Three Edge Four Edge
null,,html-keyboard-response,1095814,<p></p>,,,,null,,,,,,,,,,,,,,
1551.3999999761581,,shortestpath_phase,1097367,GW/soldier.jpg,,,,49,GW/basket.jpg,GW/camera.jpg,0,0.4,,,,GW/camera.jpg,,,,,Four Edge Diff,Two Edge Six Edge
null,,html-keyboard-response,1098386,<p></p>,,,,null,,,,,,,,,,,,,,
1422.9000000953674,,shortestpath_phase,1099811,GW/snail.jpg,,,,50,GW/camera.jpg,GW/basket.jpg,1,0.45454545454545453,,,,GW/basket.jpg,,,,,Two Edge Diff,Two Edge Four Edge
null,,html-keyboard-response,1100827,<p></p>,,,,null,,,,,,,,,,,,,,
1969.8999999761581,,shortestpath_phase,1102799,GW/camera.jpg,,,,50,GW/teeth.jpg,GW/globe.jpg,1,0.5,,,,GW/globe.jpg,,,,,Two Edge Diff,Three Edge Five Edge
null,,html-keyboard-response,1103816,<p></p>,,,,null,,,,,,,,,,,,,,
1150.8999999761581,,shortestpath_phase,1104969,GW/soldier.jpg,,,,50,GW/wheelchair.jpg,GW/basket.jpg,0,0.46153846153846156,,,,GW/wheelchair.jpg,,,,,Four Edge Diff,Two Edge Six Edge
null,,html-keyboard-response,1105974,<p></p>,,,,null,,,,,,,,,,,,,,
2240.7999999523163,,shortestpath_phase,1108217,GW/paint.jpg,,,,50,GW/dustpan.jpg,GW/hat.jpg,1,0.5,,,,GW/hat.jpg,,,,,One Edge Diff,Four Edge Five Edge
null,,html-keyboard-response,1109222,<p></p>,,,,null,,,,,,,,,,,,,,
1652.1000000238419,,shortestpath_phase,1110876,GW/teeth.jpg,,,,50,GW/paint.jpg,GW/globe.jpg,1,0.5333333333333333,,,,GW/globe.jpg,,,,,Four Edge Diff,Two Edge Six Edge
null,,html-keyboard-response,1111892,<p></p>,,,,null,,,,,,,,,,,,,,
1590.2000000476837,,shortestpath_phase,1113484,GW/barrel.jpg,,,,49,GW/dustpan.jpg,GW/basket.jpg,1,0.5625,,,,GW/dustpan.jpg,,,,,One Edge Diff,Three Edge Four Edge
null,,html-keyboard-response,1114488,<p></p>,,,,null,,,,,,,,,,,,,,
1524.0999999046326,,shortestpath_phase,1116014,GW/wheelchair.jpg,,,,49,GW/paint.jpg,GW/dustpan.jpg,1,0.5882352941176471,,,,GW/paint.jpg,,,,,One Edge Diff,Two Edge Three Edge
null,,html-keyboard-response,1117024,<p></p>,,,,null,,,,,,,,,,,,,,
1823.3000000715256,,shortestpath_phase,1118849,GW/globe.jpg,,,,49,GW/soldier.jpg,GW/teeth.jpg,0,0.5555555555555556,,,,GW/teeth.jpg,,,,,One Edge Diff,Two Edge Three Edge
null,,html-keyboard-response,1119860,<p></p>,,,,null,,,,,,,,,,,,,,
1854.7000000476837,,shortestpath_phase,1121717,GW/paint.jpg,,,,49,GW/gong.jpg,GW/dustpan.jpg,1,0.5789473684210527,,,,GW/gong.jpg,,,,,Three Edge Diff,Two Edge Five Edge
null,,html-keyboard-response,1122724,<p></p>,,,,null,,,,,,,,,,,,,,
1406.6000000238419,,shortestpath_phase,1124133,GW/dustpan.jpg,,,,49,GW/paint.jpg,GW/camera.jpg,0,0.55,,,,GW/camera.jpg,,,,,One Edge Diff,Four Edge Five Edge
null,,html-keyboard-response,1125144,<p></p>,,,,null,,,,,,,,,,,,,,
1445.5,,shortestpath_phase,1126592,GW/snail.jpg,,,,50,GW/barrel.jpg,GW/paint.jpg,0,0.5238095238095238,,,,GW/barrel.jpg,,,,,Three Edge Diff,Three Edge Six Edge
null,,html-keyboard-response,1127604,<p></p>,,,,null,,,,,,,,,,,,,,
1185,,shortestpath_phase,1128792,GW/camera.jpg,,,,50,GW/dustpan.jpg,GW/globe.jpg,1,0.5454545454545454,,,,GW/globe.jpg,,,,,One Edge Diff,Three Edge Four Edge
null,,html-keyboard-response,1129802,<p></p>,,,,null,,,,,,,,,,,,,,
1193.6000000238419,,shortestpath_phase,1130998,GW/paint.jpg,,,,49,GW/globe.jpg,GW/wheelchair.jpg,0,0.5217391304347826,,,,GW/wheelchair.jpg,,,,,Two Edge Diff,Two Edge Four Edge
null,,html-keyboard-response,1132005,<p></p>,,,,null,,,,,,,,,,,,,,
1408.5,,shortestpath_phase,1133415,GW/hat.jpg,,,,50,GW/gong.jpg,GW/soldier.jpg,0,0.5,,,,GW/gong.jpg,,,,,One Edge Diff,Three Edge Four Edge
null,,html-keyboard-response,1134429,<p></p>,,,,null,,,,,,,,,,,,,,
1450.6999999284744,,shortestpath_phase,1135884,GW/basket.jpg,,,,50,GW/camera.jpg,GW/snail.jpg,1,0.52,,,,GW/snail.jpg,,,,,Three Edge Diff,Two Edge Five Edge
null,,html-keyboard-response,1136890,<p></p>,,,,null,,,,,,,,,,,,,,
1457.7999999523163,,shortestpath_phase,1138350,GW/paint.jpg,,,,50,GW/gong.jpg,GW/basket.jpg,0,0.5,,,,GW/gong.jpg,,,,,Four Edge Diff,Two Edge Six Edge
null,,html-keyboard-response,1139362,<p></p>,,,,null,,,,,,,,,,,,,,
1563.3999999761581,,shortestpath_phase,1140928,GW/soldier.jpg,,,,50,GW/basket.jpg,GW/hat.jpg,1,0.5185185185185185,,,,GW/hat.jpg,,,,,Two Edge Diff,Four Edge Six Edge
null,,html-keyboard-response,1141932,<p></p>,,,,null,,,,,,,,,,,,,,
1695,,shortestpath_phase,1143629,GW/barrel.jpg,,,,50,GW/basket.jpg,GW/teeth.jpg,1,0.5357142857142857,,,,GW/teeth.jpg,,,,,One Edge Diff,Three Edge Four Edge
null,,html-keyboard-response,1144641,<p></p>,,,,null,,,,,,,,,,,,,,
1244.5,,shortestpath_phase,1145887,GW/basket.jpg,,,,50,GW/barrel.jpg,GW/hat.jpg,1,0.5517241379310345,,,,GW/hat.jpg,,,,,Two Edge Diff,Two Edge Four Edge
null,,html-keyboard-response,1146895,<p></p>,,,,null,,,,,,,,,,,,,,
2086.2999999523163,,shortestpath_phase,1148984,GW/camera.jpg,,,,49,GW/snail.jpg,GW/basket.jpg,1,0.5666666666666667,,,,GW/snail.jpg,,,,,One Edge Diff,Four Edge Five Edge
null,,html-keyboard-response,1149995,<p></p>,,,,null,,,,,,,,,,,,,,
1283.3999999761581,,shortestpath_phase,1151281,GW/soldier.jpg,,,,49,GW/jukebox.jpg,GW/dustpan.jpg,1,0.5806451612903226,,,,GW/jukebox.jpg,,,,,Two Edge Diff,Three Edge Five Edge
null,,html-keyboard-response,1152286,<p></p>,,,,null,,,,,,,,,,,,,,
1374.3999999761581,,shortestpath_phase,1153663,GW/basket.jpg,,,,50,GW/wheelchair.jpg,GW/paint.jpg,0,0.5625,,,,GW/wheelchair.jpg,,,,,Two Edge Diff,Four Edge Six Edge
null,,html-keyboard-response,1154667,<p></p>,,,,null,,,,,,,,,,,,,,
1471.1000000238419,,shortestpath_phase,1156140,GW/paint.jpg,,,,49,GW/soldier.jpg,GW/globe.jpg,1,0.5757575757575758,,,,GW/soldier.jpg,,,,,One Edge Diff,Three Edge Four Edge
null,,html-keyboard-response,1157144,<p></p>,,,,null,,,,,,,,,,,,,,
1166.2999999523163,,shortestpath_phase,1158312,GW/teeth.jpg,,,,49,GW/paint.jpg,GW/camera.jpg,0,0.5588235294117647,,,,GW/camera.jpg,,,,,One Edge Diff,Five Edge Six Edge
null,,html-keyboard-response,1159321,<p></p>,,,,null,,,,,,,,,,,,,,
1517.6000000238419,,shortestpath_phase,1160841,GW/paint.jpg,,,,50,GW/globe.jpg,GW/basket.jpg,0,0.5428571428571428,,,,GW/globe.jpg,,,,,Two Edge Diff,Four Edge Six Edge
null,,html-keyboard-response,1161852,<p></p>,,,,null,,,,,,,,,,,,,,
2552.600000023842,,shortestpath_phase,1164407,GW/camera.jpg,,,,50,GW/soldier.jpg,GW/teeth.jpg,0,0.5277777777777778,,,,GW/soldier.jpg,,,,,Three Edge Diff,Three Edge Six Edge
null,,html-keyboard-response,1165417,<p></p>,,,,null,,,,,,,,,,,,,,
1640.3000000715256,,shortestpath_phase,1167059,GW/teeth.jpg,,,,50,GW/globe.jpg,GW/soldier.jpg,0,0.5135135135135135,,,,GW/globe.jpg,,,,,Three Edge Diff,Two Edge Five Edge
null,,html-keyboard-response,1168064,<p></p>,,,,null,,,,,,,,,,,,,,
1468.3999999761581,,shortestpath_phase,1169535,GW/gong.jpg,,,,49,GW/paint.jpg,GW/basket.jpg,1,0.5263157894736842,,,,GW/paint.jpg,,,,,Three Edge Diff,Two Edge Five Edge
null,,html-keyboard-response,1170542,<p></p>,,,,null,,,,,,,,,,,,,,
1367.2999999523163,,shortestpath_phase,1171912,GW/teeth.jpg,,,,50,GW/soldier.jpg,GW/globe.jpg,1,0.5384615384615384,,,,GW/globe.jpg,,,,,Three Edge Diff,Three Edge Six Edge
null,,html-keyboard-response,1172916,<p></p>,,,,null,,,,,,,,,,,,,,
1562.7000000476837,,shortestpath_phase,1174481,GW/paint.jpg,,,,50,GW/teeth.jpg,GW/snail.jpg,1,0.55,,,,GW/snail.jpg,,,,,One Edge Diff,Five Edge Six Edge
null,,html-keyboard-response,1175487,<p></p>,,,,null,,,,,,,,,,,,,,
1491.1000000238419,,shortestpath_phase,1176980,GW/soldier.jpg,,,,50,GW/globe.jpg,GW/hat.jpg,0,0.5365853658536586,,,,GW/globe.jpg,,,,,One Edge Diff,Three Edge Four Edge
null,,html-keyboard-response,1177991,<p></p>,,,,null,,,,,,,,,,,,,,
1248.1000000238419,,shortestpath_phase,1179241,GW/basket.jpg,,,,49,GW/paint.jpg,GW/gong.jpg,0,0.5238095238095238,,,,GW/gong.jpg,,,,,One Edge Diff,Five Edge Six Edge
null,,html-keyboard-response,1180247,<p></p>,,,,null,,,,,,,,,,,,,,
1556.8000000715256,,shortestpath_phase,1181806,GW/dustpan.jpg,,,,50,GW/barrel.jpg,GW/paint.jpg,0,0.5116279069767442,,,,GW/barrel.jpg,,,,,Two Edge Diff,Three Edge Five Edge
null,,html-keyboard-response,1182825,<p></p>,,,,null,,,,,,,,,,,,,,
1752.1000000238419,,shortestpath_phase,1184579,GW/gong.jpg,,,,49,GW/teeth.jpg,GW/basket.jpg,1,0.5227272727272727,,,,GW/teeth.jpg,,,,,One Edge Diff,Four Edge Five Edge
null,,html-keyboard-response,1185593,<p></p>,,,,null,,,,,,,,,,,,,,
1765.7999999523163,,shortestpath_phase,1187361,GW/camera.jpg,,,,49,GW/barrel.jpg,GW/teeth.jpg,1,0.5333333333333333,,,,GW/barrel.jpg,,,,,Three Edge Diff,Two Edge Five Edge
null,,html-keyboard-response,1188367,<p></p>,,,,null,,,,,,,,,,,,,,
1171.3999999761581,,shortestpath_phase,1189540,GW/dustpan.jpg,,,,50,GW/soldier.jpg,GW/teeth.jpg,1,0.5434782608695652,,,,GW/teeth.jpg,,,,,Three Edge Diff,Three Edge Six Edge
null,,html-keyboard-response,1190549,<p></p>,,,,null,,,,,,,,,,,,,,
1201.1000000238419,,shortestpath_phase,1191753,GW/snail.jpg,,,,50,GW/wheelchair.jpg,GW/barrel.jpg,1,0.5531914893617021,,,,GW/barrel.jpg,,,,,One Edge Diff,Two Edge Three Edge
null,,html-keyboard-response,1192759,<p></p>,,,,null,,,,,,,,,,,,,,
1163.2999999523163,,shortestpath_phase,1193925,GW/hat.jpg,,,,50,GW/wheelchair.jpg,GW/soldier.jpg,0,0.5416666666666666,,,,GW/wheelchair.jpg,,,,,Two Edge Diff,Two Edge Four Edge
null,,html-keyboard-response,1194936,<p></p>,,,,null,,,,,,,,,,,,,,
1004.5,,shortestpath_phase,1195942,GW/soldier.jpg,,,,50,GW/dustpan.jpg,GW/camera.jpg,1,0.5510204081632653,,,,GW/camera.jpg,,,,,Three Edge Diff,Two Edge Five Edge
null,,html-keyboard-response,1196952,<p></p>,,,,null,,,,,,,,,,,,,,
1797.2999999523163,,shortestpath_phase,1198751,GW/paint.jpg,,,,50,GW/basket.jpg,GW/dustpan.jpg,1,0.56,,,,GW/dustpan.jpg,,,,,One Edge Diff,Five Edge Six Edge
null,,html-keyboard-response,1199760,<p></p>,,,,null,,,,,,,,,,,,,,
2018.6000000238419,,shortestpath_phase,1201780,GW/soldier.jpg,,,,49,GW/snail.jpg,GW/jukebox.jpg,0,0.5490196078431373,,,,GW/jukebox.jpg,,,,,One Edge Diff,Three Edge Four Edge
null,,html-keyboard-response,1202785,<p></p>,,,,null,,,,,,,,,,,,,,
2009.7999999523163,,shortestpath_phase,1204797,GW/snail.jpg,,,,49,GW/soldier.jpg,GW/basket.jpg,0,0.5384615384615384,,,,GW/basket.jpg,,,,,Two Edge Diff,Two Edge Four Edge
null,,html-keyboard-response,1205806,<p></p>,,,,null,,,,,,,,,,,,,,
1546.8000000715256,,shortestpath_phase,1207354,GW/paint.jpg,,,,49,GW/teeth.jpg,GW/globe.jpg,0,0.5283018867924528,,,,GW/globe.jpg,,,,,Two Edge Diff,Four Edge Six Edge
null,,html-keyboard-response,1208372,<p></p>,,,,null,,,,,,,,,,,,,,
997.3999999761581,,shortestpath_phase,1209372,GW/teeth.jpg,,,,50,GW/wheelchair.jpg,GW/basket.jpg,1,0.5370370370370371,,,,GW/basket.jpg,,,,,One Edge Diff,Three Edge Four Edge
null,,html-keyboard-response,1210382,<p></p>,,,,null,,,,,,,,,,,,,,
1346.1000000238419,,shortestpath_phase,1211730,GW/gong.jpg,,,,49,GW/hat.jpg,GW/paint.jpg,0,0.5272727272727272,,,,GW/paint.jpg,,,,,One Edge Diff,Two Edge Three Edge
null,,html-keyboard-response,1212735,<p></p>,,,,null,,,,,,,,,,,,,,
1256.3999999761581,,shortestpath_phase,1213993,GW/camera.jpg,,,,49,GW/snail.jpg,GW/teeth.jpg,1,0.5357142857142857,,,,GW/snail.jpg,,,,,One Edge Diff,Four Edge Five Edge
null,,html-keyboard-response,1215001,<p></p>,,,,null,,,,,,,,,,,,,,
1570.7999999523163,,shortestpath_phase,1216574,GW/teeth.jpg,,,,49,GW/soldier.jpg,GW/gong.jpg,0,0.5263157894736842,,,,GW/gong.jpg,,,,,One Edge Diff,Four Edge Five Edge
null,,html-keyboard-response,1217586,<p></p>,,,,null,,,,,,,,,,,,,,
2414.6999999284744,,shortestpath_phase,1220002,GW/soldier.jpg,,,,50,GW/dustpan.jpg,GW/basket.jpg,0,0.5172413793103449,,,,GW/dustpan.jpg,,,,,One Edge Diff,Five Edge Six Edge
null,,html-keyboard-response,1221008,<p></p>,,,,null,,,,,,,,,,,,,,
1796.1000000238419,,shortestpath_phase,1222806,GW/teeth.jpg,,,,49,GW/paint.jpg,GW/gong.jpg,0,0.5084745762711864,,,,GW/gong.jpg,,,,,Two Edge Diff,Four Edge Six Edge
null,,html-keyboard-response,1223813,<p></p>,,,,null,,,,,,,,,,,,,,
1189.3999999761581,,shortestpath_phase,1225004,GW/soldier.jpg,,,,50,GW/camera.jpg,GW/teeth.jpg,0,0.5,,,,GW/camera.jpg,,,,,Three Edge Diff,Three Edge Six Edge
null,,html-keyboard-response,1226009,<p></p>,,,,null,,,,,,,,,,,,,,
903,,shortestpath_phase,1226914,GW/basket.jpg,,,,49,GW/paint.jpg,GW/barrel.jpg,0,0.4918032786885246,,,,GW/barrel.jpg,,,,,Two Edge Diff,Four Edge Six Edge
null,,html-keyboard-response,1227919,<p></p>,,,,null,,,,,,,,,,,,,,
990,,shortestpath_phase,1228911,GW/teeth.jpg,,,,49,GW/dustpan.jpg,GW/soldier.jpg,1,0.5,,,,GW/dustpan.jpg,,,,,Three Edge Diff,Three Edge Six Edge
null,,html-keyboard-response,1229927,<p></p>,,,,null,,,,,,,,,,,,,,
1004.1000000238419,,shortestpath_phase,1230933,GW/soldier.jpg,,,,49,GW/globe.jpg,GW/snail.jpg,1,0.5079365079365079,,,,GW/globe.jpg,,,,,One Edge Diff,Three Edge Four Edge
null,,html-keyboard-response,1231945,<p></p>,,,,null,,,,,,,,,,,,,,
1393.6000000238419,,shortestpath_phase,1233341,GW/dustpan.jpg,,,,49,GW/gong.jpg,GW/jukebox.jpg,0,0.5,,,,GW/jukebox.jpg,,,,,Two Edge Diff,Two Edge Four Edge
null,,html-keyboard-response,1234347,<p></p>,,,,null,,,,,,,,,,,,,,
2155.899999976158,,shortestpath_phase,1236505,GW/soldier.jpg,,,,49,GW/globe.jpg,GW/dustpan.jpg,1,0.5076923076923077,,,,GW/globe.jpg,,,,,Two Edge Diff,Three Edge Five Edge
null,,html-keyboard-response,1237521,<p></p>,,,,null,,,,,,,,,,,,,,
1687.2000000476837,,shortestpath_phase,1239210,GW/basket.jpg,,,,50,GW/soldier.jpg,GW/barrel.jpg,1,0.5151515151515151,,,,GW/barrel.jpg,,,,,Two Edge Diff,Four Edge Six Edge
null,,html-keyboard-response,1240215,<p></p>,,,,null,,,,,,,,,,,,,,
1578.6000000238419,,shortestpath_phase,1241796,GW/paint.jpg,,,,50,GW/gong.jpg,GW/dustpan.jpg,0,0.5074626865671642,,,,GW/gong.jpg,,,,,Three Edge Diff,Three Edge Six Edge
null,,html-keyboard-response,1242813,<p></p>,,,,null,,,,,,,,,,,,,,
848.3999999761581,,shortestpath_phase,1243663,GW/barrel.jpg,,,,50,GW/basket.jpg,GW/soldier.jpg,1,0.5147058823529411,,,,GW/soldier.jpg,,,,,Two Edge Diff,Two Edge Four Edge
null,,html-keyboard-response,1244671,<p></p>,,,,null,,,,,,,,,,,,,,
1752.2999999523163,,shortestpath_phase,1246425,GW/dustpan.jpg,,,,50,GW/soldier.jpg,GW/globe.jpg,1,0.5217391304347826,,,,GW/globe.jpg,,,,,Three Edge Diff,Three Edge Six Edge
null,,html-keyboard-response,1247431,<p></p>,,,,null,,,,,,,,,,,,,,
1248.6000000238419,,shortestpath_phase,1248682,GW/paint.jpg,,,,49,GW/snail.jpg,GW/gong.jpg,0,0.5142857142857142,,,,GW/gong.jpg,,,,,Three Edge Diff,Two Edge Five Edge
null,,html-keyboard-response,1249692,<p></p>,,,,null,,,,,,,,,,,,,,
1916.3999999761581,,shortestpath_phase,1251610,GW/dustpan.jpg,,,,50,GW/wheelchair.jpg,GW/paint.jpg,0,0.5070422535211268,,,,GW/wheelchair.jpg,,,,,Two Edge Diff,Three Edge Five Edge
null,,html-keyboard-response,1252628,<p></p>,,,,null,,,,,,,,,,,,,,
1183.3999999761581,,shortestpath_phase,1253814,GW/basket.jpg,,,,50,GW/snail.jpg,GW/paint.jpg,0,0.5,,,,GW/snail.jpg,,,,,Four Edge Diff,Two Edge Six Edge
null,,html-keyboard-response,1254818,<p></p>,,,,null,,,,,,,,,,,,,,
1502.9000000953674,,shortestpath_phase,1256322,GW/soldier.jpg,,,,50,GW/dustpan.jpg,GW/barrel.jpg,1,0.5068493150684932,,,,GW/barrel.jpg,,,,,Three Edge Diff,Three Edge Six Edge
null,,html-keyboard-response,1257331,<p></p>,,,,null,,,,,,,,,,,,,,
1838.3999999761581,,shortestpath_phase,1259171,GW/basket.jpg,,,,50,GW/jukebox.jpg,GW/snail.jpg,1,0.5135135135135135,,,,GW/snail.jpg,,,,,One Edge Diff,Two Edge Three Edge
null,,html-keyboard-response,1260181,<p></p>,,,,null,,,,,,,,,,,,,,
1701.1000000238419,,shortestpath_phase,1261885,GW/paint.jpg,,,,50,GW/soldier.jpg,GW/dustpan.jpg,0,0.5066666666666667,,,,GW/soldier.jpg,,,,,Two Edge Diff,Three Edge Five Edge
null,,html-keyboard-response,1262890,<p></p>,,,,null,,,,,,,,,,,,,,
1463.9000000953674,,shortestpath_phase,1264356,GW/jukebox.jpg,,,,49,GW/camera.jpg,GW/paint.jpg,1,0.5131578947368421,,,,GW/camera.jpg,,,,,One Edge Diff,Two Edge Three Edge
null,,html-keyboard-response,1265369,<p></p>,,,,null,,,,,,,,,,,,,,
1302.7000000476837,,shortestpath_phase,1266674,GW/paint.jpg,,,,50,GW/basket.jpg,GW/hat.jpg,1,0.5194805194805194,,,,GW/hat.jpg,,,,,Two Edge Diff,Four Edge Six Edge
null,,html-keyboard-response,1267680,<p></p>,,,,null,,,,,,,,,,,,,,
1574.1000000238419,,shortestpath_phase,1269256,GW/teeth.jpg,,,,50,GW/jukebox.jpg,GW/soldier.jpg,0,0.5128205128205128,,,,GW/jukebox.jpg,,,,,Two Edge Diff,Three Edge Five Edge
null,,html-keyboard-response,1270265,<p></p>,,,,null,,,,,,,,,,,,,,
1741.3999999761581,,shortestpath_phase,1272008,GW/paint.jpg,,,,49,GW/hat.jpg,GW/teeth.jpg,1,0.5189873417721519,,,,GW/hat.jpg,,,,,Two Edge Diff,Four Edge Six Edge
null,,html-keyboard-response,1273016,<p></p>,,,,null,,,,,,,,,,,,,,
1338,,shortestpath_phase,1274356,GW/globe.jpg,,,,50,GW/paint.jpg,GW/soldier.jpg,1,0.525,,,,GW/soldier.jpg,,,,,One Edge Diff,Three Edge Four Edge
null,,html-keyboard-response,1275363,<p></p>,,,,null,,,,,,,,,,,,,,
2107.600000023842,,shortestpath_phase,1277472,GW/basket.jpg,,,,50,GW/soldier.jpg,GW/hat.jpg,1,0.5308641975308642,,,,GW/hat.jpg,,,,,Four Edge Diff,Two Edge Six Edge
null,,html-keyboard-response,1278479,<p></p>,,,,null,,,,,,,,,,,,,,
1127.6999999284744,,shortestpath_phase,1279608,GW/paint.jpg,,,,49,GW/snail.jpg,GW/soldier.jpg,0,0.524390243902439,,,,GW/soldier.jpg,,,,,Two Edge Diff,Three Edge Five Edge
null,,html-keyboard-response,1280614,<p></p>,,,,null,,,,,,,,,,,,,,
1033.7999999523163,,shortestpath_phase,1281650,GW/gong.jpg,,,,50,GW/basket.jpg,GW/globe.jpg,1,0.5301204819277109,,,,GW/globe.jpg,,,,,Three Edge Diff,Two Edge Five Edge
null,,html-keyboard-response,1282666,<p></p>,,,,null,,,,,,,,,,,,,,
1711.5,,shortestpath_phase,1284379,GW/paint.jpg,,,,50,GW/wheelchair.jpg,GW/teeth.jpg,0,0.5238095238095238,,,,GW/wheelchair.jpg,,,,,Four Edge Diff,Two Edge Six Edge
null,,html-keyboard-response,1285398,<p></p>,,,,null,,,,,,,,,,,,,,
1423.1000000238419,,shortestpath_phase,1286823,GW/teeth.jpg,,,,50,GW/dustpan.jpg,GW/basket.jpg,0,0.5176470588235295,,,,GW/dustpan.jpg,,,,,One Edge Diff,Two Edge Three Edge
null,,html-keyboard-response,1287826,<p></p>,,,,null,,,,,,,,,,,,,,
2498.899999976158,,shortestpath_phase,1290327,GW/basket.jpg,,,,50,GW/camera.jpg,GW/jukebox.jpg,1,0.5232558139534884,,,,GW/jukebox.jpg,,,,,Two Edge Diff,Three Edge Five Edge
null,,html-keyboard-response,1291331,<p></p>,,,,null,,,,,,,,,,,,,,
1562.1000000238419,,shortestpath_phase,1292895,GW/teeth.jpg,,,,50,GW/wheelchair.jpg,GW/paint.jpg,0,0.5172413793103449,,,,GW/wheelchair.jpg,,,,,Two Edge Diff,Four Edge Six Edge
null,,html-keyboard-response,1293902,<p></p>,,,,null,,,,,,,,,,,,,,
1759.7999999523163,,shortestpath_phase,1295664,GW/soldier.jpg,,,,49,GW/teeth.jpg,GW/paint.jpg,0,0.5113636363636364,,,,GW/paint.jpg,,,,,Two Edge Diff,Three Edge Five Edge
null,,html-keyboard-response,1296669,<p></p>,,,,null,,,,,,,,,,,,,,
1174,,shortestpath_phase,1297845,GW/hat.jpg,,,,49,GW/gong.jpg,GW/basket.jpg,0,0.5056179775280899,,,,GW/basket.jpg,,,,,One Edge Diff,Two Edge Three Edge
null,,html-keyboard-response,1298863,<p></p>,,,,null,,,,,,,,,,,,,,
1811.8999999761581,,shortestpath_phase,1300676,GW/soldier.jpg,,,,49,GW/snail.jpg,GW/basket.jpg,1,0.5111111111111111,,,,GW/snail.jpg,,,,,Two Edge Diff,Four Edge Six Edge
null,,html-keyboard-response,1301683,<p></p>,,,,null,,,,,,,,,,,,,,
1468.6999999284744,,shortestpath_phase,1303154,GW/globe.jpg,,,,50,GW/gong.jpg,GW/camera.jpg,0,0.5054945054945055,,,,GW/gong.jpg,,,,,One Edge Diff,Two Edge Three Edge
null,,html-keyboard-response,1304159,<p></p>,,,,null,,,,,,,,,,,,,,
1404.8999999761581,,shortestpath_phase,1305566,GW/basket.jpg,,,,50,GW/camera.jpg,GW/paint.jpg,0,0.5,,,,GW/camera.jpg,,,,,One Edge Diff,Five Edge Six Edge
null,,html-keyboard-response,1306580,<p></p>,,,,null,,,,,,,,,,,,,,
1103.1999999284744,,shortestpath_phase,1307686,GW/paint.jpg,,,,49,GW/barrel.jpg,GW/wheelchair.jpg,0,0.4946236559139785,,,,GW/wheelchair.jpg,,,,,One Edge Diff,Two Edge Three Edge
null,,html-keyboard-response,1308704,<p></p>,,,,null,,,,,,,,,,,,,,
1504,,shortestpath_phase,1310210,GW/basket.jpg,,,,49,GW/jukebox.jpg,GW/wheelchair.jpg,1,0.5,,,,GW/jukebox.jpg,,,,,One Edge Diff,Three Edge Four Edge
null,,html-keyboard-response,1311223,<p></p>,,,,null,,,,,,,,,,,,,,
1534.5,,shortestpath_phase,1312759,GW/hat.jpg,,,,50,GW/camera.jpg,GW/globe.jpg,1,0.5052631578947369,,,,GW/globe.jpg,,,,,One Edge Diff,Two Edge Three Edge
null,,html-keyboard-response,1313773,<p></p>,,,,null,,,,,,,,,,,,,,
1510.7000000476837,,shortestpath_phase,1315286,GW/teeth.jpg,,,,50,GW/camera.jpg,GW/gong.jpg,1,0.5104166666666666,,,,GW/gong.jpg,,,,,One Edge Diff,Four Edge Five Edge
null,,html-keyboard-response,1316292,<p></p>,,,,null,,,,,,,,,,,,,,
883.1000000238419,,shortestpath_phase,1317178,GW/basket.jpg,,,,49,GW/paint.jpg,GW/hat.jpg,0,0.5051546391752577,,,,GW/hat.jpg,,,,,Four Edge Diff,Two Edge Six Edge
null,,html-keyboard-response,1318187,<p></p>,,,,null,,,,,,,,,,,,,,
1674.9000000953674,,shortestpath_phase,1319864,GW/soldier.jpg,,,,49,GW/snail.jpg,GW/camera.jpg,0,0.5,,,,GW/camera.jpg,,,,,Two Edge Diff,Two Edge Four Edge
null,,html-keyboard-response,1320874,<p></p>,,,,null,,,,,,,,,,,,,,
1779.6000000238419,,shortestpath_phase,1322655,GW/basket.jpg,,,,49,GW/gong.jpg,GW/wheelchair.jpg,0,0.494949494949495,,,,GW/wheelchair.jpg,,,,,One Edge Diff,Four Edge Five Edge
null,,html-keyboard-response,1323664,<p></p>,,,,null,,,,,,,,,,,,,,
1032.2000000476837,,shortestpath_phase,1324699,GW/camera.jpg,,,,50,GW/dustpan.jpg,GW/teeth.jpg,0,0.49,,,,GW/dustpan.jpg,,,,,One Edge Diff,Four Edge Five Edge
null,,html-keyboard-response,1325717,<p></p>,,,,null,,,,,,,,,,,,,,
1180.2999999523163,,shortestpath_phase,1326900,GW/soldier.jpg,,,,49,GW/hat.jpg,GW/teeth.jpg,1,0.49504950495049505,,,,GW/hat.jpg,,,,,One Edge Diff,Four Edge Five Edge
null,,html-keyboard-response,1327909,<p></p>,,,,null,,,,,,,,,,,,,,
1232.7999999523163,,shortestpath_phase,1329144,GW/teeth.jpg,,,,49,GW/gong.jpg,GW/globe.jpg,0,0.49019607843137253,,,,GW/globe.jpg,,,,,Two Edge Diff,Two Edge Four Edge
null,,html-keyboard-response,1330159,<p></p>,,,,null,,,,,,,,,,,,,,
932.5,,shortestpath_phase,1331093,GW/soldier.jpg,,,,50,GW/camera.jpg,GW/globe.jpg,0,0.4854368932038835,,,,GW/camera.jpg,,,,,One Edge Diff,Two Edge Three Edge
null,,html-keyboard-response,1332102,<p></p>,,,,null,,,,,,,,,,,,,,
929.2999999523163,,shortestpath_phase,1333034,GW/snail.jpg,,,,50,GW/jukebox.jpg,GW/paint.jpg,0,0.4807692307692308,,,,GW/jukebox.jpg,,,,,Three Edge Diff,Three Edge Six Edge
null,,html-keyboard-response,1334044,<p></p>,,,,null,,,,,,,,,,,,,,
803.5,,shortestpath_phase,1334850,GW/teeth.jpg,,,,49,GW/soldier.jpg,GW/paint.jpg,1,0.4857142857142857,,,,GW/soldier.jpg,,,,,One Edge Diff,Five Edge Six Edge
null,,html-keyboard-response,1335863,<p></p>,,,,null,,,,,,,,,,,,,,
836.1000000238419,,shortestpath_phase,1336701,GW/gong.jpg,,,,50,GW/snail.jpg,GW/basket.jpg,0,0.4811320754716981,,,,GW/snail.jpg,,,,,Two Edge Diff,Three Edge Five Edge
null,,html-keyboard-response,1337706,<p></p>,,,,null,,,,,,,,,,,,,,
705.2999999523163,,shortestpath_phase,1338414,GW/teeth.jpg,,,,49,GW/dustpan.jpg,GW/paint.jpg,1,0.48598130841121495,,,,GW/dustpan.jpg,,,,,Four Edge Diff,Two Edge Six Edge
null,,html-keyboard-response,1339427,<p></p>,,,,null,,,,,,,,,,,,,,
920.1000000238419,,shortestpath_phase,1340349,GW/paint.jpg,,,,50,GW/basket.jpg,GW/wheelchair.jpg,1,0.49074074074074076,,,,GW/wheelchair.jpg,,,,,Four Edge Diff,Two Edge Six Edge
null,,html-keyboard-response,1341354,<p></p>,,,,null,,,,,,,,,,,,,,
1116.1999999284744,,shortestpath_phase,1342472,GW/camera.jpg,,,,49,GW/barrel.jpg,GW/dustpan.jpg,1,0.4954128440366973,,,,GW/barrel.jpg,,,,,Two Edge Diff,Two Edge Four Edge
null,,html-keyboard-response,1343490,<p></p>,,,,null,,,,,,,,,,,,,,
873.7999999523163,,shortestpath_phase,1344366,GW/teeth.jpg,,,,50,GW/dustpan.jpg,GW/camera.jpg,0,0.4909090909090909,,,,GW/dustpan.jpg,,,,,Three Edge Diff,Three Edge Six Edge
null,,html-keyboard-response,1345384,<p></p>,,,,null,,,,,,,,,,,,,,
916.8999999761581,,shortestpath_phase,1346303,GW/basket.jpg,,,,50,GW/soldier.jpg,GW/gong.jpg,1,0.4954954954954955,,,,GW/gong.jpg,,,,,One Edge Diff,Five Edge Six Edge
null,,html-keyboard-response,1347315,<p></p>,,,,null,,,,,,,,,,,,,,
1129.6000000238419,,shortestpath_phase,1348447,GW/soldier.jpg,,,,50,GW/teeth.jpg,GW/basket.jpg,0,0.49107142857142855,,,,GW/teeth.jpg,,,,,One Edge Diff,Five Edge Six Edge
null,,html-keyboard-response,1349451,<p></p>,,,,null,,,,,,,,,,,,,,
782.8999999761581,,shortestpath_phase,1350236,GW/paint.jpg,,,,50,GW/teeth.jpg,GW/gong.jpg,1,0.49557522123893805,,,,GW/gong.jpg,,,,,Four Edge Diff,Two Edge Six Edge
null,,html-keyboard-response,1351248,<p></p>,,,,null,,,,,,,,,,,,,,
620,,shortestpath_phase,1351870,GW/basket.jpg,,,,49,GW/jukebox.jpg,GW/gong.jpg,1,0.5,,,,GW/jukebox.jpg,,,,,Two Edge Diff,Three Edge Five Edge
null,,html-keyboard-response,1352874,<p></p>,,,,null,,,,,,,,,,,,,,
1039.2000000476837,,shortestpath_phase,1353915,GW/barrel.jpg,,,,50,GW/snail.jpg,GW/basket.jpg,0,0.4956521739130435,,,,GW/snail.jpg,,,,,Two Edge Diff,Two Edge Four Edge
null,,html-keyboard-response,1354931,<p></p>,,,,null,,,,,,,,,,,,,,
1814.6000000238419,,shortestpath_phase,1356748,GW/basket.jpg,,,,49,GW/soldier.jpg,GW/camera.jpg,0,0.49137931034482757,,,,GW/camera.jpg,,,,,One Edge Diff,Five Edge Six Edge
null,,html-keyboard-response,1357763,<p></p>,,,,null,,,,,,,,,,,,,,
1284,,shortestpath_phase,1359049,GW/teeth.jpg,,,,50,GW/camera.jpg,GW/globe.jpg,1,0.49572649572649574,,,,GW/globe.jpg,,,,,Three Edge Diff,Two Edge Five Edge
null,,html-keyboard-response,1360061,<p></p>,,,,null,,,,,,,,,,,,,,
1380.3999999761581,,shortestpath_phase,1361443,GW/soldier.jpg,,,,49,GW/hat.jpg,GW/wheelchair.jpg,0,0.4915254237288136,,,,GW/wheelchair.jpg,,,,,Two Edge Diff,Two Edge Four Edge
null,,html-keyboard-response,1362448,<p></p>,,,,null,,,,,,,,,,,,,,
1543.1000000238419,,shortestpath_phase,1363993,GW/basket.jpg,,,,50,GW/snail.jpg,GW/soldier.jpg,0,0.48739495798319327,,,,GW/snail.jpg,,,,,Four Edge Diff,Two Edge Six Edge
null,,html-keyboard-response,1365010,<p></p>,,,,null,,,,,,,,,,,,,,
1650.5,,shortestpath_phase,1366663,GW/dustpan.jpg,,,,49,GW/jukebox.jpg,GW/soldier.jpg,1,0.49166666666666664,,,,GW/jukebox.jpg,,,,,Three Edge Diff,Two Edge Five Edge
null,,html-keyboard-response,1367676,<p></p>,,,,null,,,,,,,,,,,,,,
null,,shortestpath_phase,1375193,,,,,null,,,0,0.48760330578512395,,,,,,,,,One Edge Diff,Four Edge Five Edge
null,,html-keyboard-response,1376211,<p></p>,,,,null,,,,,,,,,,,,,,
275985.7999999523,,intro_1,1652200,instruct,,0,,,,,,,,,,,,,,,,
22697,,intro_2,1674905,instruct,,1,Next,,,,,,,,,,,,,,,
5267.5,,intro_3,1680177,instruct,,1,Next,,,,,,,,,,,,,,,
