rt,responses,trial_type,time_elapsed,stimulus,graphorder,button_pressed,response,key_press,stimulus_left,stimulus_right,accuracy,cumulative_accuracy,stimulus_down_left,stimulus_down_mid,stimulus_down_right,stimulus_correct,stimulus_short,stimulus_far,weighted_accuracy,missedtrial,condition,specific_pairs
21080.10000000149,{worker_id:681d337aeda5582c1bd7e5b2},id_enter,21083,id_enter,GW/barrel.jpg; GW/globe.jpg; GW/soldier.jpg; GW/jukebox.jpg; GW/teeth.jpg; GW/gong.jpg; GW/dustpan.jpg; GW/wheelchair.jpg; GW/camera.jpg; GW/paint.jpg; GW/snail.jpg; GW/basket.jpg; GW/hat.jpg,,,,,,,,,,,,,,,,,
13358.800000000745,,fullscreen,34450,fullscreen,,0,,,,,,,,,,,,,,,,
8860.699999999255,,intro_1,43316,instruct,,0,,,,,,,,,,,,,,,,
14918.29999999702,,intro_2,58236,instruct,,1,Next,,,,,,,,,,,,,,,
22624.5,,intro_3,80862,instruct,,1,Next,,,,,,,,,,,,,,,
null,,learn_prac_1,82865,lean_prac_1,,,,null,,,,,,,,,,,,,,
null,,html-keyboard-response,83872,<p></p>,,,,null,,,,,,,,,,,,,,
6361.89999999851,,intro_1,90236,instruct,,0,,,,,,,,,,,,,,,,
6558.699999999255,,intro_2,96796,instruct,,1,Next,,,,,,,,,,,,,,,
null,,learn_prac_2,98798,lean_prac_2,,,,null,,,,,,,,,,,,,,
null,,html-keyboard-response,99802,<p></p>,,,,null,,,,,,,,,,,,,,
1940.9000000022352,,intro_1,101746,instruct,,0,,,,,,,,,,,,,,,,
23262.300000000745,,intro_2,125010,instruct,,1,Next,,,,,,,,,,,,,,,
32542.599999997765,,intro_3,157554,instruct,,1,Next,,,,,,,,,,,,,,,
null,,prac_atten_color_black,158003,black_plus_sign,,,,null,,,,,,,,,,,,,,
null,,prac_atten_color,158961,prac_stop_color,,,,null,,,,,,,,,,,,,,
474.5,,prac_atten_color_black,160964,black_plus_sign,,,,49,,,,,,,,,,,,,,
null,,prac_atten_color_black,161416,black_plus_sign,,,,null,,,,,,,,,,,,,,
null,,prac_atten_color,162357,prac_stop_color,,,,null,,,,,,,,,,,,,,
275.5,,prac_atten_color_black,164360,black_plus_sign,,,,50,,,,,,,,,,,,,,
null,,prac_atten_color_black,164829,black_plus_sign,,,,null,,,,,,,,,,,,,,
393.80000000074506,,prac_atten_color,165353,prac_stop_color,,,,49,,,,,,,,,,,,,,
null,,prac_atten_color_black,167357,black_plus_sign,,,,null,,,,,,,,,,,,,,
3932.300000000745,,attentioncheck_help,171293,instruct,,,,32,,,,,,,,,,,,,,
null,,prac_atten_color_black,172177,black_plus_sign,,,,null,,,,,,,,,,,,,,
570.6999999992549,,prac_atten_color,172969,prac_stop_color,,,,49,,,,,,,,,,,,,,
null,,prac_atten_color_black,174972,black_plus_sign,,,,null,,,,,,,,,,,,,,
null,,prac_atten_color_black,175590,black_plus_sign,,,,null,,,,,,,,,,,,,,
null,,prac_atten_color,176068,prac_stop_color,,,,null,,,,,,,,,,,,,,
328.80000000074506,,prac_atten_color_black,178071,black_plus_sign,,,,50,,,,,,,,,,,,,,
null,,prac_atten_color_black,179001,black_plus_sign,,,,null,,,,,,,,,,,,,,
null,,prac_atten_color,179642,prac_stop_color,,,,null,,,,,,,,,,,,,,
335.5,,prac_atten_color_black,181646,black_plus_sign,,,,50,,,,,,,,,,,,,,
null,,prac_atten_color_black,182413,black_plus_sign,,,,null,,,,,,,,,,,,,,
545,,prac_atten_color,183097,prac_stop_color,,,,49,,,,,,,,,,,,,,
null,,prac_atten_color_black,185101,black_plus_sign,,,,null,,,,,,,,,,,,,,
null,,prac_atten_color_black,185826,black_plus_sign,,,,null,,,,,,,,,,,,,,
614,,prac_atten_color,186523,prac_stop_color,,,,50,,,,,,,,,,,,,,
null,,prac_atten_color_black,188526,black_plus_sign,,,,null,,,,,,,,,,,,,,
null,,prac_atten_color_black,189236,black_plus_sign,,,,null,,,,,,,,,,,,,,
null,,prac_atten_color,189881,prac_stop_color,,,,null,,,,,,,,,,,,,,
177.40000000223517,,prac_atten_color_black,191886,black_plus_sign,,,,49,,,,,,,,,,,,,,
null,,prac_atten_color_black,192651,black_plus_sign,,,,null,,,,,,,,,,,,,,
null,,prac_atten_color,193455,prac_stop_color,,,,null,,,,,,,,,,,,,,
15.899999998509884,,prac_atten_color_black,195458,black_plus_sign,,,,49,,,,,,,,,,,,,,
270143.09999999776,,attentioncheck_feedback,465605,cross_check_feedback,,0,,,,,,,,,,,,,,,,
24459.89999999851,,last_instruct,490067,instruct,,,,32,,,,,,,,,,,,,,
null,,learn_phase(without_color),492071,black_plus_sign,,,,null,GW/dustpan.jpg,GW/wheelchair.jpg,,,,,,,,,,,,
null,,black_cross(without_color),492863,green,,,,null,GW/dustpan.jpg,GW/wheelchair.jpg,,,,,,,,,,,,
null,,rt_plussign_withcolor,493367,green,,,,null,GW/dustpan.jpg,GW/wheelchair.jpg,,,,,,,,,,,,
1313.8999999985099,,rt_thecrossant_black,494582,black_plus_sign,,,,50,,,1,1,,,,,,,,,,
null,,color_black,494689,black_plus_sign,,,,null,,,,,,,,,,,,,,
null,,learn_phase(without_color),496695,black_plus_sign,,,,null,GW/snail.jpg,GW/basket.jpg,,,,,,,,,,,,
null,,black_cross(without_color),497647,blue,,,,null,GW/snail.jpg,GW/basket.jpg,,,,,,,,,,,,
null,,rt_plussign_withcolor,498151,blue,,,,null,GW/snail.jpg,GW/basket.jpg,,,,,,,,,,,,
1448.5,,rt_thecrossant_black,499206,black_plus_sign,,,,49,,,1,1,,,,,,,,,,
null,,color_black,499310,black_plus_sign,,,,null,,,,,,,,,,,,,,
null,,learn_phase(without_color),501315,black_plus_sign,,,,null,GW/jukebox.jpg,GW/teeth.jpg,,,,,,,,,,,,
null,,black_cross(without_color),502380,blue,,,,null,GW/jukebox.jpg,GW/teeth.jpg,,,,,,,,,,,,
null,,rt_plussign_withcolor,502883,blue,,,,null,GW/jukebox.jpg,GW/teeth.jpg,,,,,,,,,,,,
1081.7000000029802,,rt_thecrossant_black,503826,black_plus_sign,,,,49,,,1,1,,,,,,,,,,
null,,color_black,503930,black_plus_sign,,,,null,,,,,,,,,,,,,,
null,,learn_phase(without_color),505935,black_plus_sign,,,,null,GW/soldier.jpg,GW/gong.jpg,,,,,,,,,,,,
null,,black_cross(without_color),507005,blue,,,,null,GW/soldier.jpg,GW/gong.jpg,,,,,,,,,,,,
null,,rt_plussign_withcolor,507508,blue,,,,null,GW/soldier.jpg,GW/gong.jpg,,,,,,,,,,,,
1593.3000000044703,,rt_thecrossant_black,508446,black_plus_sign,,,,49,,,1,1,,,,,,,,,,
null,,color_black,508551,black_plus_sign,,,,null,,,,,,,,,,,,,,
null,,learn_phase(without_color),510556,black_plus_sign,,,,null,GW/dustpan.jpg,GW/wheelchair.jpg,,,,,,,,,,,,
null,,black_cross(without_color),511176,blue,,,,null,GW/dustpan.jpg,GW/wheelchair.jpg,,,,,,,,,,,,
null,,rt_plussign_withcolor,511679,blue,,,,null,GW/dustpan.jpg,GW/wheelchair.jpg,,,,,,,,,,,,
1477.7000000029802,,rt_thecrossant_black,513067,black_plus_sign,,,,49,,,1,1,,,,,,,,,,
null,,color_black,513171,black_plus_sign,,,,null,,,,,,,,,,,,,,
null,,learn_phase(without_color),515178,black_plus_sign,,,,null,GW/jukebox.jpg,GW/basket.jpg,,,,,,,,,,,,
null,,black_cross(without_color),516103,blue,,,,null,GW/jukebox.jpg,GW/basket.jpg,,,,,,,,,,,,
null,,rt_plussign_withcolor,516606,blue,,,,null,GW/jukebox.jpg,GW/basket.jpg,,,,,,,,,,,,
780.3999999985099,,rt_thecrossant_black,517688,black_plus_sign,,,,49,,,1,1,,,,,,,,,,
null,,color_black,517792,black_plus_sign,,,,null,,,,,,,,,,,,,,
null,,learn_phase(without_color),519797,black_plus_sign,,,,null,GW/jukebox.jpg,GW/teeth.jpg,,,,,,,,,,,,
null,,black_cross(without_color),520296,blue,,,,null,GW/jukebox.jpg,GW/teeth.jpg,,,,,,,,,,,,
null,,rt_plussign_withcolor,520799,blue,,,,null,GW/jukebox.jpg,GW/teeth.jpg,,,,,,,,,,,,
1413.6999999955297,,rt_thecrossant_black,522308,black_plus_sign,,,,49,,,1,1,,,,,,,,,,
null,,color_black,522412,black_plus_sign,,,,null,,,,,,,,,,,,,,
null,,learn_phase(without_color),524418,black_plus_sign,,,,null,GW/soldier.jpg,GW/snail.jpg,,,,,,,,,,,,
null,,black_cross(without_color),524897,green,,,,null,GW/soldier.jpg,GW/snail.jpg,,,,,,,,,,,,
null,,rt_plussign_withcolor,525400,green,,,,null,GW/soldier.jpg,GW/snail.jpg,,,,,,,,,,,,
1098.5999999940395,,rt_thecrossant_black,526929,black_plus_sign,,,,50,,,1,1,,,,,,,,,,
null,,color_black,527033,black_plus_sign,,,,null,,,,,,,,,,,,,,
null,,learn_phase(without_color),529038,black_plus_sign,,,,null,GW/dustpan.jpg,GW/camera.jpg,,,,,,,,,,,,
null,,black_cross(without_color),529661,blue,,,,null,GW/dustpan.jpg,GW/camera.jpg,,,,,,,,,,,,
null,,rt_plussign_withcolor,530164,blue,,,,null,GW/dustpan.jpg,GW/camera.jpg,,,,,,,,,,,,
1160.6999999955297,,rt_thecrossant_black,531551,black_plus_sign,,,,49,,,1,1,,,,,,,,,,
null,,color_black,531655,black_plus_sign,,,,null,,,,,,,,,,,,,,
null,,learn_phase(without_color),533660,black_plus_sign,,,,null,GW/jukebox.jpg,GW/basket.jpg,,,,,,,,,,,,
null,,black_cross(without_color),534601,blue,,,,null,GW/jukebox.jpg,GW/basket.jpg,,,,,,,,,,,,
null,,rt_plussign_withcolor,535104,blue,,,,null,GW/jukebox.jpg,GW/basket.jpg,,,,,,,,,,,,
867.1000000014901,,rt_thecrossant_black,536171,black_plus_sign,,,,49,,,1,1,,,,,,,,,,
null,,color_black,536275,black_plus_sign,,,,null,,,,,,,,,,,,,,
null,,learn_phase(without_color),538282,black_plus_sign,,,,null,GW/globe.jpg,GW/soldier.jpg,,,,,,,,,,,,
null,,black_cross(without_color),539192,green,,,,null,GW/globe.jpg,GW/soldier.jpg,,,,,,,,,,,,
null,,rt_plussign_withcolor,539695,green,,,,null,GW/globe.jpg,GW/soldier.jpg,,,,,,,,,,,,
1415.6999999955297,,rt_thecrossant_black,540794,black_plus_sign,,,,50,,,1,1,,,,,,,,,,
null,,color_black,540898,black_plus_sign,,,,null,,,,,,,,,,,,,,
null,,learn_phase(without_color),542904,black_plus_sign,,,,null,GW/globe.jpg,GW/jukebox.jpg,,,,,,,,,,,,
null,,black_cross(without_color),543944,blue,,,,null,GW/globe.jpg,GW/jukebox.jpg,,,,,,,,,,,,
null,,rt_plussign_withcolor,544448,blue,,,,null,GW/globe.jpg,GW/jukebox.jpg,,,,,,,,,,,,
1573,,rt_thecrossant_black,545414,black_plus_sign,,,,49,,,1,1,,,,,,,,,,
null,,color_black,545518,black_plus_sign,,,,null,,,,,,,,,,,,,,
null,,learn_phase(without_color),547524,black_plus_sign,,,,null,GW/soldier.jpg,GW/snail.jpg,,,,,,,,,,,,
null,,black_cross(without_color),548570,blue,,,,null,GW/soldier.jpg,GW/snail.jpg,,,,,,,,,,,,
null,,rt_plussign_withcolor,549073,blue,,,,null,GW/soldier.jpg,GW/snail.jpg,,,,,,,,,,,,
1224,,rt_thecrossant_black,550033,black_plus_sign,,,,49,,,1,1,,,,,,,,,,
null,,color_black,550138,black_plus_sign,,,,null,,,,,,,,,,,,,,
null,,learn_phase(without_color),552143,black_plus_sign,,,,null,GW/camera.jpg,GW/snail.jpg,,,,,,,,,,,,
null,,black_cross(without_color),552619,green,,,,null,GW/camera.jpg,GW/snail.jpg,,,,,,,,,,,,
null,,rt_plussign_withcolor,553122,green,,,,null,GW/camera.jpg,GW/snail.jpg,,,,,,,,,,,,
1334.1999999955297,,rt_thecrossant_black,554654,black_plus_sign,,,,49,,,0,0.9285714285714286,,,,,,,,,,
null,,color_black,554758,black_plus_sign,,,,null,,,,,,,,,,,,,,
null,,learn_phase(without_color),556763,black_plus_sign,,,,null,GW/globe.jpg,GW/jukebox.jpg,,,,,,,,,,,,
null,,black_cross(without_color),557201,green,,,,null,GW/globe.jpg,GW/jukebox.jpg,,,,,,,,,,,,
null,,rt_plussign_withcolor,557704,green,,,,null,GW/globe.jpg,GW/jukebox.jpg,,,,,,,,,,,,
929.3999999985099,,rt_thecrossant_black,559274,black_plus_sign,,,,50,,,1,0.9333333333333333,,,,,,,,,,
null,,color_black,559379,black_plus_sign,,,,null,,,,,,,,,,,,,,
null,,learn_phase(without_color),561384,black_plus_sign,,,,null,GW/barrel.jpg,GW/globe.jpg,,,,,,,,,,,,
null,,black_cross(without_color),562457,blue,,,,null,GW/barrel.jpg,GW/globe.jpg,,,,,,,,,,,,
null,,rt_plussign_withcolor,562961,blue,,,,null,GW/barrel.jpg,GW/globe.jpg,,,,,,,,,,,,
1045.6000000014901,,rt_thecrossant_black,563895,black_plus_sign,,,,49,,,1,0.9375,,,,,,,,,,
null,,color_black,563999,black_plus_sign,,,,null,,,,,,,,,,,,,,
null,,learn_phase(without_color),566004,black_plus_sign,,,,null,GW/jukebox.jpg,GW/basket.jpg,,,,,,,,,,,,
null,,black_cross(without_color),566708,blue,,,,null,GW/jukebox.jpg,GW/basket.jpg,,,,,,,,,,,,
null,,rt_plussign_withcolor,567211,blue,,,,null,GW/jukebox.jpg,GW/basket.jpg,,,,,,,,,,,,
1745.8999999985099,,rt_thecrossant_black,568515,black_plus_sign,,,,49,,,1,0.9411764705882353,,,,,,,,,,
null,,color_black,568619,black_plus_sign,,,,null,,,,,,,,,,,,,,
null,,learn_phase(without_color),570624,black_plus_sign,,,,null,GW/barrel.jpg,GW/globe.jpg,,,,,,,,,,,,
null,,black_cross(without_color),571610,blue,,,,null,GW/barrel.jpg,GW/globe.jpg,,,,,,,,,,,,
null,,rt_plussign_withcolor,572113,blue,,,,null,GW/barrel.jpg,GW/globe.jpg,,,,,,,,,,,,
1276.8999999985099,,rt_thecrossant_black,573136,black_plus_sign,,,,49,,,1,0.9444444444444444,,,,,,,,,,
null,,color_black,573240,black_plus_sign,,,,null,,,,,,,,,,,,,,
null,,learn_phase(without_color),575245,black_plus_sign,,,,null,GW/wheelchair.jpg,GW/camera.jpg,,,,,,,,,,,,
null,,black_cross(without_color),575733,blue,,,,null,GW/wheelchair.jpg,GW/camera.jpg,,,,,,,,,,,,
null,,rt_plussign_withcolor,576235,blue,,,,null,GW/wheelchair.jpg,GW/camera.jpg,,,,,,,,,,,,
1475.3999999985099,,rt_thecrossant_black,577757,black_plus_sign,,,,49,,,1,0.9473684210526315,,,,,,,,,,
null,,color_black,577861,black_plus_sign,,,,null,,,,,,,,,,,,,,
null,,learn_phase(without_color),579866,black_plus_sign,,,,null,GW/gong.jpg,GW/dustpan.jpg,,,,,,,,,,,,
null,,black_cross(without_color),580678,green,,,,null,GW/gong.jpg,GW/dustpan.jpg,,,,,,,,,,,,
null,,rt_plussign_withcolor,581181,green,,,,null,GW/gong.jpg,GW/dustpan.jpg,,,,,,,,,,,,
992.3999999985099,,rt_thecrossant_black,582378,black_plus_sign,,,,50,,,1,0.95,,,,,,,,,,
null,,color_black,582483,black_plus_sign,,,,null,,,,,,,,,,,,,,
null,,learn_phase(without_color),584488,black_plus_sign,,,,null,GW/jukebox.jpg,GW/basket.jpg,,,,,,,,,,,,
null,,black_cross(without_color),585473,blue,,,,null,GW/jukebox.jpg,GW/basket.jpg,,,,,,,,,,,,
null,,rt_plussign_withcolor,585976,blue,,,,null,GW/jukebox.jpg,GW/basket.jpg,,,,,,,,,,,,
1614.5,,rt_thecrossant_black,586998,black_plus_sign,,,,49,,,1,0.9523809523809523,,,,,,,,,,
null,,color_black,587103,black_plus_sign,,,,null,,,,,,,,,,,,,,
null,,learn_phase(without_color),589110,black_plus_sign,,,,null,GW/camera.jpg,GW/snail.jpg,,,,,,,,,,,,
null,,black_cross(without_color),590149,blue,,,,null,GW/camera.jpg,GW/snail.jpg,,,,,,,,,,,,
null,,rt_plussign_withcolor,590652,blue,,,,null,GW/camera.jpg,GW/snail.jpg,,,,,,,,,,,,
1696.5,,rt_thecrossant_black,591620,black_plus_sign,,,,49,,,1,0.9545454545454546,,,,,,,,,,
null,,color_black,591724,black_plus_sign,,,,null,,,,,,,,,,,,,,
null,,learn_phase(without_color),593730,black_plus_sign,,,,null,GW/globe.jpg,GW/soldier.jpg,,,,,,,,,,,,
null,,black_cross(without_color),594606,green,,,,null,GW/globe.jpg,GW/soldier.jpg,,,,,,,,,,,,
null,,rt_plussign_withcolor,595108,green,,,,null,GW/globe.jpg,GW/soldier.jpg,,,,,,,,,,,,
1647.2000000029802,,rt_thecrossant_black,596240,black_plus_sign,,,,50,,,1,0.9565217391304348,,,,,,,,,,
null,,color_black,596345,black_plus_sign,,,,null,,,,,,,,,,,,,,
null,,learn_phase(without_color),598351,black_plus_sign,,,,null,GW/jukebox.jpg,GW/teeth.jpg,,,,,,,,,,,,
null,,black_cross(without_color),599121,green,,,,null,GW/jukebox.jpg,GW/teeth.jpg,,,,,,,,,,,,
null,,rt_plussign_withcolor,599624,green,,,,null,GW/jukebox.jpg,GW/teeth.jpg,,,,,,,,,,,,
1479.8999999985099,,rt_thecrossant_black,600862,black_plus_sign,,,,50,,,1,0.9583333333333334,,,,,,,,,,
null,,color_black,600966,black_plus_sign,,,,null,,,,,,,,,,,,,,
null,,learn_phase(without_color),602971,black_plus_sign,,,,null,GW/wheelchair.jpg,GW/camera.jpg,,,,,,,,,,,,
null,,black_cross(without_color),603691,blue,,,,null,GW/wheelchair.jpg,GW/camera.jpg,,,,,,,,,,,,
null,,rt_plussign_withcolor,604194,blue,,,,null,GW/wheelchair.jpg,GW/camera.jpg,,,,,,,,,,,,
1770.9000000059605,,rt_thecrossant_black,605481,black_plus_sign,,,,49,,,1,0.96,,,,,,,,,,
null,,color_black,605585,black_plus_sign,,,,null,,,,,,,,,,,,,,
null,,learn_phase(without_color),607591,black_plus_sign,,,,null,GW/globe.jpg,GW/soldier.jpg,,,,,,,,,,,,
null,,black_cross(without_color),608382,green,,,,null,GW/globe.jpg,GW/soldier.jpg,,,,,,,,,,,,
null,,rt_plussign_withcolor,608885,green,,,,null,GW/globe.jpg,GW/soldier.jpg,,,,,,,,,,,,
1439.1999999955297,,rt_thecrossant_black,610101,black_plus_sign,,,,50,,,1,0.9615384615384616,,,,,,,,,,
null,,color_black,610204,black_plus_sign,,,,null,,,,,,,,,,,,,,
null,,learn_phase(without_color),612210,black_plus_sign,,,,null,GW/dustpan.jpg,GW/hat.jpg,,,,,,,,,,,,
null,,black_cross(without_color),612668,green,,,,null,GW/dustpan.jpg,GW/hat.jpg,,,,,,,,,,,,
null,,rt_plussign_withcolor,613171,green,,,,null,GW/dustpan.jpg,GW/hat.jpg,,,,,,,,,,,,
1324.2000000029802,,rt_thecrossant_black,614721,black_plus_sign,,,,50,,,1,0.9629629629629629,,,,,,,,,,
null,,color_black,614824,black_plus_sign,,,,null,,,,,,,,,,,,,,
null,,learn_phase(without_color),616829,black_plus_sign,,,,null,GW/wheelchair.jpg,GW/paint.jpg,,,,,,,,,,,,
null,,black_cross(without_color),617679,green,,,,null,GW/wheelchair.jpg,GW/paint.jpg,,,,,,,,,,,,
null,,rt_plussign_withcolor,618182,green,,,,null,GW/wheelchair.jpg,GW/paint.jpg,,,,,,,,,,,,
968.5999999940395,,rt_thecrossant_black,619341,black_plus_sign,,,,50,,,1,0.9642857142857143,,,,,,,,,,
null,,color_black,619445,black_plus_sign,,,,null,,,,,,,,,,,,,,
null,,learn_phase(without_color),621450,black_plus_sign,,,,null,GW/barrel.jpg,GW/globe.jpg,,,,,,,,,,,,
null,,black_cross(without_color),622376,green,,,,null,GW/barrel.jpg,GW/globe.jpg,,,,,,,,,,,,
null,,rt_plussign_withcolor,622879,green,,,,null,GW/barrel.jpg,GW/globe.jpg,,,,,,,,,,,,
1416.5,,rt_thecrossant_black,623960,black_plus_sign,,,,50,,,1,0.9655172413793104,,,,,,,,,,
null,,color_black,624064,black_plus_sign,,,,null,,,,,,,,,,,,,,
null,,learn_phase(without_color),626070,black_plus_sign,,,,null,GW/dustpan.jpg,GW/hat.jpg,,,,,,,,,,,,
null,,black_cross(without_color),626594,blue,,,,null,GW/dustpan.jpg,GW/hat.jpg,,,,,,,,,,,,
null,,rt_plussign_withcolor,627097,blue,,,,null,GW/dustpan.jpg,GW/hat.jpg,,,,,,,,,,,,
1487.6999999955297,,rt_thecrossant_black,628581,black_plus_sign,,,,49,,,1,0.9666666666666667,,,,,,,,,,
null,,color_black,628684,black_plus_sign,,,,null,,,,,,,,,,,,,,
null,,learn_phase(without_color),630690,black_plus_sign,,,,null,GW/snail.jpg,GW/basket.jpg,,,,,,,,,,,,
null,,black_cross(without_color),631678,green,,,,null,GW/snail.jpg,GW/basket.jpg,,,,,,,,,,,,
null,,rt_plussign_withcolor,632181,green,,,,null,GW/snail.jpg,GW/basket.jpg,,,,,,,,,,,,
1162,,rt_thecrossant_black,633201,black_plus_sign,,,,50,,,1,0.967741935483871,,,,,,,,,,
null,,color_black,633304,black_plus_sign,,,,null,,,,,,,,,,,,,,
null,,learn_phase(without_color),635310,black_plus_sign,,,,null,GW/gong.jpg,GW/camera.jpg,,,,,,,,,,,,
null,,black_cross(without_color),635993,blue,,,,null,GW/gong.jpg,GW/camera.jpg,,,,,,,,,,,,
null,,rt_plussign_withcolor,636496,blue,,,,null,GW/gong.jpg,GW/camera.jpg,,,,,,,,,,,,
1697.1999999955297,,rt_thecrossant_black,637821,black_plus_sign,,,,49,,,1,0.96875,,,,,,,,,,
null,,color_black,637924,black_plus_sign,,,,null,,,,,,,,,,,,,,
null,,learn_phase(without_color),639930,black_plus_sign,,,,null,GW/jukebox.jpg,GW/teeth.jpg,,,,,,,,,,,,
null,,black_cross(without_color),640766,green,,,,null,GW/jukebox.jpg,GW/teeth.jpg,,,,,,,,,,,,
null,,rt_plussign_withcolor,641269,green,,,,null,GW/jukebox.jpg,GW/teeth.jpg,,,,,,,,,,,,
1220.6999999955297,,rt_thecrossant_black,642442,black_plus_sign,,,,50,,,1,0.9696969696969697,,,,,,,,,,
null,,color_black,642546,black_plus_sign,,,,null,,,,,,,,,,,,,,
null,,learn_phase(without_color),644553,black_plus_sign,,,,null,GW/globe.jpg,GW/jukebox.jpg,,,,,,,,,,,,
null,,black_cross(without_color),645589,green,,,,null,GW/globe.jpg,GW/jukebox.jpg,,,,,,,,,,,,
null,,rt_plussign_withcolor,646092,green,,,,null,GW/globe.jpg,GW/jukebox.jpg,,,,,,,,,,,,
1446.2000000029802,,rt_thecrossant_black,647064,black_plus_sign,,,,50,,,1,0.9705882352941176,,,,,,,,,,
null,,color_black,647169,black_plus_sign,,,,null,,,,,,,,,,,,,,
null,,learn_phase(without_color),649174,black_plus_sign,,,,null,GW/gong.jpg,GW/dustpan.jpg,,,,,,,,,,,,
null,,black_cross(without_color),650023,blue,,,,null,GW/gong.jpg,GW/dustpan.jpg,,,,,,,,,,,,
null,,rt_plussign_withcolor,650526,blue,,,,null,GW/gong.jpg,GW/dustpan.jpg,,,,,,,,,,,,
1646.7000000029802,,rt_thecrossant_black,651686,black_plus_sign,,,,49,,,1,0.9714285714285714,,,,,,,,,,
null,,color_black,651790,black_plus_sign,,,,null,,,,,,,,,,,,,,
null,,learn_phase(without_color),653796,black_plus_sign,,,,null,GW/wheelchair.jpg,GW/paint.jpg,,,,,,,,,,,,
null,,black_cross(without_color),654680,blue,,,,null,GW/wheelchair.jpg,GW/paint.jpg,,,,,,,,,,,,
null,,rt_plussign_withcolor,655183,blue,,,,null,GW/wheelchair.jpg,GW/paint.jpg,,,,,,,,,,,,
1466,,rt_thecrossant_black,656307,black_plus_sign,,,,49,,,1,0.9722222222222222,,,,,,,,,,
null,,color_black,656411,black_plus_sign,,,,null,,,,,,,,,,,,,,
null,,learn_phase(without_color),658417,black_plus_sign,,,,null,GW/dustpan.jpg,GW/camera.jpg,,,,,,,,,,,,
null,,black_cross(without_color),659105,blue,,,,null,GW/dustpan.jpg,GW/camera.jpg,,,,,,,,,,,,
null,,rt_plussign_withcolor,659608,blue,,,,null,GW/dustpan.jpg,GW/camera.jpg,,,,,,,,,,,,
1456.6000000014901,,rt_thecrossant_black,660928,black_plus_sign,,,,49,,,1,0.972972972972973,,,,,,,,,,
null,,color_black,661033,black_plus_sign,,,,null,,,,,,,,,,,,,,
null,,learn_phase(without_color),663039,black_plus_sign,,,,null,GW/soldier.jpg,GW/snail.jpg,,,,,,,,,,,,
null,,black_cross(without_color),664026,green,,,,null,GW/soldier.jpg,GW/snail.jpg,,,,,,,,,,,,
null,,rt_plussign_withcolor,664529,green,,,,null,GW/soldier.jpg,GW/snail.jpg,,,,,,,,,,,,
1404.8000000044703,,rt_thecrossant_black,665550,black_plus_sign,,,,50,,,1,0.9736842105263158,,,,,,,,,,
null,,color_black,665655,black_plus_sign,,,,null,,,,,,,,,,,,,,
null,,learn_phase(without_color),667660,black_plus_sign,,,,null,GW/soldier.jpg,GW/gong.jpg,,,,,,,,,,,,
null,,black_cross(without_color),668150,green,,,,null,GW/soldier.jpg,GW/gong.jpg,,,,,,,,,,,,
null,,rt_plussign_withcolor,668653,green,,,,null,GW/soldier.jpg,GW/gong.jpg,,,,,,,,,,,,
1575.6000000014901,,rt_thecrossant_black,670171,black_plus_sign,,,,50,,,1,0.9743589743589743,,,,,,,,,,
null,,color_black,670275,black_plus_sign,,,,null,,,,,,,,,,,,,,
null,,learn_phase(without_color),672281,black_plus_sign,,,,null,GW/dustpan.jpg,GW/hat.jpg,,,,,,,,,,,,
null,,black_cross(without_color),673180,blue,,,,null,GW/dustpan.jpg,GW/hat.jpg,,,,,,,,,,,,
null,,rt_plussign_withcolor,673683,blue,,,,null,GW/dustpan.jpg,GW/hat.jpg,,,,,,,,,,,,
1210.7999999970198,,rt_thecrossant_black,674792,black_plus_sign,,,,49,,,1,0.975,,,,,,,,,,
null,,color_black,674896,black_plus_sign,,,,null,,,,,,,,,,,,,,
null,,learn_phase(without_color),676902,black_plus_sign,,,,null,GW/soldier.jpg,GW/snail.jpg,,,,,,,,,,,,
null,,black_cross(without_color),677584,green,,,,null,GW/soldier.jpg,GW/snail.jpg,,,,,,,,,,,,
null,,rt_plussign_withcolor,678087,green,,,,null,GW/soldier.jpg,GW/snail.jpg,,,,,,,,,,,,
1393.3000000044703,,rt_thecrossant_black,679412,black_plus_sign,,,,50,,,1,0.975609756097561,,,,,,,,,,
null,,color_black,679516,black_plus_sign,,,,null,,,,,,,,,,,,,,
null,,learn_phase(without_color),681521,black_plus_sign,,,,null,GW/dustpan.jpg,GW/wheelchair.jpg,,,,,,,,,,,,
null,,black_cross(without_color),682191,green,,,,null,GW/dustpan.jpg,GW/wheelchair.jpg,,,,,,,,,,,,
null,,rt_plussign_withcolor,682694,green,,,,null,GW/dustpan.jpg,GW/wheelchair.jpg,,,,,,,,,,,,
1415.2000000029802,,rt_thecrossant_black,684031,black_plus_sign,,,,50,,,1,0.9761904761904762,,,,,,,,,,
null,,color_black,684135,black_plus_sign,,,,null,,,,,,,,,,,,,,
null,,learn_phase(without_color),686141,black_plus_sign,,,,null,GW/barrel.jpg,GW/globe.jpg,,,,,,,,,,,,
null,,black_cross(without_color),686647,green,,,,null,GW/barrel.jpg,GW/globe.jpg,,,,,,,,,,,,
null,,rt_plussign_withcolor,687151,green,,,,null,GW/barrel.jpg,GW/globe.jpg,,,,,,,,,,,,
1230.1999999955297,,rt_thecrossant_black,688652,black_plus_sign,,,,50,,,1,0.9767441860465116,,,,,,,,,,
null,,color_black,688756,black_plus_sign,,,,null,,,,,,,,,,,,,,
null,,learn_phase(without_color),690763,black_plus_sign,,,,null,GW/wheelchair.jpg,GW/camera.jpg,,,,,,,,,,,,
null,,black_cross(without_color),691262,green,,,,null,GW/wheelchair.jpg,GW/camera.jpg,,,,,,,,,,,,
null,,rt_plussign_withcolor,691766,green,,,,null,GW/wheelchair.jpg,GW/camera.jpg,,,,,,,,,,,,
844.6000000014901,,rt_thecrossant_black,693274,black_plus_sign,,,,50,,,1,0.9772727272727273,,,,,,,,,,
null,,color_black,693378,black_plus_sign,,,,null,,,,,,,,,,,,,,
null,,learn_phase(without_color),695384,black_plus_sign,,,,null,GW/gong.jpg,GW/dustpan.jpg,,,,,,,,,,,,
null,,black_cross(without_color),696277,blue,,,,null,GW/gong.jpg,GW/dustpan.jpg,,,,,,,,,,,,
null,,rt_plussign_withcolor,696779,blue,,,,null,GW/gong.jpg,GW/dustpan.jpg,,,,,,,,,,,,
1140,,rt_thecrossant_black,697895,black_plus_sign,,,,49,,,1,0.9777777777777777,,,,,,,,,,
null,,color_black,697999,black_plus_sign,,,,null,,,,,,,,,,,,,,
null,,learn_phase(without_color),700005,black_plus_sign,,,,null,GW/soldier.jpg,GW/snail.jpg,,,,,,,,,,,,
null,,black_cross(without_color),700796,green,,,,null,GW/soldier.jpg,GW/snail.jpg,,,,,,,,,,,,
null,,rt_plussign_withcolor,701299,green,,,,null,GW/soldier.jpg,GW/snail.jpg,,,,,,,,,,,,
1581.7000000029802,,rt_thecrossant_black,702516,black_plus_sign,,,,50,,,1,0.9782608695652174,,,,,,,,,,
null,,color_black,702620,black_plus_sign,,,,null,,,,,,,,,,,,,,
null,,learn_phase(without_color),704625,black_plus_sign,,,,null,GW/jukebox.jpg,GW/teeth.jpg,,,,,,,,,,,,
null,,black_cross(without_color),705609,green,,,,null,GW/jukebox.jpg,GW/teeth.jpg,,,,,,,,,,,,
null,,rt_plussign_withcolor,706111,green,,,,null,GW/jukebox.jpg,GW/teeth.jpg,,,,,,,,,,,,
1402.2000000029802,,rt_thecrossant_black,707135,black_plus_sign,,,,50,,,1,0.9787234042553191,,,,,,,,,,
null,,color_black,707239,black_plus_sign,,,,null,,,,,,,,,,,,,,
null,,learn_phase(without_color),709245,black_plus_sign,,,,null,GW/gong.jpg,GW/dustpan.jpg,,,,,,,,,,,,
null,,black_cross(without_color),710208,blue,,,,null,GW/gong.jpg,GW/dustpan.jpg,,,,,,,,,,,,
null,,rt_plussign_withcolor,710710,blue,,,,null,GW/gong.jpg,GW/dustpan.jpg,,,,,,,,,,,,
null,,rt_thecrossant_black,711757,black_plus_sign,,,,null,,,,0.9787234042553191,,,,,,,,,,
null,,color_black,711861,black_plus_sign,,,,null,,,,,,,,,,,,,,
null,,learn_phase(without_color),713866,black_plus_sign,,,,null,GW/dustpan.jpg,GW/camera.jpg,,,,,,,,,,,,
null,,black_cross(without_color),714444,green,,,,null,GW/dustpan.jpg,GW/camera.jpg,,,,,,,,,,,,
null,,rt_plussign_withcolor,714947,green,,,,null,GW/dustpan.jpg,GW/camera.jpg,,,,,,,,,,,,
1746.7000000029802,,rt_thecrossant_black,716377,black_plus_sign,,,,50,,,1,0.9791666666666666,,,,,,,,,,
null,,color_black,716481,black_plus_sign,,,,null,,,,,,,,,,,,,,
null,,learn_phase(without_color),718487,black_plus_sign,,,,null,GW/globe.jpg,GW/soldier.jpg,,,,,,,,,,,,
null,,black_cross(without_color),719526,green,,,,null,GW/globe.jpg,GW/soldier.jpg,,,,,,,,,,,,
null,,rt_plussign_withcolor,720029,green,,,,null,GW/globe.jpg,GW/soldier.jpg,,,,,,,,,,,,
1337,,rt_thecrossant_black,720998,black_plus_sign,,,,50,,,1,0.9795918367346939,,,,,,,,,,
null,,color_black,721102,black_plus_sign,,,,null,,,,,,,,,,,,,,
null,,learn_phase(without_color),723108,black_plus_sign,,,,null,GW/dustpan.jpg,GW/hat.jpg,,,,,,,,,,,,
null,,black_cross(without_color),723901,blue,,,,null,GW/dustpan.jpg,GW/hat.jpg,,,,,,,,,,,,
null,,rt_plussign_withcolor,724404,blue,,,,null,GW/dustpan.jpg,GW/hat.jpg,,,,,,,,,,,,
2194.5,,rt_thecrossant_black,725619,black_plus_sign,,,,49,,,1,0.98,,,,,,,,,,
null,,color_black,725724,black_plus_sign,,,,null,,,,,,,,,,,,,,
null,,learn_phase(without_color),727729,black_plus_sign,,,,null,GW/gong.jpg,GW/dustpan.jpg,,,,,,,,,,,,
null,,black_cross(without_color),728502,green,,,,null,GW/gong.jpg,GW/dustpan.jpg,,,,,,,,,,,,
null,,rt_plussign_withcolor,729006,green,,,,null,GW/gong.jpg,GW/dustpan.jpg,,,,,,,,,,,,
1455.1999999955297,,rt_thecrossant_black,730240,black_plus_sign,,,,50,,,1,0.9803921568627451,,,,,,,,,,
null,,color_black,730344,black_plus_sign,,,,null,,,,,,,,,,,,,,
null,,learn_phase(without_color),732350,black_plus_sign,,,,null,GW/gong.jpg,GW/camera.jpg,,,,,,,,,,,,
null,,black_cross(without_color),732990,blue,,,,null,GW/gong.jpg,GW/camera.jpg,,,,,,,,,,,,
null,,rt_plussign_withcolor,733494,blue,,,,null,GW/gong.jpg,GW/camera.jpg,,,,,,,,,,,,
1427.7000000029802,,rt_thecrossant_black,734861,black_plus_sign,,,,49,,,1,0.9807692307692307,,,,,,,,,,
null,,color_black,734965,black_plus_sign,,,,null,,,,,,,,,,,,,,
null,,learn_phase(without_color),736970,black_plus_sign,,,,null,GW/globe.jpg,GW/jukebox.jpg,,,,,,,,,,,,
null,,black_cross(without_color),738003,blue,,,,null,GW/globe.jpg,GW/jukebox.jpg,,,,,,,,,,,,
null,,rt_plussign_withcolor,738506,blue,,,,null,GW/globe.jpg,GW/jukebox.jpg,,,,,,,,,,,,
1415.3999999985099,,rt_thecrossant_black,739481,black_plus_sign,,,,49,,,1,0.9811320754716981,,,,,,,,,,
null,,color_black,739585,black_plus_sign,,,,null,,,,,,,,,,,,,,
null,,learn_phase(without_color),741591,black_plus_sign,,,,null,GW/wheelchair.jpg,GW/paint.jpg,,,,,,,,,,,,
null,,black_cross(without_color),742592,blue,,,,null,GW/wheelchair.jpg,GW/paint.jpg,,,,,,,,,,,,
null,,rt_plussign_withcolor,743095,blue,,,,null,GW/wheelchair.jpg,GW/paint.jpg,,,,,,,,,,,,
1400.7000000029802,,rt_thecrossant_black,744103,black_plus_sign,,,,49,,,1,0.9814814814814815,,,,,,,,,,
null,,color_black,744207,black_plus_sign,,,,null,,,,,,,,,,,,,,
null,,learn_phase(without_color),746213,black_plus_sign,,,,null,GW/wheelchair.jpg,GW/camera.jpg,,,,,,,,,,,,
null,,black_cross(without_color),747161,green,,,,null,GW/wheelchair.jpg,GW/camera.jpg,,,,,,,,,,,,
null,,rt_plussign_withcolor,747663,green,,,,null,GW/wheelchair.jpg,GW/camera.jpg,,,,,,,,,,,,
1457.8999999985099,,rt_thecrossant_black,748724,black_plus_sign,,,,50,,,1,0.9818181818181818,,,,,,,,,,
null,,color_black,748828,black_plus_sign,,,,null,,,,,,,,,,,,,,
null,,learn_phase(without_color),750835,black_plus_sign,,,,null,GW/gong.jpg,GW/camera.jpg,,,,,,,,,,,,
null,,black_cross(without_color),751578,green,,,,null,GW/gong.jpg,GW/camera.jpg,,,,,,,,,,,,
null,,rt_plussign_withcolor,752081,green,,,,null,GW/gong.jpg,GW/camera.jpg,,,,,,,,,,,,
1618.1000000014901,,rt_thecrossant_black,753347,black_plus_sign,,,,50,,,1,0.9821428571428571,,,,,,,,,,
null,,color_black,753451,black_plus_sign,,,,null,,,,,,,,,,,,,,
null,,learn_phase(without_color),755457,black_plus_sign,,,,null,GW/jukebox.jpg,GW/teeth.jpg,,,,,,,,,,,,
null,,black_cross(without_color),756344,blue,,,,null,GW/jukebox.jpg,GW/teeth.jpg,,,,,,,,,,,,
null,,rt_plussign_withcolor,756847,blue,,,,null,GW/jukebox.jpg,GW/teeth.jpg,,,,,,,,,,,,
1235.5,,rt_thecrossant_black,757968,black_plus_sign,,,,49,,,1,0.9824561403508771,,,,,,,,,,
null,,color_black,758072,black_plus_sign,,,,null,,,,,,,,,,,,,,
null,,learn_phase(without_color),760078,black_plus_sign,,,,null,GW/snail.jpg,GW/basket.jpg,,,,,,,,,,,,
null,,black_cross(without_color),760877,blue,,,,null,GW/snail.jpg,GW/basket.jpg,,,,,,,,,,,,
null,,rt_plussign_withcolor,761381,blue,,,,null,GW/snail.jpg,GW/basket.jpg,,,,,,,,,,,,
1927.5,,rt_thecrossant_black,762589,black_plus_sign,,,,49,,,1,0.9827586206896551,,,,,,,,,,
null,,color_black,762693,black_plus_sign,,,,null,,,,,,,,,,,,,,
null,,learn_phase(without_color),764698,black_plus_sign,,,,null,GW/soldier.jpg,GW/snail.jpg,,,,,,,,,,,,
null,,black_cross(without_color),765349,green,,,,null,GW/soldier.jpg,GW/snail.jpg,,,,,,,,,,,,
null,,rt_plussign_withcolor,765852,green,,,,null,GW/soldier.jpg,GW/snail.jpg,,,,,,,,,,,,
1415.3000000044703,,rt_thecrossant_black,767210,black_plus_sign,,,,50,,,1,0.9830508474576272,,,,,,,,,,
null,,color_black,767314,black_plus_sign,,,,null,,,,,,,,,,,,,,
null,,learn_phase(without_color),769320,black_plus_sign,,,,null,GW/wheelchair.jpg,GW/camera.jpg,,,,,,,,,,,,
null,,black_cross(without_color),769869,green,,,,null,GW/wheelchair.jpg,GW/camera.jpg,,,,,,,,,,,,
null,,rt_plussign_withcolor,770372,green,,,,null,GW/wheelchair.jpg,GW/camera.jpg,,,,,,,,,,,,
1105.5,,rt_thecrossant_black,771831,black_plus_sign,,,,50,,,1,0.9833333333333333,,,,,,,,,,
null,,color_black,771935,black_plus_sign,,,,null,,,,,,,,,,,,,,
null,,learn_phase(without_color),773941,black_plus_sign,,,,null,GW/dustpan.jpg,GW/hat.jpg,,,,,,,,,,,,
null,,black_cross(without_color),774973,blue,,,,null,GW/dustpan.jpg,GW/hat.jpg,,,,,,,,,,,,
null,,rt_plussign_withcolor,775476,blue,,,,null,GW/dustpan.jpg,GW/hat.jpg,,,,,,,,,,,,
1017.1000000014901,,rt_thecrossant_black,776452,black_plus_sign,,,,49,,,1,0.9836065573770492,,,,,,,,,,
null,,color_black,776556,black_plus_sign,,,,null,,,,,,,,,,,,,,
null,,learn_phase(without_color),778561,black_plus_sign,,,,null,GW/gong.jpg,GW/dustpan.jpg,,,,,,,,,,,,
null,,black_cross(without_color),779345,green,,,,null,GW/gong.jpg,GW/dustpan.jpg,,,,,,,,,,,,
null,,rt_plussign_withcolor,779849,green,,,,null,GW/gong.jpg,GW/dustpan.jpg,,,,,,,,,,,,
1716,,rt_thecrossant_black,781073,black_plus_sign,,,,50,,,1,0.9838709677419355,,,,,,,,,,
null,,color_black,781178,black_plus_sign,,,,null,,,,,,,,,,,,,,
null,,learn_phase(without_color),783184,black_plus_sign,,,,null,GW/jukebox.jpg,GW/teeth.jpg,,,,,,,,,,,,
null,,black_cross(without_color),783773,green,,,,null,GW/jukebox.jpg,GW/teeth.jpg,,,,,,,,,,,,
null,,rt_plussign_withcolor,784277,green,,,,null,GW/jukebox.jpg,GW/teeth.jpg,,,,,,,,,,,,
1622.7999999970198,,rt_thecrossant_black,785696,black_plus_sign,,,,50,,,1,0.9841269841269841,,,,,,,,,,
null,,color_black,785800,black_plus_sign,,,,null,,,,,,,,,,,,,,
null,,learn_phase(without_color),787805,black_plus_sign,,,,null,GW/gong.jpg,GW/camera.jpg,,,,,,,,,,,,
null,,black_cross(without_color),788576,green,,,,null,GW/gong.jpg,GW/camera.jpg,,,,,,,,,,,,
null,,rt_plussign_withcolor,789079,green,,,,null,GW/gong.jpg,GW/camera.jpg,,,,,,,,,,,,
1432.5999999940395,,rt_thecrossant_black,790315,black_plus_sign,,,,50,,,1,0.984375,,,,,,,,,,
null,,color_black,790419,black_plus_sign,,,,null,,,,,,,,,,,,,,
null,,learn_phase(without_color),792425,black_plus_sign,,,,null,GW/soldier.jpg,GW/gong.jpg,,,,,,,,,,,,
null,,black_cross(without_color),793368,blue,,,,null,GW/soldier.jpg,GW/gong.jpg,,,,,,,,,,,,
null,,rt_plussign_withcolor,793872,blue,,,,null,GW/soldier.jpg,GW/gong.jpg,,,,,,,,,,,,
1677.8999999985099,,rt_thecrossant_black,794939,black_plus_sign,,,,49,,,1,0.9846153846153847,,,,,,,,,,
null,,color_black,795043,black_plus_sign,,,,null,,,,,,,,,,,,,,
null,,learn_phase(without_color),797049,black_plus_sign,,,,null,GW/gong.jpg,GW/camera.jpg,,,,,,,,,,,,
null,,black_cross(without_color),797627,blue,,,,null,GW/gong.jpg,GW/camera.jpg,,,,,,,,,,,,
null,,rt_plussign_withcolor,798130,blue,,,,null,GW/gong.jpg,GW/camera.jpg,,,,,,,,,,,,
1358.2000000029802,,rt_thecrossant_black,799562,black_plus_sign,,,,49,,,1,0.9848484848484849,,,,,,,,,,
null,,color_black,799666,black_plus_sign,,,,null,,,,,,,,,,,,,,
null,,learn_phase(without_color),801670,black_plus_sign,,,,null,GW/jukebox.jpg,GW/basket.jpg,,,,,,,,,,,,
null,,black_cross(without_color),802100,blue,,,,null,GW/jukebox.jpg,GW/basket.jpg,,,,,,,,,,,,
null,,rt_plussign_withcolor,802604,blue,,,,null,GW/jukebox.jpg,GW/basket.jpg,,,,,,,,,,,,
1067.9000000059605,,rt_thecrossant_black,804181,black_plus_sign,,,,49,,,1,0.9850746268656716,,,,,,,,,,
null,,color_black,804286,black_plus_sign,,,,null,,,,,,,,,,,,,,
null,,learn_phase(without_color),806291,black_plus_sign,,,,null,GW/camera.jpg,GW/snail.jpg,,,,,,,,,,,,
null,,black_cross(without_color),807329,green,,,,null,GW/camera.jpg,GW/snail.jpg,,,,,,,,,,,,
null,,rt_plussign_withcolor,807832,green,,,,null,GW/camera.jpg,GW/snail.jpg,,,,,,,,,,,,
1080.8000000044703,,rt_thecrossant_black,808803,black_plus_sign,,,,50,,,1,0.9852941176470589,,,,,,,,,,
null,,color_black,808907,black_plus_sign,,,,null,,,,,,,,,,,,,,
null,,learn_phase(without_color),810913,black_plus_sign,,,,null,GW/wheelchair.jpg,GW/paint.jpg,,,,,,,,,,,,
null,,black_cross(without_color),811843,green,,,,null,GW/wheelchair.jpg,GW/paint.jpg,,,,,,,,,,,,
null,,rt_plussign_withcolor,812346,green,,,,null,GW/wheelchair.jpg,GW/paint.jpg,,,,,,,,,,,,
1464.6000000014901,,rt_thecrossant_black,813424,black_plus_sign,,,,50,,,1,0.9855072463768116,,,,,,,,,,
null,,color_black,813528,black_plus_sign,,,,null,,,,,,,,,,,,,,
null,,learn_phase(without_color),815534,black_plus_sign,,,,null,GW/globe.jpg,GW/soldier.jpg,,,,,,,,,,,,
null,,black_cross(without_color),816523,blue,,,,null,GW/globe.jpg,GW/soldier.jpg,,,,,,,,,,,,
null,,rt_plussign_withcolor,817026,blue,,,,null,GW/globe.jpg,GW/soldier.jpg,,,,,,,,,,,,
1489,,rt_thecrossant_black,818045,black_plus_sign,,,,49,,,1,0.9857142857142858,,,,,,,,,,
null,,color_black,818150,black_plus_sign,,,,null,,,,,,,,,,,,,,
null,,learn_phase(without_color),820156,black_plus_sign,,,,null,GW/dustpan.jpg,GW/wheelchair.jpg,,,,,,,,,,,,
null,,black_cross(without_color),821235,blue,,,,null,GW/dustpan.jpg,GW/wheelchair.jpg,,,,,,,,,,,,
null,,rt_plussign_withcolor,821737,blue,,,,null,GW/dustpan.jpg,GW/wheelchair.jpg,,,,,,,,,,,,
1944.8999999985099,,rt_thecrossant_black,822668,black_plus_sign,,,,49,,,1,0.9859154929577465,,,,,,,,,,
null,,color_black,822772,black_plus_sign,,,,null,,,,,,,,,,,,,,
null,,learn_phase(without_color),824778,black_plus_sign,,,,null,GW/wheelchair.jpg,GW/paint.jpg,,,,,,,,,,,,
null,,black_cross(without_color),825561,blue,,,,null,GW/wheelchair.jpg,GW/paint.jpg,,,,,,,,,,,,
null,,rt_plussign_withcolor,826064,blue,,,,null,GW/wheelchair.jpg,GW/paint.jpg,,,,,,,,,,,,
1462.6000000014901,,rt_thecrossant_black,827291,black_plus_sign,,,,49,,,1,0.9861111111111112,,,,,,,,,,
null,,color_black,827397,black_plus_sign,,,,null,,,,,,,,,,,,,,
null,,learn_phase(without_color),829404,black_plus_sign,,,,null,GW/dustpan.jpg,GW/wheelchair.jpg,,,,,,,,,,,,
null,,black_cross(without_color),829957,blue,,,,null,GW/dustpan.jpg,GW/wheelchair.jpg,,,,,,,,,,,,
null,,rt_plussign_withcolor,830460,blue,,,,null,GW/dustpan.jpg,GW/wheelchair.jpg,,,,,,,,,,,,
1850.8000000044703,,rt_thecrossant_black,831916,black_plus_sign,,,,49,,,1,0.9863013698630136,,,,,,,,,,
null,,color_black,832021,black_plus_sign,,,,null,,,,,,,,,,,,,,
null,,learn_phase(without_color),834027,black_plus_sign,,,,null,GW/jukebox.jpg,GW/teeth.jpg,,,,,,,,,,,,
null,,black_cross(without_color),835021,blue,,,,null,GW/jukebox.jpg,GW/teeth.jpg,,,,,,,,,,,,
null,,rt_plussign_withcolor,835525,blue,,,,null,GW/jukebox.jpg,GW/teeth.jpg,,,,,,,,,,,,
1140.3999999985099,,rt_thecrossant_black,836538,black_plus_sign,,,,49,,,1,0.9864864864864865,,,,,,,,,,
null,,color_black,836643,black_plus_sign,,,,null,,,,,,,,,,,,,,
null,,learn_phase(without_color),838648,black_plus_sign,,,,null,GW/gong.jpg,GW/camera.jpg,,,,,,,,,,,,
null,,black_cross(without_color),839510,blue,,,,null,GW/gong.jpg,GW/camera.jpg,,,,,,,,,,,,
null,,rt_plussign_withcolor,840013,blue,,,,null,GW/gong.jpg,GW/camera.jpg,,,,,,,,,,,,
1678.5999999940395,,rt_thecrossant_black,841160,black_plus_sign,,,,49,,,1,0.9866666666666667,,,,,,,,,,
null,,color_black,841265,black_plus_sign,,,,null,,,,,,,,,,,,,,
null,,learn_phase(without_color),843271,black_plus_sign,,,,null,GW/barrel.jpg,GW/globe.jpg,,,,,,,,,,,,
null,,black_cross(without_color),844258,blue,,,,null,GW/barrel.jpg,GW/globe.jpg,,,,,,,,,,,,
null,,rt_plussign_withcolor,844762,blue,,,,null,GW/barrel.jpg,GW/globe.jpg,,,,,,,,,,,,
1194.5999999940395,,rt_thecrossant_black,845783,black_plus_sign,,,,49,,,1,0.9868421052631579,,,,,,,,,,
null,,color_black,845887,black_plus_sign,,,,null,,,,,,,,,,,,,,
null,,learn_phase(without_color),847893,black_plus_sign,,,,null,GW/dustpan.jpg,GW/hat.jpg,,,,,,,,,,,,
null,,black_cross(without_color),848571,green,,,,null,GW/dustpan.jpg,GW/hat.jpg,,,,,,,,,,,,
null,,rt_plussign_withcolor,849075,green,,,,null,GW/dustpan.jpg,GW/hat.jpg,,,,,,,,,,,,
1779.5,,rt_thecrossant_black,850405,black_plus_sign,,,,50,,,1,0.987012987012987,,,,,,,,,,
null,,color_black,850510,black_plus_sign,,,,null,,,,,,,,,,,,,,
null,,learn_phase(without_color),852516,black_plus_sign,,,,null,GW/camera.jpg,GW/snail.jpg,,,,,,,,,,,,
null,,black_cross(without_color),853067,blue,,,,null,GW/camera.jpg,GW/snail.jpg,,,,,,,,,,,,
null,,rt_plussign_withcolor,853570,blue,,,,null,GW/camera.jpg,GW/snail.jpg,,,,,,,,,,,,
1488.7000000029802,,rt_thecrossant_black,855028,black_plus_sign,,,,49,,,1,0.9871794871794872,,,,,,,,,,
null,,color_black,855132,black_plus_sign,,,,null,,,,,,,,,,,,,,
null,,learn_phase(without_color),857139,black_plus_sign,,,,null,GW/dustpan.jpg,GW/hat.jpg,,,,,,,,,,,,
null,,black_cross(without_color),857626,blue,,,,null,GW/dustpan.jpg,GW/hat.jpg,,,,,,,,,,,,
null,,rt_plussign_withcolor,858130,blue,,,,null,GW/dustpan.jpg,GW/hat.jpg,,,,,,,,,,,,
989.5999999940395,,rt_thecrossant_black,859652,black_plus_sign,,,,49,,,1,0.9873417721518988,,,,,,,,,,
null,,color_black,859757,black_plus_sign,,,,null,,,,,,,,,,,,,,
null,,learn_phase(without_color),861762,black_plus_sign,,,,null,GW/snail.jpg,GW/basket.jpg,,,,,,,,,,,,
null,,black_cross(without_color),862180,blue,,,,null,GW/snail.jpg,GW/basket.jpg,,,,,,,,,,,,
null,,rt_plussign_withcolor,862683,blue,,,,null,GW/snail.jpg,GW/basket.jpg,,,,,,,,,,,,
1262.4000000059605,,rt_thecrossant_black,864273,black_plus_sign,,,,49,,,1,0.9875,,,,,,,,,,
null,,color_black,864378,black_plus_sign,,,,null,,,,,,,,,,,,,,
null,,learn_phase(without_color),866383,black_plus_sign,,,,null,GW/barrel.jpg,GW/globe.jpg,,,,,,,,,,,,
null,,black_cross(without_color),866904,green,,,,null,GW/barrel.jpg,GW/globe.jpg,,,,,,,,,,,,
null,,rt_plussign_withcolor,867408,green,,,,null,GW/barrel.jpg,GW/globe.jpg,,,,,,,,,,,,
1023.1999999955297,,rt_thecrossant_black,868895,black_plus_sign,,,,50,,,1,0.9876543209876543,,,,,,,,,,
null,,color_black,869001,black_plus_sign,,,,null,,,,,,,,,,,,,,
null,,learn_phase(without_color),871006,black_plus_sign,,,,null,GW/soldier.jpg,GW/gong.jpg,,,,,,,,,,,,
null,,black_cross(without_color),871734,blue,,,,null,GW/soldier.jpg,GW/gong.jpg,,,,,,,,,,,,
null,,rt_plussign_withcolor,872238,blue,,,,null,GW/soldier.jpg,GW/gong.jpg,,,,,,,,,,,,
1632.8000000044703,,rt_thecrossant_black,873519,black_plus_sign,,,,49,,,1,0.9878048780487805,,,,,,,,,,
null,,color_black,873623,black_plus_sign,,,,null,,,,,,,,,,,,,,
null,,learn_phase(without_color),875629,black_plus_sign,,,,null,GW/gong.jpg,GW/camera.jpg,,,,,,,,,,,,
null,,black_cross(without_color),876374,green,,,,null,GW/gong.jpg,GW/camera.jpg,,,,,,,,,,,,
null,,rt_plussign_withcolor,876877,green,,,,null,GW/gong.jpg,GW/camera.jpg,,,,,,,,,,,,
1648.2000000029802,,rt_thecrossant_black,878142,black_plus_sign,,,,50,,,1,0.9879518072289156,,,,,,,,,,
null,,color_black,878246,black_plus_sign,,,,null,,,,,,,,,,,,,,
null,,learn_phase(without_color),880252,black_plus_sign,,,,null,GW/wheelchair.jpg,GW/camera.jpg,,,,,,,,,,,,
null,,black_cross(without_color),881237,green,,,,null,GW/wheelchair.jpg,GW/camera.jpg,,,,,,,,,,,,
null,,rt_plussign_withcolor,881741,green,,,,null,GW/wheelchair.jpg,GW/camera.jpg,,,,,,,,,,,,
1767.8999999985099,,rt_thecrossant_black,882765,black_plus_sign,,,,50,,,1,0.9880952380952381,,,,,,,,,,
null,,color_black,882870,black_plus_sign,,,,null,,,,,,,,,,,,,,
null,,learn_phase(without_color),884875,black_plus_sign,,,,null,GW/soldier.jpg,GW/gong.jpg,,,,,,,,,,,,
null,,black_cross(without_color),885934,green,,,,null,GW/soldier.jpg,GW/gong.jpg,,,,,,,,,,,,
null,,rt_plussign_withcolor,886438,green,,,,null,GW/soldier.jpg,GW/gong.jpg,,,,,,,,,,,,
1652.0999999940395,,rt_thecrossant_black,887387,black_plus_sign,,,,49,,,0,0.9764705882352941,,,,,,,,,,
null,,color_black,887491,black_plus_sign,,,,null,,,,,,,,,,,,,,
null,,learn_phase(without_color),889497,black_plus_sign,,,,null,GW/camera.jpg,GW/snail.jpg,,,,,,,,,,,,
null,,black_cross(without_color),890075,green,,,,null,GW/camera.jpg,GW/snail.jpg,,,,,,,,,,,,
null,,rt_plussign_withcolor,890579,green,,,,null,GW/camera.jpg,GW/snail.jpg,,,,,,,,,,,,
null,,rt_thecrossant_black,892010,black_plus_sign,,,,null,,,,0.9764705882352941,,,,,,,,,,
null,,warning_page,895016,warning,,,,null,,,,,,,,,,,,,,
null,,color_black,895119,black_plus_sign,,,,null,,,,,,,,,,,,,,
null,,learn_phase(without_color),897125,black_plus_sign,,,,null,GW/dustpan.jpg,GW/camera.jpg,,,,,,,,,,,,
null,,black_cross(without_color),897581,blue,,,,null,GW/dustpan.jpg,GW/camera.jpg,,,,,,,,,,,,
null,,rt_plussign_withcolor,898085,blue,,,,null,GW/dustpan.jpg,GW/camera.jpg,,,,,,,,,,,,
1273,,rt_thecrossant_black,899637,black_plus_sign,,,,49,,,1,0.9767441860465116,,,,,,,,,,
null,,color_black,899741,black_plus_sign,,,,null,,,,,,,,,,,,,,
null,,learn_phase(without_color),901747,black_plus_sign,,,,null,GW/globe.jpg,GW/soldier.jpg,,,,,,,,,,,,
null,,black_cross(without_color),902598,blue,,,,null,GW/globe.jpg,GW/soldier.jpg,,,,,,,,,,,,
null,,rt_plussign_withcolor,903101,blue,,,,null,GW/globe.jpg,GW/soldier.jpg,,,,,,,,,,,,
680.1999999955297,,rt_thecrossant_black,904259,black_plus_sign,,,,49,,,1,0.9770114942528736,,,,,,,,,,
null,,color_black,904364,black_plus_sign,,,,null,,,,,,,,,,,,,,
null,,learn_phase(without_color),906370,black_plus_sign,,,,null,GW/camera.jpg,GW/snail.jpg,,,,,,,,,,,,
null,,black_cross(without_color),907095,green,,,,null,GW/camera.jpg,GW/snail.jpg,,,,,,,,,,,,
null,,rt_plussign_withcolor,907599,green,,,,null,GW/camera.jpg,GW/snail.jpg,,,,,,,,,,,,
1558.5999999940395,,rt_thecrossant_black,908883,black_plus_sign,,,,50,,,1,0.9772727272727273,,,,,,,,,,
null,,color_black,908988,black_plus_sign,,,,null,,,,,,,,,,,,,,
null,,learn_phase(without_color),910994,black_plus_sign,,,,null,GW/soldier.jpg,GW/gong.jpg,,,,,,,,,,,,
null,,black_cross(without_color),911512,green,,,,null,GW/soldier.jpg,GW/gong.jpg,,,,,,,,,,,,
null,,rt_plussign_withcolor,912015,green,,,,null,GW/soldier.jpg,GW/gong.jpg,,,,,,,,,,,,
1366.5,,rt_thecrossant_black,913505,black_plus_sign,,,,50,,,1,0.9775280898876404,,,,,,,,,,
null,,color_black,913609,black_plus_sign,,,,null,,,,,,,,,,,,,,
null,,learn_phase(without_color),915615,black_plus_sign,,,,null,GW/dustpan.jpg,GW/hat.jpg,,,,,,,,,,,,
null,,black_cross(without_color),916225,green,,,,null,GW/dustpan.jpg,GW/hat.jpg,,,,,,,,,,,,
null,,rt_plussign_withcolor,916728,green,,,,null,GW/dustpan.jpg,GW/hat.jpg,,,,,,,,,,,,
1100.1999999955297,,rt_thecrossant_black,918127,black_plus_sign,,,,50,,,1,0.9777777777777777,,,,,,,,,,
null,,color_black,918232,black_plus_sign,,,,null,,,,,,,,,,,,,,
null,,learn_phase(without_color),920239,black_plus_sign,,,,null,GW/jukebox.jpg,GW/basket.jpg,,,,,,,,,,,,
null,,black_cross(without_color),920850,green,,,,null,GW/jukebox.jpg,GW/basket.jpg,,,,,,,,,,,,
null,,rt_plussign_withcolor,921353,green,,,,null,GW/jukebox.jpg,GW/basket.jpg,,,,,,,,,,,,
919.2000000029802,,rt_thecrossant_black,922751,black_plus_sign,,,,50,,,1,0.978021978021978,,,,,,,,,,
null,,color_black,922857,black_plus_sign,,,,null,,,,,,,,,,,,,,
null,,learn_phase(without_color),924863,black_plus_sign,,,,null,GW/globe.jpg,GW/soldier.jpg,,,,,,,,,,,,
null,,black_cross(without_color),925856,green,,,,null,GW/globe.jpg,GW/soldier.jpg,,,,,,,,,,,,
null,,rt_plussign_withcolor,926359,green,,,,null,GW/globe.jpg,GW/soldier.jpg,,,,,,,,,,,,
1111.7000000029802,,rt_thecrossant_black,927375,black_plus_sign,,,,50,,,1,0.9782608695652174,,,,,,,,,,
null,,color_black,927479,black_plus_sign,,,,null,,,,,,,,,,,,,,
null,,learn_phase(without_color),929486,black_plus_sign,,,,null,GW/snail.jpg,GW/basket.jpg,,,,,,,,,,,,
null,,black_cross(without_color),929907,blue,,,,null,GW/snail.jpg,GW/basket.jpg,,,,,,,,,,,,
null,,rt_plussign_withcolor,930411,blue,,,,null,GW/snail.jpg,GW/basket.jpg,,,,,,,,,,,,
null,,rt_thecrossant_black,931999,black_plus_sign,,,,null,,,,0.9782608695652174,,,,,,,,,,
null,,color_black,932103,black_plus_sign,,,,null,,,,,,,,,,,,,,
null,,learn_phase(without_color),934110,black_plus_sign,,,,null,GW/dustpan.jpg,GW/wheelchair.jpg,,,,,,,,,,,,
null,,black_cross(without_color),934764,green,,,,null,GW/dustpan.jpg,GW/wheelchair.jpg,,,,,,,,,,,,
null,,rt_plussign_withcolor,935268,green,,,,null,GW/dustpan.jpg,GW/wheelchair.jpg,,,,,,,,,,,,
600.8999999985099,,rt_thecrossant_black,936623,black_plus_sign,,,,50,,,1,0.978494623655914,,,,,,,,,,
null,,color_black,936728,black_plus_sign,,,,null,,,,,,,,,,,,,,
null,,learn_phase(without_color),938734,black_plus_sign,,,,null,GW/dustpan.jpg,GW/camera.jpg,,,,,,,,,,,,
null,,black_cross(without_color),939394,green,,,,null,GW/dustpan.jpg,GW/camera.jpg,,,,,,,,,,,,
null,,rt_plussign_withcolor,939898,green,,,,null,GW/dustpan.jpg,GW/camera.jpg,,,,,,,,,,,,
1000.2000000029802,,rt_thecrossant_black,941246,black_plus_sign,,,,50,,,1,0.9787234042553191,,,,,,,,,,
null,,color_black,941351,black_plus_sign,,,,null,,,,,,,,,,,,,,
null,,learn_phase(without_color),943357,black_plus_sign,,,,null,GW/snail.jpg,GW/basket.jpg,,,,,,,,,,,,
null,,black_cross(without_color),943974,green,,,,null,GW/snail.jpg,GW/basket.jpg,,,,,,,,,,,,
null,,rt_plussign_withcolor,944477,green,,,,null,GW/snail.jpg,GW/basket.jpg,,,,,,,,,,,,
1046.2000000029802,,rt_thecrossant_black,945868,black_plus_sign,,,,50,,,1,0.9789473684210527,,,,,,,,,,
null,,color_black,945973,black_plus_sign,,,,null,,,,,,,,,,,,,,
null,,learn_phase(without_color),947980,black_plus_sign,,,,null,GW/gong.jpg,GW/dustpan.jpg,,,,,,,,,,,,
null,,black_cross(without_color),948733,green,,,,null,GW/gong.jpg,GW/dustpan.jpg,,,,,,,,,,,,
null,,rt_plussign_withcolor,949236,green,,,,null,GW/gong.jpg,GW/dustpan.jpg,,,,,,,,,,,,
869.5,,rt_thecrossant_black,950490,black_plus_sign,,,,50,,,1,0.9791666666666666,,,,,,,,,,
null,,color_black,950595,black_plus_sign,,,,null,,,,,,,,,,,,,,
null,,learn_phase(without_color),952601,black_plus_sign,,,,null,GW/wheelchair.jpg,GW/paint.jpg,,,,,,,,,,,,
null,,black_cross(without_color),953299,green,,,,null,GW/wheelchair.jpg,GW/paint.jpg,,,,,,,,,,,,
null,,rt_plussign_withcolor,953803,green,,,,null,GW/wheelchair.jpg,GW/paint.jpg,,,,,,,,,,,,
1592.0999999940395,,rt_thecrossant_black,955114,black_plus_sign,,,,50,,,1,0.979381443298969,,,,,,,,,,
null,,color_black,955220,black_plus_sign,,,,null,,,,,,,,,,,,,,
null,,learn_phase(without_color),957227,black_plus_sign,,,,null,GW/globe.jpg,GW/jukebox.jpg,,,,,,,,,,,,
null,,black_cross(without_color),958135,green,,,,null,GW/globe.jpg,GW/jukebox.jpg,,,,,,,,,,,,
440,,rt_plussign_withcolor,958639,green,,,,50,GW/globe.jpg,GW/jukebox.jpg,,,,,,,,,,,,
null,,rt_thecrossant_black,959739,black_plus_sign,,,,null,,,1,0.9795918367346939,,,,,,,,,,
null,,color_black,959843,black_plus_sign,,,,null,,,,,,,,,,,,,,
null,,learn_phase(without_color),961849,black_plus_sign,,,,null,GW/snail.jpg,GW/basket.jpg,,,,,,,,,,,,
null,,black_cross(without_color),962395,green,,,,null,GW/snail.jpg,GW/basket.jpg,,,,,,,,,,,,
null,,rt_plussign_withcolor,962899,green,,,,null,GW/snail.jpg,GW/basket.jpg,,,,,,,,,,,,
1283.3999999985099,,rt_thecrossant_black,964363,black_plus_sign,,,,50,,,1,0.9797979797979798,,,,,,,,,,
null,,color_black,964467,black_plus_sign,,,,null,,,,,,,,,,,,,,
null,,learn_phase(without_color),966472,black_plus_sign,,,,null,GW/soldier.jpg,GW/gong.jpg,,,,,,,,,,,,
null,,black_cross(without_color),967025,green,,,,null,GW/soldier.jpg,GW/gong.jpg,,,,,,,,,,,,
null,,rt_plussign_withcolor,967529,green,,,,null,GW/soldier.jpg,GW/gong.jpg,,,,,,,,,,,,
null,,rt_thecrossant_black,968985,black_plus_sign,,,,null,,,,0.9797979797979798,,,,,,,,,,
null,,color_black,969090,black_plus_sign,,,,null,,,,,,,,,,,,,,
null,,learn_phase(without_color),971095,black_plus_sign,,,,null,GW/dustpan.jpg,GW/camera.jpg,,,,,,,,,,,,
null,,black_cross(without_color),971949,green,,,,null,GW/dustpan.jpg,GW/camera.jpg,,,,,,,,,,,,
462.1000000014901,,rt_plussign_withcolor,972452,green,,,,50,GW/dustpan.jpg,GW/camera.jpg,,,,,,,,,,,,
null,,rt_thecrossant_black,973607,black_plus_sign,,,,null,,,1,0.98,,,,,,,,,,
null,,color_black,973711,black_plus_sign,,,,null,,,,,,,,,,,,,,
null,,learn_phase(without_color),975717,black_plus_sign,,,,null,GW/soldier.jpg,GW/snail.jpg,,,,,,,,,,,,
null,,black_cross(without_color),976536,blue,,,,null,GW/soldier.jpg,GW/snail.jpg,,,,,,,,,,,,
null,,rt_plussign_withcolor,977039,blue,,,,null,GW/soldier.jpg,GW/snail.jpg,,,,,,,,,,,,
1533,,rt_thecrossant_black,978229,black_plus_sign,,,,49,,,1,0.9801980198019802,,,,,,,,,,
null,,color_black,978334,black_plus_sign,,,,null,,,,,,,,,,,,,,
null,,learn_phase(without_color),980341,black_plus_sign,,,,null,GW/dustpan.jpg,GW/wheelchair.jpg,,,,,,,,,,,,
null,,black_cross(without_color),981270,green,,,,null,GW/dustpan.jpg,GW/wheelchair.jpg,,,,,,,,,,,,
null,,rt_plussign_withcolor,981773,green,,,,null,GW/dustpan.jpg,GW/wheelchair.jpg,,,,,,,,,,,,
1447.3999999985099,,rt_thecrossant_black,982853,black_plus_sign,,,,50,,,1,0.9803921568627451,,,,,,,,,,
null,,color_black,982957,black_plus_sign,,,,null,,,,,,,,,,,,,,
null,,learn_phase(without_color),984963,black_plus_sign,,,,null,GW/globe.jpg,GW/jukebox.jpg,,,,,,,,,,,,
null,,black_cross(without_color),985413,green,,,,null,GW/globe.jpg,GW/jukebox.jpg,,,,,,,,,,,,
null,,rt_plussign_withcolor,985916,green,,,,null,GW/globe.jpg,GW/jukebox.jpg,,,,,,,,,,,,
1693.1000000014901,,rt_thecrossant_black,987474,black_plus_sign,,,,50,,,1,0.9805825242718447,,,,,,,,,,
null,,color_black,987578,black_plus_sign,,,,null,,,,,,,,,,,,,,
null,,learn_phase(without_color),989584,black_plus_sign,,,,null,GW/wheelchair.jpg,GW/paint.jpg,,,,,,,,,,,,
null,,black_cross(without_color),990630,blue,,,,null,GW/wheelchair.jpg,GW/paint.jpg,,,,,,,,,,,,
null,,rt_plussign_withcolor,991134,blue,,,,null,GW/wheelchair.jpg,GW/paint.jpg,,,,,,,,,,,,
null,,rt_thecrossant_black,992096,black_plus_sign,,,,null,,,,0.9805825242718447,,,,,,,,,,
null,,color_black,992201,black_plus_sign,,,,null,,,,,,,,,,,,,,
null,,learn_phase(without_color),994208,black_plus_sign,,,,null,GW/dustpan.jpg,GW/wheelchair.jpg,,,,,,,,,,,,
null,,black_cross(without_color),995018,green,,,,null,GW/dustpan.jpg,GW/wheelchair.jpg,,,,,,,,,,,,
null,,rt_plussign_withcolor,995521,green,,,,null,GW/dustpan.jpg,GW/wheelchair.jpg,,,,,,,,,,,,
1505,,rt_thecrossant_black,996721,black_plus_sign,,,,50,,,1,0.9807692307692307,,,,,,,,,,
null,,color_black,996825,black_plus_sign,,,,null,,,,,,,,,,,,,,
null,,learn_phase(without_color),998831,black_plus_sign,,,,null,GW/soldier.jpg,GW/gong.jpg,,,,,,,,,,,,
null,,black_cross(without_color),999381,green,,,,null,GW/soldier.jpg,GW/gong.jpg,,,,,,,,,,,,
null,,rt_plussign_withcolor,999884,green,,,,null,GW/soldier.jpg,GW/gong.jpg,,,,,,,,,,,,
1926.2999999970198,,rt_thecrossant_black,1001345,black_plus_sign,,,,50,,,1,0.9809523809523809,,,,,,,,,,
null,,color_black,1001449,black_plus_sign,,,,null,,,,,,,,,,,,,,
null,,learn_phase(without_color),1003456,black_plus_sign,,,,null,GW/soldier.jpg,GW/snail.jpg,,,,,,,,,,,,
null,,black_cross(without_color),1004347,blue,,,,null,GW/soldier.jpg,GW/snail.jpg,,,,,,,,,,,,
null,,rt_plussign_withcolor,1004851,blue,,,,null,GW/soldier.jpg,GW/snail.jpg,,,,,,,,,,,,
1254.3000000044703,,rt_thecrossant_black,1005967,black_plus_sign,,,,49,,,1,0.9811320754716981,,,,,,,,,,
null,,color_black,1006072,black_plus_sign,,,,null,,,,,,,,,,,,,,
null,,learn_phase(without_color),1008078,black_plus_sign,,,,null,GW/wheelchair.jpg,GW/paint.jpg,,,,,,,,,,,,
null,,black_cross(without_color),1009119,blue,,,,null,GW/wheelchair.jpg,GW/paint.jpg,,,,,,,,,,,,
null,,rt_plussign_withcolor,1009622,blue,,,,null,GW/wheelchair.jpg,GW/paint.jpg,,,,,,,,,,,,
1155.3999999985099,,rt_thecrossant_black,1010589,black_plus_sign,,,,49,,,1,0.9813084112149533,,,,,,,,,,
null,,color_black,1010693,black_plus_sign,,,,null,,,,,,,,,,,,,,
null,,learn_phase(without_color),1012700,black_plus_sign,,,,null,GW/dustpan.jpg,GW/camera.jpg,,,,,,,,,,,,
null,,black_cross(without_color),1013568,blue,,,,null,GW/dustpan.jpg,GW/camera.jpg,,,,,,,,,,,,
null,,rt_plussign_withcolor,1014071,blue,,,,null,GW/dustpan.jpg,GW/camera.jpg,,,,,,,,,,,,
1490.1000000014901,,rt_thecrossant_black,1015211,black_plus_sign,,,,49,,,1,0.9814814814814815,,,,,,,,,,
null,,color_black,1015316,black_plus_sign,,,,null,,,,,,,,,,,,,,
null,,learn_phase(without_color),1017322,black_plus_sign,,,,null,GW/wheelchair.jpg,GW/camera.jpg,,,,,,,,,,,,
null,,black_cross(without_color),1017873,green,,,,null,GW/wheelchair.jpg,GW/camera.jpg,,,,,,,,,,,,
null,,rt_plussign_withcolor,1018376,green,,,,null,GW/wheelchair.jpg,GW/camera.jpg,,,,,,,,,,,,
1379.8999999985099,,rt_thecrossant_black,1019834,black_plus_sign,,,,50,,,1,0.981651376146789,,,,,,,,,,
null,,color_black,1019939,black_plus_sign,,,,null,,,,,,,,,,,,,,
null,,learn_phase(without_color),1021944,black_plus_sign,,,,null,GW/barrel.jpg,GW/globe.jpg,,,,,,,,,,,,
null,,black_cross(without_color),1022859,blue,,,,null,GW/barrel.jpg,GW/globe.jpg,,,,,,,,,,,,
null,,rt_plussign_withcolor,1023362,blue,,,,null,GW/barrel.jpg,GW/globe.jpg,,,,,,,,,,,,
1068.8000000044703,,rt_thecrossant_black,1024457,black_plus_sign,,,,49,,,1,0.9818181818181818,,,,,,,,,,
null,,color_black,1024562,black_plus_sign,,,,null,,,,,,,,,,,,,,
null,,learn_phase(without_color),1026569,black_plus_sign,,,,null,GW/globe.jpg,GW/soldier.jpg,,,,,,,,,,,,
null,,black_cross(without_color),1027458,green,,,,null,GW/globe.jpg,GW/soldier.jpg,,,,,,,,,,,,
null,,rt_plussign_withcolor,1027961,green,,,,null,GW/globe.jpg,GW/soldier.jpg,,,,,,,,,,,,
1548.6000000014901,,rt_thecrossant_black,1029081,black_plus_sign,,,,50,,,1,0.9819819819819819,,,,,,,,,,
null,,color_black,1029186,black_plus_sign,,,,null,,,,,,,,,,,,,,
null,,learn_phase(without_color),1031192,black_plus_sign,,,,null,GW/wheelchair.jpg,GW/camera.jpg,,,,,,,,,,,,
null,,black_cross(without_color),1032051,blue,,,,null,GW/wheelchair.jpg,GW/camera.jpg,,,,,,,,,,,,
null,,rt_plussign_withcolor,1032555,blue,,,,null,GW/wheelchair.jpg,GW/camera.jpg,,,,,,,,,,,,
1655.6000000014901,,rt_thecrossant_black,1033705,black_plus_sign,,,,49,,,1,0.9821428571428571,,,,,,,,,,
null,,color_black,1033809,black_plus_sign,,,,null,,,,,,,,,,,,,,
null,,learn_phase(without_color),1035816,black_plus_sign,,,,null,GW/barrel.jpg,GW/globe.jpg,,,,,,,,,,,,
null,,black_cross(without_color),1036713,green,,,,null,GW/barrel.jpg,GW/globe.jpg,,,,,,,,,,,,
null,,rt_plussign_withcolor,1037217,green,,,,null,GW/barrel.jpg,GW/globe.jpg,,,,,,,,,,,,
1446.2999999970198,,rt_thecrossant_black,1038329,black_plus_sign,,,,50,,,1,0.9823008849557522,,,,,,,,,,
null,,color_black,1038434,black_plus_sign,,,,null,,,,,,,,,,,,,,
null,,learn_phase(without_color),1040442,black_plus_sign,,,,null,GW/gong.jpg,GW/dustpan.jpg,,,,,,,,,,,,
null,,black_cross(without_color),1040917,green,,,,null,GW/gong.jpg,GW/dustpan.jpg,,,,,,,,,,,,
null,,rt_plussign_withcolor,1041422,green,,,,null,GW/gong.jpg,GW/dustpan.jpg,,,,,,,,,,,,
1569.8999999985099,,rt_thecrossant_black,1042955,black_plus_sign,,,,50,,,1,0.9824561403508771,,,,,,,,,,
null,,color_black,1043060,black_plus_sign,,,,null,,,,,,,,,,,,,,
null,,learn_phase(without_color),1045067,black_plus_sign,,,,null,GW/globe.jpg,GW/jukebox.jpg,,,,,,,,,,,,
null,,black_cross(without_color),1045988,green,,,,null,GW/globe.jpg,GW/jukebox.jpg,,,,,,,,,,,,
null,,rt_plussign_withcolor,1046491,green,,,,null,GW/globe.jpg,GW/jukebox.jpg,,,,,,,,,,,,
1005,,rt_thecrossant_black,1047579,black_plus_sign,,,,50,,,1,0.9826086956521739,,,,,,,,,,
null,,color_black,1047684,black_plus_sign,,,,null,,,,,,,,,,,,,,
null,,learn_phase(without_color),1049691,black_plus_sign,,,,null,GW/gong.jpg,GW/camera.jpg,,,,,,,,,,,,
null,,black_cross(without_color),1050437,blue,,,,null,GW/gong.jpg,GW/camera.jpg,,,,,,,,,,,,
null,,rt_plussign_withcolor,1050941,blue,,,,null,GW/gong.jpg,GW/camera.jpg,,,,,,,,,,,,
1806.2999999970198,,rt_thecrossant_black,1052203,black_plus_sign,,,,49,,,1,0.9827586206896551,,,,,,,,,,
null,,color_black,1052308,black_plus_sign,,,,null,,,,,,,,,,,,,,
null,,learn_phase(without_color),1054315,black_plus_sign,,,,null,GW/jukebox.jpg,GW/basket.jpg,,,,,,,,,,,,
null,,black_cross(without_color),1055409,green,,,,null,GW/jukebox.jpg,GW/basket.jpg,,,,,,,,,,,,
null,,rt_plussign_withcolor,1055913,green,,,,null,GW/jukebox.jpg,GW/basket.jpg,,,,,,,,,,,,
1487.0999999940395,,rt_thecrossant_black,1056829,black_plus_sign,,,,50,,,1,0.9829059829059829,,,,,,,,,,
null,,color_black,1056934,black_plus_sign,,,,null,,,,,,,,,,,,,,
null,,learn_phase(without_color),1058940,black_plus_sign,,,,null,GW/dustpan.jpg,GW/camera.jpg,,,,,,,,,,,,
null,,black_cross(without_color),1059764,blue,,,,null,GW/dustpan.jpg,GW/camera.jpg,,,,,,,,,,,,
null,,rt_plussign_withcolor,1060268,blue,,,,null,GW/dustpan.jpg,GW/camera.jpg,,,,,,,,,,,,
1888.7000000029802,,rt_thecrossant_black,1061453,black_plus_sign,,,,49,,,1,0.9830508474576272,,,,,,,,,,
null,,color_black,1061558,black_plus_sign,,,,null,,,,,,,,,,,,,,
null,,learn_phase(without_color),1063565,black_plus_sign,,,,null,GW/jukebox.jpg,GW/basket.jpg,,,,,,,,,,,,
null,,black_cross(without_color),1064152,green,,,,null,GW/jukebox.jpg,GW/basket.jpg,,,,,,,,,,,,
null,,rt_plussign_withcolor,1064656,green,,,,null,GW/jukebox.jpg,GW/basket.jpg,,,,,,,,,,,,
1815.5,,rt_thecrossant_black,1066078,black_plus_sign,,,,50,,,1,0.9831932773109243,,,,,,,,,,
null,,color_black,1066181,black_plus_sign,,,,null,,,,,,,,,,,,,,
null,,learn_phase(without_color),1068188,black_plus_sign,,,,null,GW/globe.jpg,GW/jukebox.jpg,,,,,,,,,,,,
null,,black_cross(without_color),1069006,blue,,,,null,GW/globe.jpg,GW/jukebox.jpg,,,,,,,,,,,,
null,,rt_plussign_withcolor,1069509,blue,,,,null,GW/globe.jpg,GW/jukebox.jpg,,,,,,,,,,,,
1756,,rt_thecrossant_black,1070701,black_plus_sign,,,,49,,,1,0.9833333333333333,,,,,,,,,,
null,,color_black,1070806,black_plus_sign,,,,null,,,,,,,,,,,,,,
null,,learn_phase(without_color),1072812,black_plus_sign,,,,null,GW/snail.jpg,GW/basket.jpg,,,,,,,,,,,,
null,,black_cross(without_color),1073789,blue,,,,null,GW/snail.jpg,GW/basket.jpg,,,,,,,,,,,,
null,,rt_plussign_withcolor,1074292,blue,,,,null,GW/snail.jpg,GW/basket.jpg,,,,,,,,,,,,
null,,rt_thecrossant_black,1075324,black_plus_sign,,,,null,,,,0.9833333333333333,,,,,,,,,,
null,,color_black,1075429,black_plus_sign,,,,null,,,,,,,,,,,,,,
null,,learn_phase(without_color),1077435,black_plus_sign,,,,null,GW/camera.jpg,GW/snail.jpg,,,,,,,,,,,,
null,,black_cross(without_color),1078404,blue,,,,null,GW/camera.jpg,GW/snail.jpg,,,,,,,,,,,,
null,,rt_plussign_withcolor,1078907,blue,,,,null,GW/camera.jpg,GW/snail.jpg,,,,,,,,,,,,
2016.7999999970198,,rt_thecrossant_black,1079949,black_plus_sign,,,,49,,,1,0.9834710743801653,,,,,,,,,,
null,,color_black,1080054,black_plus_sign,,,,null,,,,,,,,,,,,,,
null,,learn_phase(without_color),1082061,black_plus_sign,,,,null,GW/camera.jpg,GW/snail.jpg,,,,,,,,,,,,
null,,black_cross(without_color),1082794,green,,,,null,GW/camera.jpg,GW/snail.jpg,,,,,,,,,,,,
null,,rt_plussign_withcolor,1083298,green,,,,null,GW/camera.jpg,GW/snail.jpg,,,,,,,,,,,,
1580.2999999970198,,rt_thecrossant_black,1084575,black_plus_sign,,,,50,,,1,0.9836065573770492,,,,,,,,,,
null,,color_black,1084679,black_plus_sign,,,,null,,,,,,,,,,,,,,
51875.39999999851,,intro_1,1136560,instruct,,0,Start,,,,,,,,,,,,,,,
4908.39999999851,,directmemory_phase,1141472,GW/gong.jpg,,,,50,,,0,0,GW/camera.jpg,GW/jukebox.jpg,GW/hat.jpg,GW/camera.jpg,GW/hat.jpg,GW/jukebox.jpg,0.5,closer,,
null,,html-keyboard-response,1142479,<p></p>,,,,null,,,,,,,,,,,,,,
2130.8000000044703,,directmemory_phase,1144614,GW/soldier.jpg,,,,50,,,0,0,GW/hat.jpg,GW/camera.jpg,GW/snail.jpg,GW/snail.jpg,GW/camera.jpg,GW/hat.jpg,0.5,closer,,
null,,html-keyboard-response,1145619,<p></p>,,,,null,,,,,,,,,,,,,,
5046.89999999851,,directmemory_phase,1150671,GW/camera.jpg,,,,50,,,0,0,GW/jukebox.jpg,GW/hat.jpg,GW/wheelchair.jpg,GW/wheelchair.jpg,GW/hat.jpg,GW/jukebox.jpg,0.5,closer,,
null,,html-keyboard-response,1151676,<p></p>,,,,null,,,,,,,,,,,,,,
2873.7999999970198,,directmemory_phase,1154554,GW/basket.jpg,,,,51,,,1,0.25,GW/hat.jpg,GW/soldier.jpg,GW/snail.jpg,GW/snail.jpg,GW/soldier.jpg,GW/hat.jpg,1,,,
null,,html-keyboard-response,1155562,<p></p>,,,,null,,,,,,,,,,,,,,
5252,,directmemory_phase,1160818,GW/camera.jpg,,,,49,,,1,0.4,GW/gong.jpg,GW/jukebox.jpg,GW/basket.jpg,GW/gong.jpg,GW/basket.jpg,GW/jukebox.jpg,1,,,
null,,html-keyboard-response,1161821,<p></p>,,,,null,,,,,,,,,,,,,,
4208.10000000149,,directmemory_phase,1166034,GW/wheelchair.jpg,,,,50,,,0,0.3333333333333333,GW/dustpan.jpg,GW/jukebox.jpg,GW/hat.jpg,GW/dustpan.jpg,GW/hat.jpg,GW/jukebox.jpg,0.5,closer,,
null,,html-keyboard-response,1167040,<p></p>,,,,null,,,,,,,,,,,,,,
3963,,directmemory_phase,1171008,GW/snail.jpg,,,,49,,,0,0.2857142857142857,GW/barrel.jpg,GW/jukebox.jpg,GW/camera.jpg,GW/camera.jpg,GW/jukebox.jpg,GW/barrel.jpg,0.5,closer,,
null,,html-keyboard-response,1172013,<p></p>,,,,null,,,,,,,,,,,,,,
4173.10000000149,,directmemory_phase,1176191,GW/soldier.jpg,,,,49,,,1,0.375,GW/globe.jpg,GW/wheelchair.jpg,GW/barrel.jpg,GW/globe.jpg,GW/barrel.jpg,GW/wheelchair.jpg,1,,,
null,,html-keyboard-response,1177196,<p></p>,,,,null,,,,,,,,,,,,,,
2253.5,,directmemory_phase,1179454,GW/snail.jpg,,,,51,,,1,0.4444444444444444,GW/barrel.jpg,GW/gong.jpg,GW/basket.jpg,GW/basket.jpg,GW/gong.jpg,GW/barrel.jpg,1,,,
null,,html-keyboard-response,1180460,<p></p>,,,,null,,,,,,,,,,,,,,
3095.8000000044703,,directmemory_phase,1183560,GW/wheelchair.jpg,,,,51,,,1,0.5,GW/jukebox.jpg,GW/snail.jpg,GW/camera.jpg,GW/camera.jpg,GW/snail.jpg,GW/jukebox.jpg,1,,,
null,,html-keyboard-response,1184566,<p></p>,,,,null,,,,,,,,,,,,,,
4224.10000000149,,directmemory_phase,1188794,GW/dustpan.jpg,,,,49,,,1,0.5454545454545454,GW/gong.jpg,GW/basket.jpg,GW/snail.jpg,GW/gong.jpg,GW/snail.jpg,GW/basket.jpg,1,,,
null,,html-keyboard-response,1189800,<p></p>,,,,null,,,,,,,,,,,,,,
4485.19999999553,,directmemory_phase,1194290,GW/barrel.jpg,,,,50,,,1,0.5833333333333334,GW/soldier.jpg,GW/globe.jpg,GW/basket.jpg,GW/globe.jpg,GW/soldier.jpg,GW/basket.jpg,1,,,
null,,html-keyboard-response,1195296,<p></p>,,,,null,,,,,,,,,,,,,,
1841.6000000014901,,directmemory_phase,1197142,GW/hat.jpg,,,,49,,,1,0.6153846153846154,GW/dustpan.jpg,GW/basket.jpg,GW/wheelchair.jpg,GW/dustpan.jpg,GW/wheelchair.jpg,GW/basket.jpg,1,,,
null,,html-keyboard-response,1198148,<p></p>,,,,null,,,,,,,,,,,,,,
4686.20000000298,,directmemory_phase,1202839,GW/snail.jpg,,,,51,,,0,0.5714285714285714,GW/wheelchair.jpg,GW/soldier.jpg,GW/teeth.jpg,GW/soldier.jpg,GW/wheelchair.jpg,GW/teeth.jpg,0.5,closer,,
null,,html-keyboard-response,1203845,<p></p>,,,,null,,,,,,,,,,,,,,
4527.5,,directmemory_phase,1208377,GW/dustpan.jpg,,,,50,,,1,0.6,GW/soldier.jpg,GW/camera.jpg,GW/basket.jpg,GW/camera.jpg,GW/soldier.jpg,GW/basket.jpg,1,,,
null,,html-keyboard-response,1209382,<p></p>,,,,null,,,,,,,,,,,,,,
3066,,directmemory_phase,1212453,GW/globe.jpg,,,,50,,,0,0.5625,GW/wheelchair.jpg,GW/snail.jpg,GW/barrel.jpg,GW/barrel.jpg,GW/snail.jpg,GW/wheelchair.jpg,0.5,closer,,
null,,html-keyboard-response,1213459,<p></p>,,,,null,,,,,,,,,,,,,,
5354.80000000447,,directmemory_phase,1218818,GW/soldier.jpg,,,,51,,,1,0.5882352941176471,GW/wheelchair.jpg,GW/jukebox.jpg,GW/gong.jpg,GW/gong.jpg,GW/jukebox.jpg,GW/wheelchair.jpg,1,,,
null,,html-keyboard-response,1219823,<p></p>,,,,null,,,,,,,,,,,,,,
3041.2999999970198,,directmemory_phase,1222869,GW/dustpan.jpg,,,,49,,,1,0.6111111111111112,GW/wheelchair.jpg,GW/basket.jpg,GW/snail.jpg,GW/wheelchair.jpg,GW/snail.jpg,GW/basket.jpg,1,,,
null,,html-keyboard-response,1223875,<p></p>,,,,null,,,,,,,,,,,,,,
4632.0999999940395,,directmemory_phase,1228511,GW/jukebox.jpg,,,,51,,,1,0.631578947368421,GW/camera.jpg,GW/snail.jpg,GW/teeth.jpg,GW/teeth.jpg,GW/snail.jpg,GW/camera.jpg,1,,,
null,,html-keyboard-response,1229517,<p></p>,,,,null,,,,,,,,,,,,,,
3330.7999999970198,,directmemory_phase,1232852,GW/wheelchair.jpg,,,,50,,,0,0.6,GW/paint.jpg,GW/soldier.jpg,GW/gong.jpg,GW/paint.jpg,GW/gong.jpg,GW/soldier.jpg,0.5,closer,,
null,,html-keyboard-response,1233858,<p></p>,,,,null,,,,,,,,,,,,,,
2687.1999999955297,,directmemory_phase,1236550,GW/jukebox.jpg,,,,49,,,0,0.5714285714285714,GW/dustpan.jpg,GW/barrel.jpg,GW/basket.jpg,GW/basket.jpg,GW/barrel.jpg,GW/dustpan.jpg,0.5,closer,,
null,,html-keyboard-response,1237556,<p></p>,,,,null,,,,,,,,,,,,,,
2446.89999999851,,directmemory_phase,1240007,GW/gong.jpg,,,,51,,,0,0.5454545454545454,GW/dustpan.jpg,GW/jukebox.jpg,GW/hat.jpg,GW/dustpan.jpg,GW/hat.jpg,GW/jukebox.jpg,0.5,closer,,
null,,html-keyboard-response,1241012,<p></p>,,,,null,,,,,,,,,,,,,,
3389.8000000044703,,directmemory_phase,1244406,GW/camera.jpg,,,,50,,,0,0.5217391304347826,GW/barrel.jpg,GW/hat.jpg,GW/snail.jpg,GW/snail.jpg,GW/hat.jpg,GW/barrel.jpg,0.5,closer,,
null,,html-keyboard-response,1245411,<p></p>,,,,null,,,,,,,,,,,,,,
4338.10000000149,,directmemory_phase,1249754,GW/basket.jpg,,,,51,,,0,0.5,GW/jukebox.jpg,GW/barrel.jpg,GW/teeth.jpg,GW/jukebox.jpg,GW/teeth.jpg,GW/barrel.jpg,0.5,closer,,
null,,html-keyboard-response,1250759,<p></p>,,,,null,,,,,,,,,,,,,,
4924.80000000447,,directmemory_phase,1255688,GW/camera.jpg,,,,49,,,0,0.48,GW/barrel.jpg,GW/soldier.jpg,GW/dustpan.jpg,GW/dustpan.jpg,GW/soldier.jpg,GW/barrel.jpg,0.5,closer,,
null,,html-keyboard-response,1256694,<p></p>,,,,null,,,,,,,,,,,,,,
2250.6999999955297,,directmemory_phase,1258949,GW/globe.jpg,,,,51,,,0,0.46153846153846156,GW/teeth.jpg,GW/jukebox.jpg,GW/dustpan.jpg,GW/jukebox.jpg,GW/teeth.jpg,GW/dustpan.jpg,0.5,closer,,
null,,html-keyboard-response,1259957,<p></p>,,,,null,,,,,,,,,,,,,,
2977.10000000149,,directmemory_phase,1262939,GW/dustpan.jpg,,,,49,,,1,0.48148148148148145,GW/hat.jpg,GW/basket.jpg,GW/soldier.jpg,GW/hat.jpg,GW/soldier.jpg,GW/basket.jpg,1,,,
null,,html-keyboard-response,1263945,<p></p>,,,,null,,,,,,,,,,,,,,
2067.10000000149,,directmemory_phase,1266017,GW/globe.jpg,,,,49,,,0,0.4642857142857143,GW/camera.jpg,GW/basket.jpg,GW/soldier.jpg,GW/soldier.jpg,GW/basket.jpg,GW/camera.jpg,0.5,closer,,
null,,html-keyboard-response,1267023,<p></p>,,,,null,,,,,,,,,,,,,,
4143.30000000447,,directmemory_phase,1271171,GW/teeth.jpg,,,,50,,,0,0.4482758620689655,GW/jukebox.jpg,GW/barrel.jpg,GW/basket.jpg,GW/jukebox.jpg,GW/basket.jpg,GW/barrel.jpg,0.5,closer,,
null,,html-keyboard-response,1272177,<p></p>,,,,null,,,,,,,,,,,,,,
2292.2000000029802,,directmemory_phase,1274474,GW/gong.jpg,,,,50,,,1,0.4666666666666667,GW/hat.jpg,GW/soldier.jpg,GW/barrel.jpg,GW/soldier.jpg,GW/hat.jpg,GW/barrel.jpg,1,,,
null,,html-keyboard-response,1275482,<p></p>,,,,null,,,,,,,,,,,,,,
null,,directmemory_phase,1281987,GW/jukebox.jpg,,,,null,,,0,0.45161290322580644,GW/camera.jpg,GW/barrel.jpg,GW/globe.jpg,GW/globe.jpg,GW/barrel.jpg,GW/camera.jpg,0,,,
null,,html-keyboard-response,1282993,<p></p>,,,,null,,,,,,,,,,,,,,
2206.39999999851,,directmemory_phase,1285204,GW/paint.jpg,,,,49,,,0,0.4375,GW/soldier.jpg,GW/dustpan.jpg,GW/wheelchair.jpg,GW/wheelchair.jpg,GW/dustpan.jpg,GW/soldier.jpg,0.5,closer,,
null,,html-keyboard-response,1286209,<p></p>,,,,null,,,,,,,,,,,,,,
366606.5,,intro_1,1652817,instruct,,0,,,,,,,,,,,,,,,,
13215.59999999404,,intro_2,1666035,instruct,,1,Next,,,,,,,,,,,,,,,
7347.79999999702,,intro_3,1673385,instruct,,1,Next,,,,,,,,,,,,,,,
10739.09999999404,,intro_4,1684127,instruct,,1,Next,,,,,,,,,,,,,,,
11216,,intro_5,1695345,instruct,,1,Next,,,,,,,,,,,,,,,
9166,,intro_6,1704513,instruct,,1,Next,,,,,,,,,,,,,,,
15104.30000000447,,intro_7,1719619,instruct,,1,Next,,,,,,,,,,,,,,,
10317.70000000298,,intro_8,1729939,instruct,,1,Next,,,,,,,,,,,,,,,
4314.80000000447,,shortestpath_phase,1734257,GW/teeth.jpg,,,,50,GW/basket.jpg,GW/wheelchair.jpg,0,0,,,,GW/basket.jpg,,,,,Three Edge Diff,Two Edge Five Edge
null,,html-keyboard-response,1735264,<p></p>,,,,null,,,,,,,,,,,,,,
6199.39999999851,,shortestpath_phase,1741469,GW/wheelchair.jpg,,,,49,GW/teeth.jpg,GW/hat.jpg,0,0,,,,GW/hat.jpg,,,,,Three Edge Diff,Three Edge Six Edge
null,,html-keyboard-response,1742475,<p></p>,,,,null,,,,,,,,,,,,,,
5419.70000000298,,shortestpath_phase,1747899,GW/teeth.jpg,,,,49,GW/paint.jpg,GW/dustpan.jpg,0,0,,,,GW/dustpan.jpg,,,,,One Edge Diff,Five Edge Six Edge
null,,html-keyboard-response,1748906,<p></p>,,,,null,,,,,,,,,,,,,,
4476.70000000298,,shortestpath_phase,1753387,GW/gong.jpg,,,,50,GW/basket.jpg,GW/snail.jpg,1,0.25,,,,GW/snail.jpg,,,,,One Edge Diff,Two Edge Three Edge
null,,html-keyboard-response,1754392,<p></p>,,,,null,,,,,,,,,,,,,,
2585.5,,shortestpath_phase,1756982,GW/soldier.jpg,,,,49,GW/paint.jpg,GW/barrel.jpg,0,0.2,,,,GW/barrel.jpg,,,,,Two Edge Diff,Two Edge Four Edge
null,,html-keyboard-response,1757988,<p></p>,,,,null,,,,,,,,,,,,,,
3935.5,,shortestpath_phase,1761928,GW/globe.jpg,,,,49,GW/camera.jpg,GW/wheelchair.jpg,1,0.3333333333333333,,,,GW/camera.jpg,,,,,One Edge Diff,Three Edge Four Edge
null,,html-keyboard-response,1762934,<p></p>,,,,null,,,,,,,,,,,,,,
3535.10000000149,,shortestpath_phase,1766474,GW/barrel.jpg,,,,49,GW/dustpan.jpg,GW/paint.jpg,1,0.42857142857142855,,,,GW/dustpan.jpg,,,,,Two Edge Diff,Four Edge Six Edge
null,,html-keyboard-response,1767480,<p></p>,,,,null,,,,,,,,,,,,,,
3472.5,,shortestpath_phase,1770956,GW/basket.jpg,,,,50,GW/globe.jpg,GW/paint.jpg,0,0.375,,,,GW/globe.jpg,,,,,Two Edge Diff,Two Edge Four Edge
null,,html-keyboard-response,1771961,<p></p>,,,,null,,,,,,,,,,,,,,
2906.2000000029802,,shortestpath_phase,1774871,GW/wheelchair.jpg,,,,49,GW/teeth.jpg,GW/hat.jpg,0,0.3333333333333333,,,,GW/hat.jpg,,,,,Three Edge Diff,Two Edge Five Edge
null,,html-keyboard-response,1775877,<p></p>,,,,null,,,,,,,,,,,,,,
6057.5,,shortestpath_phase,1781939,GW/teeth.jpg,,,,50,GW/snail.jpg,GW/globe.jpg,1,0.4,,,,GW/globe.jpg,,,,,One Edge Diff,Two Edge Three Edge
null,,html-keyboard-response,1782945,<p></p>,,,,null,,,,,,,,,,,,,,
5221.70000000298,,shortestpath_phase,1788171,GW/basket.jpg,,,,50,GW/barrel.jpg,GW/camera.jpg,1,0.45454545454545453,,,,GW/camera.jpg,,,,,One Edge Diff,Two Edge Three Edge
null,,html-keyboard-response,1789178,<p></p>,,,,null,,,,,,,,,,,,,,
2892.1999999955297,,shortestpath_phase,1792074,GW/paint.jpg,,,,50,GW/barrel.jpg,GW/globe.jpg,1,0.5,,,,GW/globe.jpg,,,,,One Edge Diff,Five Edge Six Edge
null,,html-keyboard-response,1793080,<p></p>,,,,null,,,,,,,,,,,,,,
5263.9000000059605,,shortestpath_phase,1798348,GW/jukebox.jpg,,,,49,GW/snail.jpg,GW/dustpan.jpg,1,0.5384615384615384,,,,GW/snail.jpg,,,,,Two Edge Diff,Two Edge Four Edge
null,,html-keyboard-response,1799355,<p></p>,,,,null,,,,,,,,,,,,,,
5699.79999999702,,shortestpath_phase,1805059,GW/hat.jpg,,,,49,GW/gong.jpg,GW/barrel.jpg,1,0.5714285714285714,,,,GW/gong.jpg,,,,,Three Edge Diff,Two Edge Five Edge
null,,html-keyboard-response,1806065,<p></p>,,,,null,,,,,,,,,,,,,,
2505.1999999955297,,shortestpath_phase,1808574,GW/paint.jpg,,,,49,GW/soldier.jpg,GW/teeth.jpg,1,0.6,,,,GW/soldier.jpg,,,,,Two Edge Diff,Four Edge Six Edge
null,,html-keyboard-response,1809581,<p></p>,,,,null,,,,,,,,,,,,,,
3936.60000000149,,shortestpath_phase,1813522,GW/barrel.jpg,,,,50,GW/snail.jpg,GW/hat.jpg,0,0.5625,,,,GW/snail.jpg,,,,,Two Edge Diff,Three Edge Five Edge
null,,html-keyboard-response,1814527,<p></p>,,,,null,,,,,,,,,,,,,,
6814.20000000298,,shortestpath_phase,1821345,GW/wheelchair.jpg,,,,49,GW/jukebox.jpg,GW/hat.jpg,0,0.5294117647058824,,,,GW/hat.jpg,,,,,Two Edge Diff,Two Edge Four Edge
null,,html-keyboard-response,1822351,<p></p>,,,,null,,,,,,,,,,,,,,
null,,shortestpath_phase,1829856,GW/barrel.jpg,,,,null,GW/snail.jpg,GW/dustpan.jpg,0,0.5,,,,GW/snail.jpg,,,,,One Edge Diff,Three Edge Four Edge
null,,html-keyboard-response,1830861,<p></p>,,,,null,,,,,,,,,,,,,,
1965.8999999985099,,shortestpath_phase,1832832,GW/paint.jpg,,,,50,GW/jukebox.jpg,GW/teeth.jpg,0,0.47368421052631576,,,,GW/jukebox.jpg,,,,,One Edge Diff,Five Edge Six Edge
null,,html-keyboard-response,1833837,<p></p>,,,,null,,,,,,,,,,,,,,
1416.7999999970198,,shortestpath_phase,1835258,GW/teeth.jpg,,,,50,GW/wheelchair.jpg,GW/snail.jpg,1,0.5,,,,GW/snail.jpg,,,,,Two Edge Diff,Three Edge Five Edge
null,,html-keyboard-response,1836265,<p></p>,,,,null,,,,,,,,,,,,,,
3860.1999999955297,,shortestpath_phase,1840129,GW/jukebox.jpg,,,,49,GW/soldier.jpg,GW/wheelchair.jpg,1,0.5238095238095238,,,,GW/soldier.jpg,,,,,Two Edge Diff,Two Edge Four Edge
null,,html-keyboard-response,1841135,<p></p>,,,,null,,,,,,,,,,,,,,
4475.29999999702,,shortestpath_phase,1845615,GW/barrel.jpg,,,,49,GW/teeth.jpg,GW/wheelchair.jpg,1,0.5454545454545454,,,,GW/teeth.jpg,,,,,Two Edge Diff,Three Edge Five Edge
null,,html-keyboard-response,1846621,<p></p>,,,,null,,,,,,,,,,,,,,
2516.10000000149,,shortestpath_phase,1849142,GW/gong.jpg,,,,50,GW/barrel.jpg,GW/snail.jpg,1,0.5652173913043478,,,,GW/snail.jpg,,,,,One Edge Diff,Two Edge Three Edge
null,,html-keyboard-response,1850148,<p></p>,,,,null,,,,,,,,,,,,,,
3020,,shortestpath_phase,1853173,GW/teeth.jpg,,,,50,GW/wheelchair.jpg,GW/paint.jpg,0,0.5416666666666666,,,,GW/wheelchair.jpg,,,,,One Edge Diff,Five Edge Six Edge
null,,html-keyboard-response,1854179,<p></p>,,,,null,,,,,,,,,,,,,,
3234.10000000149,,shortestpath_phase,1857418,GW/barrel.jpg,,,,49,GW/camera.jpg,GW/hat.jpg,1,0.56,,,,GW/camera.jpg,,,,,One Edge Diff,Four Edge Five Edge
null,,html-keyboard-response,1858424,<p></p>,,,,null,,,,,,,,,,,,,,
3186.8000000044703,,shortestpath_phase,1861615,GW/teeth.jpg,,,,50,GW/dustpan.jpg,GW/hat.jpg,0,0.5384615384615384,,,,GW/dustpan.jpg,,,,,One Edge Diff,Five Edge Six Edge
null,,html-keyboard-response,1862621,<p></p>,,,,null,,,,,,,,,,,,,,
2488.2999999970198,,shortestpath_phase,1865114,GW/wheelchair.jpg,,,,50,GW/barrel.jpg,GW/hat.jpg,1,0.5555555555555556,,,,GW/hat.jpg,,,,,Three Edge Diff,Three Edge Six Edge
null,,html-keyboard-response,1866120,<p></p>,,,,null,,,,,,,,,,,,,,
2491,,shortestpath_phase,1868615,GW/basket.jpg,,,,49,GW/soldier.jpg,GW/gong.jpg,1,0.5714285714285714,,,,GW/soldier.jpg,,,,,One Edge Diff,Two Edge Three Edge
null,,html-keyboard-response,1869622,<p></p>,,,,null,,,,,,,,,,,,,,
3487.4000000059605,,shortestpath_phase,1873114,GW/jukebox.jpg,,,,50,GW/hat.jpg,GW/dustpan.jpg,1,0.5862068965517241,,,,GW/dustpan.jpg,,,,,One Edge Diff,Four Edge Five Edge
null,,html-keyboard-response,1874120,<p></p>,,,,null,,,,,,,,,,,,,,
5612.9000000059605,,shortestpath_phase,1879737,GW/barrel.jpg,,,,49,GW/wheelchair.jpg,GW/paint.jpg,1,0.6,,,,GW/wheelchair.jpg,,,,,One Edge Diff,Five Edge Six Edge
null,,html-keyboard-response,1880743,<p></p>,,,,null,,,,,,,,,,,,,,
5484.10000000149,,shortestpath_phase,1886232,GW/paint.jpg,,,,49,GW/gong.jpg,GW/globe.jpg,1,0.6129032258064516,,,,GW/gong.jpg,,,,,Two Edge Diff,Three Edge Five Edge
null,,html-keyboard-response,1887238,<p></p>,,,,null,,,,,,,,,,,,,,
3632.7000000029802,,shortestpath_phase,1890875,GW/hat.jpg,,,,49,GW/wheelchair.jpg,GW/teeth.jpg,1,0.625,,,,GW/wheelchair.jpg,,,,,Four Edge Diff,Two Edge Six Edge
null,,html-keyboard-response,1891882,<p></p>,,,,null,,,,,,,,,,,,,,
1149.8999999985099,,shortestpath_phase,1893036,GW/paint.jpg,,,,49,GW/soldier.jpg,GW/jukebox.jpg,1,0.6363636363636364,,,,GW/soldier.jpg,,,,,One Edge Diff,Four Edge Five Edge
null,,html-keyboard-response,1894041,<p></p>,,,,null,,,,,,,,,,,,,,
1799.3000000044703,,shortestpath_phase,1895843,GW/teeth.jpg,,,,49,GW/wheelchair.jpg,GW/hat.jpg,1,0.6470588235294118,,,,GW/wheelchair.jpg,,,,,One Edge Diff,Five Edge Six Edge
null,,html-keyboard-response,1896849,<p></p>,,,,null,,,,,,,,,,,,,,
3905.60000000149,,shortestpath_phase,1900759,GW/paint.jpg,,,,49,GW/camera.jpg,GW/globe.jpg,1,0.6571428571428571,,,,GW/camera.jpg,,,,,Three Edge Diff,Three Edge Six Edge
null,,html-keyboard-response,1901766,<p></p>,,,,null,,,,,,,,,,,,,,
2256.2999999970198,,shortestpath_phase,1904027,GW/teeth.jpg,,,,50,GW/dustpan.jpg,GW/gong.jpg,1,0.6666666666666666,,,,GW/gong.jpg,,,,,One Edge Diff,Four Edge Five Edge
null,,html-keyboard-response,1905033,<p></p>,,,,null,,,,,,,,,,,,,,
2532.39999999851,,shortestpath_phase,1907570,GW/basket.jpg,,,,49,GW/wheelchair.jpg,GW/globe.jpg,0,0.6486486486486487,,,,GW/globe.jpg,,,,,One Edge Diff,Two Edge Three Edge
null,,html-keyboard-response,1908577,<p></p>,,,,null,,,,,,,,,,,,,,
2212.7000000029802,,shortestpath_phase,1910794,GW/hat.jpg,,,,49,GW/jukebox.jpg,GW/teeth.jpg,1,0.6578947368421053,,,,GW/jukebox.jpg,,,,,One Edge Diff,Five Edge Six Edge
null,,html-keyboard-response,1911799,<p></p>,,,,null,,,,,,,,,,,,,,
6616.30000000447,,shortestpath_phase,1918420,GW/paint.jpg,,,,49,GW/dustpan.jpg,GW/teeth.jpg,1,0.6666666666666666,,,,GW/dustpan.jpg,,,,,Four Edge Diff,Two Edge Six Edge
null,,html-keyboard-response,1919426,<p></p>,,,,null,,,,,,,,,,,,,,
1630.2000000029802,,shortestpath_phase,1921060,GW/hat.jpg,,,,50,GW/barrel.jpg,GW/wheelchair.jpg,1,0.675,,,,GW/wheelchair.jpg,,,,,Three Edge Diff,Two Edge Five Edge
null,,html-keyboard-response,1922067,<p></p>,,,,null,,,,,,,,,,,,,,
1644.6000000014901,,shortestpath_phase,1923716,GW/teeth.jpg,,,,49,GW/paint.jpg,GW/globe.jpg,0,0.6585365853658537,,,,GW/globe.jpg,,,,,Four Edge Diff,Two Edge Six Edge
null,,html-keyboard-response,1924723,<p></p>,,,,null,,,,,,,,,,,,,,
4231.69999999553,,shortestpath_phase,1928959,GW/hat.jpg,,,,50,GW/camera.jpg,GW/teeth.jpg,0,0.6428571428571429,,,,GW/camera.jpg,,,,,Four Edge Diff,Two Edge Six Edge
null,,html-keyboard-response,1929965,<p></p>,,,,null,,,,,,,,,,,,,,
1259,,shortestpath_phase,1931228,GW/gong.jpg,,,,50,GW/basket.jpg,GW/teeth.jpg,0,0.627906976744186,,,,GW/basket.jpg,,,,,One Edge Diff,Three Edge Four Edge
null,,html-keyboard-response,1932234,<p></p>,,,,null,,,,,,,,,,,,,,
2065.60000000149,,shortestpath_phase,1934304,GW/hat.jpg,,,,49,GW/jukebox.jpg,GW/paint.jpg,0,0.6136363636363636,,,,GW/paint.jpg,,,,,Two Edge Diff,Three Edge Five Edge
null,,html-keyboard-response,1935310,<p></p>,,,,null,,,,,,,,,,,,,,
1869.2999999970198,,shortestpath_phase,1937183,GW/dustpan.jpg,,,,50,GW/globe.jpg,GW/jukebox.jpg,0,0.6,,,,GW/globe.jpg,,,,,One Edge Diff,Three Edge Four Edge
null,,html-keyboard-response,1938186,<p></p>,,,,null,,,,,,,,,,,,,,
3920.6999999955297,,shortestpath_phase,1942109,GW/hat.jpg,,,,49,GW/gong.jpg,GW/jukebox.jpg,1,0.6086956521739131,,,,GW/gong.jpg,,,,,Three Edge Diff,Two Edge Five Edge
null,,html-keyboard-response,1943111,<p></p>,,,,null,,,,,,,,,,,,,,
6605.80000000447,,shortestpath_phase,1949719,GW/globe.jpg,,,,49,GW/teeth.jpg,GW/camera.jpg,1,0.6170212765957447,,,,GW/teeth.jpg,,,,,One Edge Diff,Two Edge Three Edge
null,,html-keyboard-response,1950725,<p></p>,,,,null,,,,,,,,,,,,,,
2044.8999999985099,,shortestpath_phase,1952775,GW/barrel.jpg,,,,49,GW/paint.jpg,GW/hat.jpg,0,0.6041666666666666,,,,GW/hat.jpg,,,,,One Edge Diff,Five Edge Six Edge
null,,html-keyboard-response,1953782,<p></p>,,,,null,,,,,,,,,,,,,,
4931,,shortestpath_phase,1958717,GW/paint.jpg,,,,49,GW/snail.jpg,GW/soldier.jpg,1,0.6122448979591837,,,,GW/snail.jpg,,,,,One Edge Diff,Three Edge Four Edge
null,,html-keyboard-response,1959724,<p></p>,,,,null,,,,,,,,,,,,,,
2807.89999999851,,shortestpath_phase,1962538,GW/jukebox.jpg,,,,49,GW/gong.jpg,GW/barrel.jpg,0,0.6,,,,GW/barrel.jpg,,,,,One Edge Diff,Two Edge Three Edge
null,,html-keyboard-response,1963544,<p></p>,,,,null,,,,,,,,,,,,,,
3243.60000000149,,shortestpath_phase,1966793,GW/hat.jpg,,,,49,GW/basket.jpg,GW/teeth.jpg,1,0.6078431372549019,,,,GW/basket.jpg,,,,,Two Edge Diff,Four Edge Six Edge
null,,html-keyboard-response,1967798,<p></p>,,,,null,,,,,,,,,,,,,,
4081.5,,shortestpath_phase,1971884,GW/teeth.jpg,,,,50,GW/hat.jpg,GW/gong.jpg,1,0.6153846153846154,,,,GW/gong.jpg,,,,,Two Edge Diff,Four Edge Six Edge
null,,html-keyboard-response,1972891,<p></p>,,,,null,,,,,,,,,,,,,,
1779.2000000029802,,shortestpath_phase,1974674,GW/paint.jpg,,,,49,GW/soldier.jpg,GW/barrel.jpg,1,0.6226415094339622,,,,GW/soldier.jpg,,,,,Two Edge Diff,Four Edge Six Edge
null,,html-keyboard-response,1975680,<p></p>,,,,null,,,,,,,,,,,,,,
1350.8999999985099,,shortestpath_phase,1977036,GW/jukebox.jpg,,,,49,GW/snail.jpg,GW/hat.jpg,1,0.6296296296296297,,,,GW/snail.jpg,,,,,Three Edge Diff,Two Edge Five Edge
null,,html-keyboard-response,1978042,<p></p>,,,,null,,,,,,,,,,,,,,
1426.1999999955297,,shortestpath_phase,1979472,GW/soldier.jpg,,,,50,GW/barrel.jpg,GW/hat.jpg,0,0.6181818181818182,,,,GW/barrel.jpg,,,,,One Edge Diff,Two Edge Three Edge
null,,html-keyboard-response,1980479,<p></p>,,,,null,,,,,,,,,,,,,,
1422.5,,shortestpath_phase,1981906,GW/hat.jpg,,,,49,GW/gong.jpg,GW/teeth.jpg,1,0.625,,,,GW/gong.jpg,,,,,Four Edge Diff,Two Edge Six Edge
null,,html-keyboard-response,1982912,<p></p>,,,,null,,,,,,,,,,,,,,
2261.8000000044703,,shortestpath_phase,1985178,GW/camera.jpg,,,,49,GW/paint.jpg,GW/teeth.jpg,1,0.631578947368421,,,,GW/paint.jpg,,,,,Two Edge Diff,Two Edge Four Edge
null,,html-keyboard-response,1986184,<p></p>,,,,null,,,,,,,,,,,,,,
null,,shortestpath_phase,1993688,GW/snail.jpg,,,,null,GW/gong.jpg,GW/paint.jpg,0,0.6206896551724138,,,,GW/gong.jpg,,,,,One Edge Diff,Two Edge Three Edge
null,,html-keyboard-response,1994694,<p></p>,,,,null,,,,,,,,,,,,,,
2163,,shortestpath_phase,1996861,GW/teeth.jpg,,,,49,GW/globe.jpg,GW/hat.jpg,1,0.6271186440677966,,,,GW/globe.jpg,,,,,Four Edge Diff,Two Edge Six Edge
null,,html-keyboard-response,1997867,<p></p>,,,,null,,,,,,,,,,,,,,
1610.8999999985099,,shortestpath_phase,1999482,GW/jukebox.jpg,,,,49,GW/barrel.jpg,GW/paint.jpg,1,0.6333333333333333,,,,GW/barrel.jpg,,,,,Three Edge Diff,Three Edge Six Edge
null,,html-keyboard-response,2000488,<p></p>,,,,null,,,,,,,,,,,,,,
1649.6000000014901,,shortestpath_phase,2002142,GW/gong.jpg,,,,49,GW/globe.jpg,GW/basket.jpg,1,0.639344262295082,,,,GW/globe.jpg,,,,,One Edge Diff,Two Edge Three Edge
null,,html-keyboard-response,2003148,<p></p>,,,,null,,,,,,,,,,,,,,
1897.3000000044703,,shortestpath_phase,2005050,GW/wheelchair.jpg,,,,49,GW/jukebox.jpg,GW/barrel.jpg,1,0.6451612903225806,,,,GW/jukebox.jpg,,,,,One Edge Diff,Four Edge Five Edge
null,,html-keyboard-response,2006056,<p></p>,,,,null,,,,,,,,,,,,,,
1682.2999999970198,,shortestpath_phase,2007742,GW/teeth.jpg,,,,50,GW/wheelchair.jpg,GW/soldier.jpg,1,0.6507936507936508,,,,GW/soldier.jpg,,,,,Two Edge Diff,Three Edge Five Edge
null,,html-keyboard-response,2008748,<p></p>,,,,null,,,,,,,,,,,,,,
1919.8999999985099,,shortestpath_phase,2010675,GW/hat.jpg,,,,49,GW/wheelchair.jpg,GW/barrel.jpg,1,0.65625,,,,GW/wheelchair.jpg,,,,,Three Edge Diff,Three Edge Six Edge
null,,html-keyboard-response,2011681,<p></p>,,,,null,,,,,,,,,,,,,,
4069.5,,shortestpath_phase,2015755,GW/barrel.jpg,,,,49,GW/camera.jpg,GW/wheelchair.jpg,1,0.6615384615384615,,,,GW/camera.jpg,,,,,One Edge Diff,Four Edge Five Edge
null,,html-keyboard-response,2016762,<p></p>,,,,null,,,,,,,,,,,,,,
2554.5,,shortestpath_phase,2019321,GW/paint.jpg,,,,49,GW/globe.jpg,GW/teeth.jpg,1,0.6666666666666666,,,,GW/globe.jpg,,,,,One Edge Diff,Five Edge Six Edge
null,,html-keyboard-response,2020327,<p></p>,,,,null,,,,,,,,,,,,,,
4098,,shortestpath_phase,2024429,GW/barrel.jpg,,,,50,GW/teeth.jpg,GW/dustpan.jpg,0,0.6567164179104478,,,,GW/teeth.jpg,,,,,One Edge Diff,Three Edge Four Edge
null,,html-keyboard-response,2025436,<p></p>,,,,null,,,,,,,,,,,,,,
4074.5,,shortestpath_phase,2029515,GW/paint.jpg,,,,50,GW/dustpan.jpg,GW/globe.jpg,0,0.6470588235294118,,,,GW/dustpan.jpg,,,,,Three Edge Diff,Three Edge Six Edge
null,,html-keyboard-response,2030521,<p></p>,,,,null,,,,,,,,,,,,,,
2360.0999999940395,,shortestpath_phase,2032887,GW/barrel.jpg,,,,49,GW/paint.jpg,GW/soldier.jpg,0,0.6376811594202898,,,,GW/soldier.jpg,,,,,Four Edge Diff,Two Edge Six Edge
null,,html-keyboard-response,2033893,<p></p>,,,,null,,,,,,,,,,,,,,
2026.3000000044703,,shortestpath_phase,2035924,GW/teeth.jpg,,,,49,GW/basket.jpg,GW/dustpan.jpg,1,0.6428571428571429,,,,GW/basket.jpg,,,,,Three Edge Diff,Two Edge Five Edge
null,,html-keyboard-response,2036931,<p></p>,,,,null,,,,,,,,,,,,,,
4493.20000000298,,shortestpath_phase,2041428,GW/jukebox.jpg,,,,49,GW/hat.jpg,GW/gong.jpg,0,0.6338028169014085,,,,GW/gong.jpg,,,,,Two Edge Diff,Three Edge Five Edge
null,,html-keyboard-response,2042435,<p></p>,,,,null,,,,,,,,,,,,,,
1761.1000000014901,,shortestpath_phase,2044200,GW/paint.jpg,,,,50,GW/barrel.jpg,GW/basket.jpg,1,0.6388888888888888,,,,GW/basket.jpg,,,,,Two Edge Diff,Four Edge Six Edge
null,,html-keyboard-response,2045207,<p></p>,,,,null,,,,,,,,,,,,,,
3618,,shortestpath_phase,2048829,GW/dustpan.jpg,,,,50,GW/teeth.jpg,GW/jukebox.jpg,1,0.6438356164383562,,,,GW/jukebox.jpg,,,,,One Edge Diff,Four Edge Five Edge
null,,html-keyboard-response,2049835,<p></p>,,,,null,,,,,,,,,,,,,,
2219.39999999851,,shortestpath_phase,2052060,GW/wheelchair.jpg,,,,50,GW/basket.jpg,GW/globe.jpg,0,0.6351351351351351,,,,GW/basket.jpg,,,,,One Edge Diff,Three Edge Four Edge
null,,html-keyboard-response,2053067,<p></p>,,,,null,,,,,,,,,,,,,,
3404,,shortestpath_phase,2056476,GW/paint.jpg,,,,49,GW/teeth.jpg,GW/camera.jpg,0,0.6266666666666667,,,,GW/camera.jpg,,,,,Four Edge Diff,Two Edge Six Edge
null,,html-keyboard-response,2057482,<p></p>,,,,null,,,,,,,,,,,,,,
1505.2000000029802,,shortestpath_phase,2058991,GW/teeth.jpg,,,,49,GW/gong.jpg,GW/paint.jpg,1,0.631578947368421,,,,GW/gong.jpg,,,,,Two Edge Diff,Four Edge Six Edge
null,,html-keyboard-response,2059998,<p></p>,,,,null,,,,,,,,,,,,,,
2794.3000000044703,,shortestpath_phase,2062797,GW/paint.jpg,,,,50,GW/jukebox.jpg,GW/barrel.jpg,0,0.6233766233766234,,,,GW/jukebox.jpg,,,,,One Edge Diff,Five Edge Six Edge
null,,html-keyboard-response,2063803,<p></p>,,,,null,,,,,,,,,,,,,,
3163.3000000044703,,shortestpath_phase,2066971,GW/teeth.jpg,,,,49,GW/basket.jpg,GW/paint.jpg,1,0.6282051282051282,,,,GW/basket.jpg,,,,,Four Edge Diff,Two Edge Six Edge
null,,html-keyboard-response,2067977,<p></p>,,,,null,,,,,,,,,,,,,,
1970.1999999955297,,shortestpath_phase,2069951,GW/wheelchair.jpg,,,,50,GW/snail.jpg,GW/globe.jpg,0,0.620253164556962,,,,GW/snail.jpg,,,,,Two Edge Diff,Two Edge Four Edge
null,,html-keyboard-response,2070958,<p></p>,,,,null,,,,,,,,,,,,,,
137.79999999701977,,shortestpath_phase,2071100,GW/paint.jpg,,,,50,GW/camera.jpg,GW/globe.jpg,0,0.6125,,,,GW/camera.jpg,,,,,Three Edge Diff,Two Edge Five Edge
null,,html-keyboard-response,2072108,<p></p>,,,,null,,,,,,,,,,,,,,
3132.60000000149,,shortestpath_phase,2075245,GW/dustpan.jpg,,,,49,GW/snail.jpg,GW/teeth.jpg,1,0.6172839506172839,,,,GW/snail.jpg,,,,,Three Edge Diff,Three Edge Six Edge
null,,html-keyboard-response,2076251,<p></p>,,,,null,,,,,,,,,,,,,,
2529.2999999970198,,shortestpath_phase,2078785,GW/barrel.jpg,,,,49,GW/camera.jpg,GW/soldier.jpg,0,0.6097560975609756,,,,GW/soldier.jpg,,,,,Two Edge Diff,Two Edge Four Edge
null,,html-keyboard-response,2079792,<p></p>,,,,null,,,,,,,,,,,,,,
2198.10000000149,,shortestpath_phase,2081995,GW/jukebox.jpg,,,,49,GW/dustpan.jpg,GW/paint.jpg,1,0.6144578313253012,,,,GW/dustpan.jpg,,,,,One Edge Diff,Four Edge Five Edge
null,,html-keyboard-response,2083002,<p></p>,,,,null,,,,,,,,,,,,,,
5201.20000000298,,shortestpath_phase,2088208,GW/hat.jpg,,,,50,GW/jukebox.jpg,GW/wheelchair.jpg,1,0.6190476190476191,,,,GW/wheelchair.jpg,,,,,Three Edge Diff,Three Edge Six Edge
null,,html-keyboard-response,2089214,<p></p>,,,,null,,,,,,,,,,,,,,
1648.3999999985099,,shortestpath_phase,2090867,GW/barrel.jpg,,,,49,GW/gong.jpg,GW/hat.jpg,1,0.6235294117647059,,,,GW/gong.jpg,,,,,Two Edge Diff,Three Edge Five Edge
null,,html-keyboard-response,2091873,<p></p>,,,,null,,,,,,,,,,,,,,
1779,,shortestpath_phase,2093657,GW/jukebox.jpg,,,,49,GW/hat.jpg,GW/wheelchair.jpg,0,0.6162790697674418,,,,GW/wheelchair.jpg,,,,,One Edge Diff,Four Edge Five Edge
null,,html-keyboard-response,2094664,<p></p>,,,,null,,,,,,,,,,,,,,
1440.7000000029802,,shortestpath_phase,2096110,GW/teeth.jpg,,,,49,GW/dustpan.jpg,GW/camera.jpg,0,0.6091954022988506,,,,GW/camera.jpg,,,,,One Edge Diff,Four Edge Five Edge
null,,html-keyboard-response,2097117,<p></p>,,,,null,,,,,,,,,,,,,,
5071.69999999553,,shortestpath_phase,2102193,GW/jukebox.jpg,,,,49,GW/gong.jpg,GW/paint.jpg,1,0.6136363636363636,,,,GW/gong.jpg,,,,,Two Edge Diff,Three Edge Five Edge
null,,html-keyboard-response,2103199,<p></p>,,,,null,,,,,,,,,,,,,,
1684.2999999970198,,shortestpath_phase,2104889,GW/hat.jpg,,,,49,GW/teeth.jpg,GW/globe.jpg,0,0.6067415730337079,,,,GW/globe.jpg,,,,,Two Edge Diff,Four Edge Six Edge
null,,html-keyboard-response,2105895,<p></p>,,,,null,,,,,,,,,,,,,,
1408.5999999940395,,shortestpath_phase,2107309,GW/gong.jpg,,,,49,GW/snail.jpg,GW/teeth.jpg,1,0.6111111111111112,,,,GW/snail.jpg,,,,,Two Edge Diff,Two Edge Four Edge
null,,html-keyboard-response,2108315,<p></p>,,,,null,,,,,,,,,,,,,,
3891.5999999940395,,shortestpath_phase,2112211,GW/jukebox.jpg,,,,49,GW/barrel.jpg,GW/paint.jpg,1,0.6153846153846154,,,,GW/barrel.jpg,,,,,Three Edge Diff,Two Edge Five Edge
null,,html-keyboard-response,2113217,<p></p>,,,,null,,,,,,,,,,,,,,
1766,,shortestpath_phase,2114988,GW/globe.jpg,,,,50,GW/snail.jpg,GW/wheelchair.jpg,0,0.6086956521739131,,,,GW/snail.jpg,,,,,Two Edge Diff,Two Edge Four Edge
null,,html-keyboard-response,2115995,<p></p>,,,,null,,,,,,,,,,,,,,
3268.0999999940395,,shortestpath_phase,2119267,GW/paint.jpg,,,,49,GW/basket.jpg,GW/jukebox.jpg,1,0.6129032258064516,,,,GW/basket.jpg,,,,,One Edge Diff,Four Edge Five Edge
null,,html-keyboard-response,2120274,<p></p>,,,,null,,,,,,,,,,,,,,
1282.2999999970198,,shortestpath_phase,2121561,GW/globe.jpg,,,,49,GW/paint.jpg,GW/gong.jpg,0,0.6063829787234043,,,,GW/gong.jpg,,,,,Three Edge Diff,Two Edge Five Edge
null,,html-keyboard-response,2122567,<p></p>,,,,null,,,,,,,,,,,,,,
7393.69999999553,,shortestpath_phase,2129966,GW/soldier.jpg,,,,49,GW/basket.jpg,GW/paint.jpg,1,0.6105263157894737,,,,GW/basket.jpg,,,,,Two Edge Diff,Two Edge Four Edge
null,,html-keyboard-response,2130973,<p></p>,,,,null,,,,,,,,,,,,,,
2405.60000000149,,shortestpath_phase,2133383,GW/paint.jpg,,,,49,GW/soldier.jpg,GW/hat.jpg,0,0.6041666666666666,,,,GW/hat.jpg,,,,,One Edge Diff,Three Edge Four Edge
null,,html-keyboard-response,2134391,<p></p>,,,,null,,,,,,,,,,,,,,
943.9000000059605,,shortestpath_phase,2135340,GW/dustpan.jpg,,,,50,GW/teeth.jpg,GW/soldier.jpg,1,0.6082474226804123,,,,GW/soldier.jpg,,,,,Three Edge Diff,Two Edge Five Edge
null,,html-keyboard-response,2136346,<p></p>,,,,null,,,,,,,,,,,,,,
699.5,,shortestpath_phase,2137050,GW/barrel.jpg,,,,49,GW/dustpan.jpg,GW/jukebox.jpg,0,0.6020408163265306,,,,GW/jukebox.jpg,,,,,Two Edge Diff,Two Edge Four Edge
null,,html-keyboard-response,2138057,<p></p>,,,,null,,,,,,,,,,,,,,
1141.1000000014901,,shortestpath_phase,2139203,GW/teeth.jpg,,,,49,GW/hat.jpg,GW/camera.jpg,0,0.5959595959595959,,,,GW/camera.jpg,,,,,Two Edge Diff,Four Edge Six Edge
null,,html-keyboard-response,2140210,<p></p>,,,,null,,,,,,,,,,,,,,
734.6000000014901,,shortestpath_phase,2140949,GW/barrel.jpg,,,,49,GW/hat.jpg,GW/soldier.jpg,0,0.59,,,,GW/soldier.jpg,,,,,Three Edge Diff,Three Edge Six Edge
null,,html-keyboard-response,2141956,<p></p>,,,,null,,,,,,,,,,,,,,
990.6999999955297,,shortestpath_phase,2142951,GW/teeth.jpg,,,,49,GW/globe.jpg,GW/wheelchair.jpg,1,0.594059405940594,,,,GW/globe.jpg,,,,,Three Edge Diff,Two Edge Five Edge
null,,html-keyboard-response,2143958,<p></p>,,,,null,,,,,,,,,,,,,,
1289.3999999985099,,shortestpath_phase,2145252,GW/basket.jpg,,,,50,GW/barrel.jpg,GW/paint.jpg,0,0.5882352941176471,,,,GW/barrel.jpg,,,,,One Edge Diff,Three Edge Four Edge
null,,html-keyboard-response,2146260,<p></p>,,,,null,,,,,,,,,,,,,,
870.3999999985099,,shortestpath_phase,2147135,GW/teeth.jpg,,,,49,GW/dustpan.jpg,GW/soldier.jpg,0,0.5825242718446602,,,,GW/soldier.jpg,,,,,Two Edge Diff,Three Edge Five Edge
null,,html-keyboard-response,2148142,<p></p>,,,,null,,,,,,,,,,,,,,
784.5,,shortestpath_phase,2148931,GW/barrel.jpg,,,,49,GW/camera.jpg,GW/paint.jpg,1,0.5865384615384616,,,,GW/camera.jpg,,,,,Two Edge Diff,Four Edge Six Edge
null,,html-keyboard-response,2149937,<p></p>,,,,null,,,,,,,,,,,,,,
574.8000000044703,,shortestpath_phase,2150517,GW/teeth.jpg,,,,49,GW/basket.jpg,GW/dustpan.jpg,1,0.5904761904761905,,,,GW/basket.jpg,,,,,Three Edge Diff,Three Edge Six Edge
null,,html-keyboard-response,2151523,<p></p>,,,,null,,,,,,,,,,,,,,
2561.2000000029802,,shortestpath_phase,2154089,GW/globe.jpg,,,,49,GW/camera.jpg,GW/hat.jpg,1,0.5943396226415094,,,,GW/camera.jpg,,,,,One Edge Diff,Three Edge Four Edge
null,,html-keyboard-response,2155096,<p></p>,,,,null,,,,,,,,,,,,,,
893.1000000014901,,shortestpath_phase,2155994,GW/barrel.jpg,,,,49,GW/teeth.jpg,GW/hat.jpg,1,0.5981308411214953,,,,GW/teeth.jpg,,,,,Two Edge Diff,Three Edge Five Edge
null,,html-keyboard-response,2157002,<p></p>,,,,null,,,,,,,,,,,,,,
475.79999999701977,,shortestpath_phase,2157483,GW/paint.jpg,,,,50,GW/barrel.jpg,GW/camera.jpg,1,0.6018518518518519,,,,GW/camera.jpg,,,,,Four Edge Diff,Two Edge Six Edge
null,,html-keyboard-response,2158489,<p></p>,,,,null,,,,,,,,,,,,,,
404.8999999985099,,shortestpath_phase,2158899,GW/teeth.jpg,,,,50,GW/barrel.jpg,GW/dustpan.jpg,0,0.5963302752293578,,,,GW/barrel.jpg,,,,,Two Edge Diff,Three Edge Five Edge
null,,html-keyboard-response,2159905,<p></p>,,,,null,,,,,,,,,,,,,,
2745.39999999851,,shortestpath_phase,2162655,GW/camera.jpg,,,,49,GW/globe.jpg,GW/teeth.jpg,1,0.6,,,,GW/globe.jpg,,,,,One Edge Diff,Three Edge Four Edge
null,,html-keyboard-response,2163661,<p></p>,,,,null,,,,,,,,,,,,,,
1888.1000000014901,,shortestpath_phase,2165554,GW/hat.jpg,,,,49,GW/barrel.jpg,GW/teeth.jpg,1,0.6036036036036037,,,,GW/barrel.jpg,,,,,One Edge Diff,Five Edge Six Edge
null,,html-keyboard-response,2166561,<p></p>,,,,null,,,,,,,,,,,,,,
1446.7999999970198,,shortestpath_phase,2168013,GW/globe.jpg,,,,49,GW/hat.jpg,GW/dustpan.jpg,0,0.5982142857142857,,,,GW/dustpan.jpg,,,,,One Edge Diff,Three Edge Four Edge
null,,html-keyboard-response,2169020,<p></p>,,,,null,,,,,,,,,,,,,,
1007.8999999985099,,shortestpath_phase,2170032,GW/jukebox.jpg,,,,49,GW/snail.jpg,GW/paint.jpg,1,0.6017699115044248,,,,GW/snail.jpg,,,,,Three Edge Diff,Three Edge Six Edge
null,,html-keyboard-response,2171039,<p></p>,,,,null,,,,,,,,,,,,,,
2636.8000000044703,,shortestpath_phase,2173681,GW/hat.jpg,,,,50,GW/jukebox.jpg,GW/gong.jpg,1,0.6052631578947368,,,,GW/gong.jpg,,,,,Three Edge Diff,Three Edge Six Edge
null,,html-keyboard-response,2174687,<p></p>,,,,null,,,,,,,,,,,,,,
844.7000000029802,,shortestpath_phase,2175537,GW/paint.jpg,,,,50,GW/teeth.jpg,GW/basket.jpg,1,0.6086956521739131,,,,GW/basket.jpg,,,,,Two Edge Diff,Four Edge Six Edge
null,,html-keyboard-response,2176543,<p></p>,,,,null,,,,,,,,,,,,,,
1596.8000000044703,,shortestpath_phase,2178145,GW/wheelchair.jpg,,,,50,GW/hat.jpg,GW/soldier.jpg,0,0.603448275862069,,,,GW/hat.jpg,,,,,One Edge Diff,Two Edge Three Edge
null,,html-keyboard-response,2179151,<p></p>,,,,null,,,,,,,,,,,,,,
4188.29999999702,,shortestpath_phase,2183344,GW/teeth.jpg,,,,49,GW/basket.jpg,GW/hat.jpg,1,0.6068376068376068,,,,GW/basket.jpg,,,,,Four Edge Diff,Two Edge Six Edge
null,,html-keyboard-response,2184351,<p></p>,,,,null,,,,,,,,,,,,,,
988.7000000029802,,shortestpath_phase,2185345,GW/wheelchair.jpg,,,,49,GW/barrel.jpg,GW/globe.jpg,0,0.6016949152542372,,,,GW/globe.jpg,,,,,One Edge Diff,Four Edge Five Edge
null,,html-keyboard-response,2186352,<p></p>,,,,null,,,,,,,,,,,,,,
1292.2999999970198,,shortestpath_phase,2187650,GW/paint.jpg,,,,49,GW/barrel.jpg,GW/dustpan.jpg,0,0.5966386554621849,,,,GW/dustpan.jpg,,,,,Four Edge Diff,Two Edge Six Edge
null,,html-keyboard-response,2188656,<p></p>,,,,null,,,,,,,,,,,,,,
934.5,,shortestpath_phase,2189595,GW/teeth.jpg,,,,49,GW/paint.jpg,GW/camera.jpg,0,0.5916666666666667,,,,GW/camera.jpg,,,,,Two Edge Diff,Four Edge Six Edge
null,,html-keyboard-response,2190602,<p></p>,,,,null,,,,,,,,,,,,,,
1775.3999999985099,,shortestpath_phase,2192382,GW/barrel.jpg,,,,49,GW/paint.jpg,GW/jukebox.jpg,0,0.5867768595041323,,,,GW/jukebox.jpg,,,,,Four Edge Diff,Two Edge Six Edge
null,,html-keyboard-response,2193388,<p></p>,,,,null,,,,,,,,,,,,,,
496590.200000003,,intro_1,2689981,instruct,,0,,,,,,,,,,,,,,,,
406482.90000000596,,intro_2,3096467,instruct,,1,Next,,,,,,,,,,,,,,,
13509.80000000447,,intro_3,3109978,instruct,,1,Next,,,,,,,,,,,,,,,
