rt,responses,trial_type,time_elapsed,stimulus,graphorder,button_pressed,response,key_press,stimulus_left,stimulus_right,accuracy,cumulative_accuracy,stimulus_down_left,stimulus_down_mid,stimulus_down_right,stimulus_correct,stimulus_short,stimulus_far,weighted_accuracy,missedtrial,condition,specific_pairs
40260.90000009537,{worker_id:682e51c62942ef847cd56edf},id_enter,40266,id_enter,GW/jukebox.jpg; GW/soldier.jpg; GW/basket.jpg; GW/gong.jpg; GW/dustpan.jpg; GW/teeth.jpg; GW/wheelchair.jpg; GW/paint.jpg; GW/globe.jpg; GW/barrel.jpg; GW/camera.jpg; GW/hat.jpg; GW/snail.jpg,,,,,,,,,,,,,,,,,
18527.799999952316,,fullscreen,58802,fullscreen,,0,,,,,,,,,,,,,,,,
25690.799999952316,,intro_1,84497,instruct,,0,,,,,,,,,,,,,,,,
20125.800000190735,,intro_2,104625,instruct,,1,Next,,,,,,,,,,,,,,,
11839.200000047684,,intro_3,116466,instruct,,1,Next,,,,,,,,,,,,,,,
null,,learn_prac_1,118477,lean_prac_1,,,,null,,,,,,,,,,,,,,
null,,html-keyboard-response,119481,<p></p>,,,,null,,,,,,,,,,,,,,
8653.400000095367,,intro_1,128137,instruct,,0,,,,,,,,,,,,,,,,
11214.900000095367,,intro_2,139354,instruct,,1,Next,,,,,,,,,,,,,,,
null,,learn_prac_2,141357,lean_prac_2,,,,null,,,,,,,,,,,,,,
null,,html-keyboard-response,142364,<p></p>,,,,null,,,,,,,,,,,,,,
11186.900000095367,,intro_1,153554,instruct,,0,,,,,,,,,,,,,,,,
6229.799999952316,,intro_2,159785,instruct,,1,Next,,,,,,,,,,,,,,,
45574.799999952316,,intro_3,205362,instruct,,1,Next,,,,,,,,,,,,,,,
null,,prac_atten_color_black,205870,black_plus_sign,,,,null,,,,,,,,,,,,,,
null,,prac_atten_color,206767,prac_stop_color,,,,null,,,,,,,,,,,,,,
null,,prac_atten_color_black,208772,black_plus_sign,,,,null,,,,,,,,,,,,,,
6537.5,,attentioncheck_help,215315,instruct,,,,32,,,,,,,,,,,,,,
null,,prac_atten_color_black,215823,black_plus_sign,,,,null,,,,,,,,,,,,,,
773.5999999046326,,prac_atten_color,216791,prac_stop_color,,,,50,,,,,,,,,,,,,,
null,,prac_atten_color_black,218795,black_plus_sign,,,,null,,,,,,,,,,,,,,
null,,prac_atten_color_black,219239,black_plus_sign,,,,null,,,,,,,,,,,,,,
null,,prac_atten_color,220050,prac_stop_color,,,,null,,,,,,,,,,,,,,
104.29999995231628,,prac_atten_color_black,222054,black_plus_sign,,,,50,,,,,,,,,,,,,,
null,,prac_atten_color_black,222655,black_plus_sign,,,,null,,,,,,,,,,,,,,
623.7999999523163,,prac_atten_color,223701,prac_stop_color,,,,49,,,,,,,,,,,,,,
null,,prac_atten_color_black,225705,black_plus_sign,,,,null,,,,,,,,,,,,,,
null,,prac_atten_color_black,226069,black_plus_sign,,,,null,,,,,,,,,,,,,,
null,,prac_atten_color,226616,prac_stop_color,,,,null,,,,,,,,,,,,,,
127.30000019073486,,prac_atten_color_black,228620,black_plus_sign,,,,50,,,,,,,,,,,,,,
null,,prac_atten_color_black,229482,black_plus_sign,,,,null,,,,,,,,,,,,,,
null,,prac_atten_color,230131,prac_stop_color,,,,null,,,,,,,,,,,,,,
174.09999990463257,,prac_atten_color_black,232133,black_plus_sign,,,,50,,,,,,,,,,,,,,
null,,prac_atten_color_black,232892,black_plus_sign,,,,null,,,,,,,,,,,,,,
null,,prac_atten_color,233628,prac_stop_color,,,,null,,,,,,,,,,,,,,
46.09999990463257,,prac_atten_color_black,235631,black_plus_sign,,,,50,,,,,,,,,,,,,,
5335.400000095367,,attentioncheck_help,240970,instruct,,,,32,,,,,,,,,,,,,,
null,,prac_atten_color_black,241639,black_plus_sign,,,,null,,,,,,,,,,,,,,
806.3999998569489,,prac_atten_color,242651,prac_stop_color,,,,50,,,,,,,,,,,,,,
null,,prac_atten_color_black,244654,black_plus_sign,,,,null,,,,,,,,,,,,,,
null,,prac_atten_color_black,245053,black_plus_sign,,,,null,,,,,,,,,,,,,,
null,,prac_atten_color,245522,prac_stop_color,,,,null,,,,,,,,,,,,,,
326.5,,prac_atten_color_black,247527,black_plus_sign,,,,49,,,,,,,,,,,,,,
null,,prac_atten_color_black,248469,black_plus_sign,,,,null,,,,,,,,,,,,,,
null,,prac_atten_color,249037,prac_stop_color,,,,null,,,,,,,,,,,,,,
636.3999998569489,,prac_atten_color_black,251041,black_plus_sign,,,,49,,,,,,,,,,,,,,
6467.400000095367,,attentioncheck_feedback,257513,cross_check_feedback,,0,,,,,,,,,,,,,,,,
8092.200000047684,,last_instruct,265607,instruct,,,,32,,,,,,,,,,,,,,
null,,learn_phase(without_color),267610,black_plus_sign,,,,null,GW/gong.jpg,GW/hat.jpg,,,,,,,,,,,,
null,,black_cross(without_color),268069,green,,,,null,GW/gong.jpg,GW/hat.jpg,,,,,,,,,,,,
null,,rt_plussign_withcolor,268573,green,,,,null,GW/gong.jpg,GW/hat.jpg,,,,,,,,,,,,
1552.6999998092651,,rt_thecrossant_black,270126,black_plus_sign,,,,50,,,1,1,,,,,,,,,,
null,,color_black,270233,black_plus_sign,,,,null,,,,,,,,,,,,,,
null,,learn_phase(without_color),272239,black_plus_sign,,,,null,GW/wheelchair.jpg,GW/snail.jpg,,,,,,,,,,,,
null,,black_cross(without_color),272871,green,,,,null,GW/wheelchair.jpg,GW/snail.jpg,,,,,,,,,,,,
null,,rt_plussign_withcolor,273375,green,,,,null,GW/wheelchair.jpg,GW/snail.jpg,,,,,,,,,,,,
831.5,,rt_thecrossant_black,274754,black_plus_sign,,,,50,,,1,1,,,,,,,,,,
null,,color_black,274860,black_plus_sign,,,,null,,,,,,,,,,,,,,
null,,learn_phase(without_color),276867,black_plus_sign,,,,null,GW/wheelchair.jpg,GW/globe.jpg,,,,,,,,,,,,
null,,black_cross(without_color),277438,green,,,,null,GW/wheelchair.jpg,GW/globe.jpg,,,,,,,,,,,,
null,,rt_plussign_withcolor,277940,green,,,,null,GW/wheelchair.jpg,GW/globe.jpg,,,,,,,,,,,,
1237,,rt_thecrossant_black,279380,black_plus_sign,,,,50,,,1,1,,,,,,,,,,
null,,color_black,279485,black_plus_sign,,,,null,,,,,,,,,,,,,,
null,,learn_phase(without_color),281492,black_plus_sign,,,,null,GW/wheelchair.jpg,GW/snail.jpg,,,,,,,,,,,,
null,,black_cross(without_color),282255,green,,,,null,GW/wheelchair.jpg,GW/snail.jpg,,,,,,,,,,,,
null,,rt_plussign_withcolor,282772,green,,,,null,GW/wheelchair.jpg,GW/snail.jpg,,,,,,,,,,,,
956.5999999046326,,rt_thecrossant_black,284017,black_plus_sign,,,,50,,,1,1,,,,,,,,,,
null,,color_black,284122,black_plus_sign,,,,null,,,,,,,,,,,,,,
null,,learn_phase(without_color),286128,black_plus_sign,,,,null,GW/paint.jpg,GW/globe.jpg,,,,,,,,,,,,
null,,black_cross(without_color),287000,blue,,,,null,GW/paint.jpg,GW/globe.jpg,,,,,,,,,,,,
null,,rt_plussign_withcolor,287505,blue,,,,null,GW/paint.jpg,GW/globe.jpg,,,,,,,,,,,,
885.2999999523163,,rt_thecrossant_black,288644,black_plus_sign,,,,49,,,1,1,,,,,,,,,,
null,,color_black,288750,black_plus_sign,,,,null,,,,,,,,,,,,,,
null,,learn_phase(without_color),290758,black_plus_sign,,,,null,GW/jukebox.jpg,GW/soldier.jpg,,,,,,,,,,,,
null,,black_cross(without_color),291614,blue,,,,null,GW/jukebox.jpg,GW/soldier.jpg,,,,,,,,,,,,
null,,rt_plussign_withcolor,292122,blue,,,,null,GW/jukebox.jpg,GW/soldier.jpg,,,,,,,,,,,,
2068.5,,rt_thecrossant_black,293271,black_plus_sign,,,,49,,,1,1,,,,,,,,,,
null,,color_black,293374,black_plus_sign,,,,null,,,,,,,,,,,,,,
null,,learn_phase(without_color),295379,black_plus_sign,,,,null,GW/soldier.jpg,GW/gong.jpg,,,,,,,,,,,,
null,,black_cross(without_color),296201,blue,,,,null,GW/soldier.jpg,GW/gong.jpg,,,,,,,,,,,,
null,,rt_plussign_withcolor,296705,blue,,,,null,GW/soldier.jpg,GW/gong.jpg,,,,,,,,,,,,
1225.5999999046326,,rt_thecrossant_black,297892,black_plus_sign,,,,49,,,1,1,,,,,,,,,,
null,,color_black,297997,black_plus_sign,,,,null,,,,,,,,,,,,,,
null,,learn_phase(without_color),300018,black_plus_sign,,,,null,GW/camera.jpg,GW/hat.jpg,,,,,,,,,,,,
null,,black_cross(without_color),301075,green,,,,null,GW/camera.jpg,GW/hat.jpg,,,,,,,,,,,,
null,,rt_plussign_withcolor,301580,green,,,,null,GW/camera.jpg,GW/hat.jpg,,,,,,,,,,,,
980.3000001907349,,rt_thecrossant_black,302533,black_plus_sign,,,,50,,,1,1,,,,,,,,,,
null,,color_black,302640,black_plus_sign,,,,null,,,,,,,,,,,,,,
null,,learn_phase(without_color),304647,black_plus_sign,,,,null,GW/teeth.jpg,GW/wheelchair.jpg,,,,,,,,,,,,
null,,black_cross(without_color),305700,blue,,,,null,GW/teeth.jpg,GW/wheelchair.jpg,,,,,,,,,,,,
null,,rt_plussign_withcolor,306204,blue,,,,null,GW/teeth.jpg,GW/wheelchair.jpg,,,,,,,,,,,,
1490.5,,rt_thecrossant_black,307161,black_plus_sign,,,,49,,,1,1,,,,,,,,,,
null,,color_black,307274,black_plus_sign,,,,null,,,,,,,,,,,,,,
null,,learn_phase(without_color),309279,black_plus_sign,,,,null,GW/paint.jpg,GW/globe.jpg,,,,,,,,,,,,
null,,black_cross(without_color),310080,blue,,,,null,GW/paint.jpg,GW/globe.jpg,,,,,,,,,,,,
null,,rt_plussign_withcolor,310584,blue,,,,null,GW/paint.jpg,GW/globe.jpg,,,,,,,,,,,,
1556.1999998092651,,rt_thecrossant_black,311793,black_plus_sign,,,,49,,,1,1,,,,,,,,,,
null,,color_black,311897,black_plus_sign,,,,null,,,,,,,,,,,,,,
null,,learn_phase(without_color),313903,black_plus_sign,,,,null,GW/wheelchair.jpg,GW/globe.jpg,,,,,,,,,,,,
null,,black_cross(without_color),314507,blue,,,,null,GW/wheelchair.jpg,GW/globe.jpg,,,,,,,,,,,,
null,,rt_plussign_withcolor,315012,blue,,,,null,GW/wheelchair.jpg,GW/globe.jpg,,,,,,,,,,,,
1097.1000001430511,,rt_thecrossant_black,316414,black_plus_sign,,,,49,,,1,1,,,,,,,,,,
null,,color_black,316518,black_plus_sign,,,,null,,,,,,,,,,,,,,
null,,learn_phase(without_color),318529,black_plus_sign,,,,null,GW/teeth.jpg,GW/wheelchair.jpg,,,,,,,,,,,,
null,,black_cross(without_color),319386,blue,,,,null,GW/teeth.jpg,GW/wheelchair.jpg,,,,,,,,,,,,
null,,rt_plussign_withcolor,319890,blue,,,,null,GW/teeth.jpg,GW/wheelchair.jpg,,,,,,,,,,,,
1031,,rt_thecrossant_black,321044,black_plus_sign,,,,49,,,1,1,,,,,,,,,,
null,,color_black,321149,black_plus_sign,,,,null,,,,,,,,,,,,,,
null,,learn_phase(without_color),323157,black_plus_sign,,,,null,GW/wheelchair.jpg,GW/globe.jpg,,,,,,,,,,,,
null,,black_cross(without_color),323788,green,,,,null,GW/wheelchair.jpg,GW/globe.jpg,,,,,,,,,,,,
null,,rt_plussign_withcolor,324293,green,,,,null,GW/wheelchair.jpg,GW/globe.jpg,,,,,,,,,,,,
1841.5,,rt_thecrossant_black,325673,black_plus_sign,,,,50,,,1,1,,,,,,,,,,
null,,color_black,325779,black_plus_sign,,,,null,,,,,,,,,,,,,,
null,,learn_phase(without_color),327786,black_plus_sign,,,,null,GW/gong.jpg,GW/hat.jpg,,,,,,,,,,,,
null,,black_cross(without_color),328241,green,,,,null,GW/gong.jpg,GW/hat.jpg,,,,,,,,,,,,
null,,rt_plussign_withcolor,328745,green,,,,null,GW/gong.jpg,GW/hat.jpg,,,,,,,,,,,,
1061.9000000953674,,rt_thecrossant_black,330300,black_plus_sign,,,,50,,,1,1,,,,,,,,,,
null,,color_black,330406,black_plus_sign,,,,null,,,,,,,,,,,,,,
null,,learn_phase(without_color),332411,black_plus_sign,,,,null,GW/soldier.jpg,GW/gong.jpg,,,,,,,,,,,,
null,,black_cross(without_color),332932,green,,,,null,GW/soldier.jpg,GW/gong.jpg,,,,,,,,,,,,
null,,rt_plussign_withcolor,333436,green,,,,null,GW/soldier.jpg,GW/gong.jpg,,,,,,,,,,,,
718.7999999523163,,rt_thecrossant_black,334924,black_plus_sign,,,,50,,,1,1,,,,,,,,,,
null,,color_black,335030,black_plus_sign,,,,null,,,,,,,,,,,,,,
null,,learn_phase(without_color),337039,black_plus_sign,,,,null,GW/paint.jpg,GW/barrel.jpg,,,,,,,,,,,,
null,,black_cross(without_color),338017,blue,,,,null,GW/paint.jpg,GW/barrel.jpg,,,,,,,,,,,,
null,,rt_plussign_withcolor,338521,blue,,,,null,GW/paint.jpg,GW/barrel.jpg,,,,,,,,,,,,
937.2000000476837,,rt_thecrossant_black,339555,black_plus_sign,,,,49,,,1,1,,,,,,,,,,
null,,color_black,339661,black_plus_sign,,,,null,,,,,,,,,,,,,,
null,,learn_phase(without_color),341667,black_plus_sign,,,,null,GW/wheelchair.jpg,GW/paint.jpg,,,,,,,,,,,,
null,,black_cross(without_color),342165,green,,,,null,GW/wheelchair.jpg,GW/paint.jpg,,,,,,,,,,,,
null,,rt_plussign_withcolor,342669,green,,,,null,GW/wheelchair.jpg,GW/paint.jpg,,,,,,,,,,,,
1436.5999999046326,,rt_thecrossant_black,344180,black_plus_sign,,,,50,,,1,1,,,,,,,,,,
null,,color_black,344285,black_plus_sign,,,,null,,,,,,,,,,,,,,
null,,learn_phase(without_color),346305,black_plus_sign,,,,null,GW/teeth.jpg,GW/globe.jpg,,,,,,,,,,,,
null,,black_cross(without_color),346711,green,,,,null,GW/teeth.jpg,GW/globe.jpg,,,,,,,,,,,,
null,,rt_plussign_withcolor,347214,green,,,,null,GW/teeth.jpg,GW/globe.jpg,,,,,,,,,,,,
939.2000000476837,,rt_thecrossant_black,348817,black_plus_sign,,,,50,,,1,1,,,,,,,,,,
null,,color_black,348921,black_plus_sign,,,,null,,,,,,,,,,,,,,
null,,learn_phase(without_color),350924,black_plus_sign,,,,null,GW/globe.jpg,GW/camera.jpg,,,,,,,,,,,,
null,,black_cross(without_color),351562,blue,,,,null,GW/globe.jpg,GW/camera.jpg,,,,,,,,,,,,
null,,rt_plussign_withcolor,352066,blue,,,,null,GW/globe.jpg,GW/camera.jpg,,,,,,,,,,,,
966.7000000476837,,rt_thecrossant_black,353440,black_plus_sign,,,,49,,,1,1,,,,,,,,,,
null,,color_black,353545,black_plus_sign,,,,null,,,,,,,,,,,,,,
null,,learn_phase(without_color),355554,black_plus_sign,,,,null,GW/camera.jpg,GW/hat.jpg,,,,,,,,,,,,
null,,black_cross(without_color),356068,green,,,,null,GW/camera.jpg,GW/hat.jpg,,,,,,,,,,,,
null,,rt_plussign_withcolor,356570,green,,,,null,GW/camera.jpg,GW/hat.jpg,,,,,,,,,,,,
1758.0999999046326,,rt_thecrossant_black,358061,black_plus_sign,,,,50,,,1,1,,,,,,,,,,
null,,color_black,358168,black_plus_sign,,,,null,,,,,,,,,,,,,,
null,,learn_phase(without_color),360175,black_plus_sign,,,,null,GW/gong.jpg,GW/hat.jpg,,,,,,,,,,,,
null,,black_cross(without_color),360635,blue,,,,null,GW/gong.jpg,GW/hat.jpg,,,,,,,,,,,,
null,,rt_plussign_withcolor,361138,blue,,,,null,GW/gong.jpg,GW/hat.jpg,,,,,,,,,,,,
1325.6000001430511,,rt_thecrossant_black,362696,black_plus_sign,,,,49,,,1,1,,,,,,,,,,
null,,color_black,362799,black_plus_sign,,,,null,,,,,,,,,,,,,,
null,,learn_phase(without_color),364804,black_plus_sign,,,,null,GW/wheelchair.jpg,GW/paint.jpg,,,,,,,,,,,,
null,,black_cross(without_color),365693,green,,,,null,GW/wheelchair.jpg,GW/paint.jpg,,,,,,,,,,,,
null,,rt_plussign_withcolor,366198,green,,,,null,GW/wheelchair.jpg,GW/paint.jpg,,,,,,,,,,,,
1020.2000000476837,,rt_thecrossant_black,367319,black_plus_sign,,,,50,,,1,1,,,,,,,,,,
null,,color_black,367424,black_plus_sign,,,,null,,,,,,,,,,,,,,
null,,learn_phase(without_color),369426,black_plus_sign,,,,null,GW/globe.jpg,GW/camera.jpg,,,,,,,,,,,,
null,,black_cross(without_color),370047,green,,,,null,GW/globe.jpg,GW/camera.jpg,,,,,,,,,,,,
null,,rt_plussign_withcolor,370552,green,,,,null,GW/globe.jpg,GW/camera.jpg,,,,,,,,,,,,
1745.2999999523163,,rt_thecrossant_black,371943,black_plus_sign,,,,50,,,1,1,,,,,,,,,,
null,,color_black,372049,black_plus_sign,,,,null,,,,,,,,,,,,,,
null,,learn_phase(without_color),374056,black_plus_sign,,,,null,GW/paint.jpg,GW/globe.jpg,,,,,,,,,,,,
null,,black_cross(without_color),374655,green,,,,null,GW/paint.jpg,GW/globe.jpg,,,,,,,,,,,,
null,,rt_plussign_withcolor,375161,green,,,,null,GW/paint.jpg,GW/globe.jpg,,,,,,,,,,,,
1215.7999999523163,,rt_thecrossant_black,376570,black_plus_sign,,,,50,,,1,1,,,,,,,,,,
null,,color_black,376676,black_plus_sign,,,,null,,,,,,,,,,,,,,
null,,learn_phase(without_color),378687,black_plus_sign,,,,null,GW/camera.jpg,GW/hat.jpg,,,,,,,,,,,,
null,,black_cross(without_color),379653,green,,,,null,GW/camera.jpg,GW/hat.jpg,,,,,,,,,,,,
null,,rt_plussign_withcolor,380156,green,,,,null,GW/camera.jpg,GW/hat.jpg,,,,,,,,,,,,
1066.6999998092651,,rt_thecrossant_black,381199,black_plus_sign,,,,50,,,1,1,,,,,,,,,,
null,,color_black,381305,black_plus_sign,,,,null,,,,,,,,,,,,,,
null,,learn_phase(without_color),383310,black_plus_sign,,,,null,GW/jukebox.jpg,GW/soldier.jpg,,,,,,,,,,,,
null,,black_cross(without_color),384224,green,,,,null,GW/jukebox.jpg,GW/soldier.jpg,,,,,,,,,,,,
null,,rt_plussign_withcolor,384728,green,,,,null,GW/jukebox.jpg,GW/soldier.jpg,,,,,,,,,,,,
1797.6000001430511,,rt_thecrossant_black,385824,black_plus_sign,,,,50,,,1,1,,,,,,,,,,
null,,color_black,385930,black_plus_sign,,,,null,,,,,,,,,,,,,,
null,,learn_phase(without_color),387934,black_plus_sign,,,,null,GW/gong.jpg,GW/dustpan.jpg,,,,,,,,,,,,
null,,black_cross(without_color),388572,blue,,,,null,GW/gong.jpg,GW/dustpan.jpg,,,,,,,,,,,,
null,,rt_plussign_withcolor,389077,blue,,,,null,GW/gong.jpg,GW/dustpan.jpg,,,,,,,,,,,,
1458.4000000953674,,rt_thecrossant_black,390450,black_plus_sign,,,,49,,,1,1,,,,,,,,,,
null,,color_black,390561,black_plus_sign,,,,null,,,,,,,,,,,,,,
null,,learn_phase(without_color),392565,black_plus_sign,,,,null,GW/wheelchair.jpg,GW/paint.jpg,,,,,,,,,,,,
null,,black_cross(without_color),393227,green,,,,null,GW/wheelchair.jpg,GW/paint.jpg,,,,,,,,,,,,
null,,rt_plussign_withcolor,393730,green,,,,null,GW/wheelchair.jpg,GW/paint.jpg,,,,,,,,,,,,
1176.6999998092651,,rt_thecrossant_black,395079,black_plus_sign,,,,50,,,1,1,,,,,,,,,,
null,,color_black,395184,black_plus_sign,,,,null,,,,,,,,,,,,,,
null,,learn_phase(without_color),397202,black_plus_sign,,,,null,GW/soldier.jpg,GW/gong.jpg,,,,,,,,,,,,
null,,black_cross(without_color),397665,green,,,,null,GW/soldier.jpg,GW/gong.jpg,,,,,,,,,,,,
null,,rt_plussign_withcolor,398169,green,,,,null,GW/soldier.jpg,GW/gong.jpg,,,,,,,,,,,,
1664.2999999523163,,rt_thecrossant_black,399718,black_plus_sign,,,,50,,,1,1,,,,,,,,,,
null,,color_black,399824,black_plus_sign,,,,null,,,,,,,,,,,,,,
null,,learn_phase(without_color),401832,black_plus_sign,,,,null,GW/basket.jpg,GW/camera.jpg,,,,,,,,,,,,
null,,black_cross(without_color),402335,blue,,,,null,GW/basket.jpg,GW/camera.jpg,,,,,,,,,,,,
null,,rt_plussign_withcolor,402840,blue,,,,null,GW/basket.jpg,GW/camera.jpg,,,,,,,,,,,,
980.0999999046326,,rt_thecrossant_black,404348,black_plus_sign,,,,49,,,1,1,,,,,,,,,,
null,,color_black,404453,black_plus_sign,,,,null,,,,,,,,,,,,,,
null,,learn_phase(without_color),406460,black_plus_sign,,,,null,GW/camera.jpg,GW/hat.jpg,,,,,,,,,,,,
null,,black_cross(without_color),407283,green,,,,null,GW/camera.jpg,GW/hat.jpg,,,,,,,,,,,,
null,,rt_plussign_withcolor,407788,green,,,,null,GW/camera.jpg,GW/hat.jpg,,,,,,,,,,,,
1124.5,,rt_thecrossant_black,408973,black_plus_sign,,,,50,,,1,1,,,,,,,,,,
null,,color_black,409078,black_plus_sign,,,,null,,,,,,,,,,,,,,
null,,learn_phase(without_color),411085,black_plus_sign,,,,null,GW/wheelchair.jpg,GW/snail.jpg,,,,,,,,,,,,
null,,black_cross(without_color),412154,green,,,,null,GW/wheelchair.jpg,GW/snail.jpg,,,,,,,,,,,,
null,,rt_plussign_withcolor,412656,green,,,,null,GW/wheelchair.jpg,GW/snail.jpg,,,,,,,,,,,,
1343.3999998569489,,rt_thecrossant_black,413592,black_plus_sign,,,,50,,,1,1,,,,,,,,,,
null,,color_black,413696,black_plus_sign,,,,null,,,,,,,,,,,,,,
null,,learn_phase(without_color),415701,black_plus_sign,,,,null,GW/wheelchair.jpg,GW/paint.jpg,,,,,,,,,,,,
null,,black_cross(without_color),416113,green,,,,null,GW/wheelchair.jpg,GW/paint.jpg,,,,,,,,,,,,
null,,rt_plussign_withcolor,416617,green,,,,null,GW/wheelchair.jpg,GW/paint.jpg,,,,,,,,,,,,
1662.8999998569489,,rt_thecrossant_black,418213,black_plus_sign,,,,50,,,1,1,,,,,,,,,,
null,,color_black,418319,black_plus_sign,,,,null,,,,,,,,,,,,,,
null,,learn_phase(without_color),420335,black_plus_sign,,,,null,GW/basket.jpg,GW/teeth.jpg,,,,,,,,,,,,
null,,black_cross(without_color),421141,green,,,,null,GW/basket.jpg,GW/teeth.jpg,,,,,,,,,,,,
null,,rt_plussign_withcolor,421643,green,,,,null,GW/basket.jpg,GW/teeth.jpg,,,,,,,,,,,,
1049,,rt_thecrossant_black,422849,black_plus_sign,,,,50,,,1,1,,,,,,,,,,
null,,color_black,422955,black_plus_sign,,,,null,,,,,,,,,,,,,,
null,,learn_phase(without_color),424962,black_plus_sign,,,,null,GW/soldier.jpg,GW/gong.jpg,,,,,,,,,,,,
null,,black_cross(without_color),425583,green,,,,null,GW/soldier.jpg,GW/gong.jpg,,,,,,,,,,,,
null,,rt_plussign_withcolor,426088,green,,,,null,GW/soldier.jpg,GW/gong.jpg,,,,,,,,,,,,
1629.1000001430511,,rt_thecrossant_black,427476,black_plus_sign,,,,50,,,1,1,,,,,,,,,,
null,,color_black,427582,black_plus_sign,,,,null,,,,,,,,,,,,,,
null,,learn_phase(without_color),429590,black_plus_sign,,,,null,GW/wheelchair.jpg,GW/paint.jpg,,,,,,,,,,,,
null,,black_cross(without_color),430091,green,,,,null,GW/wheelchair.jpg,GW/paint.jpg,,,,,,,,,,,,
null,,rt_plussign_withcolor,430595,green,,,,null,GW/wheelchair.jpg,GW/paint.jpg,,,,,,,,,,,,
1443,,rt_thecrossant_black,432103,black_plus_sign,,,,50,,,1,1,,,,,,,,,,
null,,color_black,432210,black_plus_sign,,,,null,,,,,,,,,,,,,,
null,,learn_phase(without_color),434217,black_plus_sign,,,,null,GW/soldier.jpg,GW/basket.jpg,,,,,,,,,,,,
null,,black_cross(without_color),435091,blue,,,,null,GW/soldier.jpg,GW/basket.jpg,,,,,,,,,,,,
null,,rt_plussign_withcolor,435595,blue,,,,null,GW/soldier.jpg,GW/basket.jpg,,,,,,,,,,,,
863.2999999523163,,rt_thecrossant_black,436731,black_plus_sign,,,,49,,,1,1,,,,,,,,,,
null,,color_black,436837,black_plus_sign,,,,null,,,,,,,,,,,,,,
null,,learn_phase(without_color),438845,black_plus_sign,,,,null,GW/paint.jpg,GW/barrel.jpg,,,,,,,,,,,,
null,,black_cross(without_color),439281,green,,,,null,GW/paint.jpg,GW/barrel.jpg,,,,,,,,,,,,
null,,rt_plussign_withcolor,439785,green,,,,null,GW/paint.jpg,GW/barrel.jpg,,,,,,,,,,,,
1475.0999999046326,,rt_thecrossant_black,441358,black_plus_sign,,,,50,,,1,1,,,,,,,,,,
null,,color_black,441468,black_plus_sign,,,,null,,,,,,,,,,,,,,
null,,learn_phase(without_color),443475,black_plus_sign,,,,null,GW/camera.jpg,GW/hat.jpg,,,,,,,,,,,,
null,,black_cross(without_color),444420,green,,,,null,GW/camera.jpg,GW/hat.jpg,,,,,,,,,,,,
null,,rt_plussign_withcolor,444924,green,,,,null,GW/camera.jpg,GW/hat.jpg,,,,,,,,,,,,
1476.9000000953674,,rt_thecrossant_black,445991,black_plus_sign,,,,50,,,1,1,,,,,,,,,,
null,,color_black,446097,black_plus_sign,,,,null,,,,,,,,,,,,,,
null,,learn_phase(without_color),448108,black_plus_sign,,,,null,GW/paint.jpg,GW/barrel.jpg,,,,,,,,,,,,
null,,black_cross(without_color),448610,green,,,,null,GW/paint.jpg,GW/barrel.jpg,,,,,,,,,,,,
null,,rt_plussign_withcolor,449114,green,,,,null,GW/paint.jpg,GW/barrel.jpg,,,,,,,,,,,,
2059.2000000476837,,rt_thecrossant_black,450635,black_plus_sign,,,,50,,,1,1,,,,,,,,,,
null,,color_black,450740,black_plus_sign,,,,null,,,,,,,,,,,,,,
null,,learn_phase(without_color),452744,black_plus_sign,,,,null,GW/paint.jpg,GW/globe.jpg,,,,,,,,,,,,
null,,black_cross(without_color),453700,green,,,,null,GW/paint.jpg,GW/globe.jpg,,,,,,,,,,,,
null,,rt_plussign_withcolor,454206,green,,,,null,GW/paint.jpg,GW/globe.jpg,,,,,,,,,,,,
null,,rt_thecrossant_black,455262,black_plus_sign,,,,null,,,,1,,,,,,,,,,
null,,color_black,455368,black_plus_sign,,,,null,,,,,,,,,,,,,,
null,,learn_phase(without_color),457376,black_plus_sign,,,,null,GW/soldier.jpg,GW/basket.jpg,,,,,,,,,,,,
null,,black_cross(without_color),458248,blue,,,,null,GW/soldier.jpg,GW/basket.jpg,,,,,,,,,,,,
null,,rt_plussign_withcolor,458752,blue,,,,null,GW/soldier.jpg,GW/basket.jpg,,,,,,,,,,,,
1281.8999998569489,,rt_thecrossant_black,459907,black_plus_sign,,,,49,,,1,1,,,,,,,,,,
null,,color_black,460013,black_plus_sign,,,,null,,,,,,,,,,,,,,
null,,learn_phase(without_color),462018,black_plus_sign,,,,null,GW/wheelchair.jpg,GW/snail.jpg,,,,,,,,,,,,
null,,black_cross(without_color),462512,blue,,,,null,GW/wheelchair.jpg,GW/snail.jpg,,,,,,,,,,,,
null,,rt_plussign_withcolor,463017,blue,,,,null,GW/wheelchair.jpg,GW/snail.jpg,,,,,,,,,,,,
1445.6000001430511,,rt_thecrossant_black,464535,black_plus_sign,,,,49,,,1,1,,,,,,,,,,
null,,color_black,464641,black_plus_sign,,,,null,,,,,,,,,,,,,,
null,,learn_phase(without_color),466649,black_plus_sign,,,,null,GW/jukebox.jpg,GW/soldier.jpg,,,,,,,,,,,,
null,,black_cross(without_color),467753,green,,,,null,GW/jukebox.jpg,GW/soldier.jpg,,,,,,,,,,,,
null,,rt_plussign_withcolor,468257,green,,,,null,GW/jukebox.jpg,GW/soldier.jpg,,,,,,,,,,,,
1005.7000000476837,,rt_thecrossant_black,469165,black_plus_sign,,,,50,,,1,1,,,,,,,,,,
null,,color_black,469271,black_plus_sign,,,,null,,,,,,,,,,,,,,
null,,learn_phase(without_color),471280,black_plus_sign,,,,null,GW/wheelchair.jpg,GW/snail.jpg,,,,,,,,,,,,
null,,black_cross(without_color),472023,blue,,,,null,GW/wheelchair.jpg,GW/snail.jpg,,,,,,,,,,,,
null,,rt_plussign_withcolor,472527,blue,,,,null,GW/wheelchair.jpg,GW/snail.jpg,,,,,,,,,,,,
1966.9000000953674,,rt_thecrossant_black,473795,black_plus_sign,,,,49,,,1,1,,,,,,,,,,
null,,color_black,473902,black_plus_sign,,,,null,,,,,,,,,,,,,,
null,,learn_phase(without_color),475909,black_plus_sign,,,,null,GW/gong.jpg,GW/dustpan.jpg,,,,,,,,,,,,
null,,black_cross(without_color),476600,blue,,,,null,GW/gong.jpg,GW/dustpan.jpg,,,,,,,,,,,,
null,,rt_plussign_withcolor,477103,blue,,,,null,GW/gong.jpg,GW/dustpan.jpg,,,,,,,,,,,,
1845.7000000476837,,rt_thecrossant_black,478422,black_plus_sign,,,,49,,,1,1,,,,,,,,,,
null,,color_black,478527,black_plus_sign,,,,null,,,,,,,,,,,,,,
null,,learn_phase(without_color),480536,black_plus_sign,,,,null,GW/soldier.jpg,GW/gong.jpg,,,,,,,,,,,,
null,,black_cross(without_color),481329,green,,,,null,GW/soldier.jpg,GW/gong.jpg,,,,,,,,,,,,
null,,rt_plussign_withcolor,481834,green,,,,null,GW/soldier.jpg,GW/gong.jpg,,,,,,,,,,,,
1690.5999999046326,,rt_thecrossant_black,483053,black_plus_sign,,,,50,,,1,1,,,,,,,,,,
null,,color_black,483160,black_plus_sign,,,,null,,,,,,,,,,,,,,
null,,learn_phase(without_color),485168,black_plus_sign,,,,null,GW/wheelchair.jpg,GW/snail.jpg,,,,,,,,,,,,
null,,black_cross(without_color),486050,green,,,,null,GW/wheelchair.jpg,GW/snail.jpg,,,,,,,,,,,,
null,,rt_plussign_withcolor,486552,green,,,,null,GW/wheelchair.jpg,GW/snail.jpg,,,,,,,,,,,,
1669.8999998569489,,rt_thecrossant_black,487682,black_plus_sign,,,,49,,,0,0.9787234042553191,,,,,,,,,,
null,,color_black,487788,black_plus_sign,,,,null,,,,,,,,,,,,,,
null,,learn_phase(without_color),489797,black_plus_sign,,,,null,GW/gong.jpg,GW/dustpan.jpg,,,,,,,,,,,,
null,,black_cross(without_color),490406,blue,,,,null,GW/gong.jpg,GW/dustpan.jpg,,,,,,,,,,,,
null,,rt_plussign_withcolor,490909,blue,,,,null,GW/gong.jpg,GW/dustpan.jpg,,,,,,,,,,,,
1621.7000000476837,,rt_thecrossant_black,492311,black_plus_sign,,,,49,,,1,0.9791666666666666,,,,,,,,,,
null,,color_black,492421,black_plus_sign,,,,null,,,,,,,,,,,,,,
null,,learn_phase(without_color),494429,black_plus_sign,,,,null,GW/basket.jpg,GW/camera.jpg,,,,,,,,,,,,
null,,black_cross(without_color),495164,blue,,,,null,GW/basket.jpg,GW/camera.jpg,,,,,,,,,,,,
null,,rt_plussign_withcolor,495670,blue,,,,null,GW/basket.jpg,GW/camera.jpg,,,,,,,,,,,,
1657.2999999523163,,rt_thecrossant_black,496944,black_plus_sign,,,,49,,,1,0.9795918367346939,,,,,,,,,,
null,,color_black,497047,black_plus_sign,,,,null,,,,,,,,,,,,,,
null,,learn_phase(without_color),499052,black_plus_sign,,,,null,GW/globe.jpg,GW/camera.jpg,,,,,,,,,,,,
null,,black_cross(without_color),500100,blue,,,,null,GW/globe.jpg,GW/camera.jpg,,,,,,,,,,,,
null,,rt_plussign_withcolor,500605,blue,,,,null,GW/globe.jpg,GW/camera.jpg,,,,,,,,,,,,
1608.7000000476837,,rt_thecrossant_black,501567,black_plus_sign,,,,49,,,1,0.98,,,,,,,,,,
null,,color_black,501673,black_plus_sign,,,,null,,,,,,,,,,,,,,
null,,learn_phase(without_color),503682,black_plus_sign,,,,null,GW/wheelchair.jpg,GW/globe.jpg,,,,,,,,,,,,
null,,black_cross(without_color),504753,blue,,,,null,GW/wheelchair.jpg,GW/globe.jpg,,,,,,,,,,,,
null,,rt_plussign_withcolor,505257,blue,,,,null,GW/wheelchair.jpg,GW/globe.jpg,,,,,,,,,,,,
1879.2000000476837,,rt_thecrossant_black,506201,black_plus_sign,,,,49,,,1,0.9803921568627451,,,,,,,,,,
null,,color_black,506307,black_plus_sign,,,,null,,,,,,,,,,,,,,
null,,learn_phase(without_color),508310,black_plus_sign,,,,null,GW/jukebox.jpg,GW/soldier.jpg,,,,,,,,,,,,
null,,black_cross(without_color),509281,green,,,,null,GW/jukebox.jpg,GW/soldier.jpg,,,,,,,,,,,,
null,,rt_plussign_withcolor,509786,green,,,,null,GW/jukebox.jpg,GW/soldier.jpg,,,,,,,,,,,,
1526.5,,rt_thecrossant_black,510828,black_plus_sign,,,,50,,,1,0.9807692307692307,,,,,,,,,,
null,,color_black,510936,black_plus_sign,,,,null,,,,,,,,,,,,,,
null,,learn_phase(without_color),512943,black_plus_sign,,,,null,GW/soldier.jpg,GW/gong.jpg,,,,,,,,,,,,
null,,black_cross(without_color),513674,green,,,,null,GW/soldier.jpg,GW/gong.jpg,,,,,,,,,,,,
null,,rt_plussign_withcolor,514177,green,,,,null,GW/soldier.jpg,GW/gong.jpg,,,,,,,,,,,,
2054.0999999046326,,rt_thecrossant_black,515457,black_plus_sign,,,,50,,,1,0.9811320754716981,,,,,,,,,,
null,,color_black,515564,black_plus_sign,,,,null,,,,,,,,,,,,,,
null,,learn_phase(without_color),517571,black_plus_sign,,,,null,GW/paint.jpg,GW/globe.jpg,,,,,,,,,,,,
null,,black_cross(without_color),518151,green,,,,null,GW/paint.jpg,GW/globe.jpg,,,,,,,,,,,,
null,,rt_plussign_withcolor,518656,green,,,,null,GW/paint.jpg,GW/globe.jpg,,,,,,,,,,,,
null,,rt_thecrossant_black,520090,black_plus_sign,,,,null,,,,0.9811320754716981,,,,,,,,,,
null,,color_black,520193,black_plus_sign,,,,null,,,,,,,,,,,,,,
null,,learn_phase(without_color),522199,black_plus_sign,,,,null,GW/basket.jpg,GW/camera.jpg,,,,,,,,,,,,
null,,black_cross(without_color),522949,blue,,,,null,GW/basket.jpg,GW/camera.jpg,,,,,,,,,,,,
null,,rt_plussign_withcolor,523451,blue,,,,null,GW/basket.jpg,GW/camera.jpg,,,,,,,,,,,,
944.7999999523163,,rt_thecrossant_black,524713,black_plus_sign,,,,50,,,0,0.9629629629629629,,,,,,,,,,
null,,warning_page,527717,warning,,,,null,,,,,,,,,,,,,,
null,,color_black,527823,black_plus_sign,,,,null,,,,,,,,,,,,,,
null,,learn_phase(without_color),529832,black_plus_sign,,,,null,GW/jukebox.jpg,GW/soldier.jpg,,,,,,,,,,,,
null,,black_cross(without_color),530758,green,,,,null,GW/jukebox.jpg,GW/soldier.jpg,,,,,,,,,,,,
null,,rt_plussign_withcolor,531262,green,,,,null,GW/jukebox.jpg,GW/soldier.jpg,,,,,,,,,,,,
1104.0999999046326,,rt_thecrossant_black,532351,black_plus_sign,,,,50,,,1,0.9636363636363636,,,,,,,,,,
null,,color_black,532454,black_plus_sign,,,,null,,,,,,,,,,,,,,
null,,learn_phase(without_color),534461,black_plus_sign,,,,null,GW/soldier.jpg,GW/basket.jpg,,,,,,,,,,,,
null,,black_cross(without_color),535009,blue,,,,null,GW/soldier.jpg,GW/basket.jpg,,,,,,,,,,,,
null,,rt_plussign_withcolor,535514,blue,,,,null,GW/soldier.jpg,GW/basket.jpg,,,,,,,,,,,,
1598.7999999523163,,rt_thecrossant_black,536979,black_plus_sign,,,,49,,,1,0.9642857142857143,,,,,,,,,,
null,,color_black,537086,black_plus_sign,,,,null,,,,,,,,,,,,,,
null,,learn_phase(without_color),539097,black_plus_sign,,,,null,GW/wheelchair.jpg,GW/paint.jpg,,,,,,,,,,,,
null,,black_cross(without_color),540131,green,,,,null,GW/wheelchair.jpg,GW/paint.jpg,,,,,,,,,,,,
null,,rt_plussign_withcolor,540637,green,,,,null,GW/wheelchair.jpg,GW/paint.jpg,,,,,,,,,,,,
1026.7999999523163,,rt_thecrossant_black,541613,black_plus_sign,,,,50,,,1,0.9649122807017544,,,,,,,,,,
null,,color_black,541721,black_plus_sign,,,,null,,,,,,,,,,,,,,
null,,learn_phase(without_color),543729,black_plus_sign,,,,null,GW/wheelchair.jpg,GW/snail.jpg,,,,,,,,,,,,
null,,black_cross(without_color),544311,blue,,,,null,GW/wheelchair.jpg,GW/snail.jpg,,,,,,,,,,,,
null,,rt_plussign_withcolor,544816,blue,,,,null,GW/wheelchair.jpg,GW/snail.jpg,,,,,,,,,,,,
1839.1000001430511,,rt_thecrossant_black,546244,black_plus_sign,,,,49,,,1,0.9655172413793104,,,,,,,,,,
null,,color_black,546351,black_plus_sign,,,,null,,,,,,,,,,,,,,
null,,learn_phase(without_color),548361,black_plus_sign,,,,null,GW/camera.jpg,GW/hat.jpg,,,,,,,,,,,,
null,,black_cross(without_color),549180,blue,,,,null,GW/camera.jpg,GW/hat.jpg,,,,,,,,,,,,
null,,rt_plussign_withcolor,549683,blue,,,,null,GW/camera.jpg,GW/hat.jpg,,,,,,,,,,,,
1236.0999999046326,,rt_thecrossant_black,550877,black_plus_sign,,,,49,,,1,0.9661016949152542,,,,,,,,,,
null,,color_black,550983,black_plus_sign,,,,null,,,,,,,,,,,,,,
null,,learn_phase(without_color),552989,black_plus_sign,,,,null,GW/wheelchair.jpg,GW/paint.jpg,,,,,,,,,,,,
null,,black_cross(without_color),553846,green,,,,null,GW/wheelchair.jpg,GW/paint.jpg,,,,,,,,,,,,
null,,rt_plussign_withcolor,554351,green,,,,null,GW/wheelchair.jpg,GW/paint.jpg,,,,,,,,,,,,
1483.7999999523163,,rt_thecrossant_black,555516,black_plus_sign,,,,50,,,1,0.9666666666666667,,,,,,,,,,
null,,color_black,555623,black_plus_sign,,,,null,,,,,,,,,,,,,,
null,,learn_phase(without_color),557631,black_plus_sign,,,,null,GW/basket.jpg,GW/teeth.jpg,,,,,,,,,,,,
null,,black_cross(without_color),558615,blue,,,,null,GW/basket.jpg,GW/teeth.jpg,,,,,,,,,,,,
null,,rt_plussign_withcolor,559119,blue,,,,null,GW/basket.jpg,GW/teeth.jpg,,,,,,,,,,,,
1178.2000000476837,,rt_thecrossant_black,560147,black_plus_sign,,,,49,,,1,0.9672131147540983,,,,,,,,,,
null,,color_black,560253,black_plus_sign,,,,null,,,,,,,,,,,,,,
null,,learn_phase(without_color),562262,black_plus_sign,,,,null,GW/gong.jpg,GW/dustpan.jpg,,,,,,,,,,,,
null,,black_cross(without_color),562936,green,,,,null,GW/gong.jpg,GW/dustpan.jpg,,,,,,,,,,,,
null,,rt_plussign_withcolor,563442,green,,,,null,GW/gong.jpg,GW/dustpan.jpg,,,,,,,,,,,,
1429.5,,rt_thecrossant_black,564795,black_plus_sign,,,,50,,,1,0.967741935483871,,,,,,,,,,
null,,color_black,564902,black_plus_sign,,,,null,,,,,,,,,,,,,,
null,,learn_phase(without_color),566915,black_plus_sign,,,,null,GW/basket.jpg,GW/teeth.jpg,,,,,,,,,,,,
null,,black_cross(without_color),567530,green,,,,null,GW/basket.jpg,GW/teeth.jpg,,,,,,,,,,,,
null,,rt_plussign_withcolor,568035,green,,,,null,GW/basket.jpg,GW/teeth.jpg,,,,,,,,,,,,
1177.7000000476837,,rt_thecrossant_black,569448,black_plus_sign,,,,50,,,1,0.9682539682539683,,,,,,,,,,
null,,color_black,569555,black_plus_sign,,,,null,,,,,,,,,,,,,,
null,,learn_phase(without_color),571564,black_plus_sign,,,,null,GW/basket.jpg,GW/camera.jpg,,,,,,,,,,,,
null,,black_cross(without_color),572630,green,,,,null,GW/basket.jpg,GW/camera.jpg,,,,,,,,,,,,
null,,rt_plussign_withcolor,573134,green,,,,null,GW/basket.jpg,GW/camera.jpg,,,,,,,,,,,,
973.6999998092651,,rt_thecrossant_black,574080,black_plus_sign,,,,50,,,1,0.96875,,,,,,,,,,
null,,color_black,574198,black_plus_sign,,,,null,,,,,,,,,,,,,,
null,,learn_phase(without_color),576208,black_plus_sign,,,,null,GW/teeth.jpg,GW/globe.jpg,,,,,,,,,,,,
null,,black_cross(without_color),577138,green,,,,null,GW/teeth.jpg,GW/globe.jpg,,,,,,,,,,,,
null,,rt_plussign_withcolor,577643,green,,,,null,GW/teeth.jpg,GW/globe.jpg,,,,,,,,,,,,
1663.1000001430511,,rt_thecrossant_black,578726,black_plus_sign,,,,50,,,1,0.9692307692307692,,,,,,,,,,
null,,color_black,578832,black_plus_sign,,,,null,,,,,,,,,,,,,,
null,,learn_phase(without_color),580839,black_plus_sign,,,,null,GW/basket.jpg,GW/teeth.jpg,,,,,,,,,,,,
null,,black_cross(without_color),581300,green,,,,null,GW/basket.jpg,GW/teeth.jpg,,,,,,,,,,,,
null,,rt_plussign_withcolor,581805,green,,,,null,GW/basket.jpg,GW/teeth.jpg,,,,,,,,,,,,
1410.3999998569489,,rt_thecrossant_black,583358,black_plus_sign,,,,50,,,1,0.9696969696969697,,,,,,,,,,
null,,color_black,583465,black_plus_sign,,,,null,,,,,,,,,,,,,,
null,,learn_phase(without_color),585469,black_plus_sign,,,,null,GW/camera.jpg,GW/hat.jpg,,,,,,,,,,,,
null,,black_cross(without_color),586417,green,,,,null,GW/camera.jpg,GW/hat.jpg,,,,,,,,,,,,
null,,rt_plussign_withcolor,586919,green,,,,null,GW/camera.jpg,GW/hat.jpg,,,,,,,,,,,,
967.7000000476837,,rt_thecrossant_black,587984,black_plus_sign,,,,50,,,1,0.9701492537313433,,,,,,,,,,
null,,color_black,588102,black_plus_sign,,,,null,,,,,,,,,,,,,,
null,,learn_phase(without_color),590107,black_plus_sign,,,,null,GW/basket.jpg,GW/teeth.jpg,,,,,,,,,,,,
null,,black_cross(without_color),591168,blue,,,,null,GW/basket.jpg,GW/teeth.jpg,,,,,,,,,,,,
null,,rt_plussign_withcolor,591672,blue,,,,null,GW/basket.jpg,GW/teeth.jpg,,,,,,,,,,,,
1260,,rt_thecrossant_black,592618,black_plus_sign,,,,49,,,1,0.9705882352941176,,,,,,,,,,
null,,color_black,592721,black_plus_sign,,,,null,,,,,,,,,,,,,,
null,,learn_phase(without_color),594724,black_plus_sign,,,,null,GW/teeth.jpg,GW/wheelchair.jpg,,,,,,,,,,,,
null,,black_cross(without_color),595819,green,,,,null,GW/teeth.jpg,GW/wheelchair.jpg,,,,,,,,,,,,
null,,rt_plussign_withcolor,596324,green,,,,null,GW/teeth.jpg,GW/wheelchair.jpg,,,,,,,,,,,,
1508.2000000476837,,rt_thecrossant_black,597241,black_plus_sign,,,,50,,,1,0.9710144927536232,,,,,,,,,,
null,,color_black,597348,black_plus_sign,,,,null,,,,,,,,,,,,,,
null,,learn_phase(without_color),599355,black_plus_sign,,,,null,GW/globe.jpg,GW/camera.jpg,,,,,,,,,,,,
null,,black_cross(without_color),599833,green,,,,null,GW/globe.jpg,GW/camera.jpg,,,,,,,,,,,,
null,,rt_plussign_withcolor,600337,green,,,,null,GW/globe.jpg,GW/camera.jpg,,,,,,,,,,,,
1611.0999999046326,,rt_thecrossant_black,601870,black_plus_sign,,,,50,,,1,0.9714285714285714,,,,,,,,,,
null,,color_black,601980,black_plus_sign,,,,null,,,,,,,,,,,,,,
null,,learn_phase(without_color),603987,black_plus_sign,,,,null,GW/teeth.jpg,GW/wheelchair.jpg,,,,,,,,,,,,
null,,black_cross(without_color),604511,blue,,,,null,GW/teeth.jpg,GW/wheelchair.jpg,,,,,,,,,,,,
null,,rt_plussign_withcolor,605018,blue,,,,null,GW/teeth.jpg,GW/wheelchair.jpg,,,,,,,,,,,,
900.7000000476837,,rt_thecrossant_black,606506,black_plus_sign,,,,49,,,1,0.971830985915493,,,,,,,,,,
null,,color_black,606609,black_plus_sign,,,,null,,,,,,,,,,,,,,
null,,learn_phase(without_color),608613,black_plus_sign,,,,null,GW/paint.jpg,GW/barrel.jpg,,,,,,,,,,,,
null,,black_cross(without_color),609703,blue,,,,null,GW/paint.jpg,GW/barrel.jpg,,,,,,,,,,,,
null,,rt_plussign_withcolor,610208,blue,,,,null,GW/paint.jpg,GW/barrel.jpg,,,,,,,,,,,,
811.1999998092651,,rt_thecrossant_black,611123,black_plus_sign,,,,49,,,1,0.9722222222222222,,,,,,,,,,
null,,color_black,611232,black_plus_sign,,,,null,,,,,,,,,,,,,,
null,,learn_phase(without_color),613235,black_plus_sign,,,,null,GW/basket.jpg,GW/teeth.jpg,,,,,,,,,,,,
null,,black_cross(without_color),613750,blue,,,,null,GW/basket.jpg,GW/teeth.jpg,,,,,,,,,,,,
null,,rt_plussign_withcolor,614252,blue,,,,null,GW/basket.jpg,GW/teeth.jpg,,,,,,,,,,,,
2032.8000001907349,,rt_thecrossant_black,615741,black_plus_sign,,,,49,,,1,0.9726027397260274,,,,,,,,,,
null,,color_black,615854,black_plus_sign,,,,null,,,,,,,,,,,,,,
null,,learn_phase(without_color),617858,black_plus_sign,,,,null,GW/globe.jpg,GW/camera.jpg,,,,,,,,,,,,
null,,black_cross(without_color),618281,green,,,,null,GW/globe.jpg,GW/camera.jpg,,,,,,,,,,,,
null,,rt_plussign_withcolor,618784,green,,,,null,GW/globe.jpg,GW/camera.jpg,,,,,,,,,,,,
843.4000000953674,,rt_thecrossant_black,620368,black_plus_sign,,,,50,,,1,0.972972972972973,,,,,,,,,,
null,,color_black,620470,black_plus_sign,,,,null,,,,,,,,,,,,,,
null,,learn_phase(without_color),622473,black_plus_sign,,,,null,GW/teeth.jpg,GW/wheelchair.jpg,,,,,,,,,,,,
null,,black_cross(without_color),623518,green,,,,null,GW/teeth.jpg,GW/wheelchair.jpg,,,,,,,,,,,,
265,,rt_plussign_withcolor,624026,green,,,,50,GW/teeth.jpg,GW/wheelchair.jpg,,,,,,,,,,,,
null,,rt_thecrossant_black,624998,black_plus_sign,,,,null,,,1,0.9733333333333334,,,,,,,,,,
null,,color_black,625107,black_plus_sign,,,,null,,,,,,,,,,,,,,
null,,learn_phase(without_color),627115,black_plus_sign,,,,null,GW/jukebox.jpg,GW/soldier.jpg,,,,,,,,,,,,
null,,black_cross(without_color),627747,green,,,,null,GW/jukebox.jpg,GW/soldier.jpg,,,,,,,,,,,,
null,,rt_plussign_withcolor,628252,green,,,,null,GW/jukebox.jpg,GW/soldier.jpg,,,,,,,,,,,,
1287.4000000953674,,rt_thecrossant_black,629631,black_plus_sign,,,,50,,,1,0.9736842105263158,,,,,,,,,,
null,,color_black,629739,black_plus_sign,,,,null,,,,,,,,,,,,,,
null,,learn_phase(without_color),631745,black_plus_sign,,,,null,GW/gong.jpg,GW/hat.jpg,,,,,,,,,,,,
null,,black_cross(without_color),632350,blue,,,,null,GW/gong.jpg,GW/hat.jpg,,,,,,,,,,,,
null,,rt_plussign_withcolor,632853,blue,,,,null,GW/gong.jpg,GW/hat.jpg,,,,,,,,,,,,
933.6999998092651,,rt_thecrossant_black,634257,black_plus_sign,,,,49,,,1,0.974025974025974,,,,,,,,,,
null,,color_black,634364,black_plus_sign,,,,null,,,,,,,,,,,,,,
null,,learn_phase(without_color),636371,black_plus_sign,,,,null,GW/basket.jpg,GW/teeth.jpg,,,,,,,,,,,,
null,,black_cross(without_color),637131,blue,,,,null,GW/basket.jpg,GW/teeth.jpg,,,,,,,,,,,,
null,,rt_plussign_withcolor,637634,blue,,,,null,GW/basket.jpg,GW/teeth.jpg,,,,,,,,,,,,
1054.0999999046326,,rt_thecrossant_black,638886,black_plus_sign,,,,49,,,1,0.9743589743589743,,,,,,,,,,
null,,color_black,638992,black_plus_sign,,,,null,,,,,,,,,,,,,,
null,,learn_phase(without_color),640998,black_plus_sign,,,,null,GW/basket.jpg,GW/camera.jpg,,,,,,,,,,,,
null,,black_cross(without_color),642059,green,,,,null,GW/basket.jpg,GW/camera.jpg,,,,,,,,,,,,
null,,rt_plussign_withcolor,642563,green,,,,null,GW/basket.jpg,GW/camera.jpg,,,,,,,,,,,,
1012.9000000953674,,rt_thecrossant_black,643526,black_plus_sign,,,,50,,,1,0.9746835443037974,,,,,,,,,,
null,,color_black,643634,black_plus_sign,,,,null,,,,,,,,,,,,,,
null,,learn_phase(without_color),645643,black_plus_sign,,,,null,GW/gong.jpg,GW/hat.jpg,,,,,,,,,,,,
null,,black_cross(without_color),646244,green,,,,null,GW/gong.jpg,GW/hat.jpg,,,,,,,,,,,,
null,,rt_plussign_withcolor,646751,green,,,,null,GW/gong.jpg,GW/hat.jpg,,,,,,,,,,,,
1911.2000000476837,,rt_thecrossant_black,648164,black_plus_sign,,,,50,,,1,0.975,,,,,,,,,,
null,,color_black,648269,black_plus_sign,,,,null,,,,,,,,,,,,,,
null,,learn_phase(without_color),650280,black_plus_sign,,,,null,GW/paint.jpg,GW/globe.jpg,,,,,,,,,,,,
null,,black_cross(without_color),651194,blue,,,,null,GW/paint.jpg,GW/globe.jpg,,,,,,,,,,,,
null,,rt_plussign_withcolor,651699,blue,,,,null,GW/paint.jpg,GW/globe.jpg,,,,,,,,,,,,
1064.2000000476837,,rt_thecrossant_black,652797,black_plus_sign,,,,49,,,1,0.9753086419753086,,,,,,,,,,
null,,color_black,652902,black_plus_sign,,,,null,,,,,,,,,,,,,,
null,,learn_phase(without_color),654926,black_plus_sign,,,,null,GW/paint.jpg,GW/barrel.jpg,,,,,,,,,,,,
null,,black_cross(without_color),655646,blue,,,,null,GW/paint.jpg,GW/barrel.jpg,,,,,,,,,,,,
null,,rt_plussign_withcolor,656149,blue,,,,null,GW/paint.jpg,GW/barrel.jpg,,,,,,,,,,,,
1187.2999999523163,,rt_thecrossant_black,657434,black_plus_sign,,,,49,,,1,0.975609756097561,,,,,,,,,,
null,,color_black,657537,black_plus_sign,,,,null,,,,,,,,,,,,,,
null,,learn_phase(without_color),659540,black_plus_sign,,,,null,GW/soldier.jpg,GW/gong.jpg,,,,,,,,,,,,
null,,black_cross(without_color),660576,blue,,,,null,GW/soldier.jpg,GW/gong.jpg,,,,,,,,,,,,
null,,rt_plussign_withcolor,661081,blue,,,,null,GW/soldier.jpg,GW/gong.jpg,,,,,,,,,,,,
994.2000000476837,,rt_thecrossant_black,662055,black_plus_sign,,,,49,,,1,0.9759036144578314,,,,,,,,,,
null,,color_black,662165,black_plus_sign,,,,null,,,,,,,,,,,,,,
null,,learn_phase(without_color),664169,black_plus_sign,,,,null,GW/teeth.jpg,GW/wheelchair.jpg,,,,,,,,,,,,
null,,black_cross(without_color),665009,blue,,,,null,GW/teeth.jpg,GW/wheelchair.jpg,,,,,,,,,,,,
null,,rt_plussign_withcolor,665513,blue,,,,null,GW/teeth.jpg,GW/wheelchair.jpg,,,,,,,,,,,,
1275,,rt_thecrossant_black,666683,black_plus_sign,,,,49,,,1,0.9761904761904762,,,,,,,,,,
null,,color_black,666790,black_plus_sign,,,,null,,,,,,,,,,,,,,
null,,learn_phase(without_color),668794,black_plus_sign,,,,null,GW/paint.jpg,GW/barrel.jpg,,,,,,,,,,,,
null,,black_cross(without_color),669488,green,,,,null,GW/paint.jpg,GW/barrel.jpg,,,,,,,,,,,,
null,,rt_plussign_withcolor,669993,green,,,,null,GW/paint.jpg,GW/barrel.jpg,,,,,,,,,,,,
1652.9000000953674,,rt_thecrossant_black,671310,black_plus_sign,,,,50,,,1,0.9764705882352941,,,,,,,,,,
null,,color_black,671421,black_plus_sign,,,,null,,,,,,,,,,,,,,
null,,learn_phase(without_color),673430,black_plus_sign,,,,null,GW/paint.jpg,GW/globe.jpg,,,,,,,,,,,,
null,,black_cross(without_color),674511,green,,,,null,GW/paint.jpg,GW/globe.jpg,,,,,,,,,,,,
null,,rt_plussign_withcolor,675016,green,,,,null,GW/paint.jpg,GW/globe.jpg,,,,,,,,,,,,
1404,,rt_thecrossant_black,675946,black_plus_sign,,,,50,,,1,0.9767441860465116,,,,,,,,,,
null,,color_black,676051,black_plus_sign,,,,null,,,,,,,,,,,,,,
null,,learn_phase(without_color),678054,black_plus_sign,,,,null,GW/teeth.jpg,GW/wheelchair.jpg,,,,,,,,,,,,
null,,black_cross(without_color),679029,blue,,,,null,GW/teeth.jpg,GW/wheelchair.jpg,,,,,,,,,,,,
null,,rt_plussign_withcolor,679536,blue,,,,null,GW/teeth.jpg,GW/wheelchair.jpg,,,,,,,,,,,,
1509.8000001907349,,rt_thecrossant_black,680572,black_plus_sign,,,,49,,,1,0.9770114942528736,,,,,,,,,,
null,,color_black,680679,black_plus_sign,,,,null,,,,,,,,,,,,,,
null,,learn_phase(without_color),682688,black_plus_sign,,,,null,GW/jukebox.jpg,GW/soldier.jpg,,,,,,,,,,,,
null,,black_cross(without_color),683714,blue,,,,null,GW/jukebox.jpg,GW/soldier.jpg,,,,,,,,,,,,
null,,rt_plussign_withcolor,684217,blue,,,,null,GW/jukebox.jpg,GW/soldier.jpg,,,,,,,,,,,,
1617.6999998092651,,rt_thecrossant_black,685201,black_plus_sign,,,,49,,,1,0.9772727272727273,,,,,,,,,,
null,,color_black,685313,black_plus_sign,,,,null,,,,,,,,,,,,,,
null,,learn_phase(without_color),687319,black_plus_sign,,,,null,GW/gong.jpg,GW/dustpan.jpg,,,,,,,,,,,,
null,,black_cross(without_color),688423,blue,,,,null,GW/gong.jpg,GW/dustpan.jpg,,,,,,,,,,,,
null,,rt_plussign_withcolor,688928,blue,,,,null,GW/gong.jpg,GW/dustpan.jpg,,,,,,,,,,,,
1521.5,,rt_thecrossant_black,689836,black_plus_sign,,,,49,,,1,0.9775280898876404,,,,,,,,,,
null,,color_black,689943,black_plus_sign,,,,null,,,,,,,,,,,,,,
null,,learn_phase(without_color),691951,black_plus_sign,,,,null,GW/basket.jpg,GW/camera.jpg,,,,,,,,,,,,
null,,black_cross(without_color),692532,blue,,,,null,GW/basket.jpg,GW/camera.jpg,,,,,,,,,,,,
null,,rt_plussign_withcolor,693038,blue,,,,null,GW/basket.jpg,GW/camera.jpg,,,,,,,,,,,,
1589.5,,rt_thecrossant_black,694472,black_plus_sign,,,,49,,,1,0.9777777777777777,,,,,,,,,,
null,,color_black,694580,black_plus_sign,,,,null,,,,,,,,,,,,,,
null,,learn_phase(without_color),696590,black_plus_sign,,,,null,GW/gong.jpg,GW/hat.jpg,,,,,,,,,,,,
null,,black_cross(without_color),697474,blue,,,,null,GW/gong.jpg,GW/hat.jpg,,,,,,,,,,,,
null,,rt_plussign_withcolor,697980,blue,,,,null,GW/gong.jpg,GW/hat.jpg,,,,,,,,,,,,
1028.9000000953674,,rt_thecrossant_black,699112,black_plus_sign,,,,49,,,1,0.978021978021978,,,,,,,,,,
null,,color_black,699219,black_plus_sign,,,,null,,,,,,,,,,,,,,
null,,learn_phase(without_color),701231,black_plus_sign,,,,null,GW/soldier.jpg,GW/basket.jpg,,,,,,,,,,,,
null,,black_cross(without_color),701869,green,,,,null,GW/soldier.jpg,GW/basket.jpg,,,,,,,,,,,,
null,,rt_plussign_withcolor,702375,green,,,,null,GW/soldier.jpg,GW/basket.jpg,,,,,,,,,,,,
1224.0999999046326,,rt_thecrossant_black,703746,black_plus_sign,,,,50,,,1,0.9782608695652174,,,,,,,,,,
null,,color_black,703853,black_plus_sign,,,,null,,,,,,,,,,,,,,
null,,learn_phase(without_color),705859,black_plus_sign,,,,null,GW/wheelchair.jpg,GW/globe.jpg,,,,,,,,,,,,
null,,black_cross(without_color),706414,blue,,,,null,GW/wheelchair.jpg,GW/globe.jpg,,,,,,,,,,,,
null,,rt_plussign_withcolor,706918,blue,,,,null,GW/wheelchair.jpg,GW/globe.jpg,,,,,,,,,,,,
1050.6000001430511,,rt_thecrossant_black,708370,black_plus_sign,,,,49,,,1,0.978494623655914,,,,,,,,,,
null,,color_black,708478,black_plus_sign,,,,null,,,,,,,,,,,,,,
null,,learn_phase(without_color),710485,black_plus_sign,,,,null,GW/teeth.jpg,GW/globe.jpg,,,,,,,,,,,,
null,,black_cross(without_color),710926,green,,,,null,GW/teeth.jpg,GW/globe.jpg,,,,,,,,,,,,
null,,rt_plussign_withcolor,711430,green,,,,null,GW/teeth.jpg,GW/globe.jpg,,,,,,,,,,,,
914.3000001907349,,rt_thecrossant_black,712998,black_plus_sign,,,,50,,,1,0.9787234042553191,,,,,,,,,,
null,,color_black,713104,black_plus_sign,,,,null,,,,,,,,,,,,,,
null,,learn_phase(without_color),715109,black_plus_sign,,,,null,GW/wheelchair.jpg,GW/globe.jpg,,,,,,,,,,,,
null,,black_cross(without_color),715637,blue,,,,null,GW/wheelchair.jpg,GW/globe.jpg,,,,,,,,,,,,
null,,rt_plussign_withcolor,716143,blue,,,,null,GW/wheelchair.jpg,GW/globe.jpg,,,,,,,,,,,,
679.5,,rt_thecrossant_black,717629,black_plus_sign,,,,50,,,0,0.968421052631579,,,,,,,,,,
null,,color_black,717737,black_plus_sign,,,,null,,,,,,,,,,,,,,
null,,learn_phase(without_color),719747,black_plus_sign,,,,null,GW/soldier.jpg,GW/gong.jpg,,,,,,,,,,,,
null,,black_cross(without_color),720375,green,,,,null,GW/soldier.jpg,GW/gong.jpg,,,,,,,,,,,,
null,,rt_plussign_withcolor,720881,green,,,,null,GW/soldier.jpg,GW/gong.jpg,,,,,,,,,,,,
748,,rt_thecrossant_black,722267,black_plus_sign,,,,50,,,1,0.96875,,,,,,,,,,
null,,color_black,722373,black_plus_sign,,,,null,,,,,,,,,,,,,,
null,,learn_phase(without_color),724384,black_plus_sign,,,,null,GW/teeth.jpg,GW/globe.jpg,,,,,,,,,,,,
null,,black_cross(without_color),725256,blue,,,,null,GW/teeth.jpg,GW/globe.jpg,,,,,,,,,,,,
null,,rt_plussign_withcolor,725764,blue,,,,null,GW/teeth.jpg,GW/globe.jpg,,,,,,,,,,,,
874.2000000476837,,rt_thecrossant_black,726908,black_plus_sign,,,,49,,,1,0.9690721649484536,,,,,,,,,,
null,,color_black,727013,black_plus_sign,,,,null,,,,,,,,,,,,,,
null,,learn_phase(without_color),729020,black_plus_sign,,,,null,GW/gong.jpg,GW/dustpan.jpg,,,,,,,,,,,,
null,,black_cross(without_color),729481,blue,,,,null,GW/gong.jpg,GW/dustpan.jpg,,,,,,,,,,,,
null,,rt_plussign_withcolor,729987,blue,,,,null,GW/gong.jpg,GW/dustpan.jpg,,,,,,,,,,,,
1008.9000000953674,,rt_thecrossant_black,731540,black_plus_sign,,,,50,,,0,0.9591836734693877,,,,,,,,,,
null,,color_black,731657,black_plus_sign,,,,null,,,,,,,,,,,,,,
null,,learn_phase(without_color),733664,black_plus_sign,,,,null,GW/jukebox.jpg,GW/soldier.jpg,,,,,,,,,,,,
null,,black_cross(without_color),734147,blue,,,,null,GW/jukebox.jpg,GW/soldier.jpg,,,,,,,,,,,,
null,,rt_plussign_withcolor,734653,blue,,,,null,GW/jukebox.jpg,GW/soldier.jpg,,,,,,,,,,,,
579.5,,rt_thecrossant_black,736197,black_plus_sign,,,,49,,,1,0.9595959595959596,,,,,,,,,,
null,,color_black,736303,black_plus_sign,,,,null,,,,,,,,,,,,,,
null,,learn_phase(without_color),738312,black_plus_sign,,,,null,GW/wheelchair.jpg,GW/paint.jpg,,,,,,,,,,,,
null,,black_cross(without_color),738737,blue,,,,null,GW/wheelchair.jpg,GW/paint.jpg,,,,,,,,,,,,
null,,rt_plussign_withcolor,739242,blue,,,,null,GW/wheelchair.jpg,GW/paint.jpg,,,,,,,,,,,,
738,,rt_thecrossant_black,740829,black_plus_sign,,,,49,,,1,0.96,,,,,,,,,,
null,,color_black,740935,black_plus_sign,,,,null,,,,,,,,,,,,,,
null,,learn_phase(without_color),742945,black_plus_sign,,,,null,GW/wheelchair.jpg,GW/globe.jpg,,,,,,,,,,,,
null,,black_cross(without_color),743520,blue,,,,null,GW/wheelchair.jpg,GW/globe.jpg,,,,,,,,,,,,
null,,rt_plussign_withcolor,744028,blue,,,,null,GW/wheelchair.jpg,GW/globe.jpg,,,,,,,,,,,,
1016.7999999523163,,rt_thecrossant_black,745461,black_plus_sign,,,,49,,,1,0.9603960396039604,,,,,,,,,,
null,,color_black,745568,black_plus_sign,,,,null,,,,,,,,,,,,,,
null,,learn_phase(without_color),747573,black_plus_sign,,,,null,GW/soldier.jpg,GW/basket.jpg,,,,,,,,,,,,
null,,black_cross(without_color),748051,green,,,,null,GW/soldier.jpg,GW/basket.jpg,,,,,,,,,,,,
null,,rt_plussign_withcolor,748555,green,,,,null,GW/soldier.jpg,GW/basket.jpg,,,,,,,,,,,,
988.0999999046326,,rt_thecrossant_black,750093,black_plus_sign,,,,49,,,0,0.9509803921568627,,,,,,,,,,
null,,color_black,750200,black_plus_sign,,,,null,,,,,,,,,,,,,,
null,,learn_phase(without_color),752211,black_plus_sign,,,,null,GW/basket.jpg,GW/camera.jpg,,,,,,,,,,,,
null,,black_cross(without_color),753252,green,,,,null,GW/basket.jpg,GW/camera.jpg,,,,,,,,,,,,
null,,rt_plussign_withcolor,753758,green,,,,null,GW/basket.jpg,GW/camera.jpg,,,,,,,,,,,,
694.2000000476837,,rt_thecrossant_black,754728,black_plus_sign,,,,50,,,1,0.9514563106796117,,,,,,,,,,
null,,color_black,754833,black_plus_sign,,,,null,,,,,,,,,,,,,,
null,,learn_phase(without_color),756844,black_plus_sign,,,,null,GW/globe.jpg,GW/camera.jpg,,,,,,,,,,,,
null,,black_cross(without_color),757285,blue,,,,null,GW/globe.jpg,GW/camera.jpg,,,,,,,,,,,,
null,,rt_plussign_withcolor,757791,blue,,,,null,GW/globe.jpg,GW/camera.jpg,,,,,,,,,,,,
1411.6000001430511,,rt_thecrossant_black,759363,black_plus_sign,,,,49,,,1,0.9519230769230769,,,,,,,,,,
null,,color_black,759471,black_plus_sign,,,,null,,,,,,,,,,,,,,
null,,learn_phase(without_color),761478,black_plus_sign,,,,null,GW/gong.jpg,GW/dustpan.jpg,,,,,,,,,,,,
null,,black_cross(without_color),762070,green,,,,null,GW/gong.jpg,GW/dustpan.jpg,,,,,,,,,,,,
null,,rt_plussign_withcolor,762578,green,,,,null,GW/gong.jpg,GW/dustpan.jpg,,,,,,,,,,,,
660.2000000476837,,rt_thecrossant_black,764003,black_plus_sign,,,,50,,,1,0.9523809523809523,,,,,,,,,,
null,,color_black,764112,black_plus_sign,,,,null,,,,,,,,,,,,,,
null,,learn_phase(without_color),766123,black_plus_sign,,,,null,GW/globe.jpg,GW/camera.jpg,,,,,,,,,,,,
null,,black_cross(without_color),767061,blue,,,,null,GW/globe.jpg,GW/camera.jpg,,,,,,,,,,,,
null,,rt_plussign_withcolor,767564,blue,,,,null,GW/globe.jpg,GW/camera.jpg,,,,,,,,,,,,
805.2999999523163,,rt_thecrossant_black,768637,black_plus_sign,,,,49,,,1,0.9528301886792453,,,,,,,,,,
null,,color_black,768744,black_plus_sign,,,,null,,,,,,,,,,,,,,
null,,learn_phase(without_color),770749,black_plus_sign,,,,null,GW/basket.jpg,GW/camera.jpg,,,,,,,,,,,,
null,,black_cross(without_color),771807,green,,,,null,GW/basket.jpg,GW/camera.jpg,,,,,,,,,,,,
null,,rt_plussign_withcolor,772325,green,,,,null,GW/basket.jpg,GW/camera.jpg,,,,,,,,,,,,
1151,,rt_thecrossant_black,773275,black_plus_sign,,,,50,,,1,0.9532710280373832,,,,,,,,,,
null,,color_black,773381,black_plus_sign,,,,null,,,,,,,,,,,,,,
null,,learn_phase(without_color),775388,black_plus_sign,,,,null,GW/gong.jpg,GW/hat.jpg,,,,,,,,,,,,
null,,black_cross(without_color),775950,green,,,,null,GW/gong.jpg,GW/hat.jpg,,,,,,,,,,,,
null,,rt_plussign_withcolor,776455,green,,,,null,GW/gong.jpg,GW/hat.jpg,,,,,,,,,,,,
1437.4000000953674,,rt_thecrossant_black,777905,black_plus_sign,,,,50,,,1,0.9537037037037037,,,,,,,,,,
null,,color_black,778012,black_plus_sign,,,,null,,,,,,,,,,,,,,
null,,learn_phase(without_color),780022,black_plus_sign,,,,null,GW/soldier.jpg,GW/basket.jpg,,,,,,,,,,,,
null,,black_cross(without_color),780835,blue,,,,null,GW/soldier.jpg,GW/basket.jpg,,,,,,,,,,,,
null,,rt_plussign_withcolor,781356,blue,,,,null,GW/soldier.jpg,GW/basket.jpg,,,,,,,,,,,,
944.2000000476837,,rt_thecrossant_black,782558,black_plus_sign,,,,49,,,1,0.9541284403669725,,,,,,,,,,
null,,color_black,782666,black_plus_sign,,,,null,,,,,,,,,,,,,,
null,,learn_phase(without_color),784677,black_plus_sign,,,,null,GW/wheelchair.jpg,GW/globe.jpg,,,,,,,,,,,,
null,,black_cross(without_color),785237,blue,,,,null,GW/wheelchair.jpg,GW/globe.jpg,,,,,,,,,,,,
null,,rt_plussign_withcolor,785744,blue,,,,null,GW/wheelchair.jpg,GW/globe.jpg,,,,,,,,,,,,
1071.7000000476837,,rt_thecrossant_black,787195,black_plus_sign,,,,49,,,1,0.9545454545454546,,,,,,,,,,
null,,color_black,787302,black_plus_sign,,,,null,,,,,,,,,,,,,,
null,,learn_phase(without_color),789313,black_plus_sign,,,,null,GW/gong.jpg,GW/hat.jpg,,,,,,,,,,,,
null,,black_cross(without_color),789903,blue,,,,null,GW/gong.jpg,GW/hat.jpg,,,,,,,,,,,,
null,,rt_plussign_withcolor,790407,blue,,,,null,GW/gong.jpg,GW/hat.jpg,,,,,,,,,,,,
null,,rt_thecrossant_black,791846,black_plus_sign,,,,null,,,,0.9545454545454546,,,,,,,,,,
null,,color_black,791952,black_plus_sign,,,,null,,,,,,,,,,,,,,
null,,learn_phase(without_color),793963,black_plus_sign,,,,null,GW/paint.jpg,GW/barrel.jpg,,,,,,,,,,,,
null,,black_cross(without_color),794427,blue,,,,null,GW/paint.jpg,GW/barrel.jpg,,,,,,,,,,,,
null,,rt_plussign_withcolor,794930,blue,,,,null,GW/paint.jpg,GW/barrel.jpg,,,,,,,,,,,,
864.1000001430511,,rt_thecrossant_black,796479,black_plus_sign,,,,49,,,1,0.954954954954955,,,,,,,,,,
null,,color_black,796583,black_plus_sign,,,,null,,,,,,,,,,,,,,
null,,learn_phase(without_color),798594,black_plus_sign,,,,null,GW/paint.jpg,GW/globe.jpg,,,,,,,,,,,,
null,,black_cross(without_color),799462,green,,,,null,GW/paint.jpg,GW/globe.jpg,,,,,,,,,,,,
null,,rt_plussign_withcolor,799967,green,,,,null,GW/paint.jpg,GW/globe.jpg,,,,,,,,,,,,
722.3000001907349,,rt_thecrossant_black,801111,black_plus_sign,,,,50,,,1,0.9553571428571429,,,,,,,,,,
null,,color_black,801218,black_plus_sign,,,,null,,,,,,,,,,,,,,
null,,learn_phase(without_color),803223,black_plus_sign,,,,null,GW/soldier.jpg,GW/basket.jpg,,,,,,,,,,,,
null,,black_cross(without_color),803950,blue,,,,null,GW/soldier.jpg,GW/basket.jpg,,,,,,,,,,,,
null,,rt_plussign_withcolor,804456,blue,,,,null,GW/soldier.jpg,GW/basket.jpg,,,,,,,,,,,,
1014.7999999523163,,rt_thecrossant_black,805740,black_plus_sign,,,,49,,,1,0.9557522123893806,,,,,,,,,,
null,,color_black,805848,black_plus_sign,,,,null,,,,,,,,,,,,,,
null,,learn_phase(without_color),807852,black_plus_sign,,,,null,GW/camera.jpg,GW/hat.jpg,,,,,,,,,,,,
null,,black_cross(without_color),808554,green,,,,null,GW/camera.jpg,GW/hat.jpg,,,,,,,,,,,,
null,,rt_plussign_withcolor,809063,green,,,,null,GW/camera.jpg,GW/hat.jpg,,,,,,,,,,,,
830.7000000476837,,rt_thecrossant_black,810377,black_plus_sign,,,,50,,,1,0.956140350877193,,,,,,,,,,
null,,color_black,810485,black_plus_sign,,,,null,,,,,,,,,,,,,,
null,,learn_phase(without_color),812493,black_plus_sign,,,,null,GW/teeth.jpg,GW/globe.jpg,,,,,,,,,,,,
null,,black_cross(without_color),813461,green,,,,null,GW/teeth.jpg,GW/globe.jpg,,,,,,,,,,,,
null,,rt_plussign_withcolor,813967,green,,,,null,GW/teeth.jpg,GW/globe.jpg,,,,,,,,,,,,
911.9000000953674,,rt_thecrossant_black,815017,black_plus_sign,,,,50,,,1,0.9565217391304348,,,,,,,,,,
null,,color_black,815125,black_plus_sign,,,,null,,,,,,,,,,,,,,
null,,learn_phase(without_color),817135,black_plus_sign,,,,null,GW/globe.jpg,GW/camera.jpg,,,,,,,,,,,,
null,,black_cross(without_color),817578,green,,,,null,GW/globe.jpg,GW/camera.jpg,,,,,,,,,,,,
null,,rt_plussign_withcolor,818085,green,,,,null,GW/globe.jpg,GW/camera.jpg,,,,,,,,,,,,
1231.5999999046326,,rt_thecrossant_black,819659,black_plus_sign,,,,50,,,1,0.9568965517241379,,,,,,,,,,
null,,color_black,819768,black_plus_sign,,,,null,,,,,,,,,,,,,,
null,,learn_phase(without_color),821780,black_plus_sign,,,,null,GW/paint.jpg,GW/barrel.jpg,,,,,,,,,,,,
null,,black_cross(without_color),822600,blue,,,,null,GW/paint.jpg,GW/barrel.jpg,,,,,,,,,,,,
null,,rt_plussign_withcolor,823109,blue,,,,null,GW/paint.jpg,GW/barrel.jpg,,,,,,,,,,,,
849.2000000476837,,rt_thecrossant_black,824305,black_plus_sign,,,,49,,,1,0.9572649572649573,,,,,,,,,,
null,,color_black,824411,black_plus_sign,,,,null,,,,,,,,,,,,,,
null,,learn_phase(without_color),826417,black_plus_sign,,,,null,GW/teeth.jpg,GW/globe.jpg,,,,,,,,,,,,
null,,black_cross(without_color),827209,blue,,,,null,GW/teeth.jpg,GW/globe.jpg,,,,,,,,,,,,
null,,rt_plussign_withcolor,827714,blue,,,,null,GW/teeth.jpg,GW/globe.jpg,,,,,,,,,,,,
1039.8000001907349,,rt_thecrossant_black,828929,black_plus_sign,,,,49,,,1,0.9576271186440678,,,,,,,,,,
null,,color_black,829037,black_plus_sign,,,,null,,,,,,,,,,,,,,
null,,learn_phase(without_color),831047,black_plus_sign,,,,null,GW/basket.jpg,GW/teeth.jpg,,,,,,,,,,,,
null,,black_cross(without_color),831540,green,,,,null,GW/basket.jpg,GW/teeth.jpg,,,,,,,,,,,,
null,,rt_plussign_withcolor,832048,green,,,,null,GW/basket.jpg,GW/teeth.jpg,,,,,,,,,,,,
1407.2000000476837,,rt_thecrossant_black,833573,black_plus_sign,,,,50,,,1,0.957983193277311,,,,,,,,,,
null,,color_black,833683,black_plus_sign,,,,null,,,,,,,,,,,,,,
null,,learn_phase(without_color),835694,black_plus_sign,,,,null,GW/gong.jpg,GW/dustpan.jpg,,,,,,,,,,,,
null,,black_cross(without_color),836363,blue,,,,null,GW/gong.jpg,GW/dustpan.jpg,,,,,,,,,,,,
null,,rt_plussign_withcolor,836870,blue,,,,null,GW/gong.jpg,GW/dustpan.jpg,,,,,,,,,,,,
740.2000000476837,,rt_thecrossant_black,838219,black_plus_sign,,,,49,,,1,0.9583333333333334,,,,,,,,,,
null,,color_black,838325,black_plus_sign,,,,null,,,,,,,,,,,,,,
null,,learn_phase(without_color),840334,black_plus_sign,,,,null,GW/teeth.jpg,GW/globe.jpg,,,,,,,,,,,,
null,,black_cross(without_color),840848,blue,,,,null,GW/teeth.jpg,GW/globe.jpg,,,,,,,,,,,,
null,,rt_plussign_withcolor,841356,blue,,,,null,GW/teeth.jpg,GW/globe.jpg,,,,,,,,,,,,
1005.3000001907349,,rt_thecrossant_black,842856,black_plus_sign,,,,49,,,1,0.9586776859504132,,,,,,,,,,
null,,color_black,842969,black_plus_sign,,,,null,,,,,,,,,,,,,,
null,,learn_phase(without_color),844980,black_plus_sign,,,,null,GW/teeth.jpg,GW/wheelchair.jpg,,,,,,,,,,,,
null,,black_cross(without_color),845817,blue,,,,null,GW/teeth.jpg,GW/wheelchair.jpg,,,,,,,,,,,,
null,,rt_plussign_withcolor,846326,blue,,,,null,GW/teeth.jpg,GW/wheelchair.jpg,,,,,,,,,,,,
796.2000000476837,,rt_thecrossant_black,847504,black_plus_sign,,,,50,,,0,0.9508196721311475,,,,,,,,,,
null,,color_black,847613,black_plus_sign,,,,null,,,,,,,,,,,,,,
null,,learn_phase(without_color),849623,black_plus_sign,,,,null,GW/soldier.jpg,GW/basket.jpg,,,,,,,,,,,,
null,,black_cross(without_color),850158,green,,,,null,GW/soldier.jpg,GW/basket.jpg,,,,,,,,,,,,
null,,rt_plussign_withcolor,850664,green,,,,null,GW/soldier.jpg,GW/basket.jpg,,,,,,,,,,,,
1171.8000001907349,,rt_thecrossant_black,852147,black_plus_sign,,,,50,,,1,0.9512195121951219,,,,,,,,,,
null,,color_black,852256,black_plus_sign,,,,null,,,,,,,,,,,,,,
null,,learn_phase(without_color),854269,black_plus_sign,,,,null,GW/wheelchair.jpg,GW/snail.jpg,,,,,,,,,,,,
null,,black_cross(without_color),854777,green,,,,null,GW/wheelchair.jpg,GW/snail.jpg,,,,,,,,,,,,
null,,rt_plussign_withcolor,855283,green,,,,null,GW/wheelchair.jpg,GW/snail.jpg,,,,,,,,,,,,
859.0999999046326,,rt_thecrossant_black,856788,black_plus_sign,,,,50,,,1,0.9516129032258065,,,,,,,,,,
null,,color_black,856896,black_plus_sign,,,,null,,,,,,,,,,,,,,
null,,learn_phase(without_color),858908,black_plus_sign,,,,null,GW/teeth.jpg,GW/globe.jpg,,,,,,,,,,,,
null,,black_cross(without_color),859380,blue,,,,null,GW/teeth.jpg,GW/globe.jpg,,,,,,,,,,,,
null,,rt_plussign_withcolor,859885,blue,,,,null,GW/teeth.jpg,GW/globe.jpg,,,,,,,,,,,,
988.2000000476837,,rt_thecrossant_black,861424,black_plus_sign,,,,49,,,1,0.952,,,,,,,,,,
null,,color_black,861532,black_plus_sign,,,,null,,,,,,,,,,,,,,
25638.200000047684,,intro_1,887178,instruct,,0,Start,,,,,,,,,,,,,,,
5446.600000143051,,directmemory_phase,892628,GW/wheelchair.jpg,,,,49,,,1,1,GW/teeth.jpg,GW/hat.jpg,GW/basket.jpg,GW/teeth.jpg,GW/basket.jpg,GW/hat.jpg,1,,,
null,,html-keyboard-response,893634,<p></p>,,,,null,,,,,,,,,,,,,,
3937.5,,directmemory_phase,897580,GW/camera.jpg,,,,51,,,0,0.5,GW/basket.jpg,GW/snail.jpg,GW/teeth.jpg,GW/basket.jpg,GW/teeth.jpg,GW/snail.jpg,0.5,closer,,
null,,html-keyboard-response,898585,<p></p>,,,,null,,,,,,,,,,,,,,
1945.3000001907349,,directmemory_phase,900536,GW/soldier.jpg,,,,50,,,0,0.3333333333333333,GW/jukebox.jpg,GW/snail.jpg,GW/hat.jpg,GW/jukebox.jpg,GW/hat.jpg,GW/snail.jpg,0.5,closer,,
null,,html-keyboard-response,901542,<p></p>,,,,null,,,,,,,,,,,,,,
3170.7000000476837,,directmemory_phase,904719,GW/globe.jpg,,,,50,,,0,0.25,GW/jukebox.jpg,GW/barrel.jpg,GW/wheelchair.jpg,GW/wheelchair.jpg,GW/barrel.jpg,GW/jukebox.jpg,0.5,closer,,
null,,html-keyboard-response,905725,<p></p>,,,,null,,,,,,,,,,,,,,
1393.1999998092651,,directmemory_phase,907126,GW/soldier.jpg,,,,49,,,0,0.2,GW/snail.jpg,GW/camera.jpg,GW/gong.jpg,GW/gong.jpg,GW/camera.jpg,GW/snail.jpg,0.5,closer,,
null,,html-keyboard-response,908129,<p></p>,,,,null,,,,,,,,,,,,,,
2729.2000000476837,,directmemory_phase,910862,GW/wheelchair.jpg,,,,51,,,0,0.16666666666666666,GW/paint.jpg,GW/hat.jpg,GW/camera.jpg,GW/paint.jpg,GW/camera.jpg,GW/hat.jpg,0.5,closer,,
null,,html-keyboard-response,911867,<p></p>,,,,null,,,,,,,,,,,,,,
1870.9000000953674,,directmemory_phase,913743,GW/hat.jpg,,,,50,,,1,0.2857142857142857,GW/globe.jpg,GW/camera.jpg,GW/teeth.jpg,GW/camera.jpg,GW/globe.jpg,GW/teeth.jpg,1,,,
null,,html-keyboard-response,914748,<p></p>,,,,null,,,,,,,,,,,,,,
3530,,directmemory_phase,918287,GW/teeth.jpg,,,,51,,,0,0.25,GW/snail.jpg,GW/basket.jpg,GW/hat.jpg,GW/basket.jpg,GW/snail.jpg,GW/hat.jpg,0.5,closer,,
null,,html-keyboard-response,919290,<p></p>,,,,null,,,,,,,,,,,,,,
3432.399999856949,,directmemory_phase,922731,GW/snail.jpg,,,,51,,,0,0.2222222222222222,GW/wheelchair.jpg,GW/hat.jpg,GW/paint.jpg,GW/wheelchair.jpg,GW/paint.jpg,GW/hat.jpg,0.5,closer,,
null,,html-keyboard-response,923736,<p></p>,,,,null,,,,,,,,,,,,,,
2790.0999999046326,,directmemory_phase,926534,GW/teeth.jpg,,,,49,,,0,0.2,GW/dustpan.jpg,GW/snail.jpg,GW/globe.jpg,GW/globe.jpg,GW/snail.jpg,GW/dustpan.jpg,0.5,closer,,
null,,html-keyboard-response,927538,<p></p>,,,,null,,,,,,,,,,,,,,
3689.899999856949,,directmemory_phase,931236,GW/wheelchair.jpg,,,,50,,,0,0.18181818181818182,GW/jukebox.jpg,GW/basket.jpg,GW/snail.jpg,GW/snail.jpg,GW/basket.jpg,GW/jukebox.jpg,0.5,closer,,
null,,html-keyboard-response,932241,<p></p>,,,,null,,,,,,,,,,,,,,
3183.5999999046326,,directmemory_phase,935432,GW/barrel.jpg,,,,49,,,1,0.25,GW/paint.jpg,GW/camera.jpg,GW/globe.jpg,GW/paint.jpg,GW/globe.jpg,GW/camera.jpg,1,,,
null,,html-keyboard-response,936435,<p></p>,,,,null,,,,,,,,,,,,,,
1836,,directmemory_phase,938275,GW/soldier.jpg,,,,51,,,0,0.23076923076923078,GW/dustpan.jpg,GW/basket.jpg,GW/globe.jpg,GW/basket.jpg,GW/dustpan.jpg,GW/globe.jpg,0.5,closer,,
null,,html-keyboard-response,939279,<p></p>,,,,null,,,,,,,,,,,,,,
3724.5999999046326,,directmemory_phase,943010,GW/globe.jpg,,,,51,,,1,0.2857142857142857,GW/gong.jpg,GW/basket.jpg,GW/paint.jpg,GW/paint.jpg,GW/basket.jpg,GW/gong.jpg,1,,,
null,,html-keyboard-response,944014,<p></p>,,,,null,,,,,,,,,,,,,,
2548.2000000476837,,directmemory_phase,946572,GW/basket.jpg,,,,49,,,1,0.3333333333333333,GW/soldier.jpg,GW/paint.jpg,GW/gong.jpg,GW/soldier.jpg,GW/gong.jpg,GW/paint.jpg,1,,,
null,,html-keyboard-response,947590,<p></p>,,,,null,,,,,,,,,,,,,,
2740.4000000953674,,directmemory_phase,950332,GW/camera.jpg,,,,51,,,1,0.375,GW/jukebox.jpg,GW/teeth.jpg,GW/globe.jpg,GW/globe.jpg,GW/teeth.jpg,GW/jukebox.jpg,1,,,
null,,html-keyboard-response,951337,<p></p>,,,,null,,,,,,,,,,,,,,
2121.100000143051,,directmemory_phase,953462,GW/gong.jpg,,,,50,,,0,0.35294117647058826,GW/teeth.jpg,GW/camera.jpg,GW/hat.jpg,GW/hat.jpg,GW/camera.jpg,GW/teeth.jpg,0.5,closer,,
null,,html-keyboard-response,954466,<p></p>,,,,null,,,,,,,,,,,,,,
1260.7999999523163,,directmemory_phase,955731,GW/paint.jpg,,,,51,,,1,0.3888888888888889,GW/gong.jpg,GW/snail.jpg,GW/barrel.jpg,GW/barrel.jpg,GW/snail.jpg,GW/gong.jpg,1,,,
null,,html-keyboard-response,956734,<p></p>,,,,null,,,,,,,,,,,,,,
2302.9000000953674,,directmemory_phase,959040,GW/basket.jpg,,,,49,,,0,0.3684210526315789,GW/hat.jpg,GW/camera.jpg,GW/dustpan.jpg,GW/camera.jpg,GW/hat.jpg,GW/dustpan.jpg,0.5,closer,,
null,,html-keyboard-response,960045,<p></p>,,,,null,,,,,,,,,,,,,,
3215,,directmemory_phase,963268,GW/paint.jpg,,,,51,,,1,0.4,GW/soldier.jpg,GW/snail.jpg,GW/globe.jpg,GW/globe.jpg,GW/snail.jpg,GW/soldier.jpg,1,,,
null,,html-keyboard-response,964272,<p></p>,,,,null,,,,,,,,,,,,,,
1359.2000000476837,,directmemory_phase,965637,GW/gong.jpg,,,,50,,,0,0.38095238095238093,GW/wheelchair.jpg,GW/jukebox.jpg,GW/soldier.jpg,GW/soldier.jpg,GW/jukebox.jpg,GW/wheelchair.jpg,0.5,closer,,
null,,html-keyboard-response,966647,<p></p>,,,,null,,,,,,,,,,,,,,
1735.3999998569489,,directmemory_phase,968390,GW/paint.jpg,,,,49,,,0,0.36363636363636365,GW/basket.jpg,GW/teeth.jpg,GW/wheelchair.jpg,GW/wheelchair.jpg,GW/teeth.jpg,GW/basket.jpg,0.5,closer,,
null,,html-keyboard-response,969395,<p></p>,,,,null,,,,,,,,,,,,,,
1353.4000000953674,,directmemory_phase,970757,GW/jukebox.jpg,,,,50,,,0,0.34782608695652173,GW/soldier.jpg,GW/dustpan.jpg,GW/basket.jpg,GW/soldier.jpg,GW/basket.jpg,GW/dustpan.jpg,0.5,closer,,
null,,html-keyboard-response,971761,<p></p>,,,,null,,,,,,,,,,,,,,
3285,,directmemory_phase,975052,GW/basket.jpg,,,,49,,,0,0.3333333333333333,GW/paint.jpg,GW/gong.jpg,GW/teeth.jpg,GW/teeth.jpg,GW/gong.jpg,GW/paint.jpg,0.5,closer,,
null,,html-keyboard-response,976058,<p></p>,,,,null,,,,,,,,,,,,,,
1111.0999999046326,,directmemory_phase,977176,GW/camera.jpg,,,,50,,,0,0.32,GW/hat.jpg,GW/barrel.jpg,GW/wheelchair.jpg,GW/hat.jpg,GW/wheelchair.jpg,GW/barrel.jpg,0.5,closer,,
null,,html-keyboard-response,978180,<p></p>,,,,null,,,,,,,,,,,,,,
2468.800000190735,,directmemory_phase,980657,GW/gong.jpg,,,,49,,,0,0.3076923076923077,GW/camera.jpg,GW/dustpan.jpg,GW/teeth.jpg,GW/dustpan.jpg,GW/camera.jpg,GW/teeth.jpg,0.5,closer,,
null,,html-keyboard-response,981663,<p></p>,,,,null,,,,,,,,,,,,,,
2023.6000001430511,,directmemory_phase,983694,GW/teeth.jpg,,,,49,,,1,0.3333333333333333,GW/wheelchair.jpg,GW/jukebox.jpg,GW/camera.jpg,GW/wheelchair.jpg,GW/camera.jpg,GW/jukebox.jpg,1,,,
null,,html-keyboard-response,984697,<p></p>,,,,null,,,,,,,,,,,,,,
2303.7999999523163,,directmemory_phase,987003,GW/hat.jpg,,,,49,,,1,0.35714285714285715,GW/gong.jpg,GW/teeth.jpg,GW/basket.jpg,GW/gong.jpg,GW/basket.jpg,GW/teeth.jpg,1,,,
null,,html-keyboard-response,988007,<p></p>,,,,null,,,,,,,,,,,,,,
2263.199999809265,,directmemory_phase,990274,GW/globe.jpg,,,,51,,,1,0.3793103448275862,GW/jukebox.jpg,GW/hat.jpg,GW/camera.jpg,GW/camera.jpg,GW/hat.jpg,GW/jukebox.jpg,1,,,
null,,html-keyboard-response,991278,<p></p>,,,,null,,,,,,,,,,,,,,
1855.4000000953674,,directmemory_phase,993140,GW/dustpan.jpg,,,,51,,,1,0.4,GW/teeth.jpg,GW/soldier.jpg,GW/gong.jpg,GW/gong.jpg,GW/soldier.jpg,GW/teeth.jpg,1,,,
null,,html-keyboard-response,994146,<p></p>,,,,null,,,,,,,,,,,,,,
1871,,directmemory_phase,996025,GW/globe.jpg,,,,49,,,0,0.3870967741935484,GW/jukebox.jpg,GW/basket.jpg,GW/teeth.jpg,GW/teeth.jpg,GW/basket.jpg,GW/jukebox.jpg,0.5,closer,,
null,,html-keyboard-response,997029,<p></p>,,,,null,,,,,,,,,,,,,,
null,,directmemory_phase,1003536,,,,,null,,,0,0.375,,,,,,,0,,,
null,,html-keyboard-response,1004545,<p></p>,,,,null,,,,,,,,,,,,,,
30591,,intro_1,1035138,instruct,,0,,,,,,,,,,,,,,,,
19093.299999952316,,intro_2,1054234,instruct,,1,Next,,,,,,,,,,,,,,,
5600.700000047684,,intro_3,1059837,instruct,,1,Next,,,,,,,,,,,,,,,
8186.899999856949,,intro_4,1068026,instruct,,1,Next,,,,,,,,,,,,,,,
6565.700000047684,,intro_5,1074594,instruct,,1,Next,,,,,,,,,,,,,,,
2269.300000190735,,intro_6,1076866,instruct,,1,Next,,,,,,,,,,,,,,,
1813.5,,intro_7,1078682,instruct,,1,Next,,,,,,,,,,,,,,,
11788.400000095367,,intro_8,1090473,instruct,,1,Next,,,,,,,,,,,,,,,
3882.2999999523163,,shortestpath_phase,1094359,GW/snail.jpg,,,,50,GW/soldier.jpg,GW/dustpan.jpg,0,0,,,,GW/soldier.jpg,,,,,Two Edge Diff,Four Edge Six Edge
null,,html-keyboard-response,1095365,<p></p>,,,,null,,,,,,,,,,,,,,
1472.7999999523163,,shortestpath_phase,1096846,GW/dustpan.jpg,,,,49,GW/barrel.jpg,GW/globe.jpg,0,0,,,,GW/globe.jpg,,,,,Two Edge Diff,Four Edge Six Edge
null,,html-keyboard-response,1097851,<p></p>,,,,null,,,,,,,,,,,,,,
3354.2000000476837,,shortestpath_phase,1101210,GW/soldier.jpg,,,,49,GW/barrel.jpg,GW/camera.jpg,0,0,,,,GW/camera.jpg,,,,,Three Edge Diff,Two Edge Five Edge
null,,html-keyboard-response,1102221,<p></p>,,,,null,,,,,,,,,,,,,,
2817.4000000953674,,shortestpath_phase,1105046,GW/dustpan.jpg,,,,50,GW/teeth.jpg,GW/snail.jpg,0,0,,,,GW/teeth.jpg,,,,,Two Edge Diff,Four Edge Six Edge
null,,html-keyboard-response,1106051,<p></p>,,,,null,,,,,,,,,,,,,,
1161.7999999523163,,shortestpath_phase,1107221,GW/barrel.jpg,,,,49,GW/dustpan.jpg,GW/soldier.jpg,0,0,,,,GW/soldier.jpg,,,,,One Edge Diff,Five Edge Six Edge
null,,html-keyboard-response,1108226,<p></p>,,,,null,,,,,,,,,,,,,,
1176.5,,shortestpath_phase,1109411,GW/teeth.jpg,,,,50,GW/dustpan.jpg,GW/paint.jpg,1,0.16666666666666666,,,,GW/paint.jpg,,,,,Two Edge Diff,Two Edge Four Edge
null,,html-keyboard-response,1110415,<p></p>,,,,null,,,,,,,,,,,,,,
1409.7000000476837,,shortestpath_phase,1111832,GW/hat.jpg,,,,49,GW/teeth.jpg,GW/dustpan.jpg,0,0.14285714285714285,,,,GW/dustpan.jpg,,,,,One Edge Diff,Two Edge Three Edge
null,,html-keyboard-response,1112837,<p></p>,,,,null,,,,,,,,,,,,,,
1069,,shortestpath_phase,1113914,GW/soldier.jpg,,,,50,GW/barrel.jpg,GW/teeth.jpg,1,0.25,,,,GW/teeth.jpg,,,,,Three Edge Diff,Two Edge Five Edge
null,,html-keyboard-response,1114919,<p></p>,,,,null,,,,,,,,,,,,,,
1184.5999999046326,,shortestpath_phase,1116111,GW/globe.jpg,,,,49,GW/gong.jpg,GW/basket.jpg,0,0.2222222222222222,,,,GW/basket.jpg,,,,,One Edge Diff,Two Edge Three Edge
null,,html-keyboard-response,1117118,<p></p>,,,,null,,,,,,,,,,,,,,
1108.2999999523163,,shortestpath_phase,1118233,GW/snail.jpg,,,,49,GW/hat.jpg,GW/dustpan.jpg,1,0.3,,,,GW/hat.jpg,,,,,Two Edge Diff,Four Edge Six Edge
null,,html-keyboard-response,1119236,<p></p>,,,,null,,,,,,,,,,,,,,
984.6000001430511,,shortestpath_phase,1120223,GW/dustpan.jpg,,,,50,GW/snail.jpg,GW/globe.jpg,1,0.36363636363636365,,,,GW/globe.jpg,,,,,Two Edge Diff,Four Edge Six Edge
null,,html-keyboard-response,1121227,<p></p>,,,,null,,,,,,,,,,,,,,
2159.4000000953674,,shortestpath_phase,1123393,GW/gong.jpg,,,,50,GW/wheelchair.jpg,GW/barrel.jpg,0,0.3333333333333333,,,,GW/wheelchair.jpg,,,,,One Edge Diff,Four Edge Five Edge
null,,html-keyboard-response,1124397,<p></p>,,,,null,,,,,,,,,,,,,,
3536.5999999046326,,shortestpath_phase,1127939,GW/paint.jpg,,,,49,GW/teeth.jpg,GW/soldier.jpg,1,0.38461538461538464,,,,GW/teeth.jpg,,,,,Two Edge Diff,Two Edge Four Edge
null,,html-keyboard-response,1128943,<p></p>,,,,null,,,,,,,,,,,,,,
1573.2000000476837,,shortestpath_phase,1130520,GW/barrel.jpg,,,,50,GW/jukebox.jpg,GW/globe.jpg,1,0.42857142857142855,,,,GW/globe.jpg,,,,,Four Edge Diff,Two Edge Six Edge
null,,html-keyboard-response,1131524,<p></p>,,,,null,,,,,,,,,,,,,,
2276,,shortestpath_phase,1133805,GW/gong.jpg,,,,50,GW/basket.jpg,GW/paint.jpg,0,0.4,,,,GW/basket.jpg,,,,,Two Edge Diff,Two Edge Four Edge
null,,html-keyboard-response,1134809,<p></p>,,,,null,,,,,,,,,,,,,,
2545.0999999046326,,shortestpath_phase,1137359,GW/snail.jpg,,,,50,GW/globe.jpg,GW/hat.jpg,0,0.375,,,,GW/globe.jpg,,,,,Two Edge Diff,Two Edge Four Edge
null,,html-keyboard-response,1138365,<p></p>,,,,null,,,,,,,,,,,,,,
3786.2999999523163,,shortestpath_phase,1142159,GW/dustpan.jpg,,,,49,GW/barrel.jpg,GW/hat.jpg,0,0.35294117647058826,,,,GW/hat.jpg,,,,,Four Edge Diff,Two Edge Six Edge
null,,html-keyboard-response,1143164,<p></p>,,,,null,,,,,,,,,,,,,,
1880,,shortestpath_phase,1145051,GW/barrel.jpg,,,,49,GW/dustpan.jpg,GW/basket.jpg,0,0.3333333333333333,,,,GW/basket.jpg,,,,,Two Edge Diff,Four Edge Six Edge
null,,html-keyboard-response,1146054,<p></p>,,,,null,,,,,,,,,,,,,,
1979,,shortestpath_phase,1148038,GW/snail.jpg,,,,49,GW/jukebox.jpg,GW/hat.jpg,0,0.3157894736842105,,,,GW/hat.jpg,,,,,One Edge Diff,Four Edge Five Edge
null,,html-keyboard-response,1149045,<p></p>,,,,null,,,,,,,,,,,,,,
1581.6999998092651,,shortestpath_phase,1150631,GW/jukebox.jpg,,,,49,GW/globe.jpg,GW/snail.jpg,1,0.35,,,,GW/globe.jpg,,,,,One Edge Diff,Four Edge Five Edge
null,,html-keyboard-response,1151634,<p></p>,,,,null,,,,,,,,,,,,,,
1318.5,,shortestpath_phase,1152957,GW/barrel.jpg,,,,50,GW/dustpan.jpg,GW/hat.jpg,1,0.38095238095238093,,,,GW/hat.jpg,,,,,Two Edge Diff,Four Edge Six Edge
null,,html-keyboard-response,1153962,<p></p>,,,,null,,,,,,,,,,,,,,
2995.5,,shortestpath_phase,1156961,GW/snail.jpg,,,,50,GW/jukebox.jpg,GW/teeth.jpg,1,0.4090909090909091,,,,GW/teeth.jpg,,,,,Three Edge Diff,Three Edge Six Edge
null,,html-keyboard-response,1157966,<p></p>,,,,null,,,,,,,,,,,,,,
1298.4000000953674,,shortestpath_phase,1159273,GW/dustpan.jpg,,,,49,GW/wheelchair.jpg,GW/hat.jpg,0,0.391304347826087,,,,GW/hat.jpg,,,,,Three Edge Diff,Three Edge Six Edge
null,,html-keyboard-response,1160277,<p></p>,,,,null,,,,,,,,,,,,,,
1241.1000001430511,,shortestpath_phase,1161522,GW/snail.jpg,,,,50,GW/paint.jpg,GW/dustpan.jpg,0,0.375,,,,GW/paint.jpg,,,,,Four Edge Diff,Two Edge Six Edge
null,,html-keyboard-response,1162528,<p></p>,,,,null,,,,,,,,,,,,,,
1602.5,,shortestpath_phase,1164138,GW/barrel.jpg,,,,49,GW/gong.jpg,GW/jukebox.jpg,1,0.4,,,,GW/gong.jpg,,,,,One Edge Diff,Five Edge Six Edge
null,,html-keyboard-response,1165144,<p></p>,,,,null,,,,,,,,,,,,,,
1402.7000000476837,,shortestpath_phase,1166554,GW/wheelchair.jpg,,,,50,GW/gong.jpg,GW/hat.jpg,1,0.4230769230769231,,,,GW/hat.jpg,,,,,One Edge Diff,Three Edge Four Edge
null,,html-keyboard-response,1167559,<p></p>,,,,null,,,,,,,,,,,,,,
1087.7000000476837,,shortestpath_phase,1168649,GW/barrel.jpg,,,,49,GW/snail.jpg,GW/hat.jpg,1,0.4444444444444444,,,,GW/snail.jpg,,,,,One Edge Diff,Three Edge Four Edge
null,,html-keyboard-response,1169654,<p></p>,,,,null,,,,,,,,,,,,,,
986.7000000476837,,shortestpath_phase,1170649,GW/jukebox.jpg,,,,49,GW/teeth.jpg,GW/basket.jpg,0,0.42857142857142855,,,,GW/basket.jpg,,,,,One Edge Diff,Two Edge Three Edge
null,,html-keyboard-response,1171655,<p></p>,,,,null,,,,,,,,,,,,,,
1712.4000000953674,,shortestpath_phase,1173375,GW/barrel.jpg,,,,50,GW/hat.jpg,GW/globe.jpg,1,0.4482758620689655,,,,GW/globe.jpg,,,,,Two Edge Diff,Two Edge Four Edge
null,,html-keyboard-response,1174382,<p></p>,,,,null,,,,,,,,,,,,,,
2075.7999999523163,,shortestpath_phase,1176465,GW/paint.jpg,,,,49,GW/jukebox.jpg,GW/camera.jpg,0,0.43333333333333335,,,,GW/camera.jpg,,,,,Three Edge Diff,Two Edge Five Edge
null,,html-keyboard-response,1177469,<p></p>,,,,null,,,,,,,,,,,,,,
2024.2999999523163,,shortestpath_phase,1179502,GW/wheelchair.jpg,,,,50,GW/basket.jpg,GW/dustpan.jpg,0,0.41935483870967744,,,,GW/basket.jpg,,,,,Three Edge Diff,Two Edge Five Edge
null,,html-keyboard-response,1180508,<p></p>,,,,null,,,,,,,,,,,,,,
1536.2999999523163,,shortestpath_phase,1182057,GW/barrel.jpg,,,,50,GW/hat.jpg,GW/jukebox.jpg,0,0.40625,,,,GW/hat.jpg,,,,,Two Edge Diff,Four Edge Six Edge
null,,html-keyboard-response,1183060,<p></p>,,,,null,,,,,,,,,,,,,,
1251.9000000953674,,shortestpath_phase,1184319,GW/jukebox.jpg,,,,50,GW/paint.jpg,GW/basket.jpg,1,0.42424242424242425,,,,GW/basket.jpg,,,,,Three Edge Diff,Two Edge Five Edge
null,,html-keyboard-response,1185322,<p></p>,,,,null,,,,,,,,,,,,,,
1620.9000000953674,,shortestpath_phase,1186949,GW/hat.jpg,,,,49,GW/barrel.jpg,GW/globe.jpg,0,0.4117647058823529,,,,GW/globe.jpg,,,,,Two Edge Diff,Two Edge Four Edge
null,,html-keyboard-response,1187954,<p></p>,,,,null,,,,,,,,,,,,,,
1917.5,,shortestpath_phase,1189876,GW/barrel.jpg,,,,49,GW/camera.jpg,GW/gong.jpg,1,0.42857142857142855,,,,GW/camera.jpg,,,,,Two Edge Diff,Three Edge Five Edge
null,,html-keyboard-response,1190881,<p></p>,,,,null,,,,,,,,,,,,,,
1268.7000000476837,,shortestpath_phase,1192157,GW/basket.jpg,,,,50,GW/jukebox.jpg,GW/snail.jpg,0,0.4166666666666667,,,,GW/jukebox.jpg,,,,,One Edge Diff,Two Edge Three Edge
null,,html-keyboard-response,1193163,<p></p>,,,,null,,,,,,,,,,,,,,
1481.2000000476837,,shortestpath_phase,1194648,GW/snail.jpg,,,,49,GW/teeth.jpg,GW/dustpan.jpg,1,0.43243243243243246,,,,GW/teeth.jpg,,,,,Four Edge Diff,Two Edge Six Edge
null,,html-keyboard-response,1195650,<p></p>,,,,null,,,,,,,,,,,,,,
1578.4000000953674,,shortestpath_phase,1197231,GW/dustpan.jpg,,,,50,GW/paint.jpg,GW/jukebox.jpg,1,0.4473684210526316,,,,GW/jukebox.jpg,,,,,Two Edge Diff,Three Edge Five Edge
null,,html-keyboard-response,1198236,<p></p>,,,,null,,,,,,,,,,,,,,
1987.5999999046326,,shortestpath_phase,1200228,GW/barrel.jpg,,,,50,GW/jukebox.jpg,GW/wheelchair.jpg,1,0.46153846153846156,,,,GW/wheelchair.jpg,,,,,Four Edge Diff,Two Edge Six Edge
null,,html-keyboard-response,1201240,<p></p>,,,,null,,,,,,,,,,,,,,
1263.1000001430511,,shortestpath_phase,1202508,GW/jukebox.jpg,,,,50,GW/barrel.jpg,GW/gong.jpg,1,0.475,,,,GW/gong.jpg,,,,,Four Edge Diff,Two Edge Six Edge
null,,html-keyboard-response,1203513,<p></p>,,,,null,,,,,,,,,,,,,,
1535.0999999046326,,shortestpath_phase,1205055,GW/dustpan.jpg,,,,49,GW/camera.jpg,GW/paint.jpg,1,0.4878048780487805,,,,GW/camera.jpg,,,,,Two Edge Diff,Three Edge Five Edge
null,,html-keyboard-response,1206061,<p></p>,,,,null,,,,,,,,,,,,,,
2258.2000000476837,,shortestpath_phase,1208325,GW/snail.jpg,,,,50,GW/dustpan.jpg,GW/gong.jpg,1,0.5,,,,GW/gong.jpg,,,,,One Edge Diff,Five Edge Six Edge
null,,html-keyboard-response,1209332,<p></p>,,,,null,,,,,,,,,,,,,,
2102.7000000476837,,shortestpath_phase,1211444,GW/hat.jpg,,,,50,GW/snail.jpg,GW/teeth.jpg,1,0.5116279069767442,,,,GW/teeth.jpg,,,,,One Edge Diff,Three Edge Four Edge
null,,html-keyboard-response,1212448,<p></p>,,,,null,,,,,,,,,,,,,,
1331.0999999046326,,shortestpath_phase,1213784,GW/snail.jpg,,,,50,GW/dustpan.jpg,GW/globe.jpg,1,0.5227272727272727,,,,GW/globe.jpg,,,,,Four Edge Diff,Two Edge Six Edge
null,,html-keyboard-response,1214790,<p></p>,,,,null,,,,,,,,,,,,,,
1179.2000000476837,,shortestpath_phase,1215977,GW/basket.jpg,,,,49,GW/wheelchair.jpg,GW/dustpan.jpg,1,0.5333333333333333,,,,GW/wheelchair.jpg,,,,,One Edge Diff,Two Edge Three Edge
null,,html-keyboard-response,1216980,<p></p>,,,,null,,,,,,,,,,,,,,
1099.5,,shortestpath_phase,1218089,GW/paint.jpg,,,,50,GW/gong.jpg,GW/snail.jpg,1,0.5434782608695652,,,,GW/snail.jpg,,,,,Two Edge Diff,Two Edge Four Edge
null,,html-keyboard-response,1219093,<p></p>,,,,null,,,,,,,,,,,,,,
993.5,,shortestpath_phase,1220095,GW/jukebox.jpg,,,,50,GW/hat.jpg,GW/wheelchair.jpg,0,0.5319148936170213,,,,GW/hat.jpg,,,,,One Edge Diff,Three Edge Four Edge
null,,html-keyboard-response,1221101,<p></p>,,,,null,,,,,,,,,,,,,,
1058.9000000953674,,shortestpath_phase,1222170,GW/gong.jpg,,,,50,GW/basket.jpg,GW/barrel.jpg,0,0.5208333333333334,,,,GW/basket.jpg,,,,,Three Edge Diff,Two Edge Five Edge
null,,html-keyboard-response,1223175,<p></p>,,,,null,,,,,,,,,,,,,,
982.9000000953674,,shortestpath_phase,1224166,GW/dustpan.jpg,,,,50,GW/snail.jpg,GW/hat.jpg,1,0.5306122448979592,,,,GW/hat.jpg,,,,,Four Edge Diff,Two Edge Six Edge
null,,html-keyboard-response,1225172,<p></p>,,,,null,,,,,,,,,,,,,,
2335.7999999523163,,shortestpath_phase,1227516,GW/gong.jpg,,,,50,GW/paint.jpg,GW/snail.jpg,0,0.52,,,,GW/paint.jpg,,,,,One Edge Diff,Four Edge Five Edge
null,,html-keyboard-response,1228521,<p></p>,,,,null,,,,,,,,,,,,,,
1224.2999999523163,,shortestpath_phase,1229747,GW/dustpan.jpg,,,,50,GW/teeth.jpg,GW/jukebox.jpg,1,0.5294117647058824,,,,GW/jukebox.jpg,,,,,One Edge Diff,Three Edge Four Edge
null,,html-keyboard-response,1230753,<p></p>,,,,null,,,,,,,,,,,,,,
974.7000000476837,,shortestpath_phase,1231733,GW/wheelchair.jpg,,,,49,GW/soldier.jpg,GW/dustpan.jpg,1,0.5384615384615384,,,,GW/soldier.jpg,,,,,Two Edge Diff,Three Edge Five Edge
null,,html-keyboard-response,1232738,<p></p>,,,,null,,,,,,,,,,,,,,
897.5,,shortestpath_phase,1233640,GW/snail.jpg,,,,50,GW/dustpan.jpg,GW/jukebox.jpg,1,0.5471698113207547,,,,GW/jukebox.jpg,,,,,One Edge Diff,Five Edge Six Edge
null,,html-keyboard-response,1234646,<p></p>,,,,null,,,,,,,,,,,,,,
904.3999998569489,,shortestpath_phase,1235558,GW/barrel.jpg,,,,50,GW/dustpan.jpg,GW/wheelchair.jpg,1,0.5555555555555556,,,,GW/wheelchair.jpg,,,,,Four Edge Diff,Two Edge Six Edge
null,,html-keyboard-response,1236564,<p></p>,,,,null,,,,,,,,,,,,,,
1116.8999998569489,,shortestpath_phase,1237690,GW/paint.jpg,,,,50,GW/basket.jpg,GW/dustpan.jpg,0,0.5454545454545454,,,,GW/basket.jpg,,,,,Two Edge Diff,Three Edge Five Edge
null,,html-keyboard-response,1238696,<p></p>,,,,null,,,,,,,,,,,,,,
952.9000000953674,,shortestpath_phase,1239657,GW/jukebox.jpg,,,,49,GW/hat.jpg,GW/snail.jpg,1,0.5535714285714286,,,,GW/hat.jpg,,,,,Two Edge Diff,Three Edge Five Edge
null,,html-keyboard-response,1240663,<p></p>,,,,null,,,,,,,,,,,,,,
951,,shortestpath_phase,1241623,GW/dustpan.jpg,,,,49,GW/barrel.jpg,GW/soldier.jpg,0,0.543859649122807,,,,GW/soldier.jpg,,,,,Four Edge Diff,Two Edge Six Edge
null,,html-keyboard-response,1242630,<p></p>,,,,null,,,,,,,,,,,,,,
931,,shortestpath_phase,1243569,GW/barrel.jpg,,,,50,GW/gong.jpg,GW/dustpan.jpg,0,0.5344827586206896,,,,GW/gong.jpg,,,,,One Edge Diff,Five Edge Six Edge
null,,html-keyboard-response,1244576,<p></p>,,,,null,,,,,,,,,,,,,,
872.2000000476837,,shortestpath_phase,1245456,GW/paint.jpg,,,,49,GW/hat.jpg,GW/soldier.jpg,1,0.5423728813559322,,,,GW/hat.jpg,,,,,One Edge Diff,Three Edge Four Edge
null,,html-keyboard-response,1246462,<p></p>,,,,null,,,,,,,,,,,,,,
811.2999999523163,,shortestpath_phase,1247277,GW/snail.jpg,,,,49,GW/globe.jpg,GW/camera.jpg,1,0.55,,,,GW/globe.jpg,,,,,One Edge Diff,Two Edge Three Edge
null,,html-keyboard-response,1248281,<p></p>,,,,null,,,,,,,,,,,,,,
799.2999999523163,,shortestpath_phase,1249089,GW/dustpan.jpg,,,,49,GW/barrel.jpg,GW/wheelchair.jpg,0,0.5409836065573771,,,,GW/wheelchair.jpg,,,,,One Edge Diff,Five Edge Six Edge
null,,html-keyboard-response,1250095,<p></p>,,,,null,,,,,,,,,,,,,,
701.0999999046326,,shortestpath_phase,1250801,GW/barrel.jpg,,,,50,GW/gong.jpg,GW/hat.jpg,1,0.5483870967741935,,,,GW/hat.jpg,,,,,One Edge Diff,Four Edge Five Edge
null,,html-keyboard-response,1251805,<p></p>,,,,null,,,,,,,,,,,,,,
927.2000000476837,,shortestpath_phase,1252739,GW/dustpan.jpg,,,,50,GW/paint.jpg,GW/snail.jpg,0,0.5396825396825397,,,,GW/paint.jpg,,,,,One Edge Diff,Five Edge Six Edge
null,,html-keyboard-response,1253743,<p></p>,,,,null,,,,,,,,,,,,,,
715.4000000953674,,shortestpath_phase,1254467,GW/wheelchair.jpg,,,,50,GW/barrel.jpg,GW/gong.jpg,0,0.53125,,,,GW/barrel.jpg,,,,,Two Edge Diff,Two Edge Four Edge
null,,html-keyboard-response,1255471,<p></p>,,,,null,,,,,,,,,,,,,,
752.2000000476837,,shortestpath_phase,1256226,GW/snail.jpg,,,,49,GW/camera.jpg,GW/hat.jpg,1,0.5384615384615384,,,,GW/camera.jpg,,,,,One Edge Diff,Three Edge Four Edge
null,,html-keyboard-response,1257230,<p></p>,,,,null,,,,,,,,,,,,,,
849.5999999046326,,shortestpath_phase,1258087,GW/barrel.jpg,,,,49,GW/jukebox.jpg,GW/basket.jpg,0,0.5303030303030303,,,,GW/basket.jpg,,,,,Two Edge Diff,Four Edge Six Edge
null,,html-keyboard-response,1259092,<p></p>,,,,null,,,,,,,,,,,,,,
737.8999998569489,,shortestpath_phase,1259832,GW/soldier.jpg,,,,50,GW/hat.jpg,GW/globe.jpg,0,0.5223880597014925,,,,GW/hat.jpg,,,,,One Edge Diff,Two Edge Three Edge
null,,html-keyboard-response,1260835,<p></p>,,,,null,,,,,,,,,,,,,,
576.2999999523163,,shortestpath_phase,1261413,GW/barrel.jpg,,,,49,GW/basket.jpg,GW/wheelchair.jpg,0,0.5147058823529411,,,,GW/wheelchair.jpg,,,,,Two Edge Diff,Two Edge Four Edge
null,,html-keyboard-response,1262417,<p></p>,,,,null,,,,,,,,,,,,,,
579.6000001430511,,shortestpath_phase,1263003,GW/gong.jpg,,,,49,GW/snail.jpg,GW/camera.jpg,0,0.5072463768115942,,,,GW/camera.jpg,,,,,Three Edge Diff,Three Edge Six Edge
null,,html-keyboard-response,1264007,<p></p>,,,,null,,,,,,,,,,,,,,
712.2000000476837,,shortestpath_phase,1264725,GW/jukebox.jpg,,,,49,GW/paint.jpg,GW/wheelchair.jpg,0,0.5,,,,GW/wheelchair.jpg,,,,,One Edge Diff,Four Edge Five Edge
null,,html-keyboard-response,1265730,<p></p>,,,,null,,,,,,,,,,,,,,
633.0999999046326,,shortestpath_phase,1266365,GW/hat.jpg,,,,50,GW/snail.jpg,GW/basket.jpg,1,0.5070422535211268,,,,GW/basket.jpg,,,,,Two Edge Diff,Two Edge Four Edge
null,,html-keyboard-response,1267369,<p></p>,,,,null,,,,,,,,,,,,,,
779.2999999523163,,shortestpath_phase,1268150,GW/paint.jpg,,,,49,GW/dustpan.jpg,GW/gong.jpg,0,0.5,,,,GW/gong.jpg,,,,,One Edge Diff,Four Edge Five Edge
null,,html-keyboard-response,1269154,<p></p>,,,,null,,,,,,,,,,,,,,
753.6999998092651,,shortestpath_phase,1269915,GW/hat.jpg,,,,49,GW/barrel.jpg,GW/jukebox.jpg,0,0.4931506849315068,,,,GW/jukebox.jpg,,,,,One Edge Diff,Three Edge Four Edge
null,,html-keyboard-response,1270920,<p></p>,,,,null,,,,,,,,,,,,,,
723,,shortestpath_phase,1271647,GW/snail.jpg,,,,50,GW/basket.jpg,GW/paint.jpg,1,0.5,,,,GW/paint.jpg,,,,,One Edge Diff,Two Edge Three Edge
null,,html-keyboard-response,1272653,<p></p>,,,,null,,,,,,,,,,,,,,
594.6000001430511,,shortestpath_phase,1273255,GW/jukebox.jpg,,,,49,GW/gong.jpg,GW/paint.jpg,1,0.5066666666666667,,,,GW/gong.jpg,,,,,Three Edge Diff,Two Edge Five Edge
null,,html-keyboard-response,1274261,<p></p>,,,,null,,,,,,,,,,,,,,
627.1000001430511,,shortestpath_phase,1274893,GW/snail.jpg,,,,49,GW/jukebox.jpg,GW/paint.jpg,0,0.5,,,,GW/paint.jpg,,,,,Three Edge Diff,Three Edge Six Edge
null,,html-keyboard-response,1275903,<p></p>,,,,null,,,,,,,,,,,,,,
532.4000000953674,,shortestpath_phase,1276440,GW/globe.jpg,,,,50,GW/basket.jpg,GW/jukebox.jpg,0,0.4935064935064935,,,,GW/basket.jpg,,,,,Two Edge Diff,Two Edge Four Edge
null,,html-keyboard-response,1277444,<p></p>,,,,null,,,,,,,,,,,,,,
561.9000000953674,,shortestpath_phase,1278010,GW/camera.jpg,,,,49,GW/barrel.jpg,GW/paint.jpg,0,0.48717948717948717,,,,GW/paint.jpg,,,,,One Edge Diff,Two Edge Three Edge
null,,html-keyboard-response,1279017,<p></p>,,,,null,,,,,,,,,,,,,,
432.19999980926514,,shortestpath_phase,1279458,GW/dustpan.jpg,,,,49,GW/basket.jpg,GW/wheelchair.jpg,1,0.4936708860759494,,,,GW/basket.jpg,,,,,Two Edge Diff,Three Edge Five Edge
null,,html-keyboard-response,1280465,<p></p>,,,,null,,,,,,,,,,,,,,
679,,shortestpath_phase,1281151,GW/snail.jpg,,,,50,GW/hat.jpg,GW/paint.jpg,1,0.5,,,,GW/paint.jpg,,,,,Two Edge Diff,Two Edge Four Edge
null,,html-keyboard-response,1282156,<p></p>,,,,null,,,,,,,,,,,,,,
762.8000001907349,,shortestpath_phase,1282927,GW/dustpan.jpg,,,,50,GW/jukebox.jpg,GW/hat.jpg,1,0.5061728395061729,,,,GW/hat.jpg,,,,,One Edge Diff,Two Edge Three Edge
null,,html-keyboard-response,1283931,<p></p>,,,,null,,,,,,,,,,,,,,
738.7999999523163,,shortestpath_phase,1284678,GW/paint.jpg,,,,50,GW/soldier.jpg,GW/dustpan.jpg,0,0.5,,,,GW/soldier.jpg,,,,,One Edge Diff,Four Edge Five Edge
null,,html-keyboard-response,1285682,<p></p>,,,,null,,,,,,,,,,,,,,
754.6000001430511,,shortestpath_phase,1286445,GW/snail.jpg,,,,49,GW/hat.jpg,GW/gong.jpg,1,0.5060240963855421,,,,GW/hat.jpg,,,,,One Edge Diff,Four Edge Five Edge
null,,html-keyboard-response,1287450,<p></p>,,,,null,,,,,,,,,,,,,,
712.4000000953674,,shortestpath_phase,1288171,GW/barrel.jpg,,,,49,GW/soldier.jpg,GW/globe.jpg,0,0.5,,,,GW/globe.jpg,,,,,Three Edge Diff,Three Edge Six Edge
null,,html-keyboard-response,1289176,<p></p>,,,,null,,,,,,,,,,,,,,
734.4000000953674,,shortestpath_phase,1289914,GW/soldier.jpg,,,,50,GW/barrel.jpg,GW/hat.jpg,1,0.5058823529411764,,,,GW/hat.jpg,,,,,Three Edge Diff,Three Edge Six Edge
null,,html-keyboard-response,1290920,<p></p>,,,,null,,,,,,,,,,,,,,
4822.799999952316,,shortestpath_phase,1295748,GW/barrel.jpg,,,,49,GW/soldier.jpg,GW/teeth.jpg,0,0.5,,,,GW/teeth.jpg,,,,,Two Edge Diff,Three Edge Five Edge
null,,html-keyboard-response,1296753,<p></p>,,,,null,,,,,,,,,,,,,,
1842.1000001430511,,shortestpath_phase,1298600,GW/gong.jpg,,,,49,GW/barrel.jpg,GW/camera.jpg,0,0.4942528735632184,,,,GW/camera.jpg,,,,,Three Edge Diff,Two Edge Five Edge
null,,html-keyboard-response,1299606,<p></p>,,,,null,,,,,,,,,,,,,,
1398.5999999046326,,shortestpath_phase,1301014,GW/dustpan.jpg,,,,50,GW/teeth.jpg,GW/barrel.jpg,0,0.48863636363636365,,,,GW/teeth.jpg,,,,,Two Edge Diff,Four Edge Six Edge
null,,html-keyboard-response,1302018,<p></p>,,,,null,,,,,,,,,,,,,,
996.1999998092651,,shortestpath_phase,1303020,GW/jukebox.jpg,,,,49,GW/wheelchair.jpg,GW/barrel.jpg,1,0.4943820224719101,,,,GW/wheelchair.jpg,,,,,Two Edge Diff,Four Edge Six Edge
null,,html-keyboard-response,1304027,<p></p>,,,,null,,,,,,,,,,,,,,
736.9000000953674,,shortestpath_phase,1304768,GW/paint.jpg,,,,49,GW/snail.jpg,GW/dustpan.jpg,1,0.5,,,,GW/snail.jpg,,,,,Three Edge Diff,Three Edge Six Edge
null,,html-keyboard-response,1305773,<p></p>,,,,null,,,,,,,,,,,,,,
957.4000000953674,,shortestpath_phase,1306733,GW/dustpan.jpg,,,,49,GW/snail.jpg,GW/soldier.jpg,0,0.4945054945054945,,,,GW/soldier.jpg,,,,,Four Edge Diff,Two Edge Six Edge
null,,html-keyboard-response,1307737,<p></p>,,,,null,,,,,,,,,,,,,,
1027,,shortestpath_phase,1308769,GW/jukebox.jpg,,,,50,GW/barrel.jpg,GW/basket.jpg,1,0.5,,,,GW/basket.jpg,,,,,Four Edge Diff,Two Edge Six Edge
null,,html-keyboard-response,1309773,<p></p>,,,,null,,,,,,,,,,,,,,
619.7999999523163,,shortestpath_phase,1310397,GW/dustpan.jpg,,,,49,GW/paint.jpg,GW/barrel.jpg,1,0.5053763440860215,,,,GW/paint.jpg,,,,,One Edge Diff,Five Edge Six Edge
null,,html-keyboard-response,1311401,<p></p>,,,,null,,,,,,,,,,,,,,
1405.2000000476837,,shortestpath_phase,1312812,GW/barrel.jpg,,,,49,GW/jukebox.jpg,GW/soldier.jpg,0,0.5,,,,GW/soldier.jpg,,,,,One Edge Diff,Five Edge Six Edge
null,,html-keyboard-response,1313818,<p></p>,,,,null,,,,,,,,,,,,,,
1539.2000000476837,,shortestpath_phase,1315368,GW/basket.jpg,,,,49,GW/barrel.jpg,GW/snail.jpg,0,0.49473684210526314,,,,GW/snail.jpg,,,,,One Edge Diff,Three Edge Four Edge
null,,html-keyboard-response,1316373,<p></p>,,,,null,,,,,,,,,,,,,,
933.7999999523163,,shortestpath_phase,1317310,GW/jukebox.jpg,,,,49,GW/gong.jpg,GW/snail.jpg,1,0.5,,,,GW/gong.jpg,,,,,Three Edge Diff,Two Edge Five Edge
null,,html-keyboard-response,1318316,<p></p>,,,,null,,,,,,,,,,,,,,
770.4000000953674,,shortestpath_phase,1319096,GW/dustpan.jpg,,,,49,GW/teeth.jpg,GW/paint.jpg,1,0.5051546391752577,,,,GW/teeth.jpg,,,,,One Edge Diff,Four Edge Five Edge
null,,html-keyboard-response,1320100,<p></p>,,,,null,,,,,,,,,,,,,,
749.7999999523163,,shortestpath_phase,1320852,GW/soldier.jpg,,,,49,GW/barrel.jpg,GW/paint.jpg,0,0.5,,,,GW/paint.jpg,,,,,One Edge Diff,Four Edge Five Edge
null,,html-keyboard-response,1321856,<p></p>,,,,null,,,,,,,,,,,,,,
932.7999999523163,,shortestpath_phase,1322793,GW/barrel.jpg,,,,50,GW/globe.jpg,GW/gong.jpg,0,0.494949494949495,,,,GW/globe.jpg,,,,,Three Edge Diff,Three Edge Six Edge
null,,html-keyboard-response,1323797,<p></p>,,,,null,,,,,,,,,,,,,,
1176.7999999523163,,shortestpath_phase,1324982,GW/dustpan.jpg,,,,49,GW/wheelchair.jpg,GW/soldier.jpg,0,0.49,,,,GW/soldier.jpg,,,,,Three Edge Diff,Two Edge Five Edge
null,,html-keyboard-response,1325985,<p></p>,,,,null,,,,,,,,,,,,,,
649.5,,shortestpath_phase,1326637,GW/jukebox.jpg,,,,49,GW/paint.jpg,GW/barrel.jpg,1,0.49504950495049505,,,,GW/paint.jpg,,,,,One Edge Diff,Five Edge Six Edge
null,,html-keyboard-response,1327643,<p></p>,,,,null,,,,,,,,,,,,,,
525,,shortestpath_phase,1328176,GW/snail.jpg,,,,49,GW/jukebox.jpg,GW/globe.jpg,0,0.49019607843137253,,,,GW/globe.jpg,,,,,Three Edge Diff,Three Edge Six Edge
null,,html-keyboard-response,1329183,<p></p>,,,,null,,,,,,,,,,,,,,
872.4000000953674,,shortestpath_phase,1330063,GW/jukebox.jpg,,,,49,GW/snail.jpg,GW/camera.jpg,0,0.4854368932038835,,,,GW/camera.jpg,,,,,Two Edge Diff,Three Edge Five Edge
null,,html-keyboard-response,1331068,<p></p>,,,,null,,,,,,,,,,,,,,
739.7000000476837,,shortestpath_phase,1331812,GW/hat.jpg,,,,50,GW/snail.jpg,GW/wheelchair.jpg,1,0.49038461538461536,,,,GW/wheelchair.jpg,,,,,One Edge Diff,Three Edge Four Edge
null,,html-keyboard-response,1332818,<p></p>,,,,null,,,,,,,,,,,,,,
682.3000001907349,,shortestpath_phase,1333509,GW/snail.jpg,,,,49,GW/soldier.jpg,GW/camera.jpg,0,0.4857142857142857,,,,GW/camera.jpg,,,,,One Edge Diff,Three Edge Four Edge
null,,html-keyboard-response,1334515,<p></p>,,,,null,,,,,,,,,,,,,,
695.5999999046326,,shortestpath_phase,1335219,GW/dustpan.jpg,,,,49,GW/wheelchair.jpg,GW/snail.jpg,1,0.49056603773584906,,,,GW/wheelchair.jpg,,,,,One Edge Diff,Five Edge Six Edge
null,,html-keyboard-response,1336223,<p></p>,,,,null,,,,,,,,,,,,,,
507,,shortestpath_phase,1336738,GW/barrel.jpg,,,,49,GW/gong.jpg,GW/teeth.jpg,0,0.48598130841121495,,,,GW/teeth.jpg,,,,,Two Edge Diff,Three Edge Five Edge
null,,html-keyboard-response,1337745,<p></p>,,,,null,,,,,,,,,,,,,,
489.2000000476837,,shortestpath_phase,1338244,GW/soldier.jpg,,,,49,GW/camera.jpg,GW/barrel.jpg,1,0.49074074074074076,,,,GW/camera.jpg,,,,,Three Edge Diff,Three Edge Six Edge
null,,html-keyboard-response,1339248,<p></p>,,,,null,,,,,,,,,,,,,,
743.2000000476837,,shortestpath_phase,1340001,GW/dustpan.jpg,,,,49,GW/jukebox.jpg,GW/globe.jpg,1,0.4954128440366973,,,,GW/jukebox.jpg,,,,,One Edge Diff,Three Edge Four Edge
null,,html-keyboard-response,1341007,<p></p>,,,,null,,,,,,,,,,,,,,
2252.0999999046326,,shortestpath_phase,1343263,GW/barrel.jpg,,,,49,GW/globe.jpg,GW/dustpan.jpg,1,0.5,,,,GW/globe.jpg,,,,,Four Edge Diff,Two Edge Six Edge
null,,html-keyboard-response,1344268,<p></p>,,,,null,,,,,,,,,,,,,,
841.6999998092651,,shortestpath_phase,1345115,GW/jukebox.jpg,,,,49,GW/snail.jpg,GW/barrel.jpg,1,0.5045045045045045,,,,GW/snail.jpg,,,,,One Edge Diff,Five Edge Six Edge
null,,html-keyboard-response,1346121,<p></p>,,,,null,,,,,,,,,,,,,,
1570.4000000953674,,shortestpath_phase,1347700,GW/soldier.jpg,,,,50,GW/wheelchair.jpg,GW/dustpan.jpg,1,0.5089285714285714,,,,GW/dustpan.jpg,,,,,One Edge Diff,Two Edge Three Edge
null,,html-keyboard-response,1348705,<p></p>,,,,null,,,,,,,,,,,,,,
567.7000000476837,,shortestpath_phase,1349281,GW/gong.jpg,,,,49,GW/snail.jpg,GW/jukebox.jpg,0,0.504424778761062,,,,GW/jukebox.jpg,,,,,Three Edge Diff,Three Edge Six Edge
null,,html-keyboard-response,1350288,<p></p>,,,,null,,,,,,,,,,,,,,
747.0999999046326,,shortestpath_phase,1351042,GW/paint.jpg,,,,49,GW/dustpan.jpg,GW/snail.jpg,0,0.5,,,,GW/snail.jpg,,,,,Three Edge Diff,Two Edge Five Edge
null,,html-keyboard-response,1352047,<p></p>,,,,null,,,,,,,,,,,,,,
592.5999999046326,,shortestpath_phase,1352648,GW/jukebox.jpg,,,,49,GW/barrel.jpg,GW/globe.jpg,0,0.4956521739130435,,,,GW/globe.jpg,,,,,Two Edge Diff,Four Edge Six Edge
null,,html-keyboard-response,1353655,<p></p>,,,,null,,,,,,,,,,,,,,
708,,shortestpath_phase,1354368,GW/barrel.jpg,,,,49,GW/basket.jpg,GW/soldier.jpg,1,0.5,,,,GW/basket.jpg,,,,,One Edge Diff,Four Edge Five Edge
null,,html-keyboard-response,1355373,<p></p>,,,,null,,,,,,,,,,,,,,
615.9000000953674,,shortestpath_phase,1355998,GW/dustpan.jpg,,,,49,GW/paint.jpg,GW/soldier.jpg,0,0.49572649572649574,,,,GW/soldier.jpg,,,,,Three Edge Diff,Three Edge Six Edge
null,,html-keyboard-response,1357002,<p></p>,,,,null,,,,,,,,,,,,,,
811,,shortestpath_phase,1357822,GW/jukebox.jpg,,,,49,GW/snail.jpg,GW/teeth.jpg,0,0.4915254237288136,,,,GW/teeth.jpg,,,,,Two Edge Diff,Three Edge Five Edge
null,,html-keyboard-response,1358828,<p></p>,,,,null,,,,,,,,,,,,,,
467,,shortestpath_phase,1359300,GW/dustpan.jpg,,,,50,GW/paint.jpg,GW/basket.jpg,1,0.4957983193277311,,,,GW/basket.jpg,,,,,Two Edge Diff,Three Edge Five Edge
null,,html-keyboard-response,1360306,<p></p>,,,,null,,,,,,,,,,,,,,
643.6999998092651,,shortestpath_phase,1360958,GW/hat.jpg,,,,49,GW/teeth.jpg,GW/globe.jpg,0,0.49166666666666664,,,,GW/globe.jpg,,,,,One Edge Diff,Two Edge Three Edge
null,,html-keyboard-response,1361962,<p></p>,,,,null,,,,,,,,,,,,,,
671.9000000953674,,shortestpath_phase,1362638,GW/paint.jpg,,,,49,GW/dustpan.jpg,GW/camera.jpg,0,0.48760330578512395,,,,GW/camera.jpg,,,,,Three Edge Diff,Two Edge Five Edge
null,,html-keyboard-response,1363644,<p></p>,,,,null,,,,,,,,,,,,,,
39837.700000047684,,intro_1,1403490,instruct,,0,,,,,,,,,,,,,,,,
8379.799999952316,,intro_2,1411874,instruct,,1,Next,,,,,,,,,,,,,,,
4892.799999952316,,intro_3,1416770,instruct,,1,Next,,,,,,,,,,,,,,,
