rt,responses,trial_type,time_elapsed,sequence,stimulus,graphorder,button_pressed,response,key_press,stimulus_left,stimulus_right,accuracy,cumulative_accuracy,stimulus_down_left,stimulus_down_mid,stimulus_down_right,stimulus_correct,stimulus_short,stimulus_far,weighted_accuracy,missedtrial,condition,specific_pairs,imgL_ID,imgR_ID,linedress,linedressed,detour_trial,linedressed_detor,problems,smooth,distraction,strategies,easier,similar,comments
6519.400000035763,{worker_id:638476f72ab8021be345e3ac},id_enter,6523,blocked,replication,GW/leesburg.png; GW/hotsprings.png; GW/cornwall.png; GW/carmel.png; GW/westpalmbeach.png; GW/shreveport.png; GW/peoria.png; GW/hanover.png; GW/newhope.png; GW/gatlinburg.png; GW/huntsville.png; GW/racine.png; GW/boulder.png,,,,,,,,,,,,,,,,,,,,,,,,,,,,,,
12754.300000011921,,fullscreen,19283,,fullscreen,,0,,,,,,,,,,,,,,,,,,,,,,,,,,,,,
9783.5,,intro_1,29076,,instruct,,0,,,,,,,,,,,,,,,,,,,,,,,,,,,,,
14072.300000011921,,intro_2,43152,,instruct,,1,Next,,,,,,,,,,,,,,,,,,,,,,,,,,,,
8345.199999988079,,intro_3,51500,,instruct,,1,Next,,,,,,,,,,,,,,,,,,,,,,,,,,,,
null,,learn_prac_1,54503,,lean_prac_1,,,,null,,,,,,,,,,,,,,,,,,,,,,,,,,,
null,,html-keyboard-response,55509,,<p></p>,,,,null,,,,,,,,,,,,,,,,,,,,,,,,,,,
3286,,intro_1,58798,,instruct,,0,,,,,,,,,,,,,,,,,,,,,,,,,,,,,
7039.699999988079,,intro_2,65839,,instruct,,1,Next,,,,,,,,,,,,,,,,,,,,,,,,,,,,
null,,learn_prac_2,68842,,lean_prac_2,,,,null,,,,,,,,,,,,,,,,,,,,,,,,,,,
null,,html-keyboard-response,69846,,<p></p>,,,,null,,,,,,,,,,,,,,,,,,,,,,,,,,,
1738.5,,intro_1,71588,,instruct,,0,,,,,,,,,,,,,,,,,,,,,,,,,,,,,
3413.199999988079,,intro_2,75003,,instruct,,1,Next,,,,,,,,,,,,,,,,,,,,,,,,,,,,
71379.60000002384,,intro_3,146384,,instruct,,1,Next,,,,,,,,,,,,,,,,,,,,,,,,,,,,
null,,prac_atten_color_black,147205,,black_plus_sign,,,,null,,,,,,,,,,,,,,,,,,,,,,,,,,,
null,,prac_atten_color,147789,,prac_stop_color,,,,null,,,,,,,,,,,,,,,,,,,,,,,,,,,
null,,prac_atten_color_black,149792,,black_plus_sign,,,,null,,,,,,,,,,,,,,,,,,,,,,,,,,,
10915.300000011921,,attentioncheck_help,160711,,instruct,,,,32,,,,,,,,,,,,,,,,,,,,,,,,,,,
null,,prac_atten_color_black,161532,,black_plus_sign,,,,null,,,,,,,,,,,,,,,,,,,,,,,,,,,
null,,prac_atten_color,162540,,prac_stop_color,,,,null,,,,,,,,,,,,,,,,,,,,,,,,,,,
null,,prac_atten_color_black,164545,,black_plus_sign,,,,null,,,,,,,,,,,,,,,,,,,,,,,,,,,
8417.699999988079,,attentioncheck_help,172966,,instruct,,,,32,,,,,,,,,,,,,,,,,,,,,,,,,,,
null,,prac_atten_color_black,173371,,black_plus_sign,,,,null,,,,,,,,,,,,,,,,,,,,,,,,,,,
null,,prac_atten_color,174392,,prac_stop_color,,,,null,,,,,,,,,,,,,,,,,,,,,,,,,,,
null,,prac_atten_color_black,176395,,black_plus_sign,,,,null,,,,,,,,,,,,,,,,,,,,,,,,,,,
6456.600000023842,,attentioncheck_help,182854,,instruct,,,,32,,,,,,,,,,,,,,,,,,,,,,,,,,,
null,,prac_atten_color_black,183247,,black_plus_sign,,,,null,,,,,,,,,,,,,,,,,,,,,,,,,,,
765,,prac_atten_color,184065,,prac_stop_color,,,,49,,,,,,,,,,,,,,,,,,,,,,,,,,,
null,,prac_atten_color_black,186068,,black_plus_sign,,,,null,,,,,,,,,,,,,,,,,,,,,,,,,,,
null,,prac_atten_color_black,186657,,black_plus_sign,,,,null,,,,,,,,,,,,,,,,,,,,,,,,,,,
null,,prac_atten_color,187199,,prac_stop_color,,,,null,,,,,,,,,,,,,,,,,,,,,,,,,,,
366.39999997615814,,prac_atten_color_black,189201,,black_plus_sign,,,,50,,,,,,,,,,,,,,,,,,,,,,,,,,,
null,,prac_atten_color_black,190065,,black_plus_sign,,,,null,,,,,,,,,,,,,,,,,,,,,,,,,,,
556,,prac_atten_color,191037,,prac_stop_color,,,,50,,,,,,,,,,,,,,,,,,,,,,,,,,,
null,,prac_atten_color_black,193040,,black_plus_sign,,,,null,,,,,,,,,,,,,,,,,,,,,,,,,,,
null,,prac_atten_color_black,193474,,black_plus_sign,,,,null,,,,,,,,,,,,,,,,,,,,,,,,,,,
538.1999999880791,,prac_atten_color,194267,,prac_stop_color,,,,49,,,,,,,,,,,,,,,,,,,,,,,,,,,
null,,prac_atten_color_black,196270,,black_plus_sign,,,,null,,,,,,,,,,,,,,,,,,,,,,,,,,,
null,,prac_atten_color_black,196884,,black_plus_sign,,,,null,,,,,,,,,,,,,,,,,,,,,,,,,,,
465.9000000357628,,prac_atten_color,197509,,prac_stop_color,,,,50,,,,,,,,,,,,,,,,,,,,,,,,,,,
null,,prac_atten_color_black,199511,,black_plus_sign,,,,null,,,,,,,,,,,,,,,,,,,,,,,,,,,
null,,prac_atten_color_black,200293,,black_plus_sign,,,,null,,,,,,,,,,,,,,,,,,,,,,,,,,,
600.1000000238419,,prac_atten_color,201030,,prac_stop_color,,,,49,,,,,,,,,,,,,,,,,,,,,,,,,,,
null,,prac_atten_color_black,203032,,black_plus_sign,,,,null,,,,,,,,,,,,,,,,,,,,,,,,,,,
null,,prac_atten_color_black,203707,,black_plus_sign,,,,null,,,,,,,,,,,,,,,,,,,,,,,,,,,
466.80000001192093,,prac_atten_color,204400,,prac_stop_color,,,,49,,,,,,,,,,,,,,,,,,,,,,,,,,,
null,,prac_atten_color_black,206403,,black_plus_sign,,,,null,,,,,,,,,,,,,,,,,,,,,,,,,,,
8458.5,,attentioncheck_feedback,214866,,cross_check_feedback,,0,,,,,,,,,,,,,,,,,,,,,,,,,,,,,
13911,,last_instruct,228778,,instruct,,,,32,,,,,,,,,,,,,,,,,,,,,,,,,,,
null,,learn_phase(without_color),231781,,black_plus_sign,,,,null,GW/carmel.png,GW/hotsprings.png,,,,,,,,,,,,,,,,,,,,,,,,,
null,,black_cross(without_color),232562,,yellow,,,,null,GW/carmel.png,GW/hotsprings.png,,,,,,,,,,,,,,,,,,,,,,,,,
null,,rt_plussign_withcolor,233065,,yellow,,,,null,GW/carmel.png,GW/hotsprings.png,,,,,,,,,,,,,,,,,,,,,,,,,
1300.0999999642372,,rt_thecrossant_black,234291,,black_plus_sign,,,,50,,,1,1,,,,,,,,,,,,,,,,,,,,,,,
null,,color_black,234396,,black_plus_sign,,,,null,,,,,,,,,,,,,,,,,,,,,,,,,,,
null,,learn_phase(without_color),237402,,black_plus_sign,,,,null,GW/huntsville.png,GW/racine.png,,,,,,,,,,,,,,,,,,,,,,,,,
null,,black_cross(without_color),238294,,blue,,,,null,GW/huntsville.png,GW/racine.png,,,,,,,,,,,,,,,,,,,,,,,,,
null,,rt_plussign_withcolor,238799,,blue,,,,null,GW/huntsville.png,GW/racine.png,,,,,,,,,,,,,,,,,,,,,,,,,
725.1999999880791,,rt_thecrossant_black,239914,,black_plus_sign,,,,49,,,1,1,,,,,,,,,,,,,,,,,,,,,,,
null,,color_black,240018,,black_plus_sign,,,,null,,,,,,,,,,,,,,,,,,,,,,,,,,,
null,,learn_phase(without_color),243022,,black_plus_sign,,,,null,GW/hotsprings.png,GW/carmel.png,,,,,,,,,,,,,,,,,,,,,,,,,
null,,black_cross(without_color),244115,,blue,,,,null,GW/hotsprings.png,GW/carmel.png,,,,,,,,,,,,,,,,,,,,,,,,,
null,,rt_plussign_withcolor,244617,,blue,,,,null,GW/hotsprings.png,GW/carmel.png,,,,,,,,,,,,,,,,,,,,,,,,,
1028.699999988079,,rt_thecrossant_black,245533,,black_plus_sign,,,,49,,,1,1,,,,,,,,,,,,,,,,,,,,,,,
null,,color_black,245643,,black_plus_sign,,,,null,,,,,,,,,,,,,,,,,,,,,,,,,,,
null,,learn_phase(without_color),248650,,black_plus_sign,,,,null,GW/peoria.png,GW/boulder.png,,,,,,,,,,,,,,,,,,,,,,,,,
null,,black_cross(without_color),249496,,yellow,,,,null,GW/peoria.png,GW/boulder.png,,,,,,,,,,,,,,,,,,,,,,,,,
null,,rt_plussign_withcolor,250000,,yellow,,,,null,GW/peoria.png,GW/boulder.png,,,,,,,,,,,,,,,,,,,,,,,,,
1526,,rt_thecrossant_black,251165,,black_plus_sign,,,,50,,,1,1,,,,,,,,,,,,,,,,,,,,,,,
null,,color_black,251266,,black_plus_sign,,,,null,,,,,,,,,,,,,,,,,,,,,,,,,,,
null,,learn_phase(without_color),254271,,black_plus_sign,,,,null,GW/newhope.png,GW/shreveport.png,,,,,,,,,,,,,,,,,,,,,,,,,
null,,black_cross(without_color),255218,,yellow,,,,null,GW/newhope.png,GW/shreveport.png,,,,,,,,,,,,,,,,,,,,,,,,,
472.19999998807907,,rt_plussign_withcolor,255720,,yellow,,,,50,GW/newhope.png,GW/shreveport.png,,,,,,,,,,,,,,,,,,,,,,,,,
null,,rt_thecrossant_black,256780,,black_plus_sign,,,,null,,,1,1,,,,,,,,,,,,,,,,,,,,,,,
null,,color_black,256885,,black_plus_sign,,,,null,,,,,,,,,,,,,,,,,,,,,,,,,,,
null,,learn_phase(without_color),259889,,black_plus_sign,,,,null,GW/hotsprings.png,GW/carmel.png,,,,,,,,,,,,,,,,,,,,,,,,,
null,,black_cross(without_color),260761,,blue,,,,null,GW/hotsprings.png,GW/carmel.png,,,,,,,,,,,,,,,,,,,,,,,,,
null,,rt_plussign_withcolor,261264,,blue,,,,null,GW/hotsprings.png,GW/carmel.png,,,,,,,,,,,,,,,,,,,,,,,,,
1253.0999999642372,,rt_thecrossant_black,262401,,black_plus_sign,,,,49,,,1,1,,,,,,,,,,,,,,,,,,,,,,,
null,,color_black,262503,,black_plus_sign,,,,null,,,,,,,,,,,,,,,,,,,,,,,,,,,
null,,learn_phase(without_color),265506,,black_plus_sign,,,,null,GW/racine.png,GW/huntsville.png,,,,,,,,,,,,,,,,,,,,,,,,,
null,,black_cross(without_color),266154,,blue,,,,null,GW/racine.png,GW/huntsville.png,,,,,,,,,,,,,,,,,,,,,,,,,
null,,rt_plussign_withcolor,266657,,blue,,,,null,GW/racine.png,GW/huntsville.png,,,,,,,,,,,,,,,,,,,,,,,,,
1206.9000000357628,,rt_thecrossant_black,268018,,black_plus_sign,,,,49,,,1,1,,,,,,,,,,,,,,,,,,,,,,,
null,,color_black,268121,,black_plus_sign,,,,null,,,,,,,,,,,,,,,,,,,,,,,,,,,
null,,learn_phase(without_color),271124,,black_plus_sign,,,,null,GW/carmel.png,GW/hotsprings.png,,,,,,,,,,,,,,,,,,,,,,,,,
null,,black_cross(without_color),271591,,blue,,,,null,GW/carmel.png,GW/hotsprings.png,,,,,,,,,,,,,,,,,,,,,,,,,
null,,rt_plussign_withcolor,272094,,blue,,,,null,GW/carmel.png,GW/hotsprings.png,,,,,,,,,,,,,,,,,,,,,,,,,
814.5,,rt_thecrossant_black,273636,,black_plus_sign,,,,49,,,1,1,,,,,,,,,,,,,,,,,,,,,,,
null,,color_black,273742,,black_plus_sign,,,,null,,,,,,,,,,,,,,,,,,,,,,,,,,,
null,,learn_phase(without_color),276746,,black_plus_sign,,,,null,GW/boulder.png,GW/peoria.png,,,,,,,,,,,,,,,,,,,,,,,,,
null,,black_cross(without_color),277550,,yellow,,,,null,GW/boulder.png,GW/peoria.png,,,,,,,,,,,,,,,,,,,,,,,,,
477.60000002384186,,rt_plussign_withcolor,278053,,yellow,,,,50,GW/boulder.png,GW/peoria.png,,,,,,,,,,,,,,,,,,,,,,,,,
null,,rt_thecrossant_black,279257,,black_plus_sign,,,,null,,,1,1,,,,,,,,,,,,,,,,,,,,,,,
null,,color_black,279360,,black_plus_sign,,,,null,,,,,,,,,,,,,,,,,,,,,,,,,,,
null,,learn_phase(without_color),282363,,black_plus_sign,,,,null,GW/huntsville.png,GW/racine.png,,,,,,,,,,,,,,,,,,,,,,,,,
null,,black_cross(without_color),283381,,yellow,,,,null,GW/huntsville.png,GW/racine.png,,,,,,,,,,,,,,,,,,,,,,,,,
398.80000001192093,,rt_plussign_withcolor,283884,,yellow,,,,50,GW/huntsville.png,GW/racine.png,,,,,,,,,,,,,,,,,,,,,,,,,
null,,rt_thecrossant_black,284872,,black_plus_sign,,,,null,,,1,1,,,,,,,,,,,,,,,,,,,,,,,
null,,color_black,284977,,black_plus_sign,,,,null,,,,,,,,,,,,,,,,,,,,,,,,,,,
null,,learn_phase(without_color),287984,,black_plus_sign,,,,null,GW/boulder.png,GW/peoria.png,,,,,,,,,,,,,,,,,,,,,,,,,
null,,black_cross(without_color),288955,,blue,,,,null,GW/boulder.png,GW/peoria.png,,,,,,,,,,,,,,,,,,,,,,,,,
null,,rt_plussign_withcolor,289459,,blue,,,,null,GW/boulder.png,GW/peoria.png,,,,,,,,,,,,,,,,,,,,,,,,,
1525.0999999642372,,rt_thecrossant_black,290496,,black_plus_sign,,,,49,,,1,1,,,,,,,,,,,,,,,,,,,,,,,
null,,color_black,290600,,black_plus_sign,,,,null,,,,,,,,,,,,,,,,,,,,,,,,,,,
null,,learn_phase(without_color),293602,,black_plus_sign,,,,null,GW/racine.png,GW/huntsville.png,,,,,,,,,,,,,,,,,,,,,,,,,
null,,black_cross(without_color),294654,,yellow,,,,null,GW/racine.png,GW/huntsville.png,,,,,,,,,,,,,,,,,,,,,,,,,
null,,rt_plussign_withcolor,295159,,yellow,,,,null,GW/racine.png,GW/huntsville.png,,,,,,,,,,,,,,,,,,,,,,,,,
1184.699999988079,,rt_thecrossant_black,296113,,black_plus_sign,,,,50,,,1,1,,,,,,,,,,,,,,,,,,,,,,,
null,,color_black,296219,,black_plus_sign,,,,null,,,,,,,,,,,,,,,,,,,,,,,,,,,
null,,learn_phase(without_color),299225,,black_plus_sign,,,,null,GW/shreveport.png,GW/newhope.png,,,,,,,,,,,,,,,,,,,,,,,,,
null,,black_cross(without_color),299922,,yellow,,,,null,GW/shreveport.png,GW/newhope.png,,,,,,,,,,,,,,,,,,,,,,,,,
null,,rt_plussign_withcolor,300434,,yellow,,,,null,GW/shreveport.png,GW/newhope.png,,,,,,,,,,,,,,,,,,,,,,,,,
1159.300000011921,,rt_thecrossant_black,301746,,black_plus_sign,,,,50,,,1,1,,,,,,,,,,,,,,,,,,,,,,,
null,,color_black,301851,,black_plus_sign,,,,null,,,,,,,,,,,,,,,,,,,,,,,,,,,
null,,learn_phase(without_color),304855,,black_plus_sign,,,,null,GW/peoria.png,GW/boulder.png,,,,,,,,,,,,,,,,,,,,,,,,,
null,,black_cross(without_color),305906,,yellow,,,,null,GW/peoria.png,GW/boulder.png,,,,,,,,,,,,,,,,,,,,,,,,,
null,,rt_plussign_withcolor,306409,,yellow,,,,null,GW/peoria.png,GW/boulder.png,,,,,,,,,,,,,,,,,,,,,,,,,
845.9000000357628,,rt_thecrossant_black,307365,,black_plus_sign,,,,50,,,1,1,,,,,,,,,,,,,,,,,,,,,,,
null,,color_black,307469,,black_plus_sign,,,,null,,,,,,,,,,,,,,,,,,,,,,,,,,,
null,,learn_phase(without_color),310473,,black_plus_sign,,,,null,GW/shreveport.png,GW/newhope.png,,,,,,,,,,,,,,,,,,,,,,,,,
null,,black_cross(without_color),311269,,yellow,,,,null,GW/shreveport.png,GW/newhope.png,,,,,,,,,,,,,,,,,,,,,,,,,
null,,rt_plussign_withcolor,311771,,yellow,,,,null,GW/shreveport.png,GW/newhope.png,,,,,,,,,,,,,,,,,,,,,,,,,
1174.1000000238419,,rt_thecrossant_black,312997,,black_plus_sign,,,,50,,,1,1,,,,,,,,,,,,,,,,,,,,,,,
null,,color_black,313103,,black_plus_sign,,,,null,,,,,,,,,,,,,,,,,,,,,,,,,,,
null,,learn_phase(without_color),316109,,black_plus_sign,,,,null,GW/carmel.png,GW/hotsprings.png,,,,,,,,,,,,,,,,,,,,,,,,,
null,,black_cross(without_color),316754,,blue,,,,null,GW/carmel.png,GW/hotsprings.png,,,,,,,,,,,,,,,,,,,,,,,,,
null,,rt_plussign_withcolor,317259,,blue,,,,null,GW/carmel.png,GW/hotsprings.png,,,,,,,,,,,,,,,,,,,,,,,,,
916.8999999761581,,rt_thecrossant_black,318624,,black_plus_sign,,,,49,,,1,1,,,,,,,,,,,,,,,,,,,,,,,
null,,color_black,318726,,black_plus_sign,,,,null,,,,,,,,,,,,,,,,,,,,,,,,,,,
null,,learn_phase(without_color),321729,,black_plus_sign,,,,null,GW/shreveport.png,GW/newhope.png,,,,,,,,,,,,,,,,,,,,,,,,,
null,,black_cross(without_color),322164,,yellow,,,,null,GW/shreveport.png,GW/newhope.png,,,,,,,,,,,,,,,,,,,,,,,,,
null,,rt_plussign_withcolor,322667,,yellow,,,,null,GW/shreveport.png,GW/newhope.png,,,,,,,,,,,,,,,,,,,,,,,,,
880.3999999761581,,rt_thecrossant_black,324238,,black_plus_sign,,,,50,,,1,1,,,,,,,,,,,,,,,,,,,,,,,
null,,color_black,324344,,black_plus_sign,,,,null,,,,,,,,,,,,,,,,,,,,,,,,,,,
null,,learn_phase(without_color),327349,,black_plus_sign,,,,null,GW/boulder.png,GW/peoria.png,,,,,,,,,,,,,,,,,,,,,,,,,
null,,black_cross(without_color),328312,,yellow,,,,null,GW/boulder.png,GW/peoria.png,,,,,,,,,,,,,,,,,,,,,,,,,
null,,rt_plussign_withcolor,328822,,yellow,,,,null,GW/boulder.png,GW/peoria.png,,,,,,,,,,,,,,,,,,,,,,,,,
571.4000000357628,,rt_thecrossant_black,329867,,black_plus_sign,,,,50,,,1,1,,,,,,,,,,,,,,,,,,,,,,,
null,,color_black,329970,,black_plus_sign,,,,null,,,,,,,,,,,,,,,,,,,,,,,,,,,
null,,learn_phase(without_color),332974,,black_plus_sign,,,,null,GW/shreveport.png,GW/newhope.png,,,,,,,,,,,,,,,,,,,,,,,,,
null,,black_cross(without_color),333684,,blue,,,,null,GW/shreveport.png,GW/newhope.png,,,,,,,,,,,,,,,,,,,,,,,,,
null,,rt_plussign_withcolor,334187,,blue,,,,null,GW/shreveport.png,GW/newhope.png,,,,,,,,,,,,,,,,,,,,,,,,,
1543,,rt_thecrossant_black,335486,,black_plus_sign,,,,49,,,1,1,,,,,,,,,,,,,,,,,,,,,,,
null,,color_black,335599,,black_plus_sign,,,,null,,,,,,,,,,,,,,,,,,,,,,,,,,,
null,,learn_phase(without_color),338602,,black_plus_sign,,,,null,GW/huntsville.png,GW/racine.png,,,,,,,,,,,,,,,,,,,,,,,,,
null,,black_cross(without_color),339442,,blue,,,,null,GW/huntsville.png,GW/racine.png,,,,,,,,,,,,,,,,,,,,,,,,,
null,,rt_plussign_withcolor,339945,,blue,,,,null,GW/huntsville.png,GW/racine.png,,,,,,,,,,,,,,,,,,,,,,,,,
874.9000000357628,,rt_thecrossant_black,341114,,black_plus_sign,,,,49,,,1,1,,,,,,,,,,,,,,,,,,,,,,,
null,,color_black,341219,,black_plus_sign,,,,null,,,,,,,,,,,,,,,,,,,,,,,,,,,
null,,learn_phase(without_color),344225,,black_plus_sign,,,,null,GW/boulder.png,GW/peoria.png,,,,,,,,,,,,,,,,,,,,,,,,,
null,,black_cross(without_color),344712,,blue,,,,null,GW/boulder.png,GW/peoria.png,,,,,,,,,,,,,,,,,,,,,,,,,
null,,rt_plussign_withcolor,345216,,blue,,,,null,GW/boulder.png,GW/peoria.png,,,,,,,,,,,,,,,,,,,,,,,,,
1069.3999999761581,,rt_thecrossant_black,346739,,black_plus_sign,,,,49,,,1,1,,,,,,,,,,,,,,,,,,,,,,,
null,,color_black,346842,,black_plus_sign,,,,null,,,,,,,,,,,,,,,,,,,,,,,,,,,
null,,learn_phase(without_color),349845,,black_plus_sign,,,,null,GW/hotsprings.png,GW/carmel.png,,,,,,,,,,,,,,,,,,,,,,,,,
null,,black_cross(without_color),350648,,blue,,,,null,GW/hotsprings.png,GW/carmel.png,,,,,,,,,,,,,,,,,,,,,,,,,
null,,rt_plussign_withcolor,351151,,blue,,,,null,GW/hotsprings.png,GW/carmel.png,,,,,,,,,,,,,,,,,,,,,,,,,
679.6999999880791,,rt_thecrossant_black,352356,,black_plus_sign,,,,49,,,1,1,,,,,,,,,,,,,,,,,,,,,,,
null,,color_black,352459,,black_plus_sign,,,,null,,,,,,,,,,,,,,,,,,,,,,,,,,,
null,,learn_phase(without_color),355465,,black_plus_sign,,,,null,GW/newhope.png,GW/shreveport.png,,,,,,,,,,,,,,,,,,,,,,,,,
null,,black_cross(without_color),355897,,yellow,,,,null,GW/newhope.png,GW/shreveport.png,,,,,,,,,,,,,,,,,,,,,,,,,
null,,rt_plussign_withcolor,356401,,yellow,,,,null,GW/newhope.png,GW/shreveport.png,,,,,,,,,,,,,,,,,,,,,,,,,
993.3000000119209,,rt_thecrossant_black,357977,,black_plus_sign,,,,50,,,1,1,,,,,,,,,,,,,,,,,,,,,,,
null,,color_black,358084,,black_plus_sign,,,,null,,,,,,,,,,,,,,,,,,,,,,,,,,,
null,,learn_phase(without_color),361088,,black_plus_sign,,,,null,GW/peoria.png,GW/boulder.png,,,,,,,,,,,,,,,,,,,,,,,,,
null,,black_cross(without_color),362035,,yellow,,,,null,GW/peoria.png,GW/boulder.png,,,,,,,,,,,,,,,,,,,,,,,,,
479.5,,rt_plussign_withcolor,362537,,yellow,,,,50,GW/peoria.png,GW/boulder.png,,,,,,,,,,,,,,,,,,,,,,,,,
null,,rt_thecrossant_black,363598,,black_plus_sign,,,,null,,,1,1,,,,,,,,,,,,,,,,,,,,,,,
null,,color_black,363705,,black_plus_sign,,,,null,,,,,,,,,,,,,,,,,,,,,,,,,,,
null,,learn_phase(without_color),366711,,black_plus_sign,,,,null,GW/hotsprings.png,GW/carmel.png,,,,,,,,,,,,,,,,,,,,,,,,,
null,,black_cross(without_color),367274,,blue,,,,null,GW/hotsprings.png,GW/carmel.png,,,,,,,,,,,,,,,,,,,,,,,,,
454.9000000357628,,rt_plussign_withcolor,367777,,blue,,,,49,GW/hotsprings.png,GW/carmel.png,,,,,,,,,,,,,,,,,,,,,,,,,
null,,rt_thecrossant_black,369222,,black_plus_sign,,,,null,,,1,1,,,,,,,,,,,,,,,,,,,,,,,
null,,color_black,369326,,black_plus_sign,,,,null,,,,,,,,,,,,,,,,,,,,,,,,,,,
null,,learn_phase(without_color),372330,,black_plus_sign,,,,null,GW/shreveport.png,GW/newhope.png,,,,,,,,,,,,,,,,,,,,,,,,,
null,,black_cross(without_color),373142,,blue,,,,null,GW/shreveport.png,GW/newhope.png,,,,,,,,,,,,,,,,,,,,,,,,,
null,,rt_plussign_withcolor,373645,,blue,,,,null,GW/shreveport.png,GW/newhope.png,,,,,,,,,,,,,,,,,,,,,,,,,
872.5,,rt_thecrossant_black,374838,,black_plus_sign,,,,49,,,1,1,,,,,,,,,,,,,,,,,,,,,,,
null,,color_black,374941,,black_plus_sign,,,,null,,,,,,,,,,,,,,,,,,,,,,,,,,,
null,,learn_phase(without_color),377944,,black_plus_sign,,,,null,GW/huntsville.png,GW/racine.png,,,,,,,,,,,,,,,,,,,,,,,,,
null,,black_cross(without_color),378863,,blue,,,,null,GW/huntsville.png,GW/racine.png,,,,,,,,,,,,,,,,,,,,,,,,,
null,,rt_plussign_withcolor,379370,,blue,,,,null,GW/huntsville.png,GW/racine.png,,,,,,,,,,,,,,,,,,,,,,,,,
973.0999999642372,,rt_thecrossant_black,380461,,black_plus_sign,,,,49,,,1,1,,,,,,,,,,,,,,,,,,,,,,,
null,,color_black,380566,,black_plus_sign,,,,null,,,,,,,,,,,,,,,,,,,,,,,,,,,
null,,learn_phase(without_color),383571,,black_plus_sign,,,,null,GW/shreveport.png,GW/newhope.png,,,,,,,,,,,,,,,,,,,,,,,,,
null,,black_cross(without_color),383990,,blue,,,,null,GW/shreveport.png,GW/newhope.png,,,,,,,,,,,,,,,,,,,,,,,,,
null,,rt_plussign_withcolor,384493,,blue,,,,null,GW/shreveport.png,GW/newhope.png,,,,,,,,,,,,,,,,,,,,,,,,,
1176.8999999761581,,rt_thecrossant_black,386083,,black_plus_sign,,,,49,,,1,1,,,,,,,,,,,,,,,,,,,,,,,
null,,color_black,386185,,black_plus_sign,,,,null,,,,,,,,,,,,,,,,,,,,,,,,,,,
null,,learn_phase(without_color),389189,,black_plus_sign,,,,null,GW/huntsville.png,GW/racine.png,,,,,,,,,,,,,,,,,,,,,,,,,
null,,black_cross(without_color),389615,,blue,,,,null,GW/huntsville.png,GW/racine.png,,,,,,,,,,,,,,,,,,,,,,,,,
null,,rt_plussign_withcolor,390123,,blue,,,,null,GW/huntsville.png,GW/racine.png,,,,,,,,,,,,,,,,,,,,,,,,,
555.1000000238419,,rt_thecrossant_black,391703,,black_plus_sign,,,,49,,,1,1,,,,,,,,,,,,,,,,,,,,,,,
null,,color_black,391807,,black_plus_sign,,,,null,,,,,,,,,,,,,,,,,,,,,,,,,,,
null,,learn_phase(without_color),394812,,black_plus_sign,,,,null,GW/peoria.png,GW/boulder.png,,,,,,,,,,,,,,,,,,,,,,,,,
null,,black_cross(without_color),395607,,yellow,,,,null,GW/peoria.png,GW/boulder.png,,,,,,,,,,,,,,,,,,,,,,,,,
438.69999998807907,,rt_plussign_withcolor,396113,,yellow,,,,50,GW/peoria.png,GW/boulder.png,,,,,,,,,,,,,,,,,,,,,,,,,
null,,rt_thecrossant_black,397326,,black_plus_sign,,,,null,,,1,1,,,,,,,,,,,,,,,,,,,,,,,
null,,color_black,397429,,black_plus_sign,,,,null,,,,,,,,,,,,,,,,,,,,,,,,,,,
null,,learn_phase(without_color),400433,,black_plus_sign,,,,null,GW/racine.png,GW/huntsville.png,,,,,,,,,,,,,,,,,,,,,,,,,
null,,black_cross(without_color),401270,,yellow,,,,null,GW/racine.png,GW/huntsville.png,,,,,,,,,,,,,,,,,,,,,,,,,
null,,rt_plussign_withcolor,401775,,yellow,,,,null,GW/racine.png,GW/huntsville.png,,,,,,,,,,,,,,,,,,,,,,,,,
974.6999999880791,,rt_thecrossant_black,402947,,black_plus_sign,,,,50,,,1,1,,,,,,,,,,,,,,,,,,,,,,,
null,,color_black,403050,,black_plus_sign,,,,null,,,,,,,,,,,,,,,,,,,,,,,,,,,
null,,learn_phase(without_color),406054,,black_plus_sign,,,,null,GW/hotsprings.png,GW/carmel.png,,,,,,,,,,,,,,,,,,,,,,,,,
null,,black_cross(without_color),406634,,yellow,,,,null,GW/hotsprings.png,GW/carmel.png,,,,,,,,,,,,,,,,,,,,,,,,,
null,,rt_plussign_withcolor,407136,,yellow,,,,null,GW/hotsprings.png,GW/carmel.png,,,,,,,,,,,,,,,,,,,,,,,,,
1050.3999999761581,,rt_thecrossant_black,408564,,black_plus_sign,,,,50,,,1,1,,,,,,,,,,,,,,,,,,,,,,,
null,,color_black,408667,,black_plus_sign,,,,null,,,,,,,,,,,,,,,,,,,,,,,,,,,
null,,learn_phase(without_color),411672,,black_plus_sign,,,,null,GW/cornwall.png,GW/hotsprings.png,,,,,,,,,,,,,,,,,,,,,,,,,
null,,black_cross(without_color),412313,,yellow,,,,null,GW/cornwall.png,GW/hotsprings.png,,,,,,,,,,,,,,,,,,,,,,,,,
null,,rt_plussign_withcolor,412817,,yellow,,,,null,GW/cornwall.png,GW/hotsprings.png,,,,,,,,,,,,,,,,,,,,,,,,,
815.3999999761581,,rt_thecrossant_black,414186,,black_plus_sign,,,,50,,,1,1,,,,,,,,,,,,,,,,,,,,,,,
null,,color_black,414290,,black_plus_sign,,,,null,,,,,,,,,,,,,,,,,,,,,,,,,,,
null,,learn_phase(without_color),417293,,black_plus_sign,,,,null,GW/westpalmbeach.png,GW/carmel.png,,,,,,,,,,,,,,,,,,,,,,,,,
null,,black_cross(without_color),417783,,blue,,,,null,GW/westpalmbeach.png,GW/carmel.png,,,,,,,,,,,,,,,,,,,,,,,,,
null,,rt_plussign_withcolor,418285,,blue,,,,null,GW/westpalmbeach.png,GW/carmel.png,,,,,,,,,,,,,,,,,,,,,,,,,
902.1000000238419,,rt_thecrossant_black,419803,,black_plus_sign,,,,50,,,0,0.9705882352941176,,,,,,,,,,,,,,,,,,,,,,,
null,,color_black,419909,,black_plus_sign,,,,null,,,,,,,,,,,,,,,,,,,,,,,,,,,
null,,learn_phase(without_color),422914,,black_plus_sign,,,,null,GW/peoria.png,GW/newhope.png,,,,,,,,,,,,,,,,,,,,,,,,,
null,,black_cross(without_color),423680,,blue,,,,null,GW/peoria.png,GW/newhope.png,,,,,,,,,,,,,,,,,,,,,,,,,
null,,rt_plussign_withcolor,424184,,blue,,,,null,GW/peoria.png,GW/newhope.png,,,,,,,,,,,,,,,,,,,,,,,,,
1048.8999999761581,,rt_thecrossant_black,425423,,black_plus_sign,,,,49,,,1,0.9714285714285714,,,,,,,,,,,,,,,,,,,,,,,
null,,color_black,425526,,black_plus_sign,,,,null,,,,,,,,,,,,,,,,,,,,,,,,,,,
null,,learn_phase(without_color),428529,,black_plus_sign,,,,null,GW/hanover.png,GW/gatlinburg.png,,,,,,,,,,,,,,,,,,,,,,,,,
null,,black_cross(without_color),429519,,blue,,,,null,GW/hanover.png,GW/gatlinburg.png,,,,,,,,,,,,,,,,,,,,,,,,,
null,,rt_plussign_withcolor,430023,,blue,,,,null,GW/hanover.png,GW/gatlinburg.png,,,,,,,,,,,,,,,,,,,,,,,,,
863.4000000357628,,rt_thecrossant_black,431038,,black_plus_sign,,,,49,,,1,0.9722222222222222,,,,,,,,,,,,,,,,,,,,,,,
null,,color_black,431142,,black_plus_sign,,,,null,,,,,,,,,,,,,,,,,,,,,,,,,,,
null,,learn_phase(without_color),434148,,black_plus_sign,,,,null,GW/cornwall.png,GW/hotsprings.png,,,,,,,,,,,,,,,,,,,,,,,,,
null,,black_cross(without_color),434638,,yellow,,,,null,GW/cornwall.png,GW/hotsprings.png,,,,,,,,,,,,,,,,,,,,,,,,,
null,,rt_plussign_withcolor,435141,,yellow,,,,null,GW/cornwall.png,GW/hotsprings.png,,,,,,,,,,,,,,,,,,,,,,,,,
1168.800000011921,,rt_thecrossant_black,436660,,black_plus_sign,,,,50,,,1,0.972972972972973,,,,,,,,,,,,,,,,,,,,,,,
null,,color_black,436764,,black_plus_sign,,,,null,,,,,,,,,,,,,,,,,,,,,,,,,,,
null,,learn_phase(without_color),439767,,black_plus_sign,,,,null,GW/newhope.png,GW/peoria.png,,,,,,,,,,,,,,,,,,,,,,,,,
null,,black_cross(without_color),440521,,blue,,,,null,GW/newhope.png,GW/peoria.png,,,,,,,,,,,,,,,,,,,,,,,,,
null,,rt_plussign_withcolor,441025,,blue,,,,null,GW/newhope.png,GW/peoria.png,,,,,,,,,,,,,,,,,,,,,,,,,
591,,rt_thecrossant_black,442282,,black_plus_sign,,,,49,,,1,0.9736842105263158,,,,,,,,,,,,,,,,,,,,,,,
null,,color_black,442385,,black_plus_sign,,,,null,,,,,,,,,,,,,,,,,,,,,,,,,,,
null,,learn_phase(without_color),445389,,black_plus_sign,,,,null,GW/hotsprings.png,GW/cornwall.png,,,,,,,,,,,,,,,,,,,,,,,,,
null,,black_cross(without_color),445914,,yellow,,,,null,GW/hotsprings.png,GW/cornwall.png,,,,,,,,,,,,,,,,,,,,,,,,,
389.5,,rt_plussign_withcolor,446417,,yellow,,,,50,GW/hotsprings.png,GW/cornwall.png,,,,,,,,,,,,,,,,,,,,,,,,,
null,,rt_thecrossant_black,447899,,black_plus_sign,,,,null,,,1,0.9743589743589743,,,,,,,,,,,,,,,,,,,,,,,
null,,color_black,448003,,black_plus_sign,,,,null,,,,,,,,,,,,,,,,,,,,,,,,,,,
null,,learn_phase(without_color),451009,,black_plus_sign,,,,null,GW/hanover.png,GW/gatlinburg.png,,,,,,,,,,,,,,,,,,,,,,,,,
null,,black_cross(without_color),451985,,yellow,,,,null,GW/hanover.png,GW/gatlinburg.png,,,,,,,,,,,,,,,,,,,,,,,,,
null,,rt_plussign_withcolor,452488,,yellow,,,,null,GW/hanover.png,GW/gatlinburg.png,,,,,,,,,,,,,,,,,,,,,,,,,
629.8000000119209,,rt_thecrossant_black,453519,,black_plus_sign,,,,50,,,1,0.975,,,,,,,,,,,,,,,,,,,,,,,
null,,color_black,453622,,black_plus_sign,,,,null,,,,,,,,,,,,,,,,,,,,,,,,,,,
null,,learn_phase(without_color),456628,,black_plus_sign,,,,null,GW/newhope.png,GW/peoria.png,,,,,,,,,,,,,,,,,,,,,,,,,
null,,black_cross(without_color),457466,,blue,,,,null,GW/newhope.png,GW/peoria.png,,,,,,,,,,,,,,,,,,,,,,,,,
null,,rt_plussign_withcolor,457968,,blue,,,,null,GW/newhope.png,GW/peoria.png,,,,,,,,,,,,,,,,,,,,,,,,,
1088.300000011921,,rt_thecrossant_black,459137,,black_plus_sign,,,,49,,,1,0.975609756097561,,,,,,,,,,,,,,,,,,,,,,,
null,,color_black,459241,,black_plus_sign,,,,null,,,,,,,,,,,,,,,,,,,,,,,,,,,
null,,learn_phase(without_color),462245,,black_plus_sign,,,,null,GW/gatlinburg.png,GW/hanover.png,,,,,,,,,,,,,,,,,,,,,,,,,
null,,black_cross(without_color),462933,,blue,,,,null,GW/gatlinburg.png,GW/hanover.png,,,,,,,,,,,,,,,,,,,,,,,,,
null,,rt_plussign_withcolor,463435,,blue,,,,null,GW/gatlinburg.png,GW/hanover.png,,,,,,,,,,,,,,,,,,,,,,,,,
971.6999999880791,,rt_thecrossant_black,464755,,black_plus_sign,,,,50,,,0,0.9523809523809523,,,,,,,,,,,,,,,,,,,,,,,
null,,color_black,464859,,black_plus_sign,,,,null,,,,,,,,,,,,,,,,,,,,,,,,,,,
null,,learn_phase(without_color),467861,,black_plus_sign,,,,null,GW/peoria.png,GW/newhope.png,,,,,,,,,,,,,,,,,,,,,,,,,
null,,black_cross(without_color),468586,,yellow,,,,null,GW/peoria.png,GW/newhope.png,,,,,,,,,,,,,,,,,,,,,,,,,
null,,rt_plussign_withcolor,469089,,yellow,,,,null,GW/peoria.png,GW/newhope.png,,,,,,,,,,,,,,,,,,,,,,,,,
829.8000000119209,,rt_thecrossant_black,470372,,black_plus_sign,,,,50,,,1,0.9534883720930233,,,,,,,,,,,,,,,,,,,,,,,
null,,color_black,470476,,black_plus_sign,,,,null,,,,,,,,,,,,,,,,,,,,,,,,,,,
null,,learn_phase(without_color),473479,,black_plus_sign,,,,null,GW/hotsprings.png,GW/cornwall.png,,,,,,,,,,,,,,,,,,,,,,,,,
null,,black_cross(without_color),474404,,blue,,,,null,GW/hotsprings.png,GW/cornwall.png,,,,,,,,,,,,,,,,,,,,,,,,,
null,,rt_plussign_withcolor,474907,,blue,,,,null,GW/hotsprings.png,GW/cornwall.png,,,,,,,,,,,,,,,,,,,,,,,,,
1058.199999988079,,rt_thecrossant_black,475990,,black_plus_sign,,,,49,,,1,0.9545454545454546,,,,,,,,,,,,,,,,,,,,,,,
null,,color_black,476098,,black_plus_sign,,,,null,,,,,,,,,,,,,,,,,,,,,,,,,,,
null,,learn_phase(without_color),479105,,black_plus_sign,,,,null,GW/carmel.png,GW/westpalmbeach.png,,,,,,,,,,,,,,,,,,,,,,,,,
null,,black_cross(without_color),479709,,blue,,,,null,GW/carmel.png,GW/westpalmbeach.png,,,,,,,,,,,,,,,,,,,,,,,,,
null,,rt_plussign_withcolor,480212,,blue,,,,null,GW/carmel.png,GW/westpalmbeach.png,,,,,,,,,,,,,,,,,,,,,,,,,
1213.699999988079,,rt_thecrossant_black,481614,,black_plus_sign,,,,49,,,1,0.9555555555555556,,,,,,,,,,,,,,,,,,,,,,,
null,,color_black,481718,,black_plus_sign,,,,null,,,,,,,,,,,,,,,,,,,,,,,,,,,
null,,learn_phase(without_color),484722,,black_plus_sign,,,,null,GW/hanover.png,GW/gatlinburg.png,,,,,,,,,,,,,,,,,,,,,,,,,
null,,black_cross(without_color),485683,,blue,,,,null,GW/hanover.png,GW/gatlinburg.png,,,,,,,,,,,,,,,,,,,,,,,,,
null,,rt_plussign_withcolor,486185,,blue,,,,null,GW/hanover.png,GW/gatlinburg.png,,,,,,,,,,,,,,,,,,,,,,,,,
845.9000000357628,,rt_thecrossant_black,487232,,black_plus_sign,,,,49,,,1,0.9565217391304348,,,,,,,,,,,,,,,,,,,,,,,
null,,color_black,487337,,black_plus_sign,,,,null,,,,,,,,,,,,,,,,,,,,,,,,,,,
null,,learn_phase(without_color),490343,,black_plus_sign,,,,null,GW/hotsprings.png,GW/cornwall.png,,,,,,,,,,,,,,,,,,,,,,,,,
null,,black_cross(without_color),491259,,blue,,,,null,GW/hotsprings.png,GW/cornwall.png,,,,,,,,,,,,,,,,,,,,,,,,,
null,,rt_plussign_withcolor,491762,,blue,,,,null,GW/hotsprings.png,GW/cornwall.png,,,,,,,,,,,,,,,,,,,,,,,,,
1089.8999999761581,,rt_thecrossant_black,492854,,black_plus_sign,,,,49,,,1,0.9574468085106383,,,,,,,,,,,,,,,,,,,,,,,
null,,color_black,492957,,black_plus_sign,,,,null,,,,,,,,,,,,,,,,,,,,,,,,,,,
null,,learn_phase(without_color),495972,,black_plus_sign,,,,null,GW/westpalmbeach.png,GW/carmel.png,,,,,,,,,,,,,,,,,,,,,,,,,
null,,black_cross(without_color),496559,,blue,,,,null,GW/westpalmbeach.png,GW/carmel.png,,,,,,,,,,,,,,,,,,,,,,,,,
429.2000000476837,,rt_plussign_withcolor,497061,,blue,,,,49,GW/westpalmbeach.png,GW/carmel.png,,,,,,,,,,,,,,,,,,,,,,,,,
null,,rt_thecrossant_black,498482,,black_plus_sign,,,,null,,,1,0.9583333333333334,,,,,,,,,,,,,,,,,,,,,,,
null,,color_black,498586,,black_plus_sign,,,,null,,,,,,,,,,,,,,,,,,,,,,,,,,,
null,,learn_phase(without_color),501590,,black_plus_sign,,,,null,GW/newhope.png,GW/peoria.png,,,,,,,,,,,,,,,,,,,,,,,,,
null,,black_cross(without_color),502313,,blue,,,,null,GW/newhope.png,GW/peoria.png,,,,,,,,,,,,,,,,,,,,,,,,,
458.60000002384186,,rt_plussign_withcolor,502816,,blue,,,,49,GW/newhope.png,GW/peoria.png,,,,,,,,,,,,,,,,,,,,,,,,,
null,,rt_thecrossant_black,504101,,black_plus_sign,,,,null,,,1,0.9591836734693877,,,,,,,,,,,,,,,,,,,,,,,
null,,color_black,504204,,black_plus_sign,,,,null,,,,,,,,,,,,,,,,,,,,,,,,,,,
null,,learn_phase(without_color),507208,,black_plus_sign,,,,null,GW/cornwall.png,GW/hotsprings.png,,,,,,,,,,,,,,,,,,,,,,,,,
null,,black_cross(without_color),507967,,blue,,,,null,GW/cornwall.png,GW/hotsprings.png,,,,,,,,,,,,,,,,,,,,,,,,,
null,,rt_plussign_withcolor,508470,,blue,,,,null,GW/cornwall.png,GW/hotsprings.png,,,,,,,,,,,,,,,,,,,,,,,,,
933,,rt_thecrossant_black,509720,,black_plus_sign,,,,49,,,1,0.96,,,,,,,,,,,,,,,,,,,,,,,
null,,color_black,509823,,black_plus_sign,,,,null,,,,,,,,,,,,,,,,,,,,,,,,,,,
null,,learn_phase(without_color),512828,,black_plus_sign,,,,null,GW/westpalmbeach.png,GW/carmel.png,,,,,,,,,,,,,,,,,,,,,,,,,
null,,black_cross(without_color),513756,,blue,,,,null,GW/westpalmbeach.png,GW/carmel.png,,,,,,,,,,,,,,,,,,,,,,,,,
null,,rt_plussign_withcolor,514260,,blue,,,,null,GW/westpalmbeach.png,GW/carmel.png,,,,,,,,,,,,,,,,,,,,,,,,,
902.8999999761581,,rt_thecrossant_black,515339,,black_plus_sign,,,,49,,,1,0.9607843137254902,,,,,,,,,,,,,,,,,,,,,,,
null,,color_black,515456,,black_plus_sign,,,,null,,,,,,,,,,,,,,,,,,,,,,,,,,,
null,,learn_phase(without_color),518462,,black_plus_sign,,,,null,GW/hanover.png,GW/gatlinburg.png,,,,,,,,,,,,,,,,,,,,,,,,,
null,,black_cross(without_color),519274,,yellow,,,,null,GW/hanover.png,GW/gatlinburg.png,,,,,,,,,,,,,,,,,,,,,,,,,
428.60000002384186,,rt_plussign_withcolor,519779,,yellow,,,,50,GW/hanover.png,GW/gatlinburg.png,,,,,,,,,,,,,,,,,,,,,,,,,
null,,rt_thecrossant_black,520976,,black_plus_sign,,,,null,,,1,0.9615384615384616,,,,,,,,,,,,,,,,,,,,,,,
null,,color_black,521079,,black_plus_sign,,,,null,,,,,,,,,,,,,,,,,,,,,,,,,,,
null,,learn_phase(without_color),524084,,black_plus_sign,,,,null,GW/westpalmbeach.png,GW/carmel.png,,,,,,,,,,,,,,,,,,,,,,,,,
null,,black_cross(without_color),525008,,yellow,,,,null,GW/westpalmbeach.png,GW/carmel.png,,,,,,,,,,,,,,,,,,,,,,,,,
null,,rt_plussign_withcolor,525510,,yellow,,,,null,GW/westpalmbeach.png,GW/carmel.png,,,,,,,,,,,,,,,,,,,,,,,,,
939,,rt_thecrossant_black,526592,,black_plus_sign,,,,50,,,1,0.9622641509433962,,,,,,,,,,,,,,,,,,,,,,,
null,,color_black,526697,,black_plus_sign,,,,null,,,,,,,,,,,,,,,,,,,,,,,,,,,
null,,learn_phase(without_color),529703,,black_plus_sign,,,,null,GW/hanover.png,GW/gatlinburg.png,,,,,,,,,,,,,,,,,,,,,,,,,
null,,black_cross(without_color),530187,,blue,,,,null,GW/hanover.png,GW/gatlinburg.png,,,,,,,,,,,,,,,,,,,,,,,,,
null,,rt_plussign_withcolor,530690,,blue,,,,null,GW/hanover.png,GW/gatlinburg.png,,,,,,,,,,,,,,,,,,,,,,,,,
1177.800000011921,,rt_thecrossant_black,532215,,black_plus_sign,,,,49,,,1,0.9629629629629629,,,,,,,,,,,,,,,,,,,,,,,
null,,color_black,532318,,black_plus_sign,,,,null,,,,,,,,,,,,,,,,,,,,,,,,,,,
null,,learn_phase(without_color),535322,,black_plus_sign,,,,null,GW/carmel.png,GW/westpalmbeach.png,,,,,,,,,,,,,,,,,,,,,,,,,
null,,black_cross(without_color),536251,,yellow,,,,null,GW/carmel.png,GW/westpalmbeach.png,,,,,,,,,,,,,,,,,,,,,,,,,
475.0999999642372,,rt_plussign_withcolor,536754,,yellow,,,,50,GW/carmel.png,GW/westpalmbeach.png,,,,,,,,,,,,,,,,,,,,,,,,,
null,,rt_thecrossant_black,537829,,black_plus_sign,,,,null,,,1,0.9636363636363636,,,,,,,,,,,,,,,,,,,,,,,
null,,color_black,537934,,black_plus_sign,,,,null,,,,,,,,,,,,,,,,,,,,,,,,,,,
null,,learn_phase(without_color),540939,,black_plus_sign,,,,null,GW/newhope.png,GW/peoria.png,,,,,,,,,,,,,,,,,,,,,,,,,
null,,black_cross(without_color),541884,,yellow,,,,null,GW/newhope.png,GW/peoria.png,,,,,,,,,,,,,,,,,,,,,,,,,
null,,rt_plussign_withcolor,542387,,yellow,,,,null,GW/newhope.png,GW/peoria.png,,,,,,,,,,,,,,,,,,,,,,,,,
1116.1000000238419,,rt_thecrossant_black,543453,,black_plus_sign,,,,50,,,1,0.9642857142857143,,,,,,,,,,,,,,,,,,,,,,,
null,,color_black,543555,,black_plus_sign,,,,null,,,,,,,,,,,,,,,,,,,,,,,,,,,
null,,learn_phase(without_color),546560,,black_plus_sign,,,,null,GW/gatlinburg.png,GW/hanover.png,,,,,,,,,,,,,,,,,,,,,,,,,
null,,black_cross(without_color),547109,,yellow,,,,null,GW/gatlinburg.png,GW/hanover.png,,,,,,,,,,,,,,,,,,,,,,,,,
null,,rt_plussign_withcolor,547614,,yellow,,,,null,GW/gatlinburg.png,GW/hanover.png,,,,,,,,,,,,,,,,,,,,,,,,,
1081.1000000238419,,rt_thecrossant_black,549070,,black_plus_sign,,,,50,,,1,0.9649122807017544,,,,,,,,,,,,,,,,,,,,,,,
null,,color_black,549174,,black_plus_sign,,,,null,,,,,,,,,,,,,,,,,,,,,,,,,,,
null,,learn_phase(without_color),552193,,black_plus_sign,,,,null,GW/westpalmbeach.png,GW/carmel.png,,,,,,,,,,,,,,,,,,,,,,,,,
null,,black_cross(without_color),552859,,blue,,,,null,GW/westpalmbeach.png,GW/carmel.png,,,,,,,,,,,,,,,,,,,,,,,,,
null,,rt_plussign_withcolor,553360,,blue,,,,null,GW/westpalmbeach.png,GW/carmel.png,,,,,,,,,,,,,,,,,,,,,,,,,
700.8999999761581,,rt_thecrossant_black,554701,,black_plus_sign,,,,49,,,1,0.9655172413793104,,,,,,,,,,,,,,,,,,,,,,,
null,,color_black,554804,,black_plus_sign,,,,null,,,,,,,,,,,,,,,,,,,,,,,,,,,
null,,learn_phase(without_color),557807,,black_plus_sign,,,,null,GW/hotsprings.png,GW/cornwall.png,,,,,,,,,,,,,,,,,,,,,,,,,
null,,black_cross(without_color),558476,,yellow,,,,null,GW/hotsprings.png,GW/cornwall.png,,,,,,,,,,,,,,,,,,,,,,,,,
null,,rt_plussign_withcolor,558979,,yellow,,,,null,GW/hotsprings.png,GW/cornwall.png,,,,,,,,,,,,,,,,,,,,,,,,,
828.3999999761581,,rt_thecrossant_black,560322,,black_plus_sign,,,,50,,,1,0.9661016949152542,,,,,,,,,,,,,,,,,,,,,,,
null,,color_black,560427,,black_plus_sign,,,,null,,,,,,,,,,,,,,,,,,,,,,,,,,,
null,,learn_phase(without_color),563430,,black_plus_sign,,,,null,GW/gatlinburg.png,GW/hanover.png,,,,,,,,,,,,,,,,,,,,,,,,,
null,,black_cross(without_color),563892,,yellow,,,,null,GW/gatlinburg.png,GW/hanover.png,,,,,,,,,,,,,,,,,,,,,,,,,
null,,rt_plussign_withcolor,564394,,yellow,,,,null,GW/gatlinburg.png,GW/hanover.png,,,,,,,,,,,,,,,,,,,,,,,,,
816.3000000119209,,rt_thecrossant_black,565938,,black_plus_sign,,,,50,,,1,0.9666666666666667,,,,,,,,,,,,,,,,,,,,,,,
null,,color_black,566045,,black_plus_sign,,,,null,,,,,,,,,,,,,,,,,,,,,,,,,,,
null,,learn_phase(without_color),569049,,black_plus_sign,,,,null,GW/peoria.png,GW/newhope.png,,,,,,,,,,,,,,,,,,,,,,,,,
null,,black_cross(without_color),569706,,yellow,,,,null,GW/peoria.png,GW/newhope.png,,,,,,,,,,,,,,,,,,,,,,,,,
null,,rt_plussign_withcolor,570209,,yellow,,,,null,GW/peoria.png,GW/newhope.png,,,,,,,,,,,,,,,,,,,,,,,,,
589.4000000357628,,rt_thecrossant_black,571560,,black_plus_sign,,,,50,,,1,0.9672131147540983,,,,,,,,,,,,,,,,,,,,,,,
null,,color_black,571664,,black_plus_sign,,,,null,,,,,,,,,,,,,,,,,,,,,,,,,,,
null,,learn_phase(without_color),574667,,black_plus_sign,,,,null,GW/hotsprings.png,GW/cornwall.png,,,,,,,,,,,,,,,,,,,,,,,,,
null,,black_cross(without_color),575515,,yellow,,,,null,GW/hotsprings.png,GW/cornwall.png,,,,,,,,,,,,,,,,,,,,,,,,,
null,,rt_plussign_withcolor,576018,,yellow,,,,null,GW/hotsprings.png,GW/cornwall.png,,,,,,,,,,,,,,,,,,,,,,,,,
772.8999999761581,,rt_thecrossant_black,577178,,black_plus_sign,,,,50,,,1,0.967741935483871,,,,,,,,,,,,,,,,,,,,,,,
null,,color_black,577281,,black_plus_sign,,,,null,,,,,,,,,,,,,,,,,,,,,,,,,,,
null,,learn_phase(without_color),580286,,black_plus_sign,,,,null,GW/peoria.png,GW/newhope.png,,,,,,,,,,,,,,,,,,,,,,,,,
null,,black_cross(without_color),580875,,blue,,,,null,GW/peoria.png,GW/newhope.png,,,,,,,,,,,,,,,,,,,,,,,,,
null,,rt_plussign_withcolor,581385,,blue,,,,null,GW/peoria.png,GW/newhope.png,,,,,,,,,,,,,,,,,,,,,,,,,
1025.5,,rt_thecrossant_black,582804,,black_plus_sign,,,,49,,,1,0.9682539682539683,,,,,,,,,,,,,,,,,,,,,,,
null,,color_black,582908,,black_plus_sign,,,,null,,,,,,,,,,,,,,,,,,,,,,,,,,,
null,,learn_phase(without_color),585910,,black_plus_sign,,,,null,GW/westpalmbeach.png,GW/carmel.png,,,,,,,,,,,,,,,,,,,,,,,,,
null,,black_cross(without_color),586778,,yellow,,,,null,GW/westpalmbeach.png,GW/carmel.png,,,,,,,,,,,,,,,,,,,,,,,,,
464.7000000476837,,rt_plussign_withcolor,587282,,yellow,,,,50,GW/westpalmbeach.png,GW/carmel.png,,,,,,,,,,,,,,,,,,,,,,,,,
null,,rt_thecrossant_black,588424,,black_plus_sign,,,,null,,,1,0.96875,,,,,,,,,,,,,,,,,,,,,,,
null,,color_black,588528,,black_plus_sign,,,,null,,,,,,,,,,,,,,,,,,,,,,,,,,,
30316.69999998808,,learn_break,618849,,learn_break,,,,32,,,,,,,,,,,,,,,,,,,,,,,,,,,
null,,html-keyboard-response,619852,,<p></p>,,,,null,,,,,,,,,,,,,,,,,,,,,,,,,,,
null,,learn_phase(without_color),622854,,black_plus_sign,,,,null,GW/cornwall.png,GW/shreveport.png,,,,,,,,,,,,,,,,,,,,,,,,,
null,,black_cross(without_color),623633,,yellow,,,,null,GW/cornwall.png,GW/shreveport.png,,,,,,,,,,,,,,,,,,,,,,,,,
null,,rt_plussign_withcolor,624136,,yellow,,,,null,GW/cornwall.png,GW/shreveport.png,,,,,,,,,,,,,,,,,,,,,,,,,
1055.5,,rt_thecrossant_black,625364,,black_plus_sign,,,,50,,,1,0.9692307692307692,,,,,,,,,,,,,,,,,,,,,,,
null,,color_black,625469,,black_plus_sign,,,,null,,,,,,,,,,,,,,,,,,,,,,,,,,,
null,,learn_phase(without_color),628475,,black_plus_sign,,,,null,GW/huntsville.png,GW/newhope.png,,,,,,,,,,,,,,,,,,,,,,,,,
null,,black_cross(without_color),629166,,blue,,,,null,GW/huntsville.png,GW/newhope.png,,,,,,,,,,,,,,,,,,,,,,,,,
null,,rt_plussign_withcolor,629668,,blue,,,,null,GW/huntsville.png,GW/newhope.png,,,,,,,,,,,,,,,,,,,,,,,,,
1281.300000011921,,rt_thecrossant_black,630986,,black_plus_sign,,,,49,,,1,0.9696969696969697,,,,,,,,,,,,,,,,,,,,,,,
null,,color_black,631088,,black_plus_sign,,,,null,,,,,,,,,,,,,,,,,,,,,,,,,,,
null,,learn_phase(without_color),634092,,black_plus_sign,,,,null,GW/leesburg.png,GW/hotsprings.png,,,,,,,,,,,,,,,,,,,,,,,,,
null,,black_cross(without_color),635074,,blue,,,,null,GW/leesburg.png,GW/hotsprings.png,,,,,,,,,,,,,,,,,,,,,,,,,
null,,rt_plussign_withcolor,635587,,blue,,,,null,GW/leesburg.png,GW/hotsprings.png,,,,,,,,,,,,,,,,,,,,,,,,,
820.6999999880791,,rt_thecrossant_black,636612,,black_plus_sign,,,,49,,,1,0.9701492537313433,,,,,,,,,,,,,,,,,,,,,,,
null,,color_black,636718,,black_plus_sign,,,,null,,,,,,,,,,,,,,,,,,,,,,,,,,,
null,,learn_phase(without_color),639721,,black_plus_sign,,,,null,GW/shreveport.png,GW/cornwall.png,,,,,,,,,,,,,,,,,,,,,,,,,
null,,black_cross(without_color),640445,,blue,,,,null,GW/shreveport.png,GW/cornwall.png,,,,,,,,,,,,,,,,,,,,,,,,,
null,,rt_plussign_withcolor,640949,,blue,,,,null,GW/shreveport.png,GW/cornwall.png,,,,,,,,,,,,,,,,,,,,,,,,,
1334.6000000238419,,rt_thecrossant_black,642234,,black_plus_sign,,,,49,,,1,0.9705882352941176,,,,,,,,,,,,,,,,,,,,,,,
null,,color_black,642337,,black_plus_sign,,,,null,,,,,,,,,,,,,,,,,,,,,,,,,,,
null,,learn_phase(without_color),645343,,black_plus_sign,,,,null,GW/leesburg.png,GW/hotsprings.png,,,,,,,,,,,,,,,,,,,,,,,,,
null,,black_cross(without_color),646144,,yellow,,,,null,GW/leesburg.png,GW/hotsprings.png,,,,,,,,,,,,,,,,,,,,,,,,,
398.5,,rt_plussign_withcolor,646646,,yellow,,,,50,GW/leesburg.png,GW/hotsprings.png,,,,,,,,,,,,,,,,,,,,,,,,,
null,,rt_thecrossant_black,647857,,black_plus_sign,,,,null,,,1,0.9710144927536232,,,,,,,,,,,,,,,,,,,,,,,
null,,color_black,647961,,black_plus_sign,,,,null,,,,,,,,,,,,,,,,,,,,,,,,,,,
null,,learn_phase(without_color),650966,,black_plus_sign,,,,null,GW/newhope.png,GW/huntsville.png,,,,,,,,,,,,,,,,,,,,,,,,,
null,,black_cross(without_color),652057,,yellow,,,,null,GW/newhope.png,GW/huntsville.png,,,,,,,,,,,,,,,,,,,,,,,,,
null,,rt_plussign_withcolor,652560,,yellow,,,,null,GW/newhope.png,GW/huntsville.png,,,,,,,,,,,,,,,,,,,,,,,,,
930.6000000238419,,rt_thecrossant_black,653476,,black_plus_sign,,,,50,,,1,0.9714285714285714,,,,,,,,,,,,,,,,,,,,,,,
null,,color_black,653581,,black_plus_sign,,,,null,,,,,,,,,,,,,,,,,,,,,,,,,,,
null,,learn_phase(without_color),656585,,black_plus_sign,,,,null,GW/peoria.png,GW/hanover.png,,,,,,,,,,,,,,,,,,,,,,,,,
null,,black_cross(without_color),657402,,yellow,,,,null,GW/peoria.png,GW/hanover.png,,,,,,,,,,,,,,,,,,,,,,,,,
null,,rt_plussign_withcolor,657905,,yellow,,,,null,GW/peoria.png,GW/hanover.png,,,,,,,,,,,,,,,,,,,,,,,,,
1393.5,,rt_thecrossant_black,659099,,black_plus_sign,,,,50,,,1,0.971830985915493,,,,,,,,,,,,,,,,,,,,,,,
null,,color_black,659204,,black_plus_sign,,,,null,,,,,,,,,,,,,,,,,,,,,,,,,,,
null,,learn_phase(without_color),662210,,black_plus_sign,,,,null,GW/leesburg.png,GW/hotsprings.png,,,,,,,,,,,,,,,,,,,,,,,,,
null,,black_cross(without_color),662950,,yellow,,,,null,GW/leesburg.png,GW/hotsprings.png,,,,,,,,,,,,,,,,,,,,,,,,,
null,,rt_plussign_withcolor,663453,,yellow,,,,null,GW/leesburg.png,GW/hotsprings.png,,,,,,,,,,,,,,,,,,,,,,,,,
1112.300000011921,,rt_thecrossant_black,664722,,black_plus_sign,,,,50,,,1,0.9722222222222222,,,,,,,,,,,,,,,,,,,,,,,
null,,color_black,664828,,black_plus_sign,,,,null,,,,,,,,,,,,,,,,,,,,,,,,,,,
null,,learn_phase(without_color),667831,,black_plus_sign,,,,null,GW/newhope.png,GW/huntsville.png,,,,,,,,,,,,,,,,,,,,,,,,,
null,,black_cross(without_color),668567,,yellow,,,,null,GW/newhope.png,GW/huntsville.png,,,,,,,,,,,,,,,,,,,,,,,,,
497.5,,rt_plussign_withcolor,669072,,yellow,,,,50,GW/newhope.png,GW/huntsville.png,,,,,,,,,,,,,,,,,,,,,,,,,
null,,rt_thecrossant_black,670344,,black_plus_sign,,,,null,,,1,0.9726027397260274,,,,,,,,,,,,,,,,,,,,,,,
null,,color_black,670446,,black_plus_sign,,,,null,,,,,,,,,,,,,,,,,,,,,,,,,,,
null,,learn_phase(without_color),673450,,black_plus_sign,,,,null,GW/hanover.png,GW/peoria.png,,,,,,,,,,,,,,,,,,,,,,,,,
null,,black_cross(without_color),674061,,yellow,,,,null,GW/hanover.png,GW/peoria.png,,,,,,,,,,,,,,,,,,,,,,,,,
null,,rt_plussign_withcolor,674564,,yellow,,,,null,GW/hanover.png,GW/peoria.png,,,,,,,,,,,,,,,,,,,,,,,,,
851.5,,rt_thecrossant_black,675963,,black_plus_sign,,,,50,,,1,0.972972972972973,,,,,,,,,,,,,,,,,,,,,,,
null,,color_black,676068,,black_plus_sign,,,,null,,,,,,,,,,,,,,,,,,,,,,,,,,,
null,,learn_phase(without_color),679071,,black_plus_sign,,,,null,GW/huntsville.png,GW/newhope.png,,,,,,,,,,,,,,,,,,,,,,,,,
null,,black_cross(without_color),679853,,yellow,,,,null,GW/huntsville.png,GW/newhope.png,,,,,,,,,,,,,,,,,,,,,,,,,
null,,rt_plussign_withcolor,680360,,yellow,,,,null,GW/huntsville.png,GW/newhope.png,,,,,,,,,,,,,,,,,,,,,,,,,
785.1999999880791,,rt_thecrossant_black,681585,,black_plus_sign,,,,50,,,1,0.9733333333333334,,,,,,,,,,,,,,,,,,,,,,,
null,,color_black,681688,,black_plus_sign,,,,null,,,,,,,,,,,,,,,,,,,,,,,,,,,
null,,learn_phase(without_color),684692,,black_plus_sign,,,,null,GW/hotsprings.png,GW/leesburg.png,,,,,,,,,,,,,,,,,,,,,,,,,
null,,black_cross(without_color),685655,,yellow,,,,null,GW/hotsprings.png,GW/leesburg.png,,,,,,,,,,,,,,,,,,,,,,,,,
481.5999999642372,,rt_plussign_withcolor,686159,,yellow,,,,50,GW/hotsprings.png,GW/leesburg.png,,,,,,,,,,,,,,,,,,,,,,,,,
null,,rt_thecrossant_black,687203,,black_plus_sign,,,,null,,,1,0.9736842105263158,,,,,,,,,,,,,,,,,,,,,,,
null,,color_black,687306,,black_plus_sign,,,,null,,,,,,,,,,,,,,,,,,,,,,,,,,,
null,,learn_phase(without_color),690311,,black_plus_sign,,,,null,GW/peoria.png,GW/hanover.png,,,,,,,,,,,,,,,,,,,,,,,,,
null,,black_cross(without_color),691181,,yellow,,,,null,GW/peoria.png,GW/hanover.png,,,,,,,,,,,,,,,,,,,,,,,,,
null,,rt_plussign_withcolor,691684,,yellow,,,,null,GW/peoria.png,GW/hanover.png,,,,,,,,,,,,,,,,,,,,,,,,,
1083.4000000357628,,rt_thecrossant_black,692822,,black_plus_sign,,,,50,,,1,0.974025974025974,,,,,,,,,,,,,,,,,,,,,,,
null,,color_black,692925,,black_plus_sign,,,,null,,,,,,,,,,,,,,,,,,,,,,,,,,,
null,,learn_phase(without_color),695929,,black_plus_sign,,,,null,GW/shreveport.png,GW/cornwall.png,,,,,,,,,,,,,,,,,,,,,,,,,
null,,black_cross(without_color),696669,,blue,,,,null,GW/shreveport.png,GW/cornwall.png,,,,,,,,,,,,,,,,,,,,,,,,,
478.10000002384186,,rt_plussign_withcolor,697173,,blue,,,,49,GW/shreveport.png,GW/cornwall.png,,,,,,,,,,,,,,,,,,,,,,,,,
null,,rt_thecrossant_black,698441,,black_plus_sign,,,,null,,,1,0.9743589743589743,,,,,,,,,,,,,,,,,,,,,,,
null,,color_black,698546,,black_plus_sign,,,,null,,,,,,,,,,,,,,,,,,,,,,,,,,,
null,,learn_phase(without_color),701551,,black_plus_sign,,,,null,GW/newhope.png,GW/huntsville.png,,,,,,,,,,,,,,,,,,,,,,,,,
null,,black_cross(without_color),702546,,yellow,,,,null,GW/newhope.png,GW/huntsville.png,,,,,,,,,,,,,,,,,,,,,,,,,
null,,rt_plussign_withcolor,703059,,yellow,,,,null,GW/newhope.png,GW/huntsville.png,,,,,,,,,,,,,,,,,,,,,,,,,
1026.1000000238419,,rt_thecrossant_black,704075,,black_plus_sign,,,,50,,,1,0.9746835443037974,,,,,,,,,,,,,,,,,,,,,,,
null,,color_black,704181,,black_plus_sign,,,,null,,,,,,,,,,,,,,,,,,,,,,,,,,,
null,,learn_phase(without_color),707184,,black_plus_sign,,,,null,GW/peoria.png,GW/hanover.png,,,,,,,,,,,,,,,,,,,,,,,,,
null,,black_cross(without_color),707592,,yellow,,,,null,GW/peoria.png,GW/hanover.png,,,,,,,,,,,,,,,,,,,,,,,,,
null,,rt_plussign_withcolor,708095,,yellow,,,,null,GW/peoria.png,GW/hanover.png,,,,,,,,,,,,,,,,,,,,,,,,,
1101.199999988079,,rt_thecrossant_black,709696,,black_plus_sign,,,,50,,,1,0.975,,,,,,,,,,,,,,,,,,,,,,,
null,,color_black,709799,,black_plus_sign,,,,null,,,,,,,,,,,,,,,,,,,,,,,,,,,
null,,learn_phase(without_color),712803,,black_plus_sign,,,,null,GW/shreveport.png,GW/cornwall.png,,,,,,,,,,,,,,,,,,,,,,,,,
null,,black_cross(without_color),713493,,blue,,,,null,GW/shreveport.png,GW/cornwall.png,,,,,,,,,,,,,,,,,,,,,,,,,
null,,rt_plussign_withcolor,713996,,blue,,,,null,GW/shreveport.png,GW/cornwall.png,,,,,,,,,,,,,,,,,,,,,,,,,
726.7999999523163,,rt_thecrossant_black,715312,,black_plus_sign,,,,49,,,1,0.9753086419753086,,,,,,,,,,,,,,,,,,,,,,,
null,,color_black,715417,,black_plus_sign,,,,null,,,,,,,,,,,,,,,,,,,,,,,,,,,
null,,learn_phase(without_color),718425,,black_plus_sign,,,,null,GW/hanover.png,GW/peoria.png,,,,,,,,,,,,,,,,,,,,,,,,,
null,,black_cross(without_color),718973,,yellow,,,,null,GW/hanover.png,GW/peoria.png,,,,,,,,,,,,,,,,,,,,,,,,,
null,,rt_plussign_withcolor,719487,,yellow,,,,null,GW/hanover.png,GW/peoria.png,,,,,,,,,,,,,,,,,,,,,,,,,
877.7000000476837,,rt_thecrossant_black,720950,,black_plus_sign,,,,50,,,1,0.975609756097561,,,,,,,,,,,,,,,,,,,,,,,
null,,color_black,721053,,black_plus_sign,,,,null,,,,,,,,,,,,,,,,,,,,,,,,,,,
null,,learn_phase(without_color),724057,,black_plus_sign,,,,null,GW/cornwall.png,GW/shreveport.png,,,,,,,,,,,,,,,,,,,,,,,,,
null,,black_cross(without_color),724806,,yellow,,,,null,GW/cornwall.png,GW/shreveport.png,,,,,,,,,,,,,,,,,,,,,,,,,
null,,rt_plussign_withcolor,725309,,yellow,,,,null,GW/cornwall.png,GW/shreveport.png,,,,,,,,,,,,,,,,,,,,,,,,,
643.3000000119209,,rt_thecrossant_black,726567,,black_plus_sign,,,,50,,,1,0.9759036144578314,,,,,,,,,,,,,,,,,,,,,,,
null,,color_black,726671,,black_plus_sign,,,,null,,,,,,,,,,,,,,,,,,,,,,,,,,,
null,,learn_phase(without_color),729678,,black_plus_sign,,,,null,GW/hanover.png,GW/peoria.png,,,,,,,,,,,,,,,,,,,,,,,,,
null,,black_cross(without_color),730210,,blue,,,,null,GW/hanover.png,GW/peoria.png,,,,,,,,,,,,,,,,,,,,,,,,,
null,,rt_plussign_withcolor,730717,,blue,,,,null,GW/hanover.png,GW/peoria.png,,,,,,,,,,,,,,,,,,,,,,,,,
845.3999999761581,,rt_thecrossant_black,732192,,black_plus_sign,,,,49,,,1,0.9761904761904762,,,,,,,,,,,,,,,,,,,,,,,
null,,color_black,732296,,black_plus_sign,,,,null,,,,,,,,,,,,,,,,,,,,,,,,,,,
null,,learn_phase(without_color),735302,,black_plus_sign,,,,null,GW/huntsville.png,GW/newhope.png,,,,,,,,,,,,,,,,,,,,,,,,,
null,,black_cross(without_color),736114,,blue,,,,null,GW/huntsville.png,GW/newhope.png,,,,,,,,,,,,,,,,,,,,,,,,,
499.19999998807907,,rt_plussign_withcolor,736618,,blue,,,,50,GW/huntsville.png,GW/newhope.png,,,,,,,,,,,,,,,,,,,,,,,,,
null,,rt_thecrossant_black,737815,,black_plus_sign,,,,null,,,0,0.9647058823529412,,,,,,,,,,,,,,,,,,,,,,,
null,,color_black,737919,,black_plus_sign,,,,null,,,,,,,,,,,,,,,,,,,,,,,,,,,
null,,learn_phase(without_color),740924,,black_plus_sign,,,,null,GW/hanover.png,GW/peoria.png,,,,,,,,,,,,,,,,,,,,,,,,,
null,,black_cross(without_color),741357,,blue,,,,null,GW/hanover.png,GW/peoria.png,,,,,,,,,,,,,,,,,,,,,,,,,
432.5,,rt_plussign_withcolor,741859,,blue,,,,49,GW/hanover.png,GW/peoria.png,,,,,,,,,,,,,,,,,,,,,,,,,
null,,rt_thecrossant_black,743436,,black_plus_sign,,,,null,,,1,0.9651162790697675,,,,,,,,,,,,,,,,,,,,,,,
null,,color_black,743542,,black_plus_sign,,,,null,,,,,,,,,,,,,,,,,,,,,,,,,,,
null,,learn_phase(without_color),746546,,black_plus_sign,,,,null,GW/hotsprings.png,GW/leesburg.png,,,,,,,,,,,,,,,,,,,,,,,,,
null,,black_cross(without_color),747592,,yellow,,,,null,GW/hotsprings.png,GW/leesburg.png,,,,,,,,,,,,,,,,,,,,,,,,,
null,,rt_plussign_withcolor,748096,,yellow,,,,null,GW/hotsprings.png,GW/leesburg.png,,,,,,,,,,,,,,,,,,,,,,,,,
580.9000000357628,,rt_thecrossant_black,749058,,black_plus_sign,,,,50,,,1,0.9655172413793104,,,,,,,,,,,,,,,,,,,,,,,
null,,color_black,749160,,black_plus_sign,,,,null,,,,,,,,,,,,,,,,,,,,,,,,,,,
null,,learn_phase(without_color),752165,,black_plus_sign,,,,null,GW/hanover.png,GW/peoria.png,,,,,,,,,,,,,,,,,,,,,,,,,
null,,black_cross(without_color),752626,,yellow,,,,null,GW/hanover.png,GW/peoria.png,,,,,,,,,,,,,,,,,,,,,,,,,
478.5,,rt_plussign_withcolor,753128,,yellow,,,,50,GW/hanover.png,GW/peoria.png,,,,,,,,,,,,,,,,,,,,,,,,,
null,,rt_thecrossant_black,754675,,black_plus_sign,,,,null,,,1,0.9659090909090909,,,,,,,,,,,,,,,,,,,,,,,
null,,color_black,754779,,black_plus_sign,,,,null,,,,,,,,,,,,,,,,,,,,,,,,,,,
null,,learn_phase(without_color),757784,,black_plus_sign,,,,null,GW/cornwall.png,GW/shreveport.png,,,,,,,,,,,,,,,,,,,,,,,,,
null,,black_cross(without_color),758634,,yellow,,,,null,GW/cornwall.png,GW/shreveport.png,,,,,,,,,,,,,,,,,,,,,,,,,
501,,rt_plussign_withcolor,759138,,yellow,,,,50,GW/cornwall.png,GW/shreveport.png,,,,,,,,,,,,,,,,,,,,,,,,,
null,,rt_thecrossant_black,760294,,black_plus_sign,,,,null,,,1,0.9662921348314607,,,,,,,,,,,,,,,,,,,,,,,
null,,color_black,760400,,black_plus_sign,,,,null,,,,,,,,,,,,,,,,,,,,,,,,,,,
null,,learn_phase(without_color),763407,,black_plus_sign,,,,null,GW/newhope.png,GW/huntsville.png,,,,,,,,,,,,,,,,,,,,,,,,,
null,,black_cross(without_color),763890,,blue,,,,null,GW/newhope.png,GW/huntsville.png,,,,,,,,,,,,,,,,,,,,,,,,,
null,,rt_plussign_withcolor,764394,,blue,,,,null,GW/newhope.png,GW/huntsville.png,,,,,,,,,,,,,,,,,,,,,,,,,
991.1000000238419,,rt_thecrossant_black,765919,,black_plus_sign,,,,49,,,1,0.9666666666666667,,,,,,,,,,,,,,,,,,,,,,,
null,,color_black,766024,,black_plus_sign,,,,null,,,,,,,,,,,,,,,,,,,,,,,,,,,
null,,learn_phase(without_color),769030,,black_plus_sign,,,,null,GW/leesburg.png,GW/hotsprings.png,,,,,,,,,,,,,,,,,,,,,,,,,
null,,black_cross(without_color),770014,,yellow,,,,null,GW/leesburg.png,GW/hotsprings.png,,,,,,,,,,,,,,,,,,,,,,,,,
null,,rt_plussign_withcolor,770517,,yellow,,,,null,GW/leesburg.png,GW/hotsprings.png,,,,,,,,,,,,,,,,,,,,,,,,,
635.6999999880791,,rt_thecrossant_black,771544,,black_plus_sign,,,,50,,,1,0.967032967032967,,,,,,,,,,,,,,,,,,,,,,,
null,,color_black,771647,,black_plus_sign,,,,null,,,,,,,,,,,,,,,,,,,,,,,,,,,
null,,learn_phase(without_color),774653,,black_plus_sign,,,,null,GW/newhope.png,GW/huntsville.png,,,,,,,,,,,,,,,,,,,,,,,,,
null,,black_cross(without_color),775101,,yellow,,,,null,GW/newhope.png,GW/huntsville.png,,,,,,,,,,,,,,,,,,,,,,,,,
null,,rt_plussign_withcolor,775604,,yellow,,,,null,GW/newhope.png,GW/huntsville.png,,,,,,,,,,,,,,,,,,,,,,,,,
1153.1000000238419,,rt_thecrossant_black,777167,,black_plus_sign,,,,50,,,1,0.967391304347826,,,,,,,,,,,,,,,,,,,,,,,
null,,color_black,777270,,black_plus_sign,,,,null,,,,,,,,,,,,,,,,,,,,,,,,,,,
null,,learn_phase(without_color),780275,,black_plus_sign,,,,null,GW/shreveport.png,GW/cornwall.png,,,,,,,,,,,,,,,,,,,,,,,,,
null,,black_cross(without_color),780990,,yellow,,,,null,GW/shreveport.png,GW/cornwall.png,,,,,,,,,,,,,,,,,,,,,,,,,
498.19999998807907,,rt_plussign_withcolor,781492,,yellow,,,,50,GW/shreveport.png,GW/cornwall.png,,,,,,,,,,,,,,,,,,,,,,,,,
null,,rt_thecrossant_black,782783,,black_plus_sign,,,,null,,,1,0.967741935483871,,,,,,,,,,,,,,,,,,,,,,,
null,,color_black,782888,,black_plus_sign,,,,null,,,,,,,,,,,,,,,,,,,,,,,,,,,
null,,learn_phase(without_color),785892,,black_plus_sign,,,,null,GW/leesburg.png,GW/hotsprings.png,,,,,,,,,,,,,,,,,,,,,,,,,
null,,black_cross(without_color),786669,,blue,,,,null,GW/leesburg.png,GW/hotsprings.png,,,,,,,,,,,,,,,,,,,,,,,,,
null,,rt_plussign_withcolor,787172,,blue,,,,null,GW/leesburg.png,GW/hotsprings.png,,,,,,,,,,,,,,,,,,,,,,,,,
847,,rt_thecrossant_black,788405,,black_plus_sign,,,,49,,,1,0.9680851063829787,,,,,,,,,,,,,,,,,,,,,,,
null,,color_black,788508,,black_plus_sign,,,,null,,,,,,,,,,,,,,,,,,,,,,,,,,,
null,,learn_phase(without_color),791513,,black_plus_sign,,,,null,GW/shreveport.png,GW/cornwall.png,,,,,,,,,,,,,,,,,,,,,,,,,
null,,black_cross(without_color),791924,,yellow,,,,null,GW/shreveport.png,GW/cornwall.png,,,,,,,,,,,,,,,,,,,,,,,,,
396.5,,rt_plussign_withcolor,792427,,yellow,,,,50,GW/shreveport.png,GW/cornwall.png,,,,,,,,,,,,,,,,,,,,,,,,,
null,,rt_thecrossant_black,794030,,black_plus_sign,,,,null,,,1,0.968421052631579,,,,,,,,,,,,,,,,,,,,,,,
null,,color_black,794133,,black_plus_sign,,,,null,,,,,,,,,,,,,,,,,,,,,,,,,,,
null,,learn_phase(without_color),797140,,black_plus_sign,,,,null,GW/hotsprings.png,GW/leesburg.png,,,,,,,,,,,,,,,,,,,,,,,,,
null,,black_cross(without_color),798233,,yellow,,,,null,GW/hotsprings.png,GW/leesburg.png,,,,,,,,,,,,,,,,,,,,,,,,,
480.9000000357628,,rt_plussign_withcolor,798735,,yellow,,,,50,GW/hotsprings.png,GW/leesburg.png,,,,,,,,,,,,,,,,,,,,,,,,,
null,,rt_thecrossant_black,799665,,black_plus_sign,,,,null,,,1,0.96875,,,,,,,,,,,,,,,,,,,,,,,
null,,color_black,799770,,black_plus_sign,,,,null,,,,,,,,,,,,,,,,,,,,,,,,,,,
null,,learn_phase(without_color),802776,,black_plus_sign,,,,null,GW/newhope.png,GW/hanover.png,,,,,,,,,,,,,,,,,,,,,,,,,
null,,black_cross(without_color),803190,,blue,,,,null,GW/newhope.png,GW/hanover.png,,,,,,,,,,,,,,,,,,,,,,,,,
null,,rt_plussign_withcolor,803694,,blue,,,,null,GW/newhope.png,GW/hanover.png,,,,,,,,,,,,,,,,,,,,,,,,,
null,,rt_thecrossant_black,805291,,black_plus_sign,,,,null,,,,0.96875,,,,,,,,,,,,,,,,,,,,,,,
null,,color_black,805394,,black_plus_sign,,,,null,,,,,,,,,,,,,,,,,,,,,,,,,,,
null,,learn_phase(without_color),808397,,black_plus_sign,,,,null,GW/racine.png,GW/carmel.png,,,,,,,,,,,,,,,,,,,,,,,,,
null,,black_cross(without_color),809195,,blue,,,,null,GW/racine.png,GW/carmel.png,,,,,,,,,,,,,,,,,,,,,,,,,
null,,rt_plussign_withcolor,809697,,blue,,,,null,GW/racine.png,GW/carmel.png,,,,,,,,,,,,,,,,,,,,,,,,,
597.8999999761581,,rt_thecrossant_black,810908,,black_plus_sign,,,,49,,,1,0.9690721649484536,,,,,,,,,,,,,,,,,,,,,,,
null,,color_black,811013,,black_plus_sign,,,,null,,,,,,,,,,,,,,,,,,,,,,,,,,,
null,,learn_phase(without_color),814016,,black_plus_sign,,,,null,GW/hanover.png,GW/newhope.png,,,,,,,,,,,,,,,,,,,,,,,,,
null,,black_cross(without_color),814947,,blue,,,,null,GW/hanover.png,GW/newhope.png,,,,,,,,,,,,,,,,,,,,,,,,,
487.2000000476837,,rt_plussign_withcolor,815450,,blue,,,,49,GW/hanover.png,GW/newhope.png,,,,,,,,,,,,,,,,,,,,,,,,,
null,,rt_thecrossant_black,816527,,black_plus_sign,,,,null,,,1,0.9693877551020408,,,,,,,,,,,,,,,,,,,,,,,
null,,color_black,816631,,black_plus_sign,,,,null,,,,,,,,,,,,,,,,,,,,,,,,,,,
null,,learn_phase(without_color),819636,,black_plus_sign,,,,null,GW/carmel.png,GW/racine.png,,,,,,,,,,,,,,,,,,,,,,,,,
null,,black_cross(without_color),820363,,blue,,,,null,GW/carmel.png,GW/racine.png,,,,,,,,,,,,,,,,,,,,,,,,,
null,,rt_plussign_withcolor,820866,,blue,,,,null,GW/carmel.png,GW/racine.png,,,,,,,,,,,,,,,,,,,,,,,,,
1242,,rt_thecrossant_black,822147,,black_plus_sign,,,,49,,,1,0.9696969696969697,,,,,,,,,,,,,,,,,,,,,,,
null,,color_black,822250,,black_plus_sign,,,,null,,,,,,,,,,,,,,,,,,,,,,,,,,,
null,,learn_phase(without_color),825257,,black_plus_sign,,,,null,GW/huntsville.png,GW/cornwall.png,,,,,,,,,,,,,,,,,,,,,,,,,
null,,black_cross(without_color),825689,,blue,,,,null,GW/huntsville.png,GW/cornwall.png,,,,,,,,,,,,,,,,,,,,,,,,,
489.39999997615814,,rt_plussign_withcolor,826193,,blue,,,,49,GW/huntsville.png,GW/cornwall.png,,,,,,,,,,,,,,,,,,,,,,,,,
null,,rt_thecrossant_black,827771,,black_plus_sign,,,,null,,,1,0.97,,,,,,,,,,,,,,,,,,,,,,,
null,,color_black,827875,,black_plus_sign,,,,null,,,,,,,,,,,,,,,,,,,,,,,,,,,
null,,learn_phase(without_color),830879,,black_plus_sign,,,,null,GW/hanover.png,GW/newhope.png,,,,,,,,,,,,,,,,,,,,,,,,,
null,,black_cross(without_color),831359,,blue,,,,null,GW/hanover.png,GW/newhope.png,,,,,,,,,,,,,,,,,,,,,,,,,
null,,rt_plussign_withcolor,831861,,blue,,,,null,GW/hanover.png,GW/newhope.png,,,,,,,,,,,,,,,,,,,,,,,,,
740.1999999880791,,rt_thecrossant_black,833388,,black_plus_sign,,,,49,,,1,0.9702970297029703,,,,,,,,,,,,,,,,,,,,,,,
null,,color_black,833493,,black_plus_sign,,,,null,,,,,,,,,,,,,,,,,,,,,,,,,,,
null,,learn_phase(without_color),836496,,black_plus_sign,,,,null,GW/carmel.png,GW/racine.png,,,,,,,,,,,,,,,,,,,,,,,,,
null,,black_cross(without_color),837310,,yellow,,,,null,GW/carmel.png,GW/racine.png,,,,,,,,,,,,,,,,,,,,,,,,,
null,,rt_plussign_withcolor,837812,,yellow,,,,null,GW/carmel.png,GW/racine.png,,,,,,,,,,,,,,,,,,,,,,,,,
653.4000000357628,,rt_thecrossant_black,839008,,black_plus_sign,,,,50,,,1,0.9705882352941176,,,,,,,,,,,,,,,,,,,,,,,
null,,color_black,839112,,black_plus_sign,,,,null,,,,,,,,,,,,,,,,,,,,,,,,,,,
null,,learn_phase(without_color),842119,,black_plus_sign,,,,null,GW/hanover.png,GW/newhope.png,,,,,,,,,,,,,,,,,,,,,,,,,
null,,black_cross(without_color),842714,,yellow,,,,null,GW/hanover.png,GW/newhope.png,,,,,,,,,,,,,,,,,,,,,,,,,
null,,rt_plussign_withcolor,843218,,yellow,,,,null,GW/hanover.png,GW/newhope.png,,,,,,,,,,,,,,,,,,,,,,,,,
993.3999999761581,,rt_thecrossant_black,844629,,black_plus_sign,,,,50,,,1,0.970873786407767,,,,,,,,,,,,,,,,,,,,,,,
null,,color_black,844732,,black_plus_sign,,,,null,,,,,,,,,,,,,,,,,,,,,,,,,,,
null,,learn_phase(without_color),847739,,black_plus_sign,,,,null,GW/shreveport.png,GW/peoria.png,,,,,,,,,,,,,,,,,,,,,,,,,
null,,black_cross(without_color),848499,,blue,,,,null,GW/shreveport.png,GW/peoria.png,,,,,,,,,,,,,,,,,,,,,,,,,
394.10000002384186,,rt_plussign_withcolor,849003,,blue,,,,49,GW/shreveport.png,GW/peoria.png,,,,,,,,,,,,,,,,,,,,,,,,,
null,,rt_thecrossant_black,850254,,black_plus_sign,,,,null,,,1,0.9711538461538461,,,,,,,,,,,,,,,,,,,,,,,
null,,color_black,850359,,black_plus_sign,,,,null,,,,,,,,,,,,,,,,,,,,,,,,,,,
null,,learn_phase(without_color),853369,,black_plus_sign,,,,null,GW/carmel.png,GW/racine.png,,,,,,,,,,,,,,,,,,,,,,,,,
null,,black_cross(without_color),854383,,blue,,,,null,GW/carmel.png,GW/racine.png,,,,,,,,,,,,,,,,,,,,,,,,,
null,,rt_plussign_withcolor,854886,,blue,,,,null,GW/carmel.png,GW/racine.png,,,,,,,,,,,,,,,,,,,,,,,,,
909.8000000119209,,rt_thecrossant_black,855882,,black_plus_sign,,,,49,,,1,0.9714285714285714,,,,,,,,,,,,,,,,,,,,,,,
null,,color_black,855985,,black_plus_sign,,,,null,,,,,,,,,,,,,,,,,,,,,,,,,,,
null,,learn_phase(without_color),858992,,black_plus_sign,,,,null,GW/peoria.png,GW/shreveport.png,,,,,,,,,,,,,,,,,,,,,,,,,
null,,black_cross(without_color),859822,,yellow,,,,null,GW/peoria.png,GW/shreveport.png,,,,,,,,,,,,,,,,,,,,,,,,,
null,,rt_plussign_withcolor,860325,,yellow,,,,null,GW/peoria.png,GW/shreveport.png,,,,,,,,,,,,,,,,,,,,,,,,,
1147.0999999642372,,rt_thecrossant_black,861504,,black_plus_sign,,,,50,,,1,0.9716981132075472,,,,,,,,,,,,,,,,,,,,,,,
null,,color_black,861611,,black_plus_sign,,,,null,,,,,,,,,,,,,,,,,,,,,,,,,,,
null,,learn_phase(without_color),864616,,black_plus_sign,,,,null,GW/cornwall.png,GW/huntsville.png,,,,,,,,,,,,,,,,,,,,,,,,,
null,,black_cross(without_color),865651,,blue,,,,null,GW/cornwall.png,GW/huntsville.png,,,,,,,,,,,,,,,,,,,,,,,,,
null,,rt_plussign_withcolor,866153,,blue,,,,null,GW/cornwall.png,GW/huntsville.png,,,,,,,,,,,,,,,,,,,,,,,,,
928.2999999523163,,rt_thecrossant_black,867130,,black_plus_sign,,,,49,,,1,0.9719626168224299,,,,,,,,,,,,,,,,,,,,,,,
null,,color_black,867235,,black_plus_sign,,,,null,,,,,,,,,,,,,,,,,,,,,,,,,,,
null,,learn_phase(without_color),870239,,black_plus_sign,,,,null,GW/shreveport.png,GW/peoria.png,,,,,,,,,,,,,,,,,,,,,,,,,
null,,black_cross(without_color),870887,,yellow,,,,null,GW/shreveport.png,GW/peoria.png,,,,,,,,,,,,,,,,,,,,,,,,,
null,,rt_plussign_withcolor,871390,,yellow,,,,null,GW/shreveport.png,GW/peoria.png,,,,,,,,,,,,,,,,,,,,,,,,,
1216.5,,rt_thecrossant_black,872752,,black_plus_sign,,,,50,,,1,0.9722222222222222,,,,,,,,,,,,,,,,,,,,,,,
null,,color_black,872856,,black_plus_sign,,,,null,,,,,,,,,,,,,,,,,,,,,,,,,,,
null,,learn_phase(without_color),875860,,black_plus_sign,,,,null,GW/carmel.png,GW/racine.png,,,,,,,,,,,,,,,,,,,,,,,,,
null,,black_cross(without_color),876853,,yellow,,,,null,GW/carmel.png,GW/racine.png,,,,,,,,,,,,,,,,,,,,,,,,,
null,,rt_plussign_withcolor,877358,,yellow,,,,null,GW/carmel.png,GW/racine.png,,,,,,,,,,,,,,,,,,,,,,,,,
792.3999999761581,,rt_thecrossant_black,878376,,black_plus_sign,,,,50,,,1,0.9724770642201835,,,,,,,,,,,,,,,,,,,,,,,
null,,color_black,878485,,black_plus_sign,,,,null,,,,,,,,,,,,,,,,,,,,,,,,,,,
null,,learn_phase(without_color),881489,,black_plus_sign,,,,null,GW/cornwall.png,GW/huntsville.png,,,,,,,,,,,,,,,,,,,,,,,,,
null,,black_cross(without_color),881963,,blue,,,,null,GW/cornwall.png,GW/huntsville.png,,,,,,,,,,,,,,,,,,,,,,,,,
null,,rt_plussign_withcolor,882480,,blue,,,,null,GW/cornwall.png,GW/huntsville.png,,,,,,,,,,,,,,,,,,,,,,,,,
1261,,rt_thecrossant_black,884015,,black_plus_sign,,,,49,,,1,0.9727272727272728,,,,,,,,,,,,,,,,,,,,,,,
null,,color_black,884118,,black_plus_sign,,,,null,,,,,,,,,,,,,,,,,,,,,,,,,,,
null,,learn_phase(without_color),887124,,black_plus_sign,,,,null,GW/shreveport.png,GW/peoria.png,,,,,,,,,,,,,,,,,,,,,,,,,
null,,black_cross(without_color),887712,,blue,,,,null,GW/shreveport.png,GW/peoria.png,,,,,,,,,,,,,,,,,,,,,,,,,
null,,rt_plussign_withcolor,888214,,blue,,,,null,GW/shreveport.png,GW/peoria.png,,,,,,,,,,,,,,,,,,,,,,,,,
611.3999999761581,,rt_thecrossant_black,889633,,black_plus_sign,,,,49,,,1,0.972972972972973,,,,,,,,,,,,,,,,,,,,,,,
null,,color_black,889736,,black_plus_sign,,,,null,,,,,,,,,,,,,,,,,,,,,,,,,,,
null,,learn_phase(without_color),892741,,black_plus_sign,,,,null,GW/carmel.png,GW/racine.png,,,,,,,,,,,,,,,,,,,,,,,,,
null,,black_cross(without_color),893723,,blue,,,,null,GW/carmel.png,GW/racine.png,,,,,,,,,,,,,,,,,,,,,,,,,
429.10000002384186,,rt_plussign_withcolor,894226,,blue,,,,49,GW/carmel.png,GW/racine.png,,,,,,,,,,,,,,,,,,,,,,,,,
null,,rt_thecrossant_black,895253,,black_plus_sign,,,,null,,,1,0.9732142857142857,,,,,,,,,,,,,,,,,,,,,,,
null,,color_black,895358,,black_plus_sign,,,,null,,,,,,,,,,,,,,,,,,,,,,,,,,,
null,,learn_phase(without_color),898363,,black_plus_sign,,,,null,GW/newhope.png,GW/hanover.png,,,,,,,,,,,,,,,,,,,,,,,,,
null,,black_cross(without_color),899124,,yellow,,,,null,GW/newhope.png,GW/hanover.png,,,,,,,,,,,,,,,,,,,,,,,,,
null,,rt_plussign_withcolor,899627,,yellow,,,,null,GW/newhope.png,GW/hanover.png,,,,,,,,,,,,,,,,,,,,,,,,,
1261.0999999642372,,rt_thecrossant_black,900875,,black_plus_sign,,,,50,,,1,0.9734513274336283,,,,,,,,,,,,,,,,,,,,,,,
null,,color_black,900978,,black_plus_sign,,,,null,,,,,,,,,,,,,,,,,,,,,,,,,,,
null,,learn_phase(without_color),903984,,black_plus_sign,,,,null,GW/huntsville.png,GW/cornwall.png,,,,,,,,,,,,,,,,,,,,,,,,,
null,,black_cross(without_color),904914,,yellow,,,,null,GW/huntsville.png,GW/cornwall.png,,,,,,,,,,,,,,,,,,,,,,,,,
null,,rt_plussign_withcolor,905418,,yellow,,,,null,GW/huntsville.png,GW/cornwall.png,,,,,,,,,,,,,,,,,,,,,,,,,
956.5,,rt_thecrossant_black,906497,,black_plus_sign,,,,50,,,1,0.9736842105263158,,,,,,,,,,,,,,,,,,,,,,,
null,,color_black,906601,,black_plus_sign,,,,null,,,,,,,,,,,,,,,,,,,,,,,,,,,
null,,learn_phase(without_color),909605,,black_plus_sign,,,,null,GW/shreveport.png,GW/peoria.png,,,,,,,,,,,,,,,,,,,,,,,,,
null,,black_cross(without_color),910429,,blue,,,,null,GW/shreveport.png,GW/peoria.png,,,,,,,,,,,,,,,,,,,,,,,,,
444.60000002384186,,rt_plussign_withcolor,910933,,blue,,,,49,GW/shreveport.png,GW/peoria.png,,,,,,,,,,,,,,,,,,,,,,,,,
null,,rt_thecrossant_black,912117,,black_plus_sign,,,,null,,,1,0.9739130434782609,,,,,,,,,,,,,,,,,,,,,,,
null,,color_black,912222,,black_plus_sign,,,,null,,,,,,,,,,,,,,,,,,,,,,,,,,,
null,,learn_phase(without_color),915228,,black_plus_sign,,,,null,GW/hanover.png,GW/newhope.png,,,,,,,,,,,,,,,,,,,,,,,,,
null,,black_cross(without_color),915915,,blue,,,,null,GW/hanover.png,GW/newhope.png,,,,,,,,,,,,,,,,,,,,,,,,,
null,,rt_plussign_withcolor,916419,,blue,,,,null,GW/hanover.png,GW/newhope.png,,,,,,,,,,,,,,,,,,,,,,,,,
975.6999999880791,,rt_thecrossant_black,917743,,black_plus_sign,,,,49,,,1,0.9741379310344828,,,,,,,,,,,,,,,,,,,,,,,
null,,color_black,917848,,black_plus_sign,,,,null,,,,,,,,,,,,,,,,,,,,,,,,,,,
null,,learn_phase(without_color),920854,,black_plus_sign,,,,null,GW/huntsville.png,GW/cornwall.png,,,,,,,,,,,,,,,,,,,,,,,,,
null,,black_cross(without_color),921498,,yellow,,,,null,GW/huntsville.png,GW/cornwall.png,,,,,,,,,,,,,,,,,,,,,,,,,
null,,rt_plussign_withcolor,922001,,yellow,,,,null,GW/huntsville.png,GW/cornwall.png,,,,,,,,,,,,,,,,,,,,,,,,,
799.6999999880791,,rt_thecrossant_black,923364,,black_plus_sign,,,,50,,,1,0.9743589743589743,,,,,,,,,,,,,,,,,,,,,,,
null,,color_black,923468,,black_plus_sign,,,,null,,,,,,,,,,,,,,,,,,,,,,,,,,,
null,,learn_phase(without_color),926473,,black_plus_sign,,,,null,GW/peoria.png,GW/shreveport.png,,,,,,,,,,,,,,,,,,,,,,,,,
null,,black_cross(without_color),927230,,yellow,,,,null,GW/peoria.png,GW/shreveport.png,,,,,,,,,,,,,,,,,,,,,,,,,
null,,rt_plussign_withcolor,927734,,yellow,,,,null,GW/peoria.png,GW/shreveport.png,,,,,,,,,,,,,,,,,,,,,,,,,
974.4000000357628,,rt_thecrossant_black,928986,,black_plus_sign,,,,50,,,1,0.9745762711864406,,,,,,,,,,,,,,,,,,,,,,,
null,,color_black,929090,,black_plus_sign,,,,null,,,,,,,,,,,,,,,,,,,,,,,,,,,
null,,learn_phase(without_color),932096,,black_plus_sign,,,,null,GW/newhope.png,GW/hanover.png,,,,,,,,,,,,,,,,,,,,,,,,,
null,,black_cross(without_color),932799,,blue,,,,null,GW/newhope.png,GW/hanover.png,,,,,,,,,,,,,,,,,,,,,,,,,
null,,rt_plussign_withcolor,933302,,blue,,,,null,GW/newhope.png,GW/hanover.png,,,,,,,,,,,,,,,,,,,,,,,,,
914.1999999880791,,rt_thecrossant_black,934609,,black_plus_sign,,,,49,,,1,0.9747899159663865,,,,,,,,,,,,,,,,,,,,,,,
null,,color_black,934713,,black_plus_sign,,,,null,,,,,,,,,,,,,,,,,,,,,,,,,,,
null,,learn_phase(without_color),937720,,black_plus_sign,,,,null,GW/huntsville.png,GW/cornwall.png,,,,,,,,,,,,,,,,,,,,,,,,,
null,,black_cross(without_color),938292,,yellow,,,,null,GW/huntsville.png,GW/cornwall.png,,,,,,,,,,,,,,,,,,,,,,,,,
null,,rt_plussign_withcolor,938794,,yellow,,,,null,GW/huntsville.png,GW/cornwall.png,,,,,,,,,,,,,,,,,,,,,,,,,
973.1999999880791,,rt_thecrossant_black,940232,,black_plus_sign,,,,50,,,1,0.975,,,,,,,,,,,,,,,,,,,,,,,
null,,color_black,940337,,black_plus_sign,,,,null,,,,,,,,,,,,,,,,,,,,,,,,,,,
null,,learn_phase(without_color),943341,,black_plus_sign,,,,null,GW/shreveport.png,GW/peoria.png,,,,,,,,,,,,,,,,,,,,,,,,,
null,,black_cross(without_color),943913,,yellow,,,,null,GW/shreveport.png,GW/peoria.png,,,,,,,,,,,,,,,,,,,,,,,,,
404.0999999642372,,rt_plussign_withcolor,944415,,yellow,,,,50,GW/shreveport.png,GW/peoria.png,,,,,,,,,,,,,,,,,,,,,,,,,
null,,rt_thecrossant_black,945854,,black_plus_sign,,,,50,,,1,0.9752066115702479,,,,,,,,,,,,,,,,,,,,,,,
null,,color_black,945960,,black_plus_sign,,,,null,,,,,,,,,,,,,,,,,,,,,,,,,,,
null,,learn_phase(without_color),948967,,black_plus_sign,,,,null,GW/huntsville.png,GW/cornwall.png,,,,,,,,,,,,,,,,,,,,,,,,,
null,,black_cross(without_color),949486,,yellow,,,,null,GW/huntsville.png,GW/cornwall.png,,,,,,,,,,,,,,,,,,,,,,,,,
486.19999998807907,,rt_plussign_withcolor,949989,,yellow,,,,50,GW/huntsville.png,GW/cornwall.png,,,,,,,,,,,,,,,,,,,,,,,,,
null,,rt_thecrossant_black,951481,,black_plus_sign,,,,null,,,1,0.9754098360655737,,,,,,,,,,,,,,,,,,,,,,,
null,,color_black,951584,,black_plus_sign,,,,null,,,,,,,,,,,,,,,,,,,,,,,,,,,
null,,learn_phase(without_color),954588,,black_plus_sign,,,,null,GW/peoria.png,GW/shreveport.png,,,,,,,,,,,,,,,,,,,,,,,,,
null,,black_cross(without_color),955446,,yellow,,,,null,GW/peoria.png,GW/shreveport.png,,,,,,,,,,,,,,,,,,,,,,,,,
494.69999998807907,,rt_plussign_withcolor,955951,,yellow,,,,50,GW/peoria.png,GW/shreveport.png,,,,,,,,,,,,,,,,,,,,,,,,,
null,,rt_thecrossant_black,957100,,black_plus_sign,,,,null,,,1,0.975609756097561,,,,,,,,,,,,,,,,,,,,,,,
null,,color_black,957204,,black_plus_sign,,,,null,,,,,,,,,,,,,,,,,,,,,,,,,,,
null,,learn_phase(without_color),960211,,black_plus_sign,,,,null,GW/cornwall.png,GW/huntsville.png,,,,,,,,,,,,,,,,,,,,,,,,,
null,,black_cross(without_color),960975,,blue,,,,null,GW/cornwall.png,GW/huntsville.png,,,,,,,,,,,,,,,,,,,,,,,,,
null,,rt_plussign_withcolor,961479,,blue,,,,null,GW/cornwall.png,GW/huntsville.png,,,,,,,,,,,,,,,,,,,,,,,,,
1040.1000000238419,,rt_thecrossant_black,962723,,black_plus_sign,,,,49,,,1,0.9758064516129032,,,,,,,,,,,,,,,,,,,,,,,
null,,color_black,962827,,black_plus_sign,,,,null,,,,,,,,,,,,,,,,,,,,,,,,,,,
null,,learn_phase(without_color),965832,,black_plus_sign,,,,null,GW/hanover.png,GW/newhope.png,,,,,,,,,,,,,,,,,,,,,,,,,
null,,black_cross(without_color),966773,,yellow,,,,null,GW/hanover.png,GW/newhope.png,,,,,,,,,,,,,,,,,,,,,,,,,
null,,rt_plussign_withcolor,967287,,yellow,,,,null,GW/hanover.png,GW/newhope.png,,,,,,,,,,,,,,,,,,,,,,,,,
880.9000000357628,,rt_thecrossant_black,968357,,black_plus_sign,,,,50,,,1,0.976,,,,,,,,,,,,,,,,,,,,,,,
null,,color_black,968461,,black_plus_sign,,,,null,,,,,,,,,,,,,,,,,,,,,,,,,,,
null,,learn_phase(without_color),971466,,black_plus_sign,,,,null,GW/carmel.png,GW/racine.png,,,,,,,,,,,,,,,,,,,,,,,,,
null,,black_cross(without_color),972058,,yellow,,,,null,GW/carmel.png,GW/racine.png,,,,,,,,,,,,,,,,,,,,,,,,,
459.5999999642372,,rt_plussign_withcolor,972561,,yellow,,,,50,GW/carmel.png,GW/racine.png,,,,,,,,,,,,,,,,,,,,,,,,,
null,,rt_thecrossant_black,973979,,black_plus_sign,,,,null,,,1,0.9761904761904762,,,,,,,,,,,,,,,,,,,,,,,
null,,color_black,974083,,black_plus_sign,,,,null,,,,,,,,,,,,,,,,,,,,,,,,,,,
null,,learn_phase(without_color),977089,,black_plus_sign,,,,null,GW/racine.png,GW/carmel.png,,,,,,,,,,,,,,,,,,,,,,,,,
null,,black_cross(without_color),977528,,yellow,,,,null,GW/racine.png,GW/carmel.png,,,,,,,,,,,,,,,,,,,,,,,,,
422.80000001192093,,rt_plussign_withcolor,978033,,yellow,,,,50,GW/racine.png,GW/carmel.png,,,,,,,,,,,,,,,,,,,,,,,,,
null,,rt_thecrossant_black,979605,,black_plus_sign,,,,null,,,1,0.9763779527559056,,,,,,,,,,,,,,,,,,,,,,,
null,,color_black,979708,,black_plus_sign,,,,null,,,,,,,,,,,,,,,,,,,,,,,,,,,
26945,,learn_break,1006658,,learn_break,,,,32,,,,,,,,,,,,,,,,,,,,,,,,,,,
17776.200000047684,,intro_1,1024437,,instruct,,0,Start,,,,,,,,,,,,,,,,,,,,,,,,,,,,
5245,,directmemory_phase,1029686,,GW/shreveport.png,,,,51,,,1,1,GW/westpalmbeach.png,GW/boulder.png,GW/cornwall.png,GW/cornwall.png,GW/boulder.png,GW/westpalmbeach.png,1,,,,,,,,,,,,,,,,
null,,html-keyboard-response,1030695,,<p></p>,,,,null,,,,,,,,,,,,,,,,,,,,,,,,,,,
1899.300000011921,,directmemory_phase,1032596,,GW/hotsprings.png,,,,49,,,1,1,GW/leesburg.png,GW/hanover.png,GW/shreveport.png,GW/leesburg.png,GW/shreveport.png,GW/hanover.png,1,,,,,,,,,,,,,,,,
null,,html-keyboard-response,1033600,,<p></p>,,,,null,,,,,,,,,,,,,,,,,,,,,,,,,,,
2241.900000035763,,directmemory_phase,1035845,,GW/newhope.png,,,,51,,,1,1,GW/westpalmbeach.png,GW/racine.png,GW/hanover.png,GW/hanover.png,GW/racine.png,GW/westpalmbeach.png,1,,,,,,,,,,,,,,,,
null,,html-keyboard-response,1036850,,<p></p>,,,,null,,,,,,,,,,,,,,,,,,,,,,,,,,,
3256.699999988079,,directmemory_phase,1040111,,GW/huntsville.png,,,,51,,,0,0.75,GW/racine.png,GW/gatlinburg.png,GW/shreveport.png,GW/racine.png,GW/shreveport.png,GW/gatlinburg.png,0.5,closer,,,,,,,,,,,,,,,
null,,html-keyboard-response,1041119,,<p></p>,,,,null,,,,,,,,,,,,,,,,,,,,,,,,,,,
1771,,directmemory_phase,1042893,,GW/gatlinburg.png,,,,50,,,1,0.8,GW/peoria.png,GW/hanover.png,GW/boulder.png,GW/hanover.png,GW/peoria.png,GW/boulder.png,1,,,,,,,,,,,,,,,,
null,,html-keyboard-response,1043898,,<p></p>,,,,null,,,,,,,,,,,,,,,,,,,,,,,,,,,
1768.1000000238419,,directmemory_phase,1045671,,GW/carmel.png,,,,51,,,1,0.8333333333333334,GW/shreveport.png,GW/cornwall.png,GW/racine.png,GW/racine.png,GW/cornwall.png,GW/shreveport.png,1,,,,,,,,,,,,,,,,
null,,html-keyboard-response,1046678,,<p></p>,,,,null,,,,,,,,,,,,,,,,,,,,,,,,,,,
2277.099999964237,,directmemory_phase,1048957,,GW/huntsville.png,,,,51,,,1,0.8571428571428571,GW/westpalmbeach.png,GW/hanover.png,GW/newhope.png,GW/newhope.png,GW/hanover.png,GW/westpalmbeach.png,1,,,,,,,,,,,,,,,,
null,,html-keyboard-response,1049962,,<p></p>,,,,null,,,,,,,,,,,,,,,,,,,,,,,,,,,
3050.5,,directmemory_phase,1053014,,GW/hotsprings.png,,,,49,,,1,0.875,GW/cornwall.png,GW/newhope.png,GW/shreveport.png,GW/cornwall.png,GW/shreveport.png,GW/newhope.png,1,,,,,,,,,,,,,,,,
null,,html-keyboard-response,1054019,,<p></p>,,,,null,,,,,,,,,,,,,,,,,,,,,,,,,,,
1698.199999988079,,directmemory_phase,1055721,,GW/newhope.png,,,,51,,,1,0.8888888888888888,GW/hotsprings.png,GW/racine.png,GW/huntsville.png,GW/huntsville.png,GW/racine.png,GW/hotsprings.png,1,,,,,,,,,,,,,,,,
null,,html-keyboard-response,1056730,,<p></p>,,,,null,,,,,,,,,,,,,,,,,,,,,,,,,,,
2914.199999988079,,directmemory_phase,1059646,,GW/hotsprings.png,,,,49,,,1,0.9,GW/carmel.png,GW/hanover.png,GW/racine.png,GW/carmel.png,GW/racine.png,GW/hanover.png,1,,,,,,,,,,,,,,,,
null,,html-keyboard-response,1060651,,<p></p>,,,,null,,,,,,,,,,,,,,,,,,,,,,,,,,,
3009.399999976158,,directmemory_phase,1063663,,GW/peoria.png,,,,49,,,1,0.9090909090909091,GW/newhope.png,GW/hotsprings.png,GW/cornwall.png,GW/newhope.png,GW/cornwall.png,GW/hotsprings.png,1,,,,,,,,,,,,,,,,
null,,html-keyboard-response,1064667,,<p></p>,,,,null,,,,,,,,,,,,,,,,,,,,,,,,,,,
1746.199999988079,,directmemory_phase,1066417,,GW/cornwall.png,,,,50,,,1,0.9166666666666666,GW/newhope.png,GW/huntsville.png,GW/hanover.png,GW/huntsville.png,GW/newhope.png,GW/hanover.png,1,,,,,,,,,,,,,,,,
null,,html-keyboard-response,1067426,,<p></p>,,,,null,,,,,,,,,,,,,,,,,,,,,,,,,,,
2091.400000035763,,directmemory_phase,1069520,,GW/hanover.png,,,,51,,,1,0.9230769230769231,GW/carmel.png,GW/shreveport.png,GW/newhope.png,GW/newhope.png,GW/shreveport.png,GW/carmel.png,1,,,,,,,,,,,,,,,,
null,,html-keyboard-response,1070525,,<p></p>,,,,null,,,,,,,,,,,,,,,,,,,,,,,,,,,
3001,,directmemory_phase,1073527,,GW/cornwall.png,,,,49,,,0,0.8571428571428571,GW/carmel.png,GW/hotsprings.png,GW/boulder.png,GW/hotsprings.png,GW/carmel.png,GW/boulder.png,0.5,closer,,,,,,,,,,,,,,,
null,,html-keyboard-response,1074533,,<p></p>,,,,null,,,,,,,,,,,,,,,,,,,,,,,,,,,
2042.199999988079,,directmemory_phase,1076578,,GW/shreveport.png,,,,49,,,1,0.8666666666666667,GW/peoria.png,GW/carmel.png,GW/huntsville.png,GW/peoria.png,GW/huntsville.png,GW/carmel.png,1,,,,,,,,,,,,,,,,
null,,html-keyboard-response,1077585,,<p></p>,,,,null,,,,,,,,,,,,,,,,,,,,,,,,,,,
2988.800000011921,,directmemory_phase,1080576,,GW/carmel.png,,,,51,,,1,0.875,GW/peoria.png,GW/leesburg.png,GW/westpalmbeach.png,GW/westpalmbeach.png,GW/leesburg.png,GW/peoria.png,1,,,,,,,,,,,,,,,,
null,,html-keyboard-response,1081582,,<p></p>,,,,null,,,,,,,,,,,,,,,,,,,,,,,,,,,
2967.099999964237,,directmemory_phase,1084552,,GW/peoria.png,,,,50,,,0,0.8235294117647058,GW/racine.png,GW/cornwall.png,GW/boulder.png,GW/boulder.png,GW/cornwall.png,GW/racine.png,0.5,closer,,,,,,,,,,,,,,,
null,,html-keyboard-response,1085557,,<p></p>,,,,null,,,,,,,,,,,,,,,,,,,,,,,,,,,
3904.800000011921,,directmemory_phase,1089464,,GW/racine.png,,,,51,,,0,0.7777777777777778,GW/huntsville.png,GW/gatlinburg.png,GW/hotsprings.png,GW/huntsville.png,GW/hotsprings.png,GW/gatlinburg.png,0.5,closer,,,,,,,,,,,,,,,
null,,html-keyboard-response,1090469,,<p></p>,,,,null,,,,,,,,,,,,,,,,,,,,,,,,,,,
2209.300000011921,,directmemory_phase,1092682,,GW/newhope.png,,,,51,,,1,0.7894736842105263,GW/hotsprings.png,GW/racine.png,GW/peoria.png,GW/peoria.png,GW/racine.png,GW/hotsprings.png,1,,,,,,,,,,,,,,,,
null,,html-keyboard-response,1093689,,<p></p>,,,,null,,,,,,,,,,,,,,,,,,,,,,,,,,,
1358.0999999642372,,directmemory_phase,1095049,,GW/hanover.png,,,,49,,,1,0.8,GW/gatlinburg.png,GW/hotsprings.png,GW/shreveport.png,GW/gatlinburg.png,GW/shreveport.png,GW/hotsprings.png,1,,,,,,,,,,,,,,,,
null,,html-keyboard-response,1096052,,<p></p>,,,,null,,,,,,,,,,,,,,,,,,,,,,,,,,,
1314.300000011921,,directmemory_phase,1097369,,GW/leesburg.png,,,,51,,,1,0.8095238095238095,GW/shreveport.png,GW/carmel.png,GW/hotsprings.png,GW/hotsprings.png,GW/carmel.png,GW/shreveport.png,1,,,,,,,,,,,,,,,,
null,,html-keyboard-response,1098373,,<p></p>,,,,null,,,,,,,,,,,,,,,,,,,,,,,,,,,
2472.2000000476837,,directmemory_phase,1100850,,GW/hanover.png,,,,49,,,1,0.8181818181818182,GW/peoria.png,GW/cornwall.png,GW/huntsville.png,GW/peoria.png,GW/huntsville.png,GW/cornwall.png,1,,,,,,,,,,,,,,,,
null,,html-keyboard-response,1101859,,<p></p>,,,,null,,,,,,,,,,,,,,,,,,,,,,,,,,,
3436.399999976158,,directmemory_phase,1105298,,GW/carmel.png,,,,50,,,0,0.782608695652174,GW/hotsprings.png,GW/peoria.png,GW/huntsville.png,GW/hotsprings.png,GW/huntsville.png,GW/peoria.png,0.5,closer,,,,,,,,,,,,,,,
null,,html-keyboard-response,1106302,,<p></p>,,,,null,,,,,,,,,,,,,,,,,,,,,,,,,,,
2696.5,,directmemory_phase,1109002,,GW/boulder.png,,,,51,,,1,0.7916666666666666,GW/racine.png,GW/shreveport.png,GW/peoria.png,GW/peoria.png,GW/shreveport.png,GW/racine.png,1,,,,,,,,,,,,,,,,
null,,html-keyboard-response,1110006,,<p></p>,,,,null,,,,,,,,,,,,,,,,,,,,,,,,,,,
2561.599999964237,,directmemory_phase,1112571,,GW/westpalmbeach.png,,,,51,,,1,0.8,GW/newhope.png,GW/hotsprings.png,GW/carmel.png,GW/carmel.png,GW/hotsprings.png,GW/newhope.png,1,,,,,,,,,,,,,,,,
null,,html-keyboard-response,1113575,,<p></p>,,,,null,,,,,,,,,,,,,,,,,,,,,,,,,,,
2682.300000011921,,directmemory_phase,1116260,,GW/cornwall.png,,,,50,,,1,0.8076923076923077,GW/racine.png,GW/shreveport.png,GW/boulder.png,GW/shreveport.png,GW/racine.png,GW/boulder.png,1,,,,,,,,,,,,,,,,
null,,html-keyboard-response,1117265,,<p></p>,,,,null,,,,,,,,,,,,,,,,,,,,,,,,,,,
1808.0999999642372,,directmemory_phase,1119075,,GW/peoria.png,,,,51,,,1,0.8148148148148148,GW/hotsprings.png,GW/gatlinburg.png,GW/hanover.png,GW/hanover.png,GW/gatlinburg.png,GW/hotsprings.png,1,,,,,,,,,,,,,,,,
null,,html-keyboard-response,1120090,,<p></p>,,,,null,,,,,,,,,,,,,,,,,,,,,,,,,,,
1902.1000000238419,,directmemory_phase,1121994,,GW/newhope.png,,,,51,,,1,0.8214285714285714,GW/hotsprings.png,GW/racine.png,GW/shreveport.png,GW/shreveport.png,GW/racine.png,GW/hotsprings.png,1,,,,,,,,,,,,,,,,
null,,html-keyboard-response,1123003,,<p></p>,,,,null,,,,,,,,,,,,,,,,,,,,,,,,,,,
2566.800000011921,,directmemory_phase,1125574,,GW/racine.png,,,,51,,,1,0.8275862068965517,GW/peoria.png,GW/hotsprings.png,GW/carmel.png,GW/carmel.png,GW/hotsprings.png,GW/peoria.png,1,,,,,,,,,,,,,,,,
null,,html-keyboard-response,1126584,,<p></p>,,,,null,,,,,,,,,,,,,,,,,,,,,,,,,,,
2639.800000011921,,directmemory_phase,1129227,,GW/peoria.png,,,,49,,,1,0.8333333333333334,GW/shreveport.png,GW/carmel.png,GW/cornwall.png,GW/shreveport.png,GW/cornwall.png,GW/carmel.png,1,,,,,,,,,,,,,,,,
null,,html-keyboard-response,1130231,,<p></p>,,,,null,,,,,,,,,,,,,,,,,,,,,,,,,,,
2340.100000023842,,directmemory_phase,1132574,,GW/huntsville.png,,,,51,,,1,0.8387096774193549,GW/westpalmbeach.png,GW/hotsprings.png,GW/cornwall.png,GW/cornwall.png,GW/hotsprings.png,GW/westpalmbeach.png,1,,,,,,,,,,,,,,,,
null,,html-keyboard-response,1133582,,<p></p>,,,,null,,,,,,,,,,,,,,,,,,,,,,,,,,,
3645.600000023842,,directmemory_phase,1137230,,GW/shreveport.png,,,,51,,,1,0.84375,GW/westpalmbeach.png,GW/hanover.png,GW/newhope.png,GW/newhope.png,GW/hanover.png,GW/westpalmbeach.png,1,,,,,,,,,,,,,,,,
null,,html-keyboard-response,1138236,,<p></p>,,,,null,,,,,,,,,,,,,,,,,,,,,,,,,,,
23519.899999976158,,intro_1,1161758,,instruct,,0,,,,,,,,,,,,,,,,,,,,,,,,,,,,,
9219.300000011921,,intro_2,1170980,,instruct,,1,Next,,,,,,,,,,,,,,,,,,,,,,,,,,,,
7615,,intro_3,1178598,,instruct,,1,Next,,,,,,,,,,,,,,,,,,,,,,,,,,,,
20814.099999964237,,intro_4,1199416,,instruct,,1,Next,,,,,,,,,,,,,,,,,,,,,,,,,,,,
23117,,intro_5,1222535,,instruct,,1,Next,,,,,,,,,,,,,,,,,,,,,,,,,,,,
13918.899999976158,,intro_6,1236458,,instruct,,1,Next,,,,,,,,,,,,,,,,,,,,,,,,,,,,
17319.30000001192,,intro_7,1253781,,instruct,,1,Next,,,,,,,,,,,,,,,,,,,,,,,,,,,,
25397.100000023842,,intro_8,1279182,,instruct,,1,Next,,,,,,,,,,,,,,,,,,,,,,,,,,,,
4428.599999964237,,shortestpath_phase,1283618,,GW/carmel.png,,,,49,GW/huntsville.png,GW/gatlinburg.png,1,1,,,,GW/huntsville.png,,,,,Three Edge Diff,Two Edge Five Edge,,,,,,,,,,,,,
null,,html-keyboard-response,1284629,,<p></p>,,,,null,,,,,,,,,,,,,,,,,,,,,,,,,,,
4343.099999964237,,shortestpath_phase,1288975,,GW/leesburg.png,,,,50,GW/newhope.png,GW/hanover.png,0,0.5,,,,GW/newhope.png,,,,,One Edge Diff,Four Edge Five Edge,,,,,,,,,,,,,
null,,html-keyboard-response,1289981,,<p></p>,,,,null,,,,,,,,,,,,,,,,,,,,,,,,,,,
5024.600000023842,,shortestpath_phase,1295008,,GW/westpalmbeach.png,,,,49,GW/peoria.png,GW/boulder.png,1,0.6666666666666666,,,,GW/peoria.png,,,,,One Edge Diff,Five Edge Six Edge,,,,,,,,,,,,,
null,,html-keyboard-response,1296014,,<p></p>,,,,null,,,,,,,,,,,,,,,,,,,,,,,,,,,
3638.600000023842,,shortestpath_phase,1299655,,GW/hanover.png,,,,49,GW/westpalmbeach.png,GW/boulder.png,0,0.5,,,,GW/boulder.png,,,,,Three Edge Diff,Three Edge Six Edge,,,,,,,,,,,,,
null,,html-keyboard-response,1300666,,<p></p>,,,,null,,,,,,,,,,,,,,,,,,,,,,,,,,,
3619.899999976158,,shortestpath_phase,1304288,,GW/westpalmbeach.png,,,,49,GW/peoria.png,GW/racine.png,0,0.4,,,,GW/racine.png,,,,,Three Edge Diff,Two Edge Five Edge,,,,,,,,,,,,,
null,,html-keyboard-response,1305295,,<p></p>,,,,null,,,,,,,,,,,,,,,,,,,,,,,,,,,
4259.400000035763,,shortestpath_phase,1309560,,GW/carmel.png,,,,50,GW/gatlinburg.png,GW/peoria.png,1,0.5,,,,GW/peoria.png,,,,,One Edge Diff,Four Edge Five Edge,,,,,,,,,,,,,
null,,html-keyboard-response,1310566,,<p></p>,,,,null,,,,,,,,,,,,,,,,,,,,,,,,,,,
3551.699999988079,,shortestpath_phase,1314120,,GW/westpalmbeach.png,,,,50,GW/gatlinburg.png,GW/newhope.png,1,0.5714285714285714,,,,GW/newhope.png,,,,,Two Edge Diff,Four Edge Six Edge,,,,,,,,,,,,,
null,,html-keyboard-response,1315125,,<p></p>,,,,null,,,,,,,,,,,,,,,,,,,,,,,,,,,
3283,,shortestpath_phase,1318411,,GW/carmel.png,,,,50,GW/boulder.png,GW/cornwall.png,1,0.625,,,,GW/cornwall.png,,,,,Three Edge Diff,Three Edge Six Edge,,,,,,,,,,,,,
null,,html-keyboard-response,1319420,,<p></p>,,,,null,,,,,,,,,,,,,,,,,,,,,,,,,,,
3043.099999964237,,shortestpath_phase,1322468,,GW/gatlinburg.png,,,,49,GW/hotsprings.png,GW/peoria.png,0,0.5555555555555556,,,,GW/peoria.png,,,,,Three Edge Diff,Two Edge Five Edge,,,,,,,,,,,,,
null,,html-keyboard-response,1323476,,<p></p>,,,,null,,,,,,,,,,,,,,,,,,,,,,,,,,,
3628.399999976158,,shortestpath_phase,1327108,,GW/cornwall.png,,,,49,GW/westpalmbeach.png,GW/leesburg.png,0,0.5,,,,GW/leesburg.png,,,,,One Edge Diff,Two Edge Three Edge,,,,,,,,,,,,,
null,,html-keyboard-response,1328118,,<p></p>,,,,null,,,,,,,,,,,,,,,,,,,,,,,,,,,
4056.7999999523163,,shortestpath_phase,1332177,,GW/carmel.png,,,,49,GW/shreveport.png,GW/huntsville.png,0,0.45454545454545453,,,,GW/huntsville.png,,,,,One Edge Diff,Two Edge Three Edge,,,,,,,,,,,,,
null,,html-keyboard-response,1333182,,<p></p>,,,,null,,,,,,,,,,,,,,,,,,,,,,,,,,,
3275.199999988079,,shortestpath_phase,1336460,,GW/hanover.png,,,,49,GW/cornwall.png,GW/leesburg.png,1,0.5,,,,GW/cornwall.png,,,,,Two Edge Diff,Three Edge Five Edge,,,,,,,,,,,,,
null,,html-keyboard-response,1337468,,<p></p>,,,,null,,,,,,,,,,,,,,,,,,,,,,,,,,,
3628.199999988079,,shortestpath_phase,1341101,,GW/westpalmbeach.png,,,,49,GW/gatlinburg.png,GW/peoria.png,0,0.46153846153846156,,,,GW/peoria.png,,,,,One Edge Diff,Five Edge Six Edge,,,,,,,,,,,,,
null,,html-keyboard-response,1342109,,<p></p>,,,,null,,,,,,,,,,,,,,,,,,,,,,,,,,,
5077.599999964237,,shortestpath_phase,1347190,,GW/racine.png,,,,50,GW/newhope.png,GW/boulder.png,0,0.42857142857142855,,,,GW/newhope.png,,,,,Two Edge Diff,Two Edge Four Edge,,,,,,,,,,,,,
null,,html-keyboard-response,1348201,,<p></p>,,,,null,,,,,,,,,,,,,,,,,,,,,,,,,,,
5454.900000035763,,shortestpath_phase,1353659,,GW/hotsprings.png,,,,49,GW/boulder.png,GW/westpalmbeach.png,0,0.4,,,,GW/westpalmbeach.png,,,,,Two Edge Diff,Two Edge Four Edge,,,,,,,,,,,,,
null,,html-keyboard-response,1354665,,<p></p>,,,,null,,,,,,,,,,,,,,,,,,,,,,,,,,,
4499.900000035763,,shortestpath_phase,1359172,,GW/peoria.png,,,,50,GW/racine.png,GW/huntsville.png,1,0.4375,,,,GW/huntsville.png,,,,,One Edge Diff,Two Edge Three Edge,,,,,,,,,,,,,
null,,html-keyboard-response,1360177,,<p></p>,,,,null,,,,,,,,,,,,,,,,,,,,,,,,,,,
4144.600000023842,,shortestpath_phase,1364324,,GW/hotsprings.png,,,,50,GW/newhope.png,GW/westpalmbeach.png,1,0.47058823529411764,,,,GW/westpalmbeach.png,,,,,One Edge Diff,Two Edge Three Edge,,,,,,,,,,,,,
null,,html-keyboard-response,1365329,,<p></p>,,,,null,,,,,,,,,,,,,,,,,,,,,,,,,,,
4386,,shortestpath_phase,1369720,,GW/leesburg.png,,,,50,GW/gatlinburg.png,GW/peoria.png,1,0.5,,,,GW/peoria.png,,,,,Two Edge Diff,Four Edge Six Edge,,,,,,,,,,,,,
null,,html-keyboard-response,1370730,,<p></p>,,,,null,,,,,,,,,,,,,,,,,,,,,,,,,,,
3568.699999988079,,shortestpath_phase,1374302,,GW/westpalmbeach.png,,,,50,GW/peoria.png,GW/hotsprings.png,1,0.5263157894736842,,,,GW/hotsprings.png,,,,,Three Edge Diff,Three Edge Six Edge,,,,,,,,,,,,,
null,,html-keyboard-response,1375307,,<p></p>,,,,null,,,,,,,,,,,,,,,,,,,,,,,,,,,
4728.300000011921,,shortestpath_phase,1380039,,GW/boulder.png,,,,50,GW/shreveport.png,GW/westpalmbeach.png,0,0.5,,,,GW/shreveport.png,,,,,Four Edge Diff,Two Edge Six Edge,,,,,,,,,,,,,
null,,html-keyboard-response,1381049,,<p></p>,,,,null,,,,,,,,,,,,,,,,,,,,,,,,,,,
3400.600000023842,,shortestpath_phase,1384454,,GW/leesburg.png,,,,49,GW/newhope.png,GW/westpalmbeach.png,0,0.47619047619047616,,,,GW/westpalmbeach.png,,,,,One Edge Diff,Three Edge Four Edge,,,,,,,,,,,,,
null,,html-keyboard-response,1385461,,<p></p>,,,,null,,,,,,,,,,,,,,,,,,,,,,,,,,,
2454.100000023842,,shortestpath_phase,1387919,,GW/hanover.png,,,,49,GW/huntsville.png,GW/westpalmbeach.png,1,0.5,,,,GW/huntsville.png,,,,,Three Edge Diff,Two Edge Five Edge,,,,,,,,,,,,,
null,,html-keyboard-response,1388927,,<p></p>,,,,null,,,,,,,,,,,,,,,,,,,,,,,,,,,
2462.600000023842,,shortestpath_phase,1391391,,GW/gatlinburg.png,,,,49,GW/carmel.png,GW/shreveport.png,0,0.4782608695652174,,,,GW/shreveport.png,,,,,Two Edge Diff,Three Edge Five Edge,,,,,,,,,,,,,
null,,html-keyboard-response,1392399,,<p></p>,,,,null,,,,,,,,,,,,,,,,,,,,,,,,,,,
2157,,shortestpath_phase,1394558,,GW/hanover.png,,,,50,GW/huntsville.png,GW/carmel.png,0,0.4583333333333333,,,,GW/huntsville.png,,,,,Two Edge Diff,Two Edge Four Edge,,,,,,,,,,,,,
null,,html-keyboard-response,1395564,,<p></p>,,,,null,,,,,,,,,,,,,,,,,,,,,,,,,,,
2929.099999964237,,shortestpath_phase,1398497,,GW/gatlinburg.png,,,,50,GW/newhope.png,GW/hotsprings.png,0,0.44,,,,GW/newhope.png,,,,,Three Edge Diff,Two Edge Five Edge,,,,,,,,,,,,,
null,,html-keyboard-response,1399508,,<p></p>,,,,null,,,,,,,,,,,,,,,,,,,,,,,,,,,
4498,,shortestpath_phase,1404009,,GW/boulder.png,,,,49,GW/carmel.png,GW/hanover.png,0,0.4230769230769231,,,,GW/hanover.png,,,,,Three Edge Diff,Three Edge Six Edge,,,,,,,,,,,,,
null,,html-keyboard-response,1405015,,<p></p>,,,,null,,,,,,,,,,,,,,,,,,,,,,,,,,,
3285.5,,shortestpath_phase,1408306,,GW/westpalmbeach.png,,,,49,GW/gatlinburg.png,GW/racine.png,0,0.4074074074074074,,,,GW/racine.png,,,,,Four Edge Diff,Two Edge Six Edge,,,,,,,,,,,,,
null,,html-keyboard-response,1409313,,<p></p>,,,,null,,,,,,,,,,,,,,,,,,,,,,,,,,,
3534.399999976158,,shortestpath_phase,1412851,,GW/carmel.png,,,,49,GW/leesburg.png,GW/gatlinburg.png,1,0.42857142857142855,,,,GW/leesburg.png,,,,,Three Edge Diff,Two Edge Five Edge,,,,,,,,,,,,,
null,,html-keyboard-response,1413860,,<p></p>,,,,null,,,,,,,,,,,,,,,,,,,,,,,,,,,
2650.099999964237,,shortestpath_phase,1416514,,GW/westpalmbeach.png,,,,49,GW/racine.png,GW/boulder.png,1,0.4482758620689655,,,,GW/racine.png,,,,,Four Edge Diff,Two Edge Six Edge,,,,,,,,,,,,,
null,,html-keyboard-response,1417520,,<p></p>,,,,null,,,,,,,,,,,,,,,,,,,,,,,,,,,
2701.300000011921,,shortestpath_phase,1420225,,GW/carmel.png,,,,49,GW/shreveport.png,GW/peoria.png,1,0.4666666666666667,,,,GW/shreveport.png,,,,,One Edge Diff,Three Edge Four Edge,,,,,,,,,,,,,
null,,html-keyboard-response,1421230,,<p></p>,,,,null,,,,,,,,,,,,,,,,,,,,,,,,,,,
4086.800000011921,,shortestpath_phase,1425320,,GW/boulder.png,,,,50,GW/hotsprings.png,GW/leesburg.png,0,0.45161290322580644,,,,GW/hotsprings.png,,,,,One Edge Diff,Four Edge Five Edge,,,,,,,,,,,,,
null,,html-keyboard-response,1426325,,<p></p>,,,,null,,,,,,,,,,,,,,,,,,,,,,,,,,,
3088.699999988079,,shortestpath_phase,1429417,,GW/carmel.png,,,,50,GW/cornwall.png,GW/gatlinburg.png,0,0.4375,,,,GW/cornwall.png,,,,,Three Edge Diff,Two Edge Five Edge,,,,,,,,,,,,,
null,,html-keyboard-response,1430423,,<p></p>,,,,null,,,,,,,,,,,,,,,,,,,,,,,,,,,
3295.899999976158,,shortestpath_phase,1433722,,GW/leesburg.png,,,,49,GW/gatlinburg.png,GW/newhope.png,0,0.42424242424242425,,,,GW/newhope.png,,,,,Two Edge Diff,Four Edge Six Edge,,,,,,,,,,,,,
null,,html-keyboard-response,1434730,,<p></p>,,,,null,,,,,,,,,,,,,,,,,,,,,,,,,,,
2749.199999988079,,shortestpath_phase,1437482,,GW/westpalmbeach.png,,,,50,GW/shreveport.png,GW/hanover.png,0,0.4117647058823529,,,,GW/shreveport.png,,,,,One Edge Diff,Four Edge Five Edge,,,,,,,,,,,,,
null,,html-keyboard-response,1438489,,<p></p>,,,,null,,,,,,,,,,,,,,,,,,,,,,,,,,,
3262.600000023842,,shortestpath_phase,1441754,,GW/boulder.png,,,,49,GW/leesburg.png,GW/westpalmbeach.png,1,0.42857142857142855,,,,GW/leesburg.png,,,,,One Edge Diff,Five Edge Six Edge,,,,,,,,,,,,,
null,,html-keyboard-response,1442760,,<p></p>,,,,null,,,,,,,,,,,,,,,,,,,,,,,,,,,
2653.800000011921,,shortestpath_phase,1445419,,GW/peoria.png,,,,49,GW/huntsville.png,GW/westpalmbeach.png,1,0.4444444444444444,,,,GW/huntsville.png,,,,,Three Edge Diff,Three Edge Six Edge,,,,,,,,,,,,,
null,,html-keyboard-response,1446426,,<p></p>,,,,null,,,,,,,,,,,,,,,,,,,,,,,,,,,
2468.599999964237,,shortestpath_phase,1448899,,GW/gatlinburg.png,,,,50,GW/newhope.png,GW/carmel.png,0,0.43243243243243246,,,,GW/newhope.png,,,,,Three Edge Diff,Three Edge Six Edge,,,,,,,,,,,,,
null,,html-keyboard-response,1449905,,<p></p>,,,,null,,,,,,,,,,,,,,,,,,,,,,,,,,,
2041.1000000238419,,shortestpath_phase,1451950,,GW/boulder.png,,,,50,GW/hanover.png,GW/westpalmbeach.png,0,0.42105263157894735,,,,GW/hanover.png,,,,,Four Edge Diff,Two Edge Six Edge,,,,,,,,,,,,,
null,,html-keyboard-response,1452961,,<p></p>,,,,null,,,,,,,,,,,,,,,,,,,,,,,,,,,
2544.699999988079,,shortestpath_phase,1455509,,GW/gatlinburg.png,,,,50,GW/racine.png,GW/leesburg.png,0,0.41025641025641024,,,,GW/racine.png,,,,,Two Edge Diff,Four Edge Six Edge,,,,,,,,,,,,,
null,,html-keyboard-response,1456515,,<p></p>,,,,null,,,,,,,,,,,,,,,,,,,,,,,,,,,
2630.899999976158,,shortestpath_phase,1459148,,GW/hanover.png,,,,50,GW/huntsville.png,GW/leesburg.png,0,0.4,,,,GW/huntsville.png,,,,,Three Edge Diff,Three Edge Six Edge,,,,,,,,,,,,,
null,,html-keyboard-response,1460154,,<p></p>,,,,null,,,,,,,,,,,,,,,,,,,,,,,,,,,
3200.300000011921,,shortestpath_phase,1463356,,GW/gatlinburg.png,,,,49,GW/leesburg.png,GW/peoria.png,0,0.3902439024390244,,,,GW/peoria.png,,,,,Four Edge Diff,Two Edge Six Edge,,,,,,,,,,,,,
null,,html-keyboard-response,1464365,,<p></p>,,,,null,,,,,,,,,,,,,,,,,,,,,,,,,,,
3427.5,,shortestpath_phase,1467797,,GW/westpalmbeach.png,,,,50,GW/boulder.png,GW/newhope.png,1,0.40476190476190477,,,,GW/newhope.png,,,,,Two Edge Diff,Four Edge Six Edge,,,,,,,,,,,,,
null,,html-keyboard-response,1468807,,<p></p>,,,,null,,,,,,,,,,,,,,,,,,,,,,,,,,,
3303.599999964237,,shortestpath_phase,1472117,,GW/gatlinburg.png,,,,50,GW/cornwall.png,GW/hotsprings.png,0,0.3953488372093023,,,,GW/cornwall.png,,,,,One Edge Diff,Four Edge Five Edge,,,,,,,,,,,,,
null,,html-keyboard-response,1473122,,<p></p>,,,,null,,,,,,,,,,,,,,,,,,,,,,,,,,,
3415,,shortestpath_phase,1476542,,GW/leesburg.png,,,,49,GW/racine.png,GW/peoria.png,1,0.4090909090909091,,,,GW/racine.png,,,,,One Edge Diff,Three Edge Four Edge,,,,,,,,,,,,,
null,,html-keyboard-response,1477548,,<p></p>,,,,null,,,,,,,,,,,,,,,,,,,,,,,,,,,
2734.399999976158,,shortestpath_phase,1480285,,GW/boulder.png,,,,50,GW/cornwall.png,GW/racine.png,0,0.4,,,,GW/cornwall.png,,,,,One Edge Diff,Three Edge Four Edge,,,,,,,,,,,,,
null,,html-keyboard-response,1481289,,<p></p>,,,,null,,,,,,,,,,,,,,,,,,,,,,,,,,,
3050.5,,shortestpath_phase,1484342,,GW/hanover.png,,,,50,GW/cornwall.png,GW/huntsville.png,1,0.41304347826086957,,,,GW/huntsville.png,,,,,One Edge Diff,Two Edge Three Edge,,,,,,,,,,,,,
null,,html-keyboard-response,1485349,,<p></p>,,,,null,,,,,,,,,,,,,,,,,,,,,,,,,,,
3475.699999988079,,shortestpath_phase,1488830,,GW/carmel.png,,,,50,GW/boulder.png,GW/leesburg.png,1,0.425531914893617,,,,GW/leesburg.png,,,,,Three Edge Diff,Three Edge Six Edge,,,,,,,,,,,,,
null,,html-keyboard-response,1489836,,<p></p>,,,,null,,,,,,,,,,,,,,,,,,,,,,,,,,,
2312.399999976158,,shortestpath_phase,1492151,,GW/racine.png,,,,50,GW/gatlinburg.png,GW/westpalmbeach.png,1,0.4375,,,,GW/westpalmbeach.png,,,,,Two Edge Diff,Two Edge Four Edge,,,,,,,,,,,,,
null,,html-keyboard-response,1493160,,<p></p>,,,,null,,,,,,,,,,,,,,,,,,,,,,,,,,,
3097.699999988079,,shortestpath_phase,1496263,,GW/gatlinburg.png,,,,50,GW/newhope.png,GW/cornwall.png,0,0.42857142857142855,,,,GW/newhope.png,,,,,Two Edge Diff,Two Edge Four Edge,,,,,,,,,,,,,
null,,html-keyboard-response,1497272,,<p></p>,,,,null,,,,,,,,,,,,,,,,,,,,,,,,,,,
3685,,shortestpath_phase,1500961,,GW/leesburg.png,,,,50,GW/cornwall.png,GW/gatlinburg.png,0,0.42,,,,GW/cornwall.png,,,,,Four Edge Diff,Two Edge Six Edge,,,,,,,,,,,,,
null,,html-keyboard-response,1501968,,<p></p>,,,,null,,,,,,,,,,,,,,,,,,,,,,,,,,,
2699.100000023842,,shortestpath_phase,1504670,,GW/gatlinburg.png,,,,49,GW/westpalmbeach.png,GW/peoria.png,0,0.4117647058823529,,,,GW/peoria.png,,,,,Four Edge Diff,Two Edge Six Edge,,,,,,,,,,,,,
null,,html-keyboard-response,1505676,,<p></p>,,,,null,,,,,,,,,,,,,,,,,,,,,,,,,,,
2345.5,,shortestpath_phase,1508025,,GW/leesburg.png,,,,50,GW/boulder.png,GW/westpalmbeach.png,1,0.4230769230769231,,,,GW/westpalmbeach.png,,,,,Two Edge Diff,Three Edge Five Edge,,,,,,,,,,,,,
null,,html-keyboard-response,1509033,,<p></p>,,,,null,,,,,,,,,,,,,,,,,,,,,,,,,,,
2499.5,,shortestpath_phase,1511537,,GW/gatlinburg.png,,,,49,GW/westpalmbeach.png,GW/cornwall.png,0,0.41509433962264153,,,,GW/cornwall.png,,,,,Two Edge Diff,Four Edge Six Edge,,,,,,,,,,,,,
null,,html-keyboard-response,1512545,,<p></p>,,,,null,,,,,,,,,,,,,,,,,,,,,,,,,,,
2971.900000035763,,shortestpath_phase,1515521,,GW/westpalmbeach.png,,,,49,GW/hanover.png,GW/boulder.png,1,0.42592592592592593,,,,GW/hanover.png,,,,,One Edge Diff,Five Edge Six Edge,,,,,,,,,,,,,
null,,html-keyboard-response,1516527,,<p></p>,,,,null,,,,,,,,,,,,,,,,,,,,,,,,,,,
2031.199999988079,,shortestpath_phase,1518563,,GW/gatlinburg.png,,,,50,GW/carmel.png,GW/leesburg.png,0,0.41818181818181815,,,,GW/carmel.png,,,,,One Edge Diff,Five Edge Six Edge,,,,,,,,,,,,,
null,,html-keyboard-response,1519570,,<p></p>,,,,null,,,,,,,,,,,,,,,,,,,,,,,,,,,
2780.300000011921,,shortestpath_phase,1522354,,GW/westpalmbeach.png,,,,50,GW/hanover.png,GW/hotsprings.png,1,0.42857142857142855,,,,GW/hotsprings.png,,,,,Three Edge Diff,Two Edge Five Edge,,,,,,,,,,,,,
null,,html-keyboard-response,1523361,,<p></p>,,,,null,,,,,,,,,,,,,,,,,,,,,,,,,,,
2676.300000011921,,shortestpath_phase,1526040,,GW/boulder.png,,,,49,GW/cornwall.png,GW/carmel.png,1,0.43859649122807015,,,,GW/cornwall.png,,,,,Two Edge Diff,Three Edge Five Edge,,,,,,,,,,,,,
null,,html-keyboard-response,1527047,,<p></p>,,,,null,,,,,,,,,,,,,,,,,,,,,,,,,,,
3566.599999964237,,shortestpath_phase,1530616,,GW/westpalmbeach.png,,,,49,GW/hanover.png,GW/gatlinburg.png,1,0.4482758620689655,,,,GW/hanover.png,,,,,One Edge Diff,Five Edge Six Edge,,,,,,,,,,,,,
null,,html-keyboard-response,1531622,,<p></p>,,,,null,,,,,,,,,,,,,,,,,,,,,,,,,,,
2838.599999964237,,shortestpath_phase,1534464,,GW/leesburg.png,,,,50,GW/hanover.png,GW/cornwall.png,1,0.4576271186440678,,,,GW/cornwall.png,,,,,Three Edge Diff,Two Edge Five Edge,,,,,,,,,,,,,
null,,html-keyboard-response,1535484,,<p></p>,,,,null,,,,,,,,,,,,,,,,,,,,,,,,,,,
2687.300000011921,,shortestpath_phase,1538178,,GW/peoria.png,,,,50,GW/westpalmbeach.png,GW/huntsville.png,1,0.4666666666666667,,,,GW/huntsville.png,,,,,Three Edge Diff,Two Edge Five Edge,,,,,,,,,,,,,
null,,html-keyboard-response,1539185,,<p></p>,,,,null,,,,,,,,,,,,,,,,,,,,,,,,,,,
2709.099999964237,,shortestpath_phase,1541897,,GW/boulder.png,,,,49,GW/gatlinburg.png,GW/carmel.png,1,0.47540983606557374,,,,GW/gatlinburg.png,,,,,Two Edge Diff,Three Edge Five Edge,,,,,,,,,,,,,
null,,html-keyboard-response,1542904,,<p></p>,,,,null,,,,,,,,,,,,,,,,,,,,,,,,,,,
2316.399999976158,,shortestpath_phase,1545225,,GW/huntsville.png,,,,50,GW/leesburg.png,GW/shreveport.png,1,0.4838709677419355,,,,GW/shreveport.png,,,,,One Edge Diff,Two Edge Three Edge,,,,,,,,,,,,,
null,,html-keyboard-response,1546230,,<p></p>,,,,null,,,,,,,,,,,,,,,,,,,,,,,,,,,
3200.099999964237,,shortestpath_phase,1549433,,GW/carmel.png,,,,49,GW/peoria.png,GW/newhope.png,0,0.47619047619047616,,,,GW/newhope.png,,,,,One Edge Diff,Three Edge Four Edge,,,,,,,,,,,,,
