rt,responses,trial_type,time_elapsed,sequence,stimulus,graphorder,button_pressed,response,key_press,stimulus_left,stimulus_right,accuracy,cumulative_accuracy,stimulus_down_left,stimulus_down_mid,stimulus_down_right,stimulus_correct,stimulus_short,stimulus_far,weighted_accuracy,condition,specific_pairs,imgL_ID,imgR_ID,linedress,linedressed,detour_trial,linedressed_detor,problems,smooth,distraction,strategies,easier,similar,comments
9701.5,{worker_id:574ce0a57fd0ec000db73aa6},id_enter,9703,interleaved,replication,GW/hanover.png; GW/shreveport.png; GW/newhope.png; GW/hotsprings.png; GW/carmel.png; GW/leesburg.png; GW/westpalmbeach.png; GW/huntsville.png; GW/racine.png; GW/peoria.png; GW/cornwall.png; GW/gatlinburg.png; GW/boulder.png,,,,,,,,,,,,,,,,,,,,,,,,,,,,,
54128,,fullscreen,63833,,fullscreen,,0,,,,,,,,,,,,,,,,,,,,,,,,,,,,
15587.400000095367,,intro_1,79422,,instruct,,0,,,,,,,,,,,,,,,,,,,,,,,,,,,,
12024,,intro_2,91448,,instruct,,1,Next,,,,,,,,,,,,,,,,,,,,,,,,,,,
6204.400000095367,,intro_3,97653,,instruct,,1,Next,,,,,,,,,,,,,,,,,,,,,,,,,,,
null,,learn_prac_1,100654,,lean_prac_1,,,,null,,,,,,,,,,,,,,,,,,,,,,,,,,
null,,html-keyboard-response,101656,,<p></p>,,,,null,,,,,,,,,,,,,,,,,,,,,,,,,,
8441.400000095367,,intro_1,110098,,instruct,,0,,,,,,,,,,,,,,,,,,,,,,,,,,,,
9149.200000286102,,intro_2,119249,,instruct,,1,Next,,,,,,,,,,,,,,,,,,,,,,,,,,,
null,,learn_prac_2,122250,,lean_prac_2,,,,null,,,,,,,,,,,,,,,,,,,,,,,,,,
null,,html-keyboard-response,123263,,<p></p>,,,,null,,,,,,,,,,,,,,,,,,,,,,,,,,
9226.199999809265,,intro_1,132490,,instruct,,0,,,,,,,,,,,,,,,,,,,,,,,,,,,,
3198,,intro_2,135688,,instruct,,1,Next,,,,,,,,,,,,,,,,,,,,,,,,,,,
38544,,intro_3,174233,,instruct,,1,Next,,,,,,,,,,,,,,,,,,,,,,,,,,,
null,,prac_atten_color_black,175051,,black_plus_sign,,,,null,,,,,,,,,,,,,,,,,,,,,,,,,,
null,,prac_atten_color,175636,,prac_stop_color,,,,null,,,,,,,,,,,,,,,,,,,,,,,,,,
null,,prac_atten_color_black,177638,,black_plus_sign,,,,null,,,,,,,,,,,,,,,,,,,,,,,,,,
4204,,attentioncheck_help,181843,,instruct,,,,32,,,,,,,,,,,,,,,,,,,,,,,,,,
null,,prac_atten_color_black,182661,,black_plus_sign,,,,null,,,,,,,,,,,,,,,,,,,,,,,,,,
427.8999996185303,,prac_atten_color,183179,,prac_stop_color,,,,49,,,,,,,,,,,,,,,,,,,,,,,,,,
207.89999961853027,,prac_atten_color_black,185181,,black_plus_sign,,,,50,,,,,,,,,,,,,,,,,,,,,,,,,,
null,,prac_atten_color_black,186072,,black_plus_sign,,,,null,,,,,,,,,,,,,,,,,,,,,,,,,,
554.0999999046326,,prac_atten_color,186704,,prac_stop_color,,,,50,,,,,,,,,,,,,,,,,,,,,,,,,,
null,,prac_atten_color_black,188706,,black_plus_sign,,,,null,,,,,,,,,,,,,,,,,,,,,,,,,,
null,,prac_atten_color_black,189480,,black_plus_sign,,,,null,,,,,,,,,,,,,,,,,,,,,,,,,,
421.3999996185303,,prac_atten_color,190087,,prac_stop_color,,,,49,,,,,,,,,,,,,,,,,,,,,,,,,,
null,,prac_atten_color_black,192089,,black_plus_sign,,,,null,,,,,,,,,,,,,,,,,,,,,,,,,,
null,,prac_atten_color_black,192885,,black_plus_sign,,,,null,,,,,,,,,,,,,,,,,,,,,,,,,,
null,,prac_atten_color,193329,,prac_stop_color,,,,null,,,,,,,,,,,,,,,,,,,,,,,,,,
77.19999980926514,,prac_atten_color_black,195332,,black_plus_sign,,,,50,,,,,,,,,,,,,,,,,,,,,,,,,,
null,,prac_atten_color_black,196291,,black_plus_sign,,,,null,,,,,,,,,,,,,,,,,,,,,,,,,,
409,,prac_atten_color,197381,,prac_stop_color,,,,50,,,,,,,,,,,,,,,,,,,,,,,,,,
null,,prac_atten_color_black,199383,,black_plus_sign,,,,null,,,,,,,,,,,,,,,,,,,,,,,,,,
null,,prac_atten_color_black,199696,,black_plus_sign,,,,null,,,,,,,,,,,,,,,,,,,,,,,,,,
439.80000019073486,,prac_atten_color,200662,,prac_stop_color,,,,49,,,,,,,,,,,,,,,,,,,,,,,,,,
null,,prac_atten_color_black,202662,,black_plus_sign,,,,null,,,,,,,,,,,,,,,,,,,,,,,,,,
null,,prac_atten_color_black,203100,,black_plus_sign,,,,null,,,,,,,,,,,,,,,,,,,,,,,,,,
null,,prac_atten_color,203600,,prac_stop_color,,,,null,,,,,,,,,,,,,,,,,,,,,,,,,,
29.300000190734863,,prac_atten_color_black,205601,,black_plus_sign,,,,50,,,,,,,,,,,,,,,,,,,,,,,,,,
null,,prac_atten_color_black,206505,,black_plus_sign,,,,null,,,,,,,,,,,,,,,,,,,,,,,,,,
471.59999990463257,,prac_atten_color,207123,,prac_stop_color,,,,49,,,,,,,,,,,,,,,,,,,,,,,,,,
null,,prac_atten_color_black,209125,,black_plus_sign,,,,null,,,,,,,,,,,,,,,,,,,,,,,,,,
null,,prac_atten_color_black,209910,,black_plus_sign,,,,null,,,,,,,,,,,,,,,,,,,,,,,,,,
434.40000009536743,,prac_atten_color,210387,,prac_stop_color,,,,49,,,,,,,,,,,,,,,,,,,,,,,,,,
null,,prac_atten_color_black,212390,,black_plus_sign,,,,null,,,,,,,,,,,,,,,,,,,,,,,,,,
5024.799999713898,,attentioncheck_feedback,217416,,cross_check_feedback,,0,,,,,,,,,,,,,,,,,,,,,,,,,,,,
29822.300000190735,,last_instruct,247239,,instruct,,,,32,,,,,,,,,,,,,,,,,,,,,,,,,,
null,,learn_phase(without_color),250241,,black_plus_sign,,,,null,GW/newhope.png,GW/cornwall.png,,,,,,,,,,,,,,,,,,,,,,,,
null,,black_cross(without_color),250829,,blue,,,,null,GW/newhope.png,GW/cornwall.png,,,,,,,,,,,,,,,,,,,,,,,,
385.80000019073486,,rt_plussign_withcolor,251330,,blue,,,,49,GW/newhope.png,GW/cornwall.png,,,,,,,,,,,,,,,,,,,,,,,,
null,,rt_thecrossant_black,252746,,black_plus_sign,,,,null,,,1,1,,,,,,,,,,,,,,,,,,,,,,
null,,color_black,252848,,black_plus_sign,,,,null,,,,,,,,,,,,,,,,,,,,,,,,,,
null,,learn_phase(without_color),255850,,black_plus_sign,,,,null,GW/huntsville.png,GW/peoria.png,,,,,,,,,,,,,,,,,,,,,,,,
null,,black_cross(without_color),256432,,blue,,,,null,GW/huntsville.png,GW/peoria.png,,,,,,,,,,,,,,,,,,,,,,,,
439.8999996185303,,rt_plussign_withcolor,256933,,blue,,,,49,GW/huntsville.png,GW/peoria.png,,,,,,,,,,,,,,,,,,,,,,,,
null,,rt_thecrossant_black,258355,,black_plus_sign,,,,null,,,1,1,,,,,,,,,,,,,,,,,,,,,,
null,,color_black,258457,,black_plus_sign,,,,null,,,,,,,,,,,,,,,,,,,,,,,,,,
null,,learn_phase(without_color),261459,,black_plus_sign,,,,null,GW/newhope.png,GW/shreveport.png,,,,,,,,,,,,,,,,,,,,,,,,
null,,black_cross(without_color),262222,,yellow,,,,null,GW/newhope.png,GW/shreveport.png,,,,,,,,,,,,,,,,,,,,,,,,
null,,rt_plussign_withcolor,262723,,yellow,,,,null,GW/newhope.png,GW/shreveport.png,,,,,,,,,,,,,,,,,,,,,,,,
731.1999998092651,,rt_thecrossant_black,263965,,black_plus_sign,,,,50,,,1,1,,,,,,,,,,,,,,,,,,,,,,
null,,color_black,264067,,black_plus_sign,,,,null,,,,,,,,,,,,,,,,,,,,,,,,,,
null,,learn_phase(without_color),267069,,black_plus_sign,,,,null,GW/leesburg.png,GW/newhope.png,,,,,,,,,,,,,,,,,,,,,,,,
null,,black_cross(without_color),268170,,yellow,,,,null,GW/leesburg.png,GW/newhope.png,,,,,,,,,,,,,,,,,,,,,,,,
null,,rt_plussign_withcolor,268671,,yellow,,,,null,GW/leesburg.png,GW/newhope.png,,,,,,,,,,,,,,,,,,,,,,,,
934.5999999046326,,rt_thecrossant_black,269582,,black_plus_sign,,,,50,,,1,1,,,,,,,,,,,,,,,,,,,,,,
null,,color_black,269683,,black_plus_sign,,,,null,,,,,,,,,,,,,,,,,,,,,,,,,,
null,,learn_phase(without_color),272684,,black_plus_sign,,,,null,GW/cornwall.png,GW/gatlinburg.png,,,,,,,,,,,,,,,,,,,,,,,,
null,,black_cross(without_color),273513,,blue,,,,null,GW/cornwall.png,GW/gatlinburg.png,,,,,,,,,,,,,,,,,,,,,,,,
null,,rt_plussign_withcolor,274014,,blue,,,,null,GW/cornwall.png,GW/gatlinburg.png,,,,,,,,,,,,,,,,,,,,,,,,
1434.5999999046326,,rt_thecrossant_black,275190,,black_plus_sign,,,,49,,,1,1,,,,,,,,,,,,,,,,,,,,,,
null,,color_black,275291,,black_plus_sign,,,,null,,,,,,,,,,,,,,,,,,,,,,,,,,
null,,learn_phase(without_color),278294,,black_plus_sign,,,,null,GW/huntsville.png,GW/peoria.png,,,,,,,,,,,,,,,,,,,,,,,,
null,,black_cross(without_color),278965,,blue,,,,null,GW/huntsville.png,GW/peoria.png,,,,,,,,,,,,,,,,,,,,,,,,
null,,rt_plussign_withcolor,279466,,blue,,,,null,GW/huntsville.png,GW/peoria.png,,,,,,,,,,,,,,,,,,,,,,,,
1046.7999997138977,,rt_thecrossant_black,280798,,black_plus_sign,,,,49,,,1,1,,,,,,,,,,,,,,,,,,,,,,
null,,color_black,280900,,black_plus_sign,,,,null,,,,,,,,,,,,,,,,,,,,,,,,,,
null,,learn_phase(without_color),283902,,black_plus_sign,,,,null,GW/westpalmbeach.png,GW/huntsville.png,,,,,,,,,,,,,,,,,,,,,,,,
null,,black_cross(without_color),284755,,blue,,,,null,GW/westpalmbeach.png,GW/huntsville.png,,,,,,,,,,,,,,,,,,,,,,,,
null,,rt_plussign_withcolor,285257,,blue,,,,null,GW/westpalmbeach.png,GW/huntsville.png,,,,,,,,,,,,,,,,,,,,,,,,
812.3000001907349,,rt_thecrossant_black,286406,,black_plus_sign,,,,49,,,1,1,,,,,,,,,,,,,,,,,,,,,,
null,,color_black,286508,,black_plus_sign,,,,null,,,,,,,,,,,,,,,,,,,,,,,,,,
null,,learn_phase(without_color),289510,,black_plus_sign,,,,null,GW/westpalmbeach.png,GW/leesburg.png,,,,,,,,,,,,,,,,,,,,,,,,
null,,black_cross(without_color),290405,,yellow,,,,null,GW/westpalmbeach.png,GW/leesburg.png,,,,,,,,,,,,,,,,,,,,,,,,
null,,rt_plussign_withcolor,290911,,yellow,,,,null,GW/westpalmbeach.png,GW/leesburg.png,,,,,,,,,,,,,,,,,,,,,,,,
991.5,,rt_thecrossant_black,292019,,black_plus_sign,,,,50,,,1,1,,,,,,,,,,,,,,,,,,,,,,
null,,color_black,292120,,black_plus_sign,,,,null,,,,,,,,,,,,,,,,,,,,,,,,,,
null,,learn_phase(without_color),295122,,black_plus_sign,,,,null,GW/shreveport.png,GW/newhope.png,,,,,,,,,,,,,,,,,,,,,,,,
null,,black_cross(without_color),295726,,blue,,,,null,GW/shreveport.png,GW/newhope.png,,,,,,,,,,,,,,,,,,,,,,,,
477.6000003814697,,rt_plussign_withcolor,296227,,blue,,,,49,GW/shreveport.png,GW/newhope.png,,,,,,,,,,,,,,,,,,,,,,,,
null,,rt_thecrossant_black,297626,,black_plus_sign,,,,null,,,1,1,,,,,,,,,,,,,,,,,,,,,,
null,,color_black,297727,,black_plus_sign,,,,null,,,,,,,,,,,,,,,,,,,,,,,,,,
null,,learn_phase(without_color),300730,,black_plus_sign,,,,null,GW/cornwall.png,GW/gatlinburg.png,,,,,,,,,,,,,,,,,,,,,,,,
null,,black_cross(without_color),301422,,blue,,,,null,GW/cornwall.png,GW/gatlinburg.png,,,,,,,,,,,,,,,,,,,,,,,,
458.19999980926514,,rt_plussign_withcolor,301924,,blue,,,,49,GW/cornwall.png,GW/gatlinburg.png,,,,,,,,,,,,,,,,,,,,,,,,
null,,rt_thecrossant_black,303234,,black_plus_sign,,,,null,,,1,1,,,,,,,,,,,,,,,,,,,,,,
null,,color_black,303336,,black_plus_sign,,,,null,,,,,,,,,,,,,,,,,,,,,,,,,,
null,,learn_phase(without_color),306339,,black_plus_sign,,,,null,GW/racine.png,GW/cornwall.png,,,,,,,,,,,,,,,,,,,,,,,,
null,,black_cross(without_color),307078,,blue,,,,null,GW/racine.png,GW/cornwall.png,,,,,,,,,,,,,,,,,,,,,,,,
417.8999996185303,,rt_plussign_withcolor,307579,,blue,,,,49,GW/racine.png,GW/cornwall.png,,,,,,,,,,,,,,,,,,,,,,,,
null,,rt_thecrossant_black,308843,,black_plus_sign,,,,null,,,1,1,,,,,,,,,,,,,,,,,,,,,,
null,,color_black,308945,,black_plus_sign,,,,null,,,,,,,,,,,,,,,,,,,,,,,,,,
null,,learn_phase(without_color),311947,,black_plus_sign,,,,null,GW/racine.png,GW/westpalmbeach.png,,,,,,,,,,,,,,,,,,,,,,,,
null,,black_cross(without_color),312364,,yellow,,,,null,GW/racine.png,GW/westpalmbeach.png,,,,,,,,,,,,,,,,,,,,,,,,
null,,rt_plussign_withcolor,312866,,yellow,,,,null,GW/racine.png,GW/westpalmbeach.png,,,,,,,,,,,,,,,,,,,,,,,,
898.7999997138977,,rt_thecrossant_black,314453,,black_plus_sign,,,,50,,,1,1,,,,,,,,,,,,,,,,,,,,,,
null,,color_black,314555,,black_plus_sign,,,,null,,,,,,,,,,,,,,,,,,,,,,,,,,
null,,learn_phase(without_color),317557,,black_plus_sign,,,,null,GW/leesburg.png,GW/westpalmbeach.png,,,,,,,,,,,,,,,,,,,,,,,,
null,,black_cross(without_color),318213,,yellow,,,,null,GW/leesburg.png,GW/westpalmbeach.png,,,,,,,,,,,,,,,,,,,,,,,,
436.7000002861023,,rt_plussign_withcolor,318714,,yellow,,,,50,GW/leesburg.png,GW/westpalmbeach.png,,,,,,,,,,,,,,,,,,,,,,,,
null,,rt_thecrossant_black,320061,,black_plus_sign,,,,null,,,1,1,,,,,,,,,,,,,,,,,,,,,,
null,,color_black,320163,,black_plus_sign,,,,null,,,,,,,,,,,,,,,,,,,,,,,,,,
null,,learn_phase(without_color),323165,,black_plus_sign,,,,null,GW/racine.png,GW/westpalmbeach.png,,,,,,,,,,,,,,,,,,,,,,,,
null,,black_cross(without_color),324064,,yellow,,,,null,GW/racine.png,GW/westpalmbeach.png,,,,,,,,,,,,,,,,,,,,,,,,
472.5,,rt_plussign_withcolor,324565,,yellow,,,,50,GW/racine.png,GW/westpalmbeach.png,,,,,,,,,,,,,,,,,,,,,,,,
null,,rt_thecrossant_black,325669,,black_plus_sign,,,,null,,,1,1,,,,,,,,,,,,,,,,,,,,,,
null,,color_black,325770,,black_plus_sign,,,,null,,,,,,,,,,,,,,,,,,,,,,,,,,
null,,learn_phase(without_color),328772,,black_plus_sign,,,,null,GW/hotsprings.png,GW/shreveport.png,,,,,,,,,,,,,,,,,,,,,,,,
null,,black_cross(without_color),329825,,blue,,,,null,GW/hotsprings.png,GW/shreveport.png,,,,,,,,,,,,,,,,,,,,,,,,
null,,rt_plussign_withcolor,330327,,blue,,,,null,GW/hotsprings.png,GW/shreveport.png,,,,,,,,,,,,,,,,,,,,,,,,
1014.0999999046326,,rt_thecrossant_black,331277,,black_plus_sign,,,,49,,,1,1,,,,,,,,,,,,,,,,,,,,,,
null,,color_black,331380,,black_plus_sign,,,,null,,,,,,,,,,,,,,,,,,,,,,,,,,
null,,learn_phase(without_color),334382,,black_plus_sign,,,,null,GW/racine.png,GW/huntsville.png,,,,,,,,,,,,,,,,,,,,,,,,
null,,black_cross(without_color),335215,,yellow,,,,null,GW/racine.png,GW/huntsville.png,,,,,,,,,,,,,,,,,,,,,,,,
null,,rt_plussign_withcolor,335716,,yellow,,,,null,GW/racine.png,GW/huntsville.png,,,,,,,,,,,,,,,,,,,,,,,,
1167.2999997138977,,rt_thecrossant_black,336888,,black_plus_sign,,,,50,,,1,1,,,,,,,,,,,,,,,,,,,,,,
null,,color_black,337002,,black_plus_sign,,,,null,,,,,,,,,,,,,,,,,,,,,,,,,,
null,,learn_phase(without_color),340004,,black_plus_sign,,,,null,GW/hanover.png,GW/shreveport.png,,,,,,,,,,,,,,,,,,,,,,,,
null,,black_cross(without_color),340827,,yellow,,,,null,GW/hanover.png,GW/shreveport.png,,,,,,,,,,,,,,,,,,,,,,,,
null,,rt_plussign_withcolor,341327,,yellow,,,,null,GW/hanover.png,GW/shreveport.png,,,,,,,,,,,,,,,,,,,,,,,,
955.1000003814697,,rt_thecrossant_black,342508,,black_plus_sign,,,,50,,,1,1,,,,,,,,,,,,,,,,,,,,,,
null,,color_black,342615,,black_plus_sign,,,,null,,,,,,,,,,,,,,,,,,,,,,,,,,
null,,learn_phase(without_color),345616,,black_plus_sign,,,,null,GW/hotsprings.png,GW/shreveport.png,,,,,,,,,,,,,,,,,,,,,,,,
null,,black_cross(without_color),346124,,yellow,,,,null,GW/hotsprings.png,GW/shreveport.png,,,,,,,,,,,,,,,,,,,,,,,,
null,,rt_plussign_withcolor,346625,,yellow,,,,null,GW/hotsprings.png,GW/shreveport.png,,,,,,,,,,,,,,,,,,,,,,,,
955.5999999046326,,rt_thecrossant_black,348121,,black_plus_sign,,,,50,,,1,1,,,,,,,,,,,,,,,,,,,,,,
null,,color_black,348222,,black_plus_sign,,,,null,,,,,,,,,,,,,,,,,,,,,,,,,,
null,,learn_phase(without_color),351224,,black_plus_sign,,,,null,GW/hotsprings.png,GW/gatlinburg.png,,,,,,,,,,,,,,,,,,,,,,,,
null,,black_cross(without_color),352032,,blue,,,,null,GW/hotsprings.png,GW/gatlinburg.png,,,,,,,,,,,,,,,,,,,,,,,,
null,,rt_plussign_withcolor,352533,,blue,,,,null,GW/hotsprings.png,GW/gatlinburg.png,,,,,,,,,,,,,,,,,,,,,,,,
729.7999997138977,,rt_thecrossant_black,353727,,black_plus_sign,,,,49,,,1,1,,,,,,,,,,,,,,,,,,,,,,
null,,color_black,353831,,black_plus_sign,,,,null,,,,,,,,,,,,,,,,,,,,,,,,,,
null,,learn_phase(without_color),356833,,black_plus_sign,,,,null,GW/westpalmbeach.png,GW/huntsville.png,,,,,,,,,,,,,,,,,,,,,,,,
null,,black_cross(without_color),357886,,yellow,,,,null,GW/westpalmbeach.png,GW/huntsville.png,,,,,,,,,,,,,,,,,,,,,,,,
null,,rt_plussign_withcolor,358388,,yellow,,,,null,GW/westpalmbeach.png,GW/huntsville.png,,,,,,,,,,,,,,,,,,,,,,,,
922.1999998092651,,rt_thecrossant_black,359340,,black_plus_sign,,,,50,,,1,1,,,,,,,,,,,,,,,,,,,,,,
null,,color_black,359441,,black_plus_sign,,,,null,,,,,,,,,,,,,,,,,,,,,,,,,,
null,,learn_phase(without_color),362442,,black_plus_sign,,,,null,GW/shreveport.png,GW/newhope.png,,,,,,,,,,,,,,,,,,,,,,,,
null,,black_cross(without_color),363335,,yellow,,,,null,GW/shreveport.png,GW/newhope.png,,,,,,,,,,,,,,,,,,,,,,,,
483.90000009536743,,rt_plussign_withcolor,363837,,yellow,,,,50,GW/shreveport.png,GW/newhope.png,,,,,,,,,,,,,,,,,,,,,,,,
null,,rt_thecrossant_black,364947,,black_plus_sign,,,,null,,,1,1,,,,,,,,,,,,,,,,,,,,,,
null,,color_black,365048,,black_plus_sign,,,,null,,,,,,,,,,,,,,,,,,,,,,,,,,
null,,learn_phase(without_color),368050,,black_plus_sign,,,,null,GW/cornwall.png,GW/racine.png,,,,,,,,,,,,,,,,,,,,,,,,
null,,black_cross(without_color),369128,,blue,,,,null,GW/cornwall.png,GW/racine.png,,,,,,,,,,,,,,,,,,,,,,,,
null,,rt_plussign_withcolor,369628,,blue,,,,null,GW/cornwall.png,GW/racine.png,,,,,,,,,,,,,,,,,,,,,,,,
1061,,rt_thecrossant_black,370554,,black_plus_sign,,,,49,,,1,1,,,,,,,,,,,,,,,,,,,,,,
null,,color_black,370656,,black_plus_sign,,,,null,,,,,,,,,,,,,,,,,,,,,,,,,,
null,,learn_phase(without_color),373657,,black_plus_sign,,,,null,GW/carmel.png,GW/hotsprings.png,,,,,,,,,,,,,,,,,,,,,,,,
null,,black_cross(without_color),374132,,blue,,,,null,GW/carmel.png,GW/hotsprings.png,,,,,,,,,,,,,,,,,,,,,,,,
null,,rt_plussign_withcolor,374634,,blue,,,,null,GW/carmel.png,GW/hotsprings.png,,,,,,,,,,,,,,,,,,,,,,,,
1337.4000000953674,,rt_thecrossant_black,376161,,black_plus_sign,,,,49,,,1,1,,,,,,,,,,,,,,,,,,,,,,
null,,color_black,376263,,black_plus_sign,,,,null,,,,,,,,,,,,,,,,,,,,,,,,,,
null,,learn_phase(without_color),379264,,black_plus_sign,,,,null,GW/westpalmbeach.png,GW/huntsville.png,,,,,,,,,,,,,,,,,,,,,,,,
null,,black_cross(without_color),380089,,yellow,,,,null,GW/westpalmbeach.png,GW/huntsville.png,,,,,,,,,,,,,,,,,,,,,,,,
428.7999997138977,,rt_plussign_withcolor,380590,,yellow,,,,50,GW/westpalmbeach.png,GW/huntsville.png,,,,,,,,,,,,,,,,,,,,,,,,
null,,rt_thecrossant_black,381769,,black_plus_sign,,,,null,,,1,1,,,,,,,,,,,,,,,,,,,,,,
null,,color_black,381871,,black_plus_sign,,,,null,,,,,,,,,,,,,,,,,,,,,,,,,,
null,,learn_phase(without_color),384873,,black_plus_sign,,,,null,GW/newhope.png,GW/leesburg.png,,,,,,,,,,,,,,,,,,,,,,,,
null,,black_cross(without_color),385936,,blue,,,,null,GW/newhope.png,GW/leesburg.png,,,,,,,,,,,,,,,,,,,,,,,,
null,,rt_plussign_withcolor,386437,,blue,,,,null,GW/newhope.png,GW/leesburg.png,,,,,,,,,,,,,,,,,,,,,,,,
924.2000002861023,,rt_thecrossant_black,387379,,black_plus_sign,,,,49,,,1,1,,,,,,,,,,,,,,,,,,,,,,
null,,color_black,387480,,black_plus_sign,,,,null,,,,,,,,,,,,,,,,,,,,,,,,,,
null,,learn_phase(without_color),390482,,black_plus_sign,,,,null,GW/hotsprings.png,GW/gatlinburg.png,,,,,,,,,,,,,,,,,,,,,,,,
null,,black_cross(without_color),391146,,blue,,,,null,GW/hotsprings.png,GW/gatlinburg.png,,,,,,,,,,,,,,,,,,,,,,,,
440.19999980926514,,rt_plussign_withcolor,391647,,blue,,,,49,GW/hotsprings.png,GW/gatlinburg.png,,,,,,,,,,,,,,,,,,,,,,,,
null,,rt_thecrossant_black,392988,,black_plus_sign,,,,null,,,1,1,,,,,,,,,,,,,,,,,,,,,,
null,,color_black,393089,,black_plus_sign,,,,null,,,,,,,,,,,,,,,,,,,,,,,,,,
null,,learn_phase(without_color),396091,,black_plus_sign,,,,null,GW/newhope.png,GW/shreveport.png,,,,,,,,,,,,,,,,,,,,,,,,
null,,black_cross(without_color),396906,,yellow,,,,null,GW/newhope.png,GW/shreveport.png,,,,,,,,,,,,,,,,,,,,,,,,
464.90000009536743,,rt_plussign_withcolor,397407,,yellow,,,,50,GW/newhope.png,GW/shreveport.png,,,,,,,,,,,,,,,,,,,,,,,,
null,,rt_thecrossant_black,398595,,black_plus_sign,,,,null,,,1,1,,,,,,,,,,,,,,,,,,,,,,
null,,color_black,398697,,black_plus_sign,,,,null,,,,,,,,,,,,,,,,,,,,,,,,,,
null,,learn_phase(without_color),401699,,black_plus_sign,,,,null,GW/leesburg.png,GW/westpalmbeach.png,,,,,,,,,,,,,,,,,,,,,,,,
null,,black_cross(without_color),402215,,blue,,,,null,GW/leesburg.png,GW/westpalmbeach.png,,,,,,,,,,,,,,,,,,,,,,,,
null,,rt_plussign_withcolor,402718,,blue,,,,null,GW/leesburg.png,GW/westpalmbeach.png,,,,,,,,,,,,,,,,,,,,,,,,
971.9000000953674,,rt_thecrossant_black,404205,,black_plus_sign,,,,49,,,1,1,,,,,,,,,,,,,,,,,,,,,,
null,,color_black,404306,,black_plus_sign,,,,null,,,,,,,,,,,,,,,,,,,,,,,,,,
null,,learn_phase(without_color),407307,,black_plus_sign,,,,null,GW/cornwall.png,GW/newhope.png,,,,,,,,,,,,,,,,,,,,,,,,
null,,black_cross(without_color),408352,,yellow,,,,null,GW/cornwall.png,GW/newhope.png,,,,,,,,,,,,,,,,,,,,,,,,
null,,rt_plussign_withcolor,408854,,yellow,,,,null,GW/cornwall.png,GW/newhope.png,,,,,,,,,,,,,,,,,,,,,,,,
647.4000000953674,,rt_thecrossant_black,409812,,black_plus_sign,,,,50,,,1,1,,,,,,,,,,,,,,,,,,,,,,
null,,color_black,409913,,black_plus_sign,,,,null,,,,,,,,,,,,,,,,,,,,,,,,,,
null,,learn_phase(without_color),412915,,black_plus_sign,,,,null,GW/racine.png,GW/westpalmbeach.png,,,,,,,,,,,,,,,,,,,,,,,,
null,,black_cross(without_color),413906,,blue,,,,null,GW/racine.png,GW/westpalmbeach.png,,,,,,,,,,,,,,,,,,,,,,,,
458.90000009536743,,rt_plussign_withcolor,414407,,blue,,,,49,GW/racine.png,GW/westpalmbeach.png,,,,,,,,,,,,,,,,,,,,,,,,
null,,rt_thecrossant_black,415420,,black_plus_sign,,,,null,,,1,1,,,,,,,,,,,,,,,,,,,,,,
null,,color_black,415521,,black_plus_sign,,,,null,,,,,,,,,,,,,,,,,,,,,,,,,,
null,,learn_phase(without_color),418524,,black_plus_sign,,,,null,GW/westpalmbeach.png,GW/huntsville.png,,,,,,,,,,,,,,,,,,,,,,,,
null,,black_cross(without_color),419456,,blue,,,,null,GW/westpalmbeach.png,GW/huntsville.png,,,,,,,,,,,,,,,,,,,,,,,,
412.6000003814697,,rt_plussign_withcolor,419960,,blue,,,,49,GW/westpalmbeach.png,GW/huntsville.png,,,,,,,,,,,,,,,,,,,,,,,,
null,,rt_thecrossant_black,421032,,black_plus_sign,,,,null,,,1,1,,,,,,,,,,,,,,,,,,,,,,
null,,color_black,421133,,black_plus_sign,,,,null,,,,,,,,,,,,,,,,,,,,,,,,,,
null,,learn_phase(without_color),424136,,black_plus_sign,,,,null,GW/cornwall.png,GW/gatlinburg.png,,,,,,,,,,,,,,,,,,,,,,,,
null,,black_cross(without_color),424887,,blue,,,,null,GW/cornwall.png,GW/gatlinburg.png,,,,,,,,,,,,,,,,,,,,,,,,
402,,rt_plussign_withcolor,425388,,blue,,,,49,GW/cornwall.png,GW/gatlinburg.png,,,,,,,,,,,,,,,,,,,,,,,,
null,,rt_thecrossant_black,426645,,black_plus_sign,,,,null,,,1,1,,,,,,,,,,,,,,,,,,,,,,
null,,color_black,426747,,black_plus_sign,,,,null,,,,,,,,,,,,,,,,,,,,,,,,,,
null,,learn_phase(without_color),429749,,black_plus_sign,,,,null,GW/hotsprings.png,GW/shreveport.png,,,,,,,,,,,,,,,,,,,,,,,,
null,,black_cross(without_color),430802,,blue,,,,null,GW/hotsprings.png,GW/shreveport.png,,,,,,,,,,,,,,,,,,,,,,,,
417.7000002861023,,rt_plussign_withcolor,431304,,blue,,,,49,GW/hotsprings.png,GW/shreveport.png,,,,,,,,,,,,,,,,,,,,,,,,
null,,rt_thecrossant_black,432255,,black_plus_sign,,,,null,,,1,1,,,,,,,,,,,,,,,,,,,,,,
null,,color_black,432356,,black_plus_sign,,,,null,,,,,,,,,,,,,,,,,,,,,,,,,,
null,,learn_phase(without_color),435358,,black_plus_sign,,,,null,GW/racine.png,GW/leesburg.png,,,,,,,,,,,,,,,,,,,,,,,,
null,,black_cross(without_color),436024,,yellow,,,,null,GW/racine.png,GW/leesburg.png,,,,,,,,,,,,,,,,,,,,,,,,
null,,rt_plussign_withcolor,436525,,yellow,,,,null,GW/racine.png,GW/leesburg.png,,,,,,,,,,,,,,,,,,,,,,,,
1161.5999999046326,,rt_thecrossant_black,437863,,black_plus_sign,,,,50,,,1,1,,,,,,,,,,,,,,,,,,,,,,
null,,color_black,437965,,black_plus_sign,,,,null,,,,,,,,,,,,,,,,,,,,,,,,,,
null,,learn_phase(without_color),440967,,black_plus_sign,,,,null,GW/racine.png,GW/huntsville.png,,,,,,,,,,,,,,,,,,,,,,,,
null,,black_cross(without_color),441507,,yellow,,,,null,GW/racine.png,GW/huntsville.png,,,,,,,,,,,,,,,,,,,,,,,,
null,,rt_plussign_withcolor,442009,,yellow,,,,null,GW/racine.png,GW/huntsville.png,,,,,,,,,,,,,,,,,,,,,,,,
806.1999998092651,,rt_thecrossant_black,443471,,black_plus_sign,,,,50,,,1,1,,,,,,,,,,,,,,,,,,,,,,
null,,color_black,443573,,black_plus_sign,,,,null,,,,,,,,,,,,,,,,,,,,,,,,,,
null,,learn_phase(without_color),446576,,black_plus_sign,,,,null,GW/racine.png,GW/cornwall.png,,,,,,,,,,,,,,,,,,,,,,,,
null,,black_cross(without_color),447664,,yellow,,,,null,GW/racine.png,GW/cornwall.png,,,,,,,,,,,,,,,,,,,,,,,,
473.5,,rt_plussign_withcolor,448165,,yellow,,,,50,GW/racine.png,GW/cornwall.png,,,,,,,,,,,,,,,,,,,,,,,,
null,,rt_thecrossant_black,449080,,black_plus_sign,,,,null,,,1,1,,,,,,,,,,,,,,,,,,,,,,
null,,color_black,449182,,black_plus_sign,,,,null,,,,,,,,,,,,,,,,,,,,,,,,,,
null,,learn_phase(without_color),452184,,black_plus_sign,,,,null,GW/gatlinburg.png,GW/cornwall.png,,,,,,,,,,,,,,,,,,,,,,,,
null,,black_cross(without_color),452869,,yellow,,,,null,GW/gatlinburg.png,GW/cornwall.png,,,,,,,,,,,,,,,,,,,,,,,,
372,,rt_plussign_withcolor,453370,,yellow,,,,50,GW/gatlinburg.png,GW/cornwall.png,,,,,,,,,,,,,,,,,,,,,,,,
null,,rt_thecrossant_black,454688,,black_plus_sign,,,,null,,,1,1,,,,,,,,,,,,,,,,,,,,,,
null,,color_black,454805,,black_plus_sign,,,,null,,,,,,,,,,,,,,,,,,,,,,,,,,
null,,learn_phase(without_color),457808,,black_plus_sign,,,,null,GW/newhope.png,GW/cornwall.png,,,,,,,,,,,,,,,,,,,,,,,,
null,,black_cross(without_color),458245,,blue,,,,null,GW/newhope.png,GW/cornwall.png,,,,,,,,,,,,,,,,,,,,,,,,
455.19999980926514,,rt_plussign_withcolor,458746,,blue,,,,49,GW/newhope.png,GW/cornwall.png,,,,,,,,,,,,,,,,,,,,,,,,
null,,rt_thecrossant_black,460310,,black_plus_sign,,,,null,,,1,1,,,,,,,,,,,,,,,,,,,,,,
null,,color_black,460412,,black_plus_sign,,,,null,,,,,,,,,,,,,,,,,,,,,,,,,,
null,,learn_phase(without_color),463413,,black_plus_sign,,,,null,GW/hotsprings.png,GW/gatlinburg.png,,,,,,,,,,,,,,,,,,,,,,,,
null,,black_cross(without_color),464175,,yellow,,,,null,GW/hotsprings.png,GW/gatlinburg.png,,,,,,,,,,,,,,,,,,,,,,,,
null,,rt_plussign_withcolor,464676,,yellow,,,,null,GW/hotsprings.png,GW/gatlinburg.png,,,,,,,,,,,,,,,,,,,,,,,,
601.9000000953674,,rt_thecrossant_black,465919,,black_plus_sign,,,,50,,,1,1,,,,,,,,,,,,,,,,,,,,,,
null,,color_black,466021,,black_plus_sign,,,,null,,,,,,,,,,,,,,,,,,,,,,,,,,
null,,learn_phase(without_color),469022,,black_plus_sign,,,,null,GW/hotsprings.png,GW/shreveport.png,,,,,,,,,,,,,,,,,,,,,,,,
null,,black_cross(without_color),469946,,blue,,,,null,GW/hotsprings.png,GW/shreveport.png,,,,,,,,,,,,,,,,,,,,,,,,
null,,rt_plussign_withcolor,470447,,blue,,,,null,GW/hotsprings.png,GW/shreveport.png,,,,,,,,,,,,,,,,,,,,,,,,
897.0999999046326,,rt_thecrossant_black,471528,,black_plus_sign,,,,49,,,1,1,,,,,,,,,,,,,,,,,,,,,,
null,,color_black,471629,,black_plus_sign,,,,null,,,,,,,,,,,,,,,,,,,,,,,,,,
null,,learn_phase(without_color),474631,,black_plus_sign,,,,null,GW/shreveport.png,GW/hanover.png,,,,,,,,,,,,,,,,,,,,,,,,
null,,black_cross(without_color),475496,,yellow,,,,null,GW/shreveport.png,GW/hanover.png,,,,,,,,,,,,,,,,,,,,,,,,
null,,rt_plussign_withcolor,475997,,yellow,,,,null,GW/shreveport.png,GW/hanover.png,,,,,,,,,,,,,,,,,,,,,,,,
1055.5999999046326,,rt_thecrossant_black,477136,,black_plus_sign,,,,50,,,1,1,,,,,,,,,,,,,,,,,,,,,,
null,,color_black,477237,,black_plus_sign,,,,null,,,,,,,,,,,,,,,,,,,,,,,,,,
null,,learn_phase(without_color),480238,,black_plus_sign,,,,null,GW/hotsprings.png,GW/carmel.png,,,,,,,,,,,,,,,,,,,,,,,,
null,,black_cross(without_color),481206,,yellow,,,,null,GW/hotsprings.png,GW/carmel.png,,,,,,,,,,,,,,,,,,,,,,,,
437.90000009536743,,rt_plussign_withcolor,481707,,yellow,,,,50,GW/hotsprings.png,GW/carmel.png,,,,,,,,,,,,,,,,,,,,,,,,
null,,rt_thecrossant_black,482743,,black_plus_sign,,,,null,,,1,1,,,,,,,,,,,,,,,,,,,,,,
null,,color_black,482845,,black_plus_sign,,,,null,,,,,,,,,,,,,,,,,,,,,,,,,,
null,,learn_phase(without_color),485847,,black_plus_sign,,,,null,GW/racine.png,GW/westpalmbeach.png,,,,,,,,,,,,,,,,,,,,,,,,
null,,black_cross(without_color),486788,,yellow,,,,null,GW/racine.png,GW/westpalmbeach.png,,,,,,,,,,,,,,,,,,,,,,,,
462.2999997138977,,rt_plussign_withcolor,487289,,yellow,,,,50,GW/racine.png,GW/westpalmbeach.png,,,,,,,,,,,,,,,,,,,,,,,,
null,,rt_thecrossant_black,488364,,black_plus_sign,,,,null,,,1,1,,,,,,,,,,,,,,,,,,,,,,
null,,color_black,488465,,black_plus_sign,,,,null,,,,,,,,,,,,,,,,,,,,,,,,,,
null,,learn_phase(without_color),491467,,black_plus_sign,,,,null,GW/cornwall.png,GW/newhope.png,,,,,,,,,,,,,,,,,,,,,,,,
null,,black_cross(without_color),492532,,blue,,,,null,GW/cornwall.png,GW/newhope.png,,,,,,,,,,,,,,,,,,,,,,,,
496.2000002861023,,rt_plussign_withcolor,493034,,blue,,,,49,GW/cornwall.png,GW/newhope.png,,,,,,,,,,,,,,,,,,,,,,,,
null,,rt_thecrossant_black,493973,,black_plus_sign,,,,null,,,1,1,,,,,,,,,,,,,,,,,,,,,,
null,,color_black,494074,,black_plus_sign,,,,null,,,,,,,,,,,,,,,,,,,,,,,,,,
null,,learn_phase(without_color),497076,,black_plus_sign,,,,null,GW/hotsprings.png,GW/gatlinburg.png,,,,,,,,,,,,,,,,,,,,,,,,
null,,black_cross(without_color),498165,,yellow,,,,null,GW/hotsprings.png,GW/gatlinburg.png,,,,,,,,,,,,,,,,,,,,,,,,
null,,rt_plussign_withcolor,498667,,yellow,,,,null,GW/hotsprings.png,GW/gatlinburg.png,,,,,,,,,,,,,,,,,,,,,,,,
1223.7000002861023,,rt_thecrossant_black,499581,,black_plus_sign,,,,50,,,1,1,,,,,,,,,,,,,,,,,,,,,,
null,,color_black,499682,,black_plus_sign,,,,null,,,,,,,,,,,,,,,,,,,,,,,,,,
null,,learn_phase(without_color),502683,,black_plus_sign,,,,null,GW/boulder.png,GW/westpalmbeach.png,,,,,,,,,,,,,,,,,,,,,,,,
null,,black_cross(without_color),503558,,yellow,,,,null,GW/boulder.png,GW/westpalmbeach.png,,,,,,,,,,,,,,,,,,,,,,,,
null,,rt_plussign_withcolor,504060,,yellow,,,,null,GW/boulder.png,GW/westpalmbeach.png,,,,,,,,,,,,,,,,,,,,,,,,
1206.5999999046326,,rt_thecrossant_black,505188,,black_plus_sign,,,,50,,,1,1,,,,,,,,,,,,,,,,,,,,,,
null,,color_black,505290,,black_plus_sign,,,,null,,,,,,,,,,,,,,,,,,,,,,,,,,
null,,learn_phase(without_color),508292,,black_plus_sign,,,,null,GW/shreveport.png,GW/hotsprings.png,,,,,,,,,,,,,,,,,,,,,,,,
null,,black_cross(without_color),508945,,yellow,,,,null,GW/shreveport.png,GW/hotsprings.png,,,,,,,,,,,,,,,,,,,,,,,,
null,,rt_plussign_withcolor,509446,,yellow,,,,null,GW/shreveport.png,GW/hotsprings.png,,,,,,,,,,,,,,,,,,,,,,,,
1015.5,,rt_thecrossant_black,510797,,black_plus_sign,,,,50,,,1,1,,,,,,,,,,,,,,,,,,,,,,
null,,color_black,510898,,black_plus_sign,,,,null,,,,,,,,,,,,,,,,,,,,,,,,,,
null,,learn_phase(without_color),513899,,black_plus_sign,,,,null,GW/shreveport.png,GW/hanover.png,,,,,,,,,,,,,,,,,,,,,,,,
null,,black_cross(without_color),514908,,blue,,,,null,GW/shreveport.png,GW/hanover.png,,,,,,,,,,,,,,,,,,,,,,,,
408.30000019073486,,rt_plussign_withcolor,515410,,blue,,,,49,GW/shreveport.png,GW/hanover.png,,,,,,,,,,,,,,,,,,,,,,,,
null,,rt_thecrossant_black,516404,,black_plus_sign,,,,null,,,1,1,,,,,,,,,,,,,,,,,,,,,,
null,,color_black,516506,,black_plus_sign,,,,null,,,,,,,,,,,,,,,,,,,,,,,,,,
null,,learn_phase(without_color),519507,,black_plus_sign,,,,null,GW/westpalmbeach.png,GW/boulder.png,,,,,,,,,,,,,,,,,,,,,,,,
null,,black_cross(without_color),520496,,yellow,,,,null,GW/westpalmbeach.png,GW/boulder.png,,,,,,,,,,,,,,,,,,,,,,,,
482.80000019073486,,rt_plussign_withcolor,520998,,yellow,,,,50,GW/westpalmbeach.png,GW/boulder.png,,,,,,,,,,,,,,,,,,,,,,,,
null,,rt_thecrossant_black,522012,,black_plus_sign,,,,null,,,1,1,,,,,,,,,,,,,,,,,,,,,,
null,,color_black,522113,,black_plus_sign,,,,null,,,,,,,,,,,,,,,,,,,,,,,,,,
null,,learn_phase(without_color),525115,,black_plus_sign,,,,null,GW/racine.png,GW/leesburg.png,,,,,,,,,,,,,,,,,,,,,,,,
null,,black_cross(without_color),525829,,yellow,,,,null,GW/racine.png,GW/leesburg.png,,,,,,,,,,,,,,,,,,,,,,,,
407.3999996185303,,rt_plussign_withcolor,526330,,yellow,,,,50,GW/racine.png,GW/leesburg.png,,,,,,,,,,,,,,,,,,,,,,,,
null,,rt_thecrossant_black,527632,,black_plus_sign,,,,null,,,1,1,,,,,,,,,,,,,,,,,,,,,,
null,,color_black,527734,,black_plus_sign,,,,null,,,,,,,,,,,,,,,,,,,,,,,,,,
null,,learn_phase(without_color),530735,,black_plus_sign,,,,null,GW/hotsprings.png,GW/carmel.png,,,,,,,,,,,,,,,,,,,,,,,,
null,,black_cross(without_color),531220,,blue,,,,null,GW/hotsprings.png,GW/carmel.png,,,,,,,,,,,,,,,,,,,,,,,,
null,,rt_plussign_withcolor,531721,,blue,,,,null,GW/hotsprings.png,GW/carmel.png,,,,,,,,,,,,,,,,,,,,,,,,
828.1999998092651,,rt_thecrossant_black,533245,,black_plus_sign,,,,49,,,1,1,,,,,,,,,,,,,,,,,,,,,,
null,,color_black,533347,,black_plus_sign,,,,null,,,,,,,,,,,,,,,,,,,,,,,,,,
null,,learn_phase(without_color),536349,,black_plus_sign,,,,null,GW/peoria.png,GW/huntsville.png,,,,,,,,,,,,,,,,,,,,,,,,
null,,black_cross(without_color),536981,,yellow,,,,null,GW/peoria.png,GW/huntsville.png,,,,,,,,,,,,,,,,,,,,,,,,
null,,rt_plussign_withcolor,537483,,yellow,,,,null,GW/peoria.png,GW/huntsville.png,,,,,,,,,,,,,,,,,,,,,,,,
598.5999999046326,,rt_thecrossant_black,538855,,black_plus_sign,,,,50,,,1,1,,,,,,,,,,,,,,,,,,,,,,
null,,color_black,538957,,black_plus_sign,,,,null,,,,,,,,,,,,,,,,,,,,,,,,,,
null,,learn_phase(without_color),541958,,black_plus_sign,,,,null,GW/westpalmbeach.png,GW/racine.png,,,,,,,,,,,,,,,,,,,,,,,,
null,,black_cross(without_color),542917,,yellow,,,,null,GW/westpalmbeach.png,GW/racine.png,,,,,,,,,,,,,,,,,,,,,,,,
null,,rt_plussign_withcolor,543418,,yellow,,,,null,GW/westpalmbeach.png,GW/racine.png,,,,,,,,,,,,,,,,,,,,,,,,
1242,,rt_thecrossant_black,544463,,black_plus_sign,,,,50,,,1,1,,,,,,,,,,,,,,,,,,,,,,
null,,color_black,544565,,black_plus_sign,,,,null,,,,,,,,,,,,,,,,,,,,,,,,,,
null,,learn_phase(without_color),547567,,black_plus_sign,,,,null,GW/peoria.png,GW/huntsville.png,,,,,,,,,,,,,,,,,,,,,,,,
null,,black_cross(without_color),548068,,blue,,,,null,GW/peoria.png,GW/huntsville.png,,,,,,,,,,,,,,,,,,,,,,,,
483,,rt_plussign_withcolor,548569,,blue,,,,49,GW/peoria.png,GW/huntsville.png,,,,,,,,,,,,,,,,,,,,,,,,
null,,rt_thecrossant_black,550081,,black_plus_sign,,,,null,,,1,1,,,,,,,,,,,,,,,,,,,,,,
null,,color_black,550182,,black_plus_sign,,,,null,,,,,,,,,,,,,,,,,,,,,,,,,,
null,,learn_phase(without_color),553184,,black_plus_sign,,,,null,GW/racine.png,GW/cornwall.png,,,,,,,,,,,,,,,,,,,,,,,,
null,,black_cross(without_color),553621,,yellow,,,,null,GW/racine.png,GW/cornwall.png,,,,,,,,,,,,,,,,,,,,,,,,
455.90000009536743,,rt_plussign_withcolor,554123,,yellow,,,,50,GW/racine.png,GW/cornwall.png,,,,,,,,,,,,,,,,,,,,,,,,
null,,rt_thecrossant_black,555688,,black_plus_sign,,,,null,,,1,1,,,,,,,,,,,,,,,,,,,,,,
null,,color_black,555792,,black_plus_sign,,,,null,,,,,,,,,,,,,,,,,,,,,,,,,,
null,,learn_phase(without_color),558793,,black_plus_sign,,,,null,GW/hanover.png,GW/shreveport.png,,,,,,,,,,,,,,,,,,,,,,,,
null,,black_cross(without_color),559838,,yellow,,,,null,GW/hanover.png,GW/shreveport.png,,,,,,,,,,,,,,,,,,,,,,,,
389.6000003814697,,rt_plussign_withcolor,560350,,yellow,,,,50,GW/hanover.png,GW/shreveport.png,,,,,,,,,,,,,,,,,,,,,,,,
null,,rt_thecrossant_black,561309,,black_plus_sign,,,,null,,,1,1,,,,,,,,,,,,,,,,,,,,,,
null,,color_black,561417,,black_plus_sign,,,,null,,,,,,,,,,,,,,,,,,,,,,,,,,
null,,learn_phase(without_color),564419,,black_plus_sign,,,,null,GW/hanover.png,GW/shreveport.png,,,,,,,,,,,,,,,,,,,,,,,,
null,,black_cross(without_color),565267,,blue,,,,null,GW/hanover.png,GW/shreveport.png,,,,,,,,,,,,,,,,,,,,,,,,
397.40000009536743,,rt_plussign_withcolor,565768,,blue,,,,49,GW/hanover.png,GW/shreveport.png,,,,,,,,,,,,,,,,,,,,,,,,
null,,rt_thecrossant_black,566924,,black_plus_sign,,,,null,,,1,1,,,,,,,,,,,,,,,,,,,,,,
null,,color_black,567025,,black_plus_sign,,,,null,,,,,,,,,,,,,,,,,,,,,,,,,,
null,,learn_phase(without_color),570027,,black_plus_sign,,,,null,GW/newhope.png,GW/leesburg.png,,,,,,,,,,,,,,,,,,,,,,,,
null,,black_cross(without_color),571012,,yellow,,,,null,GW/newhope.png,GW/leesburg.png,,,,,,,,,,,,,,,,,,,,,,,,
429.2000002861023,,rt_plussign_withcolor,571513,,yellow,,,,50,GW/newhope.png,GW/leesburg.png,,,,,,,,,,,,,,,,,,,,,,,,
null,,rt_thecrossant_black,572532,,black_plus_sign,,,,null,,,1,1,,,,,,,,,,,,,,,,,,,,,,
null,,color_black,572634,,black_plus_sign,,,,null,,,,,,,,,,,,,,,,,,,,,,,,,,
null,,learn_phase(without_color),575636,,black_plus_sign,,,,null,GW/hotsprings.png,GW/gatlinburg.png,,,,,,,,,,,,,,,,,,,,,,,,
null,,black_cross(without_color),576586,,blue,,,,null,GW/hotsprings.png,GW/gatlinburg.png,,,,,,,,,,,,,,,,,,,,,,,,
408.09999990463257,,rt_plussign_withcolor,577088,,blue,,,,49,GW/hotsprings.png,GW/gatlinburg.png,,,,,,,,,,,,,,,,,,,,,,,,
null,,rt_thecrossant_black,578146,,black_plus_sign,,,,null,,,1,1,,,,,,,,,,,,,,,,,,,,,,
null,,color_black,578247,,black_plus_sign,,,,null,,,,,,,,,,,,,,,,,,,,,,,,,,
null,,learn_phase(without_color),581250,,black_plus_sign,,,,null,GW/westpalmbeach.png,GW/boulder.png,,,,,,,,,,,,,,,,,,,,,,,,
null,,black_cross(without_color),582175,,blue,,,,null,GW/westpalmbeach.png,GW/boulder.png,,,,,,,,,,,,,,,,,,,,,,,,
409.90000009536743,,rt_plussign_withcolor,582677,,blue,,,,49,GW/westpalmbeach.png,GW/boulder.png,,,,,,,,,,,,,,,,,,,,,,,,
null,,rt_thecrossant_black,583761,,black_plus_sign,,,,null,,,1,1,,,,,,,,,,,,,,,,,,,,,,
null,,color_black,583863,,black_plus_sign,,,,null,,,,,,,,,,,,,,,,,,,,,,,,,,
null,,learn_phase(without_color),586865,,black_plus_sign,,,,null,GW/gatlinburg.png,GW/hotsprings.png,,,,,,,,,,,,,,,,,,,,,,,,
null,,black_cross(without_color),587546,,yellow,,,,null,GW/gatlinburg.png,GW/hotsprings.png,,,,,,,,,,,,,,,,,,,,,,,,
443.5,,rt_plussign_withcolor,588047,,yellow,,,,50,GW/gatlinburg.png,GW/hotsprings.png,,,,,,,,,,,,,,,,,,,,,,,,
null,,rt_thecrossant_black,589372,,black_plus_sign,,,,null,,,1,1,,,,,,,,,,,,,,,,,,,,,,
null,,color_black,589473,,black_plus_sign,,,,null,,,,,,,,,,,,,,,,,,,,,,,,,,
null,,learn_phase(without_color),592475,,black_plus_sign,,,,null,GW/peoria.png,GW/huntsville.png,,,,,,,,,,,,,,,,,,,,,,,,
null,,black_cross(without_color),593154,,yellow,,,,null,GW/peoria.png,GW/huntsville.png,,,,,,,,,,,,,,,,,,,,,,,,
null,,rt_plussign_withcolor,593656,,yellow,,,,null,GW/peoria.png,GW/huntsville.png,,,,,,,,,,,,,,,,,,,,,,,,
811.2999997138977,,rt_thecrossant_black,594980,,black_plus_sign,,,,50,,,1,1,,,,,,,,,,,,,,,,,,,,,,
null,,color_black,595081,,black_plus_sign,,,,null,,,,,,,,,,,,,,,,,,,,,,,,,,
null,,learn_phase(without_color),598084,,black_plus_sign,,,,null,GW/hanover.png,GW/shreveport.png,,,,,,,,,,,,,,,,,,,,,,,,
null,,black_cross(without_color),598708,,yellow,,,,null,GW/hanover.png,GW/shreveport.png,,,,,,,,,,,,,,,,,,,,,,,,
392.09999990463257,,rt_plussign_withcolor,599210,,yellow,,,,50,GW/hanover.png,GW/shreveport.png,,,,,,,,,,,,,,,,,,,,,,,,
null,,rt_thecrossant_black,600589,,black_plus_sign,,,,null,,,1,1,,,,,,,,,,,,,,,,,,,,,,
null,,color_black,600691,,black_plus_sign,,,,null,,,,,,,,,,,,,,,,,,,,,,,,,,
null,,learn_phase(without_color),603694,,black_plus_sign,,,,null,GW/shreveport.png,GW/newhope.png,,,,,,,,,,,,,,,,,,,,,,,,
null,,black_cross(without_color),604496,,yellow,,,,null,GW/shreveport.png,GW/newhope.png,,,,,,,,,,,,,,,,,,,,,,,,
386.1000003814697,,rt_plussign_withcolor,604999,,yellow,,,,50,GW/shreveport.png,GW/newhope.png,,,,,,,,,,,,,,,,,,,,,,,,
null,,rt_thecrossant_black,606200,,black_plus_sign,,,,null,,,1,1,,,,,,,,,,,,,,,,,,,,,,
null,,color_black,606301,,black_plus_sign,,,,null,,,,,,,,,,,,,,,,,,,,,,,,,,
32724.300000190735,,learn_break,639027,,learn_break,,,,32,,,,,,,,,,,,,,,,,,,,,,,,,,
null,,html-keyboard-response,640027,,<p></p>,,,,null,,,,,,,,,,,,,,,,,,,,,,,,,,
null,,learn_phase(without_color),643028,,black_plus_sign,,,,null,GW/leesburg.png,GW/newhope.png,,,,,,,,,,,,,,,,,,,,,,,,
null,,black_cross(without_color),643642,,yellow,,,,null,GW/leesburg.png,GW/newhope.png,,,,,,,,,,,,,,,,,,,,,,,,
442.19999980926514,,rt_plussign_withcolor,644144,,yellow,,,,50,GW/leesburg.png,GW/newhope.png,,,,,,,,,,,,,,,,,,,,,,,,
null,,rt_thecrossant_black,645533,,black_plus_sign,,,,null,,,1,1,,,,,,,,,,,,,,,,,,,,,,
null,,color_black,645635,,black_plus_sign,,,,null,,,,,,,,,,,,,,,,,,,,,,,,,,
null,,learn_phase(without_color),648636,,black_plus_sign,,,,null,GW/newhope.png,GW/cornwall.png,,,,,,,,,,,,,,,,,,,,,,,,
null,,black_cross(without_color),649666,,yellow,,,,null,GW/newhope.png,GW/cornwall.png,,,,,,,,,,,,,,,,,,,,,,,,
401.80000019073486,,rt_plussign_withcolor,650168,,yellow,,,,50,GW/newhope.png,GW/cornwall.png,,,,,,,,,,,,,,,,,,,,,,,,
null,,rt_thecrossant_black,651140,,black_plus_sign,,,,null,,,1,1,,,,,,,,,,,,,,,,,,,,,,
null,,color_black,651242,,black_plus_sign,,,,null,,,,,,,,,,,,,,,,,,,,,,,,,,
null,,learn_phase(without_color),654244,,black_plus_sign,,,,null,GW/shreveport.png,GW/hanover.png,,,,,,,,,,,,,,,,,,,,,,,,
null,,black_cross(without_color),655319,,yellow,,,,null,GW/shreveport.png,GW/hanover.png,,,,,,,,,,,,,,,,,,,,,,,,
396,,rt_plussign_withcolor,655821,,yellow,,,,50,GW/shreveport.png,GW/hanover.png,,,,,,,,,,,,,,,,,,,,,,,,
null,,rt_thecrossant_black,656750,,black_plus_sign,,,,null,,,1,1,,,,,,,,,,,,,,,,,,,,,,
null,,color_black,656851,,black_plus_sign,,,,null,,,,,,,,,,,,,,,,,,,,,,,,,,
null,,learn_phase(without_color),659853,,black_plus_sign,,,,null,GW/carmel.png,GW/hotsprings.png,,,,,,,,,,,,,,,,,,,,,,,,
null,,black_cross(without_color),660361,,yellow,,,,null,GW/carmel.png,GW/hotsprings.png,,,,,,,,,,,,,,,,,,,,,,,,
384.90000009536743,,rt_plussign_withcolor,660862,,yellow,,,,50,GW/carmel.png,GW/hotsprings.png,,,,,,,,,,,,,,,,,,,,,,,,
null,,rt_thecrossant_black,662358,,black_plus_sign,,,,null,,,1,1,,,,,,,,,,,,,,,,,,,,,,
null,,color_black,662459,,black_plus_sign,,,,null,,,,,,,,,,,,,,,,,,,,,,,,,,
null,,learn_phase(without_color),665462,,black_plus_sign,,,,null,GW/gatlinburg.png,GW/cornwall.png,,,,,,,,,,,,,,,,,,,,,,,,
null,,black_cross(without_color),666069,,blue,,,,null,GW/gatlinburg.png,GW/cornwall.png,,,,,,,,,,,,,,,,,,,,,,,,
464.2000002861023,,rt_plussign_withcolor,666570,,blue,,,,49,GW/gatlinburg.png,GW/cornwall.png,,,,,,,,,,,,,,,,,,,,,,,,
null,,rt_thecrossant_black,667965,,black_plus_sign,,,,null,,,1,1,,,,,,,,,,,,,,,,,,,,,,
null,,color_black,668066,,black_plus_sign,,,,null,,,,,,,,,,,,,,,,,,,,,,,,,,
null,,learn_phase(without_color),671068,,black_plus_sign,,,,null,GW/shreveport.png,GW/hanover.png,,,,,,,,,,,,,,,,,,,,,,,,
null,,black_cross(without_color),672037,,blue,,,,null,GW/shreveport.png,GW/hanover.png,,,,,,,,,,,,,,,,,,,,,,,,
409.19999980926514,,rt_plussign_withcolor,672538,,blue,,,,49,GW/shreveport.png,GW/hanover.png,,,,,,,,,,,,,,,,,,,,,,,,
null,,rt_thecrossant_black,673573,,black_plus_sign,,,,null,,,1,1,,,,,,,,,,,,,,,,,,,,,,
null,,color_black,673675,,black_plus_sign,,,,null,,,,,,,,,,,,,,,,,,,,,,,,,,
null,,learn_phase(without_color),676677,,black_plus_sign,,,,null,GW/peoria.png,GW/huntsville.png,,,,,,,,,,,,,,,,,,,,,,,,
null,,black_cross(without_color),677261,,yellow,,,,null,GW/peoria.png,GW/huntsville.png,,,,,,,,,,,,,,,,,,,,,,,,
468.30000019073486,,rt_plussign_withcolor,677763,,yellow,,,,50,GW/peoria.png,GW/huntsville.png,,,,,,,,,,,,,,,,,,,,,,,,
null,,rt_thecrossant_black,679183,,black_plus_sign,,,,null,,,1,1,,,,,,,,,,,,,,,,,,,,,,
null,,color_black,679285,,black_plus_sign,,,,null,,,,,,,,,,,,,,,,,,,,,,,,,,
null,,learn_phase(without_color),682286,,black_plus_sign,,,,null,GW/westpalmbeach.png,GW/racine.png,,,,,,,,,,,,,,,,,,,,,,,,
null,,black_cross(without_color),683162,,yellow,,,,null,GW/westpalmbeach.png,GW/racine.png,,,,,,,,,,,,,,,,,,,,,,,,
365,,rt_plussign_withcolor,683663,,yellow,,,,50,GW/westpalmbeach.png,GW/racine.png,,,,,,,,,,,,,,,,,,,,,,,,
null,,rt_thecrossant_black,684792,,black_plus_sign,,,,null,,,1,1,,,,,,,,,,,,,,,,,,,,,,
null,,color_black,684894,,black_plus_sign,,,,null,,,,,,,,,,,,,,,,,,,,,,,,,,
null,,learn_phase(without_color),687896,,black_plus_sign,,,,null,GW/westpalmbeach.png,GW/huntsville.png,,,,,,,,,,,,,,,,,,,,,,,,
null,,black_cross(without_color),688884,,blue,,,,null,GW/westpalmbeach.png,GW/huntsville.png,,,,,,,,,,,,,,,,,,,,,,,,
485.40000009536743,,rt_plussign_withcolor,689386,,blue,,,,49,GW/westpalmbeach.png,GW/huntsville.png,,,,,,,,,,,,,,,,,,,,,,,,
null,,rt_thecrossant_black,690405,,black_plus_sign,,,,null,,,1,1,,,,,,,,,,,,,,,,,,,,,,
null,,color_black,690506,,black_plus_sign,,,,null,,,,,,,,,,,,,,,,,,,,,,,,,,
null,,learn_phase(without_color),693509,,black_plus_sign,,,,null,GW/racine.png,GW/cornwall.png,,,,,,,,,,,,,,,,,,,,,,,,
null,,black_cross(without_color),694462,,yellow,,,,null,GW/racine.png,GW/cornwall.png,,,,,,,,,,,,,,,,,,,,,,,,
null,,rt_plussign_withcolor,694964,,yellow,,,,null,GW/racine.png,GW/cornwall.png,,,,,,,,,,,,,,,,,,,,,,,,
1146,,rt_thecrossant_black,696013,,black_plus_sign,,,,50,,,1,1,,,,,,,,,,,,,,,,,,,,,,
null,,color_black,696115,,black_plus_sign,,,,null,,,,,,,,,,,,,,,,,,,,,,,,,,
null,,learn_phase(without_color),699117,,black_plus_sign,,,,null,GW/leesburg.png,GW/newhope.png,,,,,,,,,,,,,,,,,,,,,,,,
null,,black_cross(without_color),699729,,blue,,,,null,GW/leesburg.png,GW/newhope.png,,,,,,,,,,,,,,,,,,,,,,,,
507.30000019073486,,rt_plussign_withcolor,700238,,blue,,,,49,GW/leesburg.png,GW/newhope.png,,,,,,,,,,,,,,,,,,,,,,,,
null,,rt_thecrossant_black,701628,,black_plus_sign,,,,null,,,1,1,,,,,,,,,,,,,,,,,,,,,,
null,,color_black,701730,,black_plus_sign,,,,null,,,,,,,,,,,,,,,,,,,,,,,,,,
null,,learn_phase(without_color),704733,,black_plus_sign,,,,null,GW/peoria.png,GW/huntsville.png,,,,,,,,,,,,,,,,,,,,,,,,
null,,black_cross(without_color),705768,,yellow,,,,null,GW/peoria.png,GW/huntsville.png,,,,,,,,,,,,,,,,,,,,,,,,
412,,rt_plussign_withcolor,706269,,yellow,,,,50,GW/peoria.png,GW/huntsville.png,,,,,,,,,,,,,,,,,,,,,,,,
null,,rt_thecrossant_black,707237,,black_plus_sign,,,,null,,,1,1,,,,,,,,,,,,,,,,,,,,,,
null,,color_black,707338,,black_plus_sign,,,,null,,,,,,,,,,,,,,,,,,,,,,,,,,
null,,learn_phase(without_color),710340,,black_plus_sign,,,,null,GW/gatlinburg.png,GW/hotsprings.png,,,,,,,,,,,,,,,,,,,,,,,,
null,,black_cross(without_color),711410,,blue,,,,null,GW/gatlinburg.png,GW/hotsprings.png,,,,,,,,,,,,,,,,,,,,,,,,
453.2999997138977,,rt_plussign_withcolor,711912,,blue,,,,49,GW/gatlinburg.png,GW/hotsprings.png,,,,,,,,,,,,,,,,,,,,,,,,
null,,rt_thecrossant_black,712846,,black_plus_sign,,,,null,,,1,1,,,,,,,,,,,,,,,,,,,,,,
null,,color_black,712947,,black_plus_sign,,,,null,,,,,,,,,,,,,,,,,,,,,,,,,,
null,,learn_phase(without_color),715949,,black_plus_sign,,,,null,GW/huntsville.png,GW/racine.png,,,,,,,,,,,,,,,,,,,,,,,,
null,,black_cross(without_color),716812,,yellow,,,,null,GW/huntsville.png,GW/racine.png,,,,,,,,,,,,,,,,,,,,,,,,
410.3999996185303,,rt_plussign_withcolor,717314,,yellow,,,,50,GW/huntsville.png,GW/racine.png,,,,,,,,,,,,,,,,,,,,,,,,
null,,rt_thecrossant_black,718453,,black_plus_sign,,,,null,,,1,1,,,,,,,,,,,,,,,,,,,,,,
null,,color_black,718555,,black_plus_sign,,,,null,,,,,,,,,,,,,,,,,,,,,,,,,,
null,,learn_phase(without_color),721557,,black_plus_sign,,,,null,GW/shreveport.png,GW/hotsprings.png,,,,,,,,,,,,,,,,,,,,,,,,
null,,black_cross(without_color),722109,,blue,,,,null,GW/shreveport.png,GW/hotsprings.png,,,,,,,,,,,,,,,,,,,,,,,,
445.40000009536743,,rt_plussign_withcolor,722610,,blue,,,,49,GW/shreveport.png,GW/hotsprings.png,,,,,,,,,,,,,,,,,,,,,,,,
null,,rt_thecrossant_black,724062,,black_plus_sign,,,,null,,,1,1,,,,,,,,,,,,,,,,,,,,,,
null,,color_black,724164,,black_plus_sign,,,,null,,,,,,,,,,,,,,,,,,,,,,,,,,
null,,learn_phase(without_color),727166,,black_plus_sign,,,,null,GW/westpalmbeach.png,GW/boulder.png,,,,,,,,,,,,,,,,,,,,,,,,
null,,black_cross(without_color),728123,,blue,,,,null,GW/westpalmbeach.png,GW/boulder.png,,,,,,,,,,,,,,,,,,,,,,,,
435.5,,rt_plussign_withcolor,728630,,blue,,,,49,GW/westpalmbeach.png,GW/boulder.png,,,,,,,,,,,,,,,,,,,,,,,,
null,,rt_thecrossant_black,729677,,black_plus_sign,,,,null,,,1,1,,,,,,,,,,,,,,,,,,,,,,
null,,color_black,729785,,black_plus_sign,,,,null,,,,,,,,,,,,,,,,,,,,,,,,,,
null,,learn_phase(without_color),732786,,black_plus_sign,,,,null,GW/cornwall.png,GW/newhope.png,,,,,,,,,,,,,,,,,,,,,,,,
null,,black_cross(without_color),733228,,yellow,,,,null,GW/cornwall.png,GW/newhope.png,,,,,,,,,,,,,,,,,,,,,,,,
396.7999997138977,,rt_plussign_withcolor,733730,,yellow,,,,50,GW/cornwall.png,GW/newhope.png,,,,,,,,,,,,,,,,,,,,,,,,
null,,rt_thecrossant_black,735292,,black_plus_sign,,,,null,,,1,1,,,,,,,,,,,,,,,,,,,,,,
null,,color_black,735392,,black_plus_sign,,,,null,,,,,,,,,,,,,,,,,,,,,,,,,,
null,,learn_phase(without_color),738394,,black_plus_sign,,,,null,GW/leesburg.png,GW/racine.png,,,,,,,,,,,,,,,,,,,,,,,,
null,,black_cross(without_color),738888,,yellow,,,,null,GW/leesburg.png,GW/racine.png,,,,,,,,,,,,,,,,,,,,,,,,
403,,rt_plussign_withcolor,739390,,yellow,,,,50,GW/leesburg.png,GW/racine.png,,,,,,,,,,,,,,,,,,,,,,,,
null,,rt_thecrossant_black,740898,,black_plus_sign,,,,null,,,1,1,,,,,,,,,,,,,,,,,,,,,,
null,,color_black,741001,,black_plus_sign,,,,null,,,,,,,,,,,,,,,,,,,,,,,,,,
null,,learn_phase(without_color),744002,,black_plus_sign,,,,null,GW/newhope.png,GW/shreveport.png,,,,,,,,,,,,,,,,,,,,,,,,
null,,black_cross(without_color),744422,,yellow,,,,null,GW/newhope.png,GW/shreveport.png,,,,,,,,,,,,,,,,,,,,,,,,
null,,rt_plussign_withcolor,744924,,yellow,,,,null,GW/newhope.png,GW/shreveport.png,,,,,,,,,,,,,,,,,,,,,,,,
633.7000002861023,,rt_thecrossant_black,746508,,black_plus_sign,,,,50,,,1,1,,,,,,,,,,,,,,,,,,,,,,
null,,color_black,746610,,black_plus_sign,,,,null,,,,,,,,,,,,,,,,,,,,,,,,,,
null,,learn_phase(without_color),749611,,black_plus_sign,,,,null,GW/carmel.png,GW/hotsprings.png,,,,,,,,,,,,,,,,,,,,,,,,
null,,black_cross(without_color),750323,,yellow,,,,null,GW/carmel.png,GW/hotsprings.png,,,,,,,,,,,,,,,,,,,,,,,,
360.5,,rt_plussign_withcolor,750825,,yellow,,,,50,GW/carmel.png,GW/hotsprings.png,,,,,,,,,,,,,,,,,,,,,,,,
null,,rt_thecrossant_black,752117,,black_plus_sign,,,,null,,,1,1,,,,,,,,,,,,,,,,,,,,,,
null,,color_black,752220,,black_plus_sign,,,,null,,,,,,,,,,,,,,,,,,,,,,,,,,
null,,learn_phase(without_color),755222,,black_plus_sign,,,,null,GW/racine.png,GW/huntsville.png,,,,,,,,,,,,,,,,,,,,,,,,
null,,black_cross(without_color),755906,,yellow,,,,null,GW/racine.png,GW/huntsville.png,,,,,,,,,,,,,,,,,,,,,,,,
381.1000003814697,,rt_plussign_withcolor,756408,,yellow,,,,50,GW/racine.png,GW/huntsville.png,,,,,,,,,,,,,,,,,,,,,,,,
null,,rt_thecrossant_black,757729,,black_plus_sign,,,,null,,,1,1,,,,,,,,,,,,,,,,,,,,,,
null,,color_black,757831,,black_plus_sign,,,,null,,,,,,,,,,,,,,,,,,,,,,,,,,
null,,learn_phase(without_color),760843,,black_plus_sign,,,,null,GW/gatlinburg.png,GW/hotsprings.png,,,,,,,,,,,,,,,,,,,,,,,,
null,,black_cross(without_color),761911,,blue,,,,null,GW/gatlinburg.png,GW/hotsprings.png,,,,,,,,,,,,,,,,,,,,,,,,
472.8999996185303,,rt_plussign_withcolor,762412,,blue,,,,49,GW/gatlinburg.png,GW/hotsprings.png,,,,,,,,,,,,,,,,,,,,,,,,
null,,rt_thecrossant_black,763347,,black_plus_sign,,,,null,,,1,1,,,,,,,,,,,,,,,,,,,,,,
null,,color_black,763448,,black_plus_sign,,,,null,,,,,,,,,,,,,,,,,,,,,,,,,,
null,,learn_phase(without_color),766449,,black_plus_sign,,,,null,GW/cornwall.png,GW/racine.png,,,,,,,,,,,,,,,,,,,,,,,,
null,,black_cross(without_color),767530,,blue,,,,null,GW/cornwall.png,GW/racine.png,,,,,,,,,,,,,,,,,,,,,,,,
481.80000019073486,,rt_plussign_withcolor,768031,,blue,,,,49,GW/cornwall.png,GW/racine.png,,,,,,,,,,,,,,,,,,,,,,,,
null,,rt_thecrossant_black,768954,,black_plus_sign,,,,null,,,1,1,,,,,,,,,,,,,,,,,,,,,,
null,,color_black,769055,,black_plus_sign,,,,null,,,,,,,,,,,,,,,,,,,,,,,,,,
null,,learn_phase(without_color),772058,,black_plus_sign,,,,null,GW/cornwall.png,GW/gatlinburg.png,,,,,,,,,,,,,,,,,,,,,,,,
null,,black_cross(without_color),772587,,blue,,,,null,GW/cornwall.png,GW/gatlinburg.png,,,,,,,,,,,,,,,,,,,,,,,,
434.09999990463257,,rt_plussign_withcolor,773088,,blue,,,,49,GW/cornwall.png,GW/gatlinburg.png,,,,,,,,,,,,,,,,,,,,,,,,
null,,rt_thecrossant_black,774561,,black_plus_sign,,,,null,,,1,1,,,,,,,,,,,,,,,,,,,,,,
null,,color_black,774664,,black_plus_sign,,,,null,,,,,,,,,,,,,,,,,,,,,,,,,,
null,,learn_phase(without_color),777666,,black_plus_sign,,,,null,GW/leesburg.png,GW/westpalmbeach.png,,,,,,,,,,,,,,,,,,,,,,,,
null,,black_cross(without_color),778587,,blue,,,,null,GW/leesburg.png,GW/westpalmbeach.png,,,,,,,,,,,,,,,,,,,,,,,,
449,,rt_plussign_withcolor,779088,,blue,,,,49,GW/leesburg.png,GW/westpalmbeach.png,,,,,,,,,,,,,,,,,,,,,,,,
null,,rt_thecrossant_black,780180,,black_plus_sign,,,,null,,,1,1,,,,,,,,,,,,,,,,,,,,,,
null,,color_black,780281,,black_plus_sign,,,,null,,,,,,,,,,,,,,,,,,,,,,,,,,
null,,learn_phase(without_color),783283,,black_plus_sign,,,,null,GW/westpalmbeach.png,GW/boulder.png,,,,,,,,,,,,,,,,,,,,,,,,
null,,black_cross(without_color),783885,,blue,,,,null,GW/westpalmbeach.png,GW/boulder.png,,,,,,,,,,,,,,,,,,,,,,,,
390.90000009536743,,rt_plussign_withcolor,784387,,blue,,,,49,GW/westpalmbeach.png,GW/boulder.png,,,,,,,,,,,,,,,,,,,,,,,,
null,,rt_thecrossant_black,785788,,black_plus_sign,,,,null,,,1,1,,,,,,,,,,,,,,,,,,,,,,
null,,color_black,785890,,black_plus_sign,,,,null,,,,,,,,,,,,,,,,,,,,,,,,,,
null,,learn_phase(without_color),788893,,black_plus_sign,,,,null,GW/huntsville.png,GW/westpalmbeach.png,,,,,,,,,,,,,,,,,,,,,,,,
null,,black_cross(without_color),789349,,yellow,,,,null,GW/huntsville.png,GW/westpalmbeach.png,,,,,,,,,,,,,,,,,,,,,,,,
454.80000019073486,,rt_plussign_withcolor,789850,,yellow,,,,50,GW/huntsville.png,GW/westpalmbeach.png,,,,,,,,,,,,,,,,,,,,,,,,
null,,rt_thecrossant_black,791397,,black_plus_sign,,,,null,,,1,1,,,,,,,,,,,,,,,,,,,,,,
null,,color_black,791499,,black_plus_sign,,,,null,,,,,,,,,,,,,,,,,,,,,,,,,,
null,,learn_phase(without_color),794501,,black_plus_sign,,,,null,GW/carmel.png,GW/hotsprings.png,,,,,,,,,,,,,,,,,,,,,,,,
null,,black_cross(without_color),794983,,yellow,,,,null,GW/carmel.png,GW/hotsprings.png,,,,,,,,,,,,,,,,,,,,,,,,
356.59999990463257,,rt_plussign_withcolor,795485,,yellow,,,,50,GW/carmel.png,GW/hotsprings.png,,,,,,,,,,,,,,,,,,,,,,,,
null,,rt_thecrossant_black,797007,,black_plus_sign,,,,null,,,1,1,,,,,,,,,,,,,,,,,,,,,,
null,,color_black,797108,,black_plus_sign,,,,null,,,,,,,,,,,,,,,,,,,,,,,,,,
null,,learn_phase(without_color),800110,,black_plus_sign,,,,null,GW/racine.png,GW/cornwall.png,,,,,,,,,,,,,,,,,,,,,,,,
null,,black_cross(without_color),800990,,blue,,,,null,GW/racine.png,GW/cornwall.png,,,,,,,,,,,,,,,,,,,,,,,,
492.2000002861023,,rt_plussign_withcolor,801491,,blue,,,,49,GW/racine.png,GW/cornwall.png,,,,,,,,,,,,,,,,,,,,,,,,
null,,rt_thecrossant_black,802616,,black_plus_sign,,,,null,,,1,1,,,,,,,,,,,,,,,,,,,,,,
null,,color_black,802718,,black_plus_sign,,,,null,,,,,,,,,,,,,,,,,,,,,,,,,,
null,,learn_phase(without_color),805721,,black_plus_sign,,,,null,GW/boulder.png,GW/westpalmbeach.png,,,,,,,,,,,,,,,,,,,,,,,,
null,,black_cross(without_color),806257,,blue,,,,null,GW/boulder.png,GW/westpalmbeach.png,,,,,,,,,,,,,,,,,,,,,,,,
385.90000009536743,,rt_plussign_withcolor,806758,,blue,,,,49,GW/boulder.png,GW/westpalmbeach.png,,,,,,,,,,,,,,,,,,,,,,,,
null,,rt_thecrossant_black,808226,,black_plus_sign,,,,null,,,1,1,,,,,,,,,,,,,,,,,,,,,,
null,,color_black,808329,,black_plus_sign,,,,null,,,,,,,,,,,,,,,,,,,,,,,,,,
null,,learn_phase(without_color),811330,,black_plus_sign,,,,null,GW/newhope.png,GW/cornwall.png,,,,,,,,,,,,,,,,,,,,,,,,
null,,black_cross(without_color),812091,,blue,,,,null,GW/newhope.png,GW/cornwall.png,,,,,,,,,,,,,,,,,,,,,,,,
399.6000003814697,,rt_plussign_withcolor,812592,,blue,,,,49,GW/newhope.png,GW/cornwall.png,,,,,,,,,,,,,,,,,,,,,,,,
null,,rt_thecrossant_black,813834,,black_plus_sign,,,,null,,,1,1,,,,,,,,,,,,,,,,,,,,,,
null,,color_black,813935,,black_plus_sign,,,,null,,,,,,,,,,,,,,,,,,,,,,,,,,
null,,learn_phase(without_color),816937,,black_plus_sign,,,,null,GW/boulder.png,GW/westpalmbeach.png,,,,,,,,,,,,,,,,,,,,,,,,
null,,black_cross(without_color),817893,,yellow,,,,null,GW/boulder.png,GW/westpalmbeach.png,,,,,,,,,,,,,,,,,,,,,,,,
null,,rt_plussign_withcolor,818395,,yellow,,,,null,GW/boulder.png,GW/westpalmbeach.png,,,,,,,,,,,,,,,,,,,,,,,,
908.2999997138977,,rt_thecrossant_black,819455,,black_plus_sign,,,,50,,,1,1,,,,,,,,,,,,,,,,,,,,,,
null,,color_black,819557,,black_plus_sign,,,,null,,,,,,,,,,,,,,,,,,,,,,,,,,
null,,learn_phase(without_color),822559,,black_plus_sign,,,,null,GW/shreveport.png,GW/newhope.png,,,,,,,,,,,,,,,,,,,,,,,,
null,,black_cross(without_color),823582,,blue,,,,null,GW/shreveport.png,GW/newhope.png,,,,,,,,,,,,,,,,,,,,,,,,
426.69999980926514,,rt_plussign_withcolor,824091,,blue,,,,49,GW/shreveport.png,GW/newhope.png,,,,,,,,,,,,,,,,,,,,,,,,
null,,rt_thecrossant_black,825071,,black_plus_sign,,,,null,,,1,1,,,,,,,,,,,,,,,,,,,,,,
null,,color_black,825172,,black_plus_sign,,,,null,,,,,,,,,,,,,,,,,,,,,,,,,,
null,,learn_phase(without_color),828174,,black_plus_sign,,,,null,GW/shreveport.png,GW/hotsprings.png,,,,,,,,,,,,,,,,,,,,,,,,
null,,black_cross(without_color),828726,,blue,,,,null,GW/shreveport.png,GW/hotsprings.png,,,,,,,,,,,,,,,,,,,,,,,,
381.30000019073486,,rt_plussign_withcolor,829231,,blue,,,,49,GW/shreveport.png,GW/hotsprings.png,,,,,,,,,,,,,,,,,,,,,,,,
null,,rt_thecrossant_black,830682,,black_plus_sign,,,,null,,,1,1,,,,,,,,,,,,,,,,,,,,,,
null,,color_black,830784,,black_plus_sign,,,,null,,,,,,,,,,,,,,,,,,,,,,,,,,
null,,learn_phase(without_color),833786,,black_plus_sign,,,,null,GW/westpalmbeach.png,GW/huntsville.png,,,,,,,,,,,,,,,,,,,,,,,,
null,,black_cross(without_color),834427,,blue,,,,null,GW/westpalmbeach.png,GW/huntsville.png,,,,,,,,,,,,,,,,,,,,,,,,
408.90000009536743,,rt_plussign_withcolor,834928,,blue,,,,49,GW/westpalmbeach.png,GW/huntsville.png,,,,,,,,,,,,,,,,,,,,,,,,
null,,rt_thecrossant_black,836295,,black_plus_sign,,,,null,,,1,1,,,,,,,,,,,,,,,,,,,,,,
null,,color_black,836397,,black_plus_sign,,,,null,,,,,,,,,,,,,,,,,,,,,,,,,,
null,,learn_phase(without_color),839399,,black_plus_sign,,,,null,GW/huntsville.png,GW/racine.png,,,,,,,,,,,,,,,,,,,,,,,,
null,,black_cross(without_color),840359,,blue,,,,null,GW/huntsville.png,GW/racine.png,,,,,,,,,,,,,,,,,,,,,,,,
416.90000009536743,,rt_plussign_withcolor,840861,,blue,,,,49,GW/huntsville.png,GW/racine.png,,,,,,,,,,,,,,,,,,,,,,,,
null,,rt_thecrossant_black,841916,,black_plus_sign,,,,null,,,1,1,,,,,,,,,,,,,,,,,,,,,,
null,,color_black,842018,,black_plus_sign,,,,null,,,,,,,,,,,,,,,,,,,,,,,,,,
null,,learn_phase(without_color),845021,,black_plus_sign,,,,null,GW/huntsville.png,GW/peoria.png,,,,,,,,,,,,,,,,,,,,,,,,
null,,black_cross(without_color),845766,,blue,,,,null,GW/huntsville.png,GW/peoria.png,,,,,,,,,,,,,,,,,,,,,,,,
327.90000009536743,,rt_plussign_withcolor,846268,,blue,,,,49,GW/huntsville.png,GW/peoria.png,,,,,,,,,,,,,,,,,,,,,,,,
null,,rt_thecrossant_black,847537,,black_plus_sign,,,,null,,,1,1,,,,,,,,,,,,,,,,,,,,,,
null,,color_black,847638,,black_plus_sign,,,,null,,,,,,,,,,,,,,,,,,,,,,,,,,
null,,learn_phase(without_color),850640,,black_plus_sign,,,,null,GW/westpalmbeach.png,GW/huntsville.png,,,,,,,,,,,,,,,,,,,,,,,,
null,,black_cross(without_color),851103,,yellow,,,,null,GW/westpalmbeach.png,GW/huntsville.png,,,,,,,,,,,,,,,,,,,,,,,,
446.8999996185303,,rt_plussign_withcolor,851604,,yellow,,,,50,GW/westpalmbeach.png,GW/huntsville.png,,,,,,,,,,,,,,,,,,,,,,,,
null,,rt_thecrossant_black,853144,,black_plus_sign,,,,null,,,1,1,,,,,,,,,,,,,,,,,,,,,,
null,,color_black,853245,,black_plus_sign,,,,null,,,,,,,,,,,,,,,,,,,,,,,,,,
null,,learn_phase(without_color),856259,,black_plus_sign,,,,null,GW/leesburg.png,GW/racine.png,,,,,,,,,,,,,,,,,,,,,,,,
null,,black_cross(without_color),856662,,yellow,,,,null,GW/leesburg.png,GW/racine.png,,,,,,,,,,,,,,,,,,,,,,,,
374.3999996185303,,rt_plussign_withcolor,857164,,yellow,,,,50,GW/leesburg.png,GW/racine.png,,,,,,,,,,,,,,,,,,,,,,,,
null,,rt_thecrossant_black,858764,,black_plus_sign,,,,null,,,1,1,,,,,,,,,,,,,,,,,,,,,,
null,,color_black,858866,,black_plus_sign,,,,null,,,,,,,,,,,,,,,,,,,,,,,,,,
null,,learn_phase(without_color),861868,,black_plus_sign,,,,null,GW/cornwall.png,GW/newhope.png,,,,,,,,,,,,,,,,,,,,,,,,
null,,black_cross(without_color),862701,,yellow,,,,null,GW/cornwall.png,GW/newhope.png,,,,,,,,,,,,,,,,,,,,,,,,
399.40000009536743,,rt_plussign_withcolor,863203,,yellow,,,,50,GW/cornwall.png,GW/newhope.png,,,,,,,,,,,,,,,,,,,,,,,,
null,,rt_thecrossant_black,864380,,black_plus_sign,,,,null,,,1,1,,,,,,,,,,,,,,,,,,,,,,
null,,color_black,864481,,black_plus_sign,,,,null,,,,,,,,,,,,,,,,,,,,,,,,,,
null,,learn_phase(without_color),867483,,black_plus_sign,,,,null,GW/gatlinburg.png,GW/cornwall.png,,,,,,,,,,,,,,,,,,,,,,,,
null,,black_cross(without_color),868359,,blue,,,,null,GW/gatlinburg.png,GW/cornwall.png,,,,,,,,,,,,,,,,,,,,,,,,
null,,rt_plussign_withcolor,868860,,blue,,,,null,GW/gatlinburg.png,GW/cornwall.png,,,,,,,,,,,,,,,,,,,,,,,,
995.3000001907349,,rt_thecrossant_black,869990,,black_plus_sign,,,,49,,,1,1,,,,,,,,,,,,,,,,,,,,,,
null,,color_black,870092,,black_plus_sign,,,,null,,,,,,,,,,,,,,,,,,,,,,,,,,
null,,learn_phase(without_color),873095,,black_plus_sign,,,,null,GW/carmel.png,GW/hotsprings.png,,,,,,,,,,,,,,,,,,,,,,,,
null,,black_cross(without_color),874111,,blue,,,,null,GW/carmel.png,GW/hotsprings.png,,,,,,,,,,,,,,,,,,,,,,,,
373.90000009536743,,rt_plussign_withcolor,874612,,blue,,,,49,GW/carmel.png,GW/hotsprings.png,,,,,,,,,,,,,,,,,,,,,,,,
null,,rt_thecrossant_black,875600,,black_plus_sign,,,,null,,,1,1,,,,,,,,,,,,,,,,,,,,,,
null,,color_black,875702,,black_plus_sign,,,,null,,,,,,,,,,,,,,,,,,,,,,,,,,
null,,learn_phase(without_color),878715,,black_plus_sign,,,,null,GW/leesburg.png,GW/newhope.png,,,,,,,,,,,,,,,,,,,,,,,,
null,,black_cross(without_color),879580,,blue,,,,null,GW/leesburg.png,GW/newhope.png,,,,,,,,,,,,,,,,,,,,,,,,
400.2999997138977,,rt_plussign_withcolor,880082,,blue,,,,49,GW/leesburg.png,GW/newhope.png,,,,,,,,,,,,,,,,,,,,,,,,
null,,rt_thecrossant_black,881223,,black_plus_sign,,,,null,,,1,1,,,,,,,,,,,,,,,,,,,,,,
null,,color_black,881324,,black_plus_sign,,,,null,,,,,,,,,,,,,,,,,,,,,,,,,,
null,,learn_phase(without_color),884335,,black_plus_sign,,,,null,GW/leesburg.png,GW/racine.png,,,,,,,,,,,,,,,,,,,,,,,,
null,,black_cross(without_color),884887,,yellow,,,,null,GW/leesburg.png,GW/racine.png,,,,,,,,,,,,,,,,,,,,,,,,
null,,rt_plussign_withcolor,885389,,yellow,,,,null,GW/leesburg.png,GW/racine.png,,,,,,,,,,,,,,,,,,,,,,,,
984.2999997138977,,rt_thecrossant_black,886840,,black_plus_sign,,,,50,,,1,1,,,,,,,,,,,,,,,,,,,,,,
null,,color_black,886941,,black_plus_sign,,,,null,,,,,,,,,,,,,,,,,,,,,,,,,,
null,,learn_phase(without_color),889943,,black_plus_sign,,,,null,GW/leesburg.png,GW/racine.png,,,,,,,,,,,,,,,,,,,,,,,,
null,,black_cross(without_color),890769,,yellow,,,,null,GW/leesburg.png,GW/racine.png,,,,,,,,,,,,,,,,,,,,,,,,
490.5,,rt_plussign_withcolor,891272,,yellow,,,,50,GW/leesburg.png,GW/racine.png,,,,,,,,,,,,,,,,,,,,,,,,
null,,rt_thecrossant_black,892448,,black_plus_sign,,,,null,,,1,1,,,,,,,,,,,,,,,,,,,,,,
null,,color_black,892560,,black_plus_sign,,,,null,,,,,,,,,,,,,,,,,,,,,,,,,,
null,,learn_phase(without_color),895562,,black_plus_sign,,,,null,GW/leesburg.png,GW/westpalmbeach.png,,,,,,,,,,,,,,,,,,,,,,,,
null,,black_cross(without_color),896206,,yellow,,,,null,GW/leesburg.png,GW/westpalmbeach.png,,,,,,,,,,,,,,,,,,,,,,,,
375.30000019073486,,rt_plussign_withcolor,896708,,yellow,,,,50,GW/leesburg.png,GW/westpalmbeach.png,,,,,,,,,,,,,,,,,,,,,,,,
null,,rt_thecrossant_black,898068,,black_plus_sign,,,,null,,,1,1,,,,,,,,,,,,,,,,,,,,,,
null,,color_black,898171,,black_plus_sign,,,,null,,,,,,,,,,,,,,,,,,,,,,,,,,
null,,learn_phase(without_color),901173,,black_plus_sign,,,,null,GW/racine.png,GW/huntsville.png,,,,,,,,,,,,,,,,,,,,,,,,
null,,black_cross(without_color),902034,,yellow,,,,null,GW/racine.png,GW/huntsville.png,,,,,,,,,,,,,,,,,,,,,,,,
405.8999996185303,,rt_plussign_withcolor,902536,,yellow,,,,50,GW/racine.png,GW/huntsville.png,,,,,,,,,,,,,,,,,,,,,,,,
null,,rt_thecrossant_black,903678,,black_plus_sign,,,,null,,,1,1,,,,,,,,,,,,,,,,,,,,,,
null,,color_black,903786,,black_plus_sign,,,,null,,,,,,,,,,,,,,,,,,,,,,,,,,
null,,learn_phase(without_color),906788,,black_plus_sign,,,,null,GW/racine.png,GW/cornwall.png,,,,,,,,,,,,,,,,,,,,,,,,
null,,black_cross(without_color),907692,,yellow,,,,null,GW/racine.png,GW/cornwall.png,,,,,,,,,,,,,,,,,,,,,,,,
431.90000009536743,,rt_plussign_withcolor,908194,,yellow,,,,50,GW/racine.png,GW/cornwall.png,,,,,,,,,,,,,,,,,,,,,,,,
null,,rt_thecrossant_black,909293,,black_plus_sign,,,,null,,,1,1,,,,,,,,,,,,,,,,,,,,,,
null,,color_black,909395,,black_plus_sign,,,,null,,,,,,,,,,,,,,,,,,,,,,,,,,
null,,learn_phase(without_color),912397,,black_plus_sign,,,,null,GW/boulder.png,GW/westpalmbeach.png,,,,,,,,,,,,,,,,,,,,,,,,
null,,black_cross(without_color),912903,,yellow,,,,null,GW/boulder.png,GW/westpalmbeach.png,,,,,,,,,,,,,,,,,,,,,,,,
392,,rt_plussign_withcolor,913404,,yellow,,,,50,GW/boulder.png,GW/westpalmbeach.png,,,,,,,,,,,,,,,,,,,,,,,,
null,,rt_thecrossant_black,914906,,black_plus_sign,,,,null,,,1,1,,,,,,,,,,,,,,,,,,,,,,
null,,color_black,915008,,black_plus_sign,,,,null,,,,,,,,,,,,,,,,,,,,,,,,,,
null,,learn_phase(without_color),918010,,black_plus_sign,,,,null,GW/leesburg.png,GW/westpalmbeach.png,,,,,,,,,,,,,,,,,,,,,,,,
null,,black_cross(without_color),919049,,blue,,,,null,GW/leesburg.png,GW/westpalmbeach.png,,,,,,,,,,,,,,,,,,,,,,,,
425.80000019073486,,rt_plussign_withcolor,919550,,blue,,,,49,GW/leesburg.png,GW/westpalmbeach.png,,,,,,,,,,,,,,,,,,,,,,,,
null,,rt_thecrossant_black,920515,,black_plus_sign,,,,null,,,1,1,,,,,,,,,,,,,,,,,,,,,,
null,,color_black,920617,,black_plus_sign,,,,null,,,,,,,,,,,,,,,,,,,,,,,,,,
null,,learn_phase(without_color),923619,,black_plus_sign,,,,null,GW/westpalmbeach.png,GW/leesburg.png,,,,,,,,,,,,,,,,,,,,,,,,
null,,black_cross(without_color),924254,,blue,,,,null,GW/westpalmbeach.png,GW/leesburg.png,,,,,,,,,,,,,,,,,,,,,,,,
353.90000009536743,,rt_plussign_withcolor,924754,,blue,,,,49,GW/westpalmbeach.png,GW/leesburg.png,,,,,,,,,,,,,,,,,,,,,,,,
null,,rt_thecrossant_black,926123,,black_plus_sign,,,,null,,,1,1,,,,,,,,,,,,,,,,,,,,,,
null,,color_black,926224,,black_plus_sign,,,,null,,,,,,,,,,,,,,,,,,,,,,,,,,
null,,learn_phase(without_color),929226,,black_plus_sign,,,,null,GW/newhope.png,GW/leesburg.png,,,,,,,,,,,,,,,,,,,,,,,,
null,,black_cross(without_color),930133,,blue,,,,null,GW/newhope.png,GW/leesburg.png,,,,,,,,,,,,,,,,,,,,,,,,
501.2999997138977,,rt_plussign_withcolor,930635,,blue,,,,49,GW/newhope.png,GW/leesburg.png,,,,,,,,,,,,,,,,,,,,,,,,
null,,rt_thecrossant_black,931744,,black_plus_sign,,,,null,,,1,1,,,,,,,,,,,,,,,,,,,,,,
null,,color_black,931845,,black_plus_sign,,,,null,,,,,,,,,,,,,,,,,,,,,,,,,,
null,,learn_phase(without_color),934848,,black_plus_sign,,,,null,GW/racine.png,GW/leesburg.png,,,,,,,,,,,,,,,,,,,,,,,,
null,,black_cross(without_color),935766,,yellow,,,,null,GW/racine.png,GW/leesburg.png,,,,,,,,,,,,,,,,,,,,,,,,
null,,rt_plussign_withcolor,936268,,yellow,,,,null,GW/racine.png,GW/leesburg.png,,,,,,,,,,,,,,,,,,,,,,,,
1017.2999997138977,,rt_thecrossant_black,937354,,black_plus_sign,,,,50,,,1,1,,,,,,,,,,,,,,,,,,,,,,
null,,color_black,937455,,black_plus_sign,,,,null,,,,,,,,,,,,,,,,,,,,,,,,,,
null,,learn_phase(without_color),940457,,black_plus_sign,,,,null,GW/carmel.png,GW/hotsprings.png,,,,,,,,,,,,,,,,,,,,,,,,
null,,black_cross(without_color),941043,,yellow,,,,null,GW/carmel.png,GW/hotsprings.png,,,,,,,,,,,,,,,,,,,,,,,,
417.30000019073486,,rt_plussign_withcolor,941543,,yellow,,,,50,GW/carmel.png,GW/hotsprings.png,,,,,,,,,,,,,,,,,,,,,,,,
null,,rt_thecrossant_black,942961,,black_plus_sign,,,,null,,,1,1,,,,,,,,,,,,,,,,,,,,,,
null,,color_black,943063,,black_plus_sign,,,,null,,,,,,,,,,,,,,,,,,,,,,,,,,
null,,learn_phase(without_color),946065,,black_plus_sign,,,,null,GW/westpalmbeach.png,GW/racine.png,,,,,,,,,,,,,,,,,,,,,,,,
null,,black_cross(without_color),946945,,yellow,,,,null,GW/westpalmbeach.png,GW/racine.png,,,,,,,,,,,,,,,,,,,,,,,,
433.59999990463257,,rt_plussign_withcolor,947446,,yellow,,,,50,GW/westpalmbeach.png,GW/racine.png,,,,,,,,,,,,,,,,,,,,,,,,
null,,rt_thecrossant_black,948570,,black_plus_sign,,,,null,,,1,1,,,,,,,,,,,,,,,,,,,,,,
null,,color_black,948671,,black_plus_sign,,,,null,,,,,,,,,,,,,,,,,,,,,,,,,,
null,,learn_phase(without_color),951673,,black_plus_sign,,,,null,GW/newhope.png,GW/shreveport.png,,,,,,,,,,,,,,,,,,,,,,,,
null,,black_cross(without_color),952363,,blue,,,,null,GW/newhope.png,GW/shreveport.png,,,,,,,,,,,,,,,,,,,,,,,,
444.90000009536743,,rt_plussign_withcolor,952876,,blue,,,,49,GW/newhope.png,GW/shreveport.png,,,,,,,,,,,,,,,,,,,,,,,,
null,,rt_thecrossant_black,954189,,black_plus_sign,,,,null,,,1,1,,,,,,,,,,,,,,,,,,,,,,
null,,color_black,954291,,black_plus_sign,,,,null,,,,,,,,,,,,,,,,,,,,,,,,,,
null,,learn_phase(without_color),957292,,black_plus_sign,,,,null,GW/huntsville.png,GW/racine.png,,,,,,,,,,,,,,,,,,,,,,,,
null,,black_cross(without_color),958150,,blue,,,,null,GW/huntsville.png,GW/racine.png,,,,,,,,,,,,,,,,,,,,,,,,
466.09999990463257,,rt_plussign_withcolor,958652,,blue,,,,49,GW/huntsville.png,GW/racine.png,,,,,,,,,,,,,,,,,,,,,,,,
null,,rt_thecrossant_black,959797,,black_plus_sign,,,,null,,,1,1,,,,,,,,,,,,,,,,,,,,,,
null,,color_black,959898,,black_plus_sign,,,,null,,,,,,,,,,,,,,,,,,,,,,,,,,
null,,learn_phase(without_color),962900,,black_plus_sign,,,,null,GW/leesburg.png,GW/newhope.png,,,,,,,,,,,,,,,,,,,,,,,,
null,,black_cross(without_color),963807,,blue,,,,null,GW/leesburg.png,GW/newhope.png,,,,,,,,,,,,,,,,,,,,,,,,
460.7999997138977,,rt_plussign_withcolor,964309,,blue,,,,49,GW/leesburg.png,GW/newhope.png,,,,,,,,,,,,,,,,,,,,,,,,
null,,rt_thecrossant_black,965404,,black_plus_sign,,,,null,,,1,1,,,,,,,,,,,,,,,,,,,,,,
null,,color_black,965506,,black_plus_sign,,,,null,,,,,,,,,,,,,,,,,,,,,,,,,,
null,,learn_phase(without_color),968507,,black_plus_sign,,,,null,GW/westpalmbeach.png,GW/racine.png,,,,,,,,,,,,,,,,,,,,,,,,
null,,black_cross(without_color),969075,,yellow,,,,null,GW/westpalmbeach.png,GW/racine.png,,,,,,,,,,,,,,,,,,,,,,,,
null,,rt_plussign_withcolor,969577,,yellow,,,,null,GW/westpalmbeach.png,GW/racine.png,,,,,,,,,,,,,,,,,,,,,,,,
1021.5999999046326,,rt_thecrossant_black,971013,,black_plus_sign,,,,50,,,1,1,,,,,,,,,,,,,,,,,,,,,,
null,,color_black,971115,,black_plus_sign,,,,null,,,,,,,,,,,,,,,,,,,,,,,,,,
null,,learn_phase(without_color),974117,,black_plus_sign,,,,null,GW/leesburg.png,GW/racine.png,,,,,,,,,,,,,,,,,,,,,,,,
null,,black_cross(without_color),974705,,yellow,,,,null,GW/leesburg.png,GW/racine.png,,,,,,,,,,,,,,,,,,,,,,,,
443.90000009536743,,rt_plussign_withcolor,975206,,yellow,,,,50,GW/leesburg.png,GW/racine.png,,,,,,,,,,,,,,,,,,,,,,,,
null,,rt_thecrossant_black,976622,,black_plus_sign,,,,null,,,1,1,,,,,,,,,,,,,,,,,,,,,,
null,,color_black,976724,,black_plus_sign,,,,null,,,,,,,,,,,,,,,,,,,,,,,,,,
null,,learn_phase(without_color),979726,,black_plus_sign,,,,null,GW/shreveport.png,GW/hotsprings.png,,,,,,,,,,,,,,,,,,,,,,,,
null,,black_cross(without_color),980190,,blue,,,,null,GW/shreveport.png,GW/hotsprings.png,,,,,,,,,,,,,,,,,,,,,,,,
null,,rt_plussign_withcolor,980692,,blue,,,,null,GW/shreveport.png,GW/hotsprings.png,,,,,,,,,,,,,,,,,,,,,,,,
712.5999999046326,,rt_thecrossant_black,982231,,black_plus_sign,,,,49,,,1,1,,,,,,,,,,,,,,,,,,,,,,
null,,color_black,982333,,black_plus_sign,,,,null,,,,,,,,,,,,,,,,,,,,,,,,,,
null,,learn_phase(without_color),985335,,black_plus_sign,,,,null,GW/racine.png,GW/huntsville.png,,,,,,,,,,,,,,,,,,,,,,,,
null,,black_cross(without_color),985986,,blue,,,,null,GW/racine.png,GW/huntsville.png,,,,,,,,,,,,,,,,,,,,,,,,
435.59999990463257,,rt_plussign_withcolor,986487,,blue,,,,49,GW/racine.png,GW/huntsville.png,,,,,,,,,,,,,,,,,,,,,,,,
null,,rt_thecrossant_black,987841,,black_plus_sign,,,,null,,,1,1,,,,,,,,,,,,,,,,,,,,,,
null,,color_black,987943,,black_plus_sign,,,,null,,,,,,,,,,,,,,,,,,,,,,,,,,
null,,learn_phase(without_color),990945,,black_plus_sign,,,,null,GW/cornwall.png,GW/gatlinburg.png,,,,,,,,,,,,,,,,,,,,,,,,
null,,black_cross(without_color),991580,,yellow,,,,null,GW/cornwall.png,GW/gatlinburg.png,,,,,,,,,,,,,,,,,,,,,,,,
null,,rt_plussign_withcolor,992082,,yellow,,,,null,GW/cornwall.png,GW/gatlinburg.png,,,,,,,,,,,,,,,,,,,,,,,,
800.7999997138977,,rt_thecrossant_black,993449,,black_plus_sign,,,,50,,,1,1,,,,,,,,,,,,,,,,,,,,,,
null,,color_black,993550,,black_plus_sign,,,,null,,,,,,,,,,,,,,,,,,,,,,,,,,
null,,learn_phase(without_color),996552,,black_plus_sign,,,,null,GW/leesburg.png,GW/westpalmbeach.png,,,,,,,,,,,,,,,,,,,,,,,,
null,,black_cross(without_color),997459,,blue,,,,null,GW/leesburg.png,GW/westpalmbeach.png,,,,,,,,,,,,,,,,,,,,,,,,
493.3999996185303,,rt_plussign_withcolor,997961,,blue,,,,49,GW/leesburg.png,GW/westpalmbeach.png,,,,,,,,,,,,,,,,,,,,,,,,
null,,rt_thecrossant_black,999057,,black_plus_sign,,,,null,,,1,1,,,,,,,,,,,,,,,,,,,,,,
null,,color_black,999159,,black_plus_sign,,,,null,,,,,,,,,,,,,,,,,,,,,,,,,,
5914.5,,learn_break,1005074,,learn_break,,,,32,,,,,,,,,,,,,,,,,,,,,,,,,,
11493.199999809265,,intro_1,1016569,,instruct,,0,Start,,,,,,,,,,,,,,,,,,,,,,,,,,,
1690.5,,directmemory_phase,1018260,,GW/hotsprings.png,,,,50,,,1,1,GW/hanover.png,GW/carmel.png,GW/leesburg.png,GW/carmel.png,GW/hanover.png,GW/leesburg.png,1,,,,,,,,,,,,,,,
null,,html-keyboard-response,1019261,,<p></p>,,,,null,,,,,,,,,,,,,,,,,,,,,,,,,,
1675.2999997138977,,directmemory_phase,1020937,,GW/gatlinburg.png,,,,51,,,1,1,GW/hanover.png,GW/racine.png,GW/cornwall.png,GW/cornwall.png,GW/racine.png,GW/hanover.png,1,,,,,,,,,,,,,,,
null,,html-keyboard-response,1021939,,<p></p>,,,,null,,,,,,,,,,,,,,,,,,,,,,,,,,
2741.5,,directmemory_phase,1024681,,GW/leesburg.png,,,,51,,,1,1,GW/hanover.png,GW/boulder.png,GW/westpalmbeach.png,GW/westpalmbeach.png,GW/boulder.png,GW/hanover.png,1,,,,,,,,,,,,,,,
null,,html-keyboard-response,1025684,,<p></p>,,,,null,,,,,,,,,,,,,,,,,,,,,,,,,,
1264,,directmemory_phase,1026948,,GW/carmel.png,,,,49,,,1,1,GW/hotsprings.png,GW/hanover.png,GW/shreveport.png,GW/hotsprings.png,GW/shreveport.png,GW/hanover.png,1,,,,,,,,,,,,,,,
null,,html-keyboard-response,1027950,,<p></p>,,,,null,,,,,,,,,,,,,,,,,,,,,,,,,,
1869.5999999046326,,directmemory_phase,1029820,,GW/leesburg.png,,,,49,,,1,1,GW/newhope.png,GW/carmel.png,GW/shreveport.png,GW/newhope.png,GW/shreveport.png,GW/carmel.png,1,,,,,,,,,,,,,,,
null,,html-keyboard-response,1030822,,<p></p>,,,,null,,,,,,,,,,,,,,,,,,,,,,,,,,
3010.800000190735,,directmemory_phase,1033834,,GW/huntsville.png,,,,49,,,1,1,GW/westpalmbeach.png,GW/shreveport.png,GW/boulder.png,GW/westpalmbeach.png,GW/boulder.png,GW/shreveport.png,1,,,,,,,,,,,,,,,
null,,html-keyboard-response,1034836,,<p></p>,,,,null,,,,,,,,,,,,,,,,,,,,,,,,,,
1636.8000001907349,,directmemory_phase,1036473,,GW/shreveport.png,,,,51,,,1,1,GW/huntsville.png,GW/carmel.png,GW/newhope.png,GW/newhope.png,GW/carmel.png,GW/huntsville.png,1,,,,,,,,,,,,,,,
null,,html-keyboard-response,1037476,,<p></p>,,,,null,,,,,,,,,,,,,,,,,,,,,,,,,,
1433.0999999046326,,directmemory_phase,1038910,,GW/boulder.png,,,,49,,,1,1,GW/westpalmbeach.png,GW/shreveport.png,GW/racine.png,GW/westpalmbeach.png,GW/racine.png,GW/shreveport.png,1,,,,,,,,,,,,,,,
null,,html-keyboard-response,1039912,,<p></p>,,,,null,,,,,,,,,,,,,,,,,,,,,,,,,,
2206,,directmemory_phase,1042119,,GW/newhope.png,,,,50,,,1,1,GW/hotsprings.png,GW/cornwall.png,GW/huntsville.png,GW/cornwall.png,GW/hotsprings.png,GW/huntsville.png,1,,,,,,,,,,,,,,,
null,,html-keyboard-response,1043128,,<p></p>,,,,null,,,,,,,,,,,,,,,,,,,,,,,,,,
1703.5,,directmemory_phase,1044832,,GW/racine.png,,,,49,,,1,1,GW/leesburg.png,GW/carmel.png,GW/peoria.png,GW/leesburg.png,GW/peoria.png,GW/carmel.png,1,,,,,,,,,,,,,,,
null,,html-keyboard-response,1045834,,<p></p>,,,,null,,,,,,,,,,,,,,,,,,,,,,,,,,
1356.3000001907349,,directmemory_phase,1047191,,GW/hotsprings.png,,,,51,,,1,1,GW/leesburg.png,GW/cornwall.png,GW/gatlinburg.png,GW/gatlinburg.png,GW/cornwall.png,GW/leesburg.png,1,,,,,,,,,,,,,,,
null,,html-keyboard-response,1048193,,<p></p>,,,,null,,,,,,,,,,,,,,,,,,,,,,,,,,
1104.5,,directmemory_phase,1049298,,GW/peoria.png,,,,50,,,1,1,GW/westpalmbeach.png,GW/huntsville.png,GW/gatlinburg.png,GW/huntsville.png,GW/westpalmbeach.png,GW/gatlinburg.png,1,,,,,,,,,,,,,,,
null,,html-keyboard-response,1050300,,<p></p>,,,,null,,,,,,,,,,,,,,,,,,,,,,,,,,
1261.1999998092651,,directmemory_phase,1051563,,GW/cornwall.png,,,,50,,,1,1,GW/hotsprings.png,GW/gatlinburg.png,GW/hanover.png,GW/gatlinburg.png,GW/hotsprings.png,GW/hanover.png,1,,,,,,,,,,,,,,,
null,,html-keyboard-response,1052565,,<p></p>,,,,null,,,,,,,,,,,,,,,,,,,,,,,,,,
1706.7000002861023,,directmemory_phase,1054272,,GW/hotsprings.png,,,,51,,,1,1,GW/huntsville.png,GW/cornwall.png,GW/shreveport.png,GW/shreveport.png,GW/cornwall.png,GW/huntsville.png,1,,,,,,,,,,,,,,,
null,,html-keyboard-response,1055274,,<p></p>,,,,null,,,,,,,,,,,,,,,,,,,,,,,,,,
1889.7000002861023,,directmemory_phase,1057165,,GW/cornwall.png,,,,49,,,1,1,GW/racine.png,GW/carmel.png,GW/shreveport.png,GW/racine.png,GW/shreveport.png,GW/carmel.png,1,,,,,,,,,,,,,,,
null,,html-keyboard-response,1058166,,<p></p>,,,,null,,,,,,,,,,,,,,,,,,,,,,,,,,
1301.6999998092651,,directmemory_phase,1059469,,GW/huntsville.png,,,,51,,,1,1,GW/shreveport.png,GW/boulder.png,GW/peoria.png,GW/peoria.png,GW/boulder.png,GW/shreveport.png,1,,,,,,,,,,,,,,,
null,,html-keyboard-response,1060470,,<p></p>,,,,null,,,,,,,,,,,,,,,,,,,,,,,,,,
2259.4000000953674,,directmemory_phase,1062730,,GW/racine.png,,,,49,,,1,1,GW/westpalmbeach.png,GW/shreveport.png,GW/boulder.png,GW/westpalmbeach.png,GW/boulder.png,GW/shreveport.png,1,,,,,,,,,,,,,,,
null,,html-keyboard-response,1063731,,<p></p>,,,,null,,,,,,,,,,,,,,,,,,,,,,,,,,
1179.9000000953674,,directmemory_phase,1064912,,GW/shreveport.png,,,,50,,,1,1,GW/leesburg.png,GW/hotsprings.png,GW/huntsville.png,GW/hotsprings.png,GW/leesburg.png,GW/huntsville.png,1,,,,,,,,,,,,,,,
null,,html-keyboard-response,1065913,,<p></p>,,,,null,,,,,,,,,,,,,,,,,,,,,,,,,,
4484.299999713898,,directmemory_phase,1070399,,GW/huntsville.png,,,,50,,,1,1,GW/cornwall.png,GW/racine.png,GW/hotsprings.png,GW/racine.png,GW/cornwall.png,GW/hotsprings.png,1,,,,,,,,,,,,,,,
null,,html-keyboard-response,1071400,,<p></p>,,,,null,,,,,,,,,,,,,,,,,,,,,,,,,,
2192.8999996185303,,directmemory_phase,1073594,,GW/newhope.png,,,,49,,,1,1,GW/shreveport.png,GW/boulder.png,GW/gatlinburg.png,GW/shreveport.png,GW/gatlinburg.png,GW/boulder.png,1,,,,,,,,,,,,,,,
null,,html-keyboard-response,1074596,,<p></p>,,,,null,,,,,,,,,,,,,,,,,,,,,,,,,,
2140.2999997138977,,directmemory_phase,1076737,,GW/racine.png,,,,49,,,1,1,GW/huntsville.png,GW/carmel.png,GW/gatlinburg.png,GW/huntsville.png,GW/gatlinburg.png,GW/carmel.png,1,,,,,,,,,,,,,,,
null,,html-keyboard-response,1077754,,<p></p>,,,,null,,,,,,,,,,,,,,,,,,,,,,,,,,
1780,,directmemory_phase,1079534,,GW/westpalmbeach.png,,,,51,,,1,1,GW/hotsprings.png,GW/cornwall.png,GW/boulder.png,GW/boulder.png,GW/cornwall.png,GW/hotsprings.png,1,,,,,,,,,,,,,,,
null,,html-keyboard-response,1080536,,<p></p>,,,,null,,,,,,,,,,,,,,,,,,,,,,,,,,
1394.4000000953674,,directmemory_phase,1081931,,GW/shreveport.png,,,,51,,,1,1,GW/westpalmbeach.png,GW/leesburg.png,GW/hanover.png,GW/hanover.png,GW/leesburg.png,GW/westpalmbeach.png,1,,,,,,,,,,,,,,,
null,,html-keyboard-response,1082933,,<p></p>,,,,null,,,,,,,,,,,,,,,,,,,,,,,,,,
2248.4000000953674,,directmemory_phase,1085182,,GW/westpalmbeach.png,,,,51,,,1,1,GW/gatlinburg.png,GW/newhope.png,GW/racine.png,GW/racine.png,GW/newhope.png,GW/gatlinburg.png,1,,,,,,,,,,,,,,,
null,,html-keyboard-response,1086183,,<p></p>,,,,null,,,,,,,,,,,,,,,,,,,,,,,,,,
1909.6999998092651,,directmemory_phase,1088094,,GW/hanover.png,,,,51,,,1,1,GW/cornwall.png,GW/hotsprings.png,GW/shreveport.png,GW/shreveport.png,GW/hotsprings.png,GW/cornwall.png,1,,,,,,,,,,,,,,,
null,,html-keyboard-response,1089095,,<p></p>,,,,null,,,,,,,,,,,,,,,,,,,,,,,,,,
1336.9000000953674,,directmemory_phase,1090433,,GW/newhope.png,,,,49,,,1,1,GW/leesburg.png,GW/boulder.png,GW/hotsprings.png,GW/leesburg.png,GW/hotsprings.png,GW/boulder.png,1,,,,,,,,,,,,,,,
null,,html-keyboard-response,1091436,,<p></p>,,,,null,,,,,,,,,,,,,,,,,,,,,,,,,,
1256.4000000953674,,directmemory_phase,1092693,,GW/racine.png,,,,49,,,1,1,GW/cornwall.png,GW/hanover.png,GW/peoria.png,GW/cornwall.png,GW/peoria.png,GW/hanover.png,1,,,,,,,,,,,,,,,
null,,html-keyboard-response,1093695,,<p></p>,,,,null,,,,,,,,,,,,,,,,,,,,,,,,,,
2723.7000002861023,,directmemory_phase,1096420,,GW/westpalmbeach.png,,,,51,,,1,1,GW/hanover.png,GW/peoria.png,GW/leesburg.png,GW/leesburg.png,GW/peoria.png,GW/hanover.png,1,,,,,,,,,,,,,,,
null,,html-keyboard-response,1097431,,<p></p>,,,,null,,,,,,,,,,,,,,,,,,,,,,,,,,
1661.3999996185303,,directmemory_phase,1099093,,GW/cornwall.png,,,,50,,,1,1,GW/huntsville.png,GW/newhope.png,GW/carmel.png,GW/newhope.png,GW/huntsville.png,GW/carmel.png,1,,,,,,,,,,,,,,,
null,,html-keyboard-response,1100095,,<p></p>,,,,null,,,,,,,,,,,,,,,,,,,,,,,,,,
1260.4000000953674,,directmemory_phase,1101356,,GW/gatlinburg.png,,,,49,,,1,1,GW/hotsprings.png,GW/peoria.png,GW/racine.png,GW/hotsprings.png,GW/racine.png,GW/peoria.png,1,,,,,,,,,,,,,,,
null,,html-keyboard-response,1102358,,<p></p>,,,,null,,,,,,,,,,,,,,,,,,,,,,,,,,
1604.0999999046326,,directmemory_phase,1103963,,GW/leesburg.png,,,,49,,,1,1,GW/racine.png,GW/gatlinburg.png,GW/huntsville.png,GW/racine.png,GW/huntsville.png,GW/gatlinburg.png,1,,,,,,,,,,,,,,,
null,,html-keyboard-response,1104965,,<p></p>,,,,null,,,,,,,,,,,,,,,,,,,,,,,,,,
2680.199999809265,,directmemory_phase,1107646,,GW/westpalmbeach.png,,,,49,,,1,1,GW/huntsville.png,GW/hotsprings.png,GW/newhope.png,GW/huntsville.png,GW/newhope.png,GW/hotsprings.png,1,,,,,,,,,,,,,,,
null,,html-keyboard-response,1108647,,<p></p>,,,,null,,,,,,,,,,,,,,,,,,,,,,,,,,
13555,,intro_1,1122203,,instruct,,0,,,,,,,,,,,,,,,,,,,,,,,,,,,,
16016.099999904633,,intro_2,1138220,,instruct,,1,Next,,,,,,,,,,,,,,,,,,,,,,,,,,,
2846.5,,intro_3,1141068,,instruct,,1,Next,,,,,,,,,,,,,,,,,,,,,,,,,,,
2764.5,,intro_4,1143834,,instruct,,1,Next,,,,,,,,,,,,,,,,,,,,,,,,,,,
8532.5,,intro_5,1152367,,instruct,,1,Next,,,,,,,,,,,,,,,,,,,,,,,,,,,
20883.900000095367,,intro_6,1173252,,instruct,,1,Next,,,,,,,,,,,,,,,,,,,,,,,,,,,
784.2000002861023,,intro_7,1174037,,instruct,,1,Next,,,,,,,,,,,,,,,,,,,,,,,,,,,
7702.300000190735,,intro_8,1181741,,instruct,,0,Previous,,,,,,,,,,,,,,,,,,,,,,,,,,,
4297.199999809265,,intro_7,1186039,,instruct,,0,Previous,,,,,,,,,,,,,,,,,,,,,,,,,,,
1155,,intro_6,1187195,,instruct,,0,Previous,,,,,,,,,,,,,,,,,,,,,,,,,,,
1041.8000001907349,,intro_5,1188238,,instruct,,0,Previous,,,,,,,,,,,,,,,,,,,,,,,,,,,
890.2999997138977,,intro_4,1189130,,instruct,,0,Previous,,,,,,,,,,,,,,,,,,,,,,,,,,,
737.8999996185303,,intro_3,1189869,,instruct,,0,Previous,,,,,,,,,,,,,,,,,,,,,,,,,,,
853.6000003814697,,intro_2,1190723,,instruct,,0,Previous,,,,,,,,,,,,,,,,,,,,,,,,,,,
11864,,intro_1,1202589,,instruct,,0,,,,,,,,,,,,,,,,,,,,,,,,,,,,
6742.60000038147,,intro_2,1209332,,instruct,,1,Next,,,,,,,,,,,,,,,,,,,,,,,,,,,
1162.7999997138977,,intro_3,1210496,,instruct,,1,Next,,,,,,,,,,,,,,,,,,,,,,,,,,,
1993.2000002861023,,intro_4,1212490,,instruct,,1,Next,,,,,,,,,,,,,,,,,,,,,,,,,,,
9294.699999809265,,intro_5,1221786,,instruct,,1,Next,,,,,,,,,,,,,,,,,,,,,,,,,,,
4693.5,,intro_6,1226480,,instruct,,1,Next,,,,,,,,,,,,,,,,,,,,,,,,,,,
15849.599999904633,,intro_7,1242331,,instruct,,1,Next,,,,,,,,,,,,,,,,,,,,,,,,,,,
1893.8000001907349,,intro_8,1244226,,instruct,,1,Next,,,,,,,,,,,,,,,,,,,,,,,,,,,
2235.2000002861023,,shortestpath_phase,1246462,,GW/peoria.png,,,,49,GW/newhope.png,GW/hanover.png,1,1,,,,GW/newhope.png,,,,Two Edge Diff,Four Edge Six Edge,,,,,,,,,,,,,
null,,html-keyboard-response,1247465,,<p></p>,,,,null,,,,,,,,,,,,,,,,,,,,,,,,,,
2557.5,,shortestpath_phase,1250024,,GW/hanover.png,,,,49,GW/hotsprings.png,GW/boulder.png,1,1,,,,GW/hotsprings.png,,,,Three Edge Diff,Three Edge Six Edge,,,,,,,,,,,,,
null,,html-keyboard-response,1251026,,<p></p>,,,,null,,,,,,,,,,,,,,,,,,,,,,,,,,
3221.800000190735,,shortestpath_phase,1254248,,GW/peoria.png,,,,49,GW/newhope.png,GW/hotsprings.png,1,1,,,,GW/newhope.png,,,,One Edge Diff,Four Edge Five Edge,,,,,,,,,,,,,
null,,html-keyboard-response,1255250,,<p></p>,,,,null,,,,,,,,,,,,,,,,,,,,,,,,,,
3629.2000002861023,,shortestpath_phase,1258880,,GW/carmel.png,,,,50,GW/cornwall.png,GW/westpalmbeach.png,0,0.75,,,,GW/cornwall.png,,,,Two Edge Diff,Three Edge Five Edge,,,,,,,,,,,,,
null,,html-keyboard-response,1259882,,<p></p>,,,,null,,,,,,,,,,,,,,,,,,,,,,,,,,
3680.9000000953674,,shortestpath_phase,1263564,,GW/peoria.png,,,,50,GW/hanover.png,GW/racine.png,1,0.8,,,,GW/racine.png,,,,Four Edge Diff,Two Edge Six Edge,,,,,,,,,,,,,
null,,html-keyboard-response,1264566,,<p></p>,,,,null,,,,,,,,,,,,,,,,,,,,,,,,,,
2978.7000002861023,,shortestpath_phase,1267545,,GW/shreveport.png,,,,50,GW/cornwall.png,GW/racine.png,0,0.6666666666666666,,,,GW/cornwall.png,,,,One Edge Diff,Two Edge Three Edge,,,,,,,,,,,,,
null,,html-keyboard-response,1268546,,<p></p>,,,,null,,,,,,,,,,,,,,,,,,,,,,,,,,
2455.5,,shortestpath_phase,1271003,,GW/racine.png,,,,49,GW/shreveport.png,GW/peoria.png,0,0.5714285714285714,,,,GW/peoria.png,,,,One Edge Diff,Two Edge Three Edge,,,,,,,,,,,,,
null,,html-keyboard-response,1272005,,<p></p>,,,,null,,,,,,,,,,,,,,,,,,,,,,,,,,
3279.5999999046326,,shortestpath_phase,1275285,,GW/hanover.png,,,,50,GW/huntsville.png,GW/hotsprings.png,1,0.625,,,,GW/hotsprings.png,,,,Three Edge Diff,Three Edge Six Edge,,,,,,,,,,,,,
null,,html-keyboard-response,1276287,,<p></p>,,,,null,,,,,,,,,,,,,,,,,,,,,,,,,,
2384,,shortestpath_phase,1278672,,GW/peoria.png,,,,50,GW/hanover.png,GW/westpalmbeach.png,1,0.6666666666666666,,,,GW/westpalmbeach.png,,,,Four Edge Diff,Two Edge Six Edge,,,,,,,,,,,,,
null,,html-keyboard-response,1279674,,<p></p>,,,,null,,,,,,,,,,,,,,,,,,,,,,,,,,
2869.6000003814697,,shortestpath_phase,1282544,,GW/hotsprings.png,,,,50,GW/huntsville.png,GW/hanover.png,1,0.7,,,,GW/hanover.png,,,,Two Edge Diff,Two Edge Four Edge,,,,,,,,,,,,,
null,,html-keyboard-response,1283547,,<p></p>,,,,null,,,,,,,,,,,,,,,,,,,,,,,,,,
2713.199999809265,,shortestpath_phase,1286261,,GW/huntsville.png,,,,50,GW/carmel.png,GW/shreveport.png,1,0.7272727272727273,,,,GW/shreveport.png,,,,One Edge Diff,Four Edge Five Edge,,,,,,,,,,,,,
null,,html-keyboard-response,1287264,,<p></p>,,,,null,,,,,,,,,,,,,,,,,,,,,,,,,,
1959.0999999046326,,shortestpath_phase,1289224,,GW/westpalmbeach.png,,,,50,GW/carmel.png,GW/peoria.png,1,0.75,,,,GW/peoria.png,,,,Three Edge Diff,Three Edge Six Edge,,,,,,,,,,,,,
null,,html-keyboard-response,1290225,,<p></p>,,,,null,,,,,,,,,,,,,,,,,,,,,,,,,,
2572,,shortestpath_phase,1292798,,GW/shreveport.png,,,,50,GW/cornwall.png,GW/peoria.png,0,0.6923076923076923,,,,GW/cornwall.png,,,,Three Edge Diff,Two Edge Five Edge,,,,,,,,,,,,,
null,,html-keyboard-response,1293800,,<p></p>,,,,null,,,,,,,,,,,,,,,,,,,,,,,,,,
3864.6000003814697,,shortestpath_phase,1297665,,GW/hanover.png,,,,49,GW/westpalmbeach.png,GW/peoria.png,1,0.7142857142857143,,,,GW/westpalmbeach.png,,,,Two Edge Diff,Four Edge Six Edge,,,,,,,,,,,,,
null,,html-keyboard-response,1298668,,<p></p>,,,,null,,,,,,,,,,,,,,,,,,,,,,,,,,
4377.099999904633,,shortestpath_phase,1303046,,GW/peoria.png,,,,49,GW/carmel.png,GW/gatlinburg.png,0,0.6666666666666666,,,,GW/gatlinburg.png,,,,Two Edge Diff,Four Edge Six Edge,,,,,,,,,,,,,
null,,html-keyboard-response,1304047,,<p></p>,,,,null,,,,,,,,,,,,,,,,,,,,,,,,,,
2186.7000002861023,,shortestpath_phase,1306235,,GW/huntsville.png,,,,49,GW/shreveport.png,GW/cornwall.png,0,0.625,,,,GW/cornwall.png,,,,Two Edge Diff,Two Edge Four Edge,,,,,,,,,,,,,
null,,html-keyboard-response,1307237,,<p></p>,,,,null,,,,,,,,,,,,,,,,,,,,,,,,,,
3118.9000000953674,,shortestpath_phase,1310357,,GW/westpalmbeach.png,,,,50,GW/hotsprings.png,GW/peoria.png,1,0.6470588235294118,,,,GW/peoria.png,,,,Two Edge Diff,Two Edge Four Edge,,,,,,,,,,,,,
null,,html-keyboard-response,1311359,,<p></p>,,,,null,,,,,,,,,,,,,,,,,,,,,,,,,,
2723.2000002861023,,shortestpath_phase,1314083,,GW/hanover.png,,,,50,GW/peoria.png,GW/huntsville.png,1,0.6666666666666666,,,,GW/huntsville.png,,,,One Edge Diff,Five Edge Six Edge,,,,,,,,,,,,,
null,,html-keyboard-response,1315084,,<p></p>,,,,null,,,,,,,,,,,,,,,,,,,,,,,,,,
3518.7000002861023,,shortestpath_phase,1318604,,GW/peoria.png,,,,50,GW/gatlinburg.png,GW/hanover.png,0,0.631578947368421,,,,GW/gatlinburg.png,,,,Two Edge Diff,Four Edge Six Edge,,,,,,,,,,,,,
null,,html-keyboard-response,1319605,,<p></p>,,,,null,,,,,,,,,,,,,,,,,,,,,,,,,,
3542,,shortestpath_phase,1323148,,GW/carmel.png,,,,50,GW/leesburg.png,GW/cornwall.png,1,0.65,,,,GW/cornwall.png,,,,One Edge Diff,Three Edge Four Edge,,,,,,,,,,,,,
null,,html-keyboard-response,1324149,,<p></p>,,,,null,,,,,,,,,,,,,,,,,,,,,,,,,,
2325,,shortestpath_phase,1326475,,GW/peoria.png,,,,49,GW/westpalmbeach.png,GW/carmel.png,1,0.6666666666666666,,,,GW/westpalmbeach.png,,,,Four Edge Diff,Two Edge Six Edge,,,,,,,,,,,,,
null,,html-keyboard-response,1327486,,<p></p>,,,,null,,,,,,,,,,,,,,,,,,,,,,,,,,
2738.3999996185303,,shortestpath_phase,1330226,,GW/hotsprings.png,,,,50,GW/boulder.png,GW/cornwall.png,1,0.6818181818181818,,,,GW/cornwall.png,,,,Three Edge Diff,Three Edge Six Edge,,,,,,,,,,,,,
null,,html-keyboard-response,1331228,,<p></p>,,,,null,,,,,,,,,,,,,,,,,,,,,,,,,,
1865.2000002861023,,shortestpath_phase,1333094,,GW/peoria.png,,,,49,GW/newhope.png,GW/carmel.png,1,0.6956521739130435,,,,GW/newhope.png,,,,Two Edge Diff,Four Edge Six Edge,,,,,,,,,,,,,
null,,html-keyboard-response,1334099,,<p></p>,,,,null,,,,,,,,,,,,,,,,,,,,,,,,,,
2686.1000003814697,,shortestpath_phase,1336786,,GW/boulder.png,,,,49,GW/racine.png,GW/hotsprings.png,1,0.7083333333333334,,,,GW/racine.png,,,,Three Edge Diff,Three Edge Six Edge,,,,,,,,,,,,,
null,,html-keyboard-response,1337787,,<p></p>,,,,null,,,,,,,,,,,,,,,,,,,,,,,,,,
2056.1000003814697,,shortestpath_phase,1339844,,GW/shreveport.png,,,,49,GW/huntsville.png,GW/peoria.png,1,0.72,,,,GW/huntsville.png,,,,One Edge Diff,Four Edge Five Edge,,,,,,,,,,,,,
null,,html-keyboard-response,1340847,,<p></p>,,,,null,,,,,,,,,,,,,,,,,,,,,,,,,,
2967.300000190735,,shortestpath_phase,1343815,,GW/boulder.png,,,,49,GW/racine.png,GW/hotsprings.png,1,0.7307692307692307,,,,GW/racine.png,,,,Three Edge Diff,Two Edge Five Edge,,,,,,,,,,,,,
null,,html-keyboard-response,1344817,,<p></p>,,,,null,,,,,,,,,,,,,,,,,,,,,,,,,,
5204.5,,shortestpath_phase,1350022,,GW/gatlinburg.png,,,,49,GW/newhope.png,GW/leesburg.png,1,0.7407407407407407,,,,GW/newhope.png,,,,One Edge Diff,Two Edge Three Edge,,,,,,,,,,,,,
null,,html-keyboard-response,1351024,,<p></p>,,,,null,,,,,,,,,,,,,,,,,,,,,,,,,,
2488.6000003814697,,shortestpath_phase,1353513,,GW/huntsville.png,,,,50,GW/boulder.png,GW/hanover.png,0,0.7142857142857143,,,,GW/boulder.png,,,,Three Edge Diff,Two Edge Five Edge,,,,,,,,,,,,,
null,,html-keyboard-response,1354523,,<p></p>,,,,null,,,,,,,,,,,,,,,,,,,,,,,,,,
4419.699999809265,,shortestpath_phase,1358944,,GW/peoria.png,,,,50,GW/hotsprings.png,GW/cornwall.png,1,0.7241379310344828,,,,GW/cornwall.png,,,,Two Edge Diff,Three Edge Five Edge,,,,,,,,,,,,,
null,,html-keyboard-response,1359945,,<p></p>,,,,null,,,,,,,,,,,,,,,,,,,,,,,,,,
2063.199999809265,,shortestpath_phase,1362009,,GW/boulder.png,,,,49,GW/carmel.png,GW/gatlinburg.png,0,0.7,,,,GW/gatlinburg.png,,,,Two Edge Diff,Four Edge Six Edge,,,,,,,,,,,,,
null,,html-keyboard-response,1363017,,<p></p>,,,,null,,,,,,,,,,,,,,,,,,,,,,,,,,
3238.0999999046326,,shortestpath_phase,1366257,,GW/carmel.png,,,,49,GW/leesburg.png,GW/huntsville.png,1,0.7096774193548387,,,,GW/leesburg.png,,,,One Edge Diff,Four Edge Five Edge,,,,,,,,,,,,,
null,,html-keyboard-response,1367259,,<p></p>,,,,null,,,,,,,,,,,,,,,,,,,,,,,,,,
1598.6000003814697,,shortestpath_phase,1368859,,GW/boulder.png,,,,50,GW/hanover.png,GW/racine.png,1,0.71875,,,,GW/racine.png,,,,Three Edge Diff,Two Edge Five Edge,,,,,,,,,,,,,
null,,html-keyboard-response,1369865,,<p></p>,,,,null,,,,,,,,,,,,,,,,,,,,,,,,,,
2336,,shortestpath_phase,1372202,,GW/shreveport.png,,,,49,GW/racine.png,GW/leesburg.png,0,0.696969696969697,,,,GW/leesburg.png,,,,One Edge Diff,Two Edge Three Edge,,,,,,,,,,,,,
null,,html-keyboard-response,1373215,,<p></p>,,,,null,,,,,,,,,,,,,,,,,,,,,,,,,,
2373.2999997138977,,shortestpath_phase,1375590,,GW/carmel.png,,,,50,GW/peoria.png,GW/racine.png,1,0.7058823529411765,,,,GW/racine.png,,,,Two Edge Diff,Four Edge Six Edge,,,,,,,,,,,,,
null,,html-keyboard-response,1376592,,<p></p>,,,,null,,,,,,,,,,,,,,,,,,,,,,,,,,
2646.2000002861023,,shortestpath_phase,1379239,,GW/boulder.png,,,,49,GW/newhope.png,GW/hanover.png,1,0.7142857142857143,,,,GW/newhope.png,,,,Two Edge Diff,Three Edge Five Edge,,,,,,,,,,,,,
null,,html-keyboard-response,1380241,,<p></p>,,,,null,,,,,,,,,,,,,,,,,,,,,,,,,,
2469.199999809265,,shortestpath_phase,1382711,,GW/carmel.png,,,,49,GW/gatlinburg.png,GW/boulder.png,1,0.7222222222222222,,,,GW/gatlinburg.png,,,,Four Edge Diff,Two Edge Six Edge,,,,,,,,,,,,,
null,,html-keyboard-response,1383714,,<p></p>,,,,null,,,,,,,,,,,,,,,,,,,,,,,,,,
1774.5999999046326,,shortestpath_phase,1385490,,GW/hanover.png,,,,50,GW/boulder.png,GW/peoria.png,0,0.7027027027027027,,,,GW/boulder.png,,,,One Edge Diff,Five Edge Six Edge,,,,,,,,,,,,,
null,,html-keyboard-response,1386491,,<p></p>,,,,null,,,,,,,,,,,,,,,,,,,,,,,,,,
2014.1999998092651,,shortestpath_phase,1388507,,GW/newhope.png,,,,49,GW/peoria.png,GW/hotsprings.png,0,0.6842105263157895,,,,GW/hotsprings.png,,,,Two Edge Diff,Two Edge Four Edge,,,,,,,,,,,,,
null,,html-keyboard-response,1389508,,<p></p>,,,,null,,,,,,,,,,,,,,,,,,,,,,,,,,
1004.9000000953674,,shortestpath_phase,1390514,,GW/peoria.png,,,,49,GW/newhope.png,GW/boulder.png,0,0.6666666666666666,,,,GW/boulder.png,,,,One Edge Diff,Three Edge Four Edge,,,,,,,,,,,,,
null,,html-keyboard-response,1391516,,<p></p>,,,,null,,,,,,,,,,,,,,,,,,,,,,,,,,
1679.1999998092651,,shortestpath_phase,1393196,,GW/hanover.png,,,,50,GW/peoria.png,GW/newhope.png,1,0.675,,,,GW/newhope.png,,,,Four Edge Diff,Two Edge Six Edge,,,,,,,,,,,,,
null,,html-keyboard-response,1394197,,<p></p>,,,,null,,,,,,,,,,,,,,,,,,,,,,,,,,
2260.199999809265,,shortestpath_phase,1396458,,GW/peoria.png,,,,50,GW/hanover.png,GW/hotsprings.png,1,0.6829268292682927,,,,GW/hotsprings.png,,,,One Edge Diff,Five Edge Six Edge,,,,,,,,,,,,,
null,,html-keyboard-response,1397462,,<p></p>,,,,null,,,,,,,,,,,,,,,,,,,,,,,,,,
3298.0999999046326,,shortestpath_phase,1400761,,GW/boulder.png,,,,50,GW/hotsprings.png,GW/cornwall.png,1,0.6904761904761905,,,,GW/cornwall.png,,,,Two Edge Diff,Three Edge Five Edge,,,,,,,,,,,,,
null,,html-keyboard-response,1401763,,<p></p>,,,,null,,,,,,,,,,,,,,,,,,,,,,,,,,
1742.9000000953674,,shortestpath_phase,1403507,,GW/carmel.png,,,,49,GW/shreveport.png,GW/boulder.png,1,0.6976744186046512,,,,GW/shreveport.png,,,,Four Edge Diff,Two Edge Six Edge,,,,,,,,,,,,,
null,,html-keyboard-response,1404508,,<p></p>,,,,null,,,,,,,,,,,,,,,,,,,,,,,,,,
2522.699999809265,,shortestpath_phase,1407032,,GW/westpalmbeach.png,,,,50,GW/hanover.png,GW/newhope.png,1,0.7045454545454546,,,,GW/newhope.png,,,,Two Edge Diff,Two Edge Four Edge,,,,,,,,,,,,,
null,,html-keyboard-response,1408034,,<p></p>,,,,null,,,,,,,,,,,,,,,,,,,,,,,,,,
2009.2000002861023,,shortestpath_phase,1410044,,GW/carmel.png,,,,49,GW/huntsville.png,GW/gatlinburg.png,0,0.6888888888888889,,,,GW/gatlinburg.png,,,,Three Edge Diff,Two Edge Five Edge,,,,,,,,,,,,,
null,,html-keyboard-response,1411045,,<p></p>,,,,null,,,,,,,,,,,,,,,,,,,,,,,,,,
1793.8999996185303,,shortestpath_phase,1412840,,GW/boulder.png,,,,50,GW/carmel.png,GW/leesburg.png,1,0.6956521739130435,,,,GW/leesburg.png,,,,Four Edge Diff,Two Edge Six Edge,,,,,,,,,,,,,
null,,html-keyboard-response,1413842,,<p></p>,,,,null,,,,,,,,,,,,,,,,,,,,,,,,,,
1651.6999998092651,,shortestpath_phase,1415494,,GW/racine.png,,,,49,GW/gatlinburg.png,GW/carmel.png,1,0.7021276595744681,,,,GW/gatlinburg.png,,,,Two Edge Diff,Two Edge Four Edge,,,,,,,,,,,,,
null,,html-keyboard-response,1416496,,<p></p>,,,,null,,,,,,,,,,,,,,,,,,,,,,,,,,
2035.5999999046326,,shortestpath_phase,1418533,,GW/hotsprings.png,,,,50,GW/cornwall.png,GW/peoria.png,0,0.6875,,,,GW/cornwall.png,,,,Three Edge Diff,Three Edge Six Edge,,,,,,,,,,,,,
null,,html-keyboard-response,1419535,,<p></p>,,,,null,,,,,,,,,,,,,,,,,,,,,,,,,,
1947.7999997138977,,shortestpath_phase,1421483,,GW/huntsville.png,,,,50,GW/boulder.png,GW/carmel.png,0,0.673469387755102,,,,GW/boulder.png,,,,Three Edge Diff,Two Edge Five Edge,,,,,,,,,,,,,
null,,html-keyboard-response,1422485,,<p></p>,,,,null,,,,,,,,,,,,,,,,,,,,,,,,,,
3829.800000190735,,shortestpath_phase,1426316,,GW/leesburg.png,,,,49,GW/cornwall.png,GW/gatlinburg.png,1,0.68,,,,GW/cornwall.png,,,,One Edge Diff,Two Edge Three Edge,,,,,,,,,,,,,
null,,html-keyboard-response,1427318,,<p></p>,,,,null,,,,,,,,,,,,,,,,,,,,,,,,,,
3726.9000000953674,,shortestpath_phase,1431046,,GW/boulder.png,,,,49,GW/huntsville.png,GW/shreveport.png,1,0.6862745098039216,,,,GW/huntsville.png,,,,Two Edge Diff,Two Edge Four Edge,,,,,,,,,,,,,
null,,html-keyboard-response,1432048,,<p></p>,,,,null,,,,,,,,,,,,,,,,,,,,,,,,,,
2177,,shortestpath_phase,1434225,,GW/hotsprings.png,,,,49,GW/cornwall.png,GW/leesburg.png,1,0.6923076923076923,,,,GW/cornwall.png,,,,One Edge Diff,Two Edge Three Edge,,,,,,,,,,,,,
null,,html-keyboard-response,1435228,,<p></p>,,,,null,,,,,,,,,,,,,,,,,,,,,,,,,,
1466.5,,shortestpath_phase,1436695,,GW/newhope.png,,,,49,GW/peoria.png,GW/boulder.png,0,0.6792452830188679,,,,GW/boulder.png,,,,One Edge Diff,Three Edge Four Edge,,,,,,,,,,,,,
null,,html-keyboard-response,1437697,,<p></p>,,,,null,,,,,,,,,,,,,,,,,,,,,,,,,,
2636.4000000953674,,shortestpath_phase,1440334,,GW/carmel.png,,,,50,GW/peoria.png,GW/shreveport.png,1,0.6851851851851852,,,,GW/shreveport.png,,,,Four Edge Diff,Two Edge Six Edge,,,,,,,,,,,,,
null,,html-keyboard-response,1441337,,<p></p>,,,,null,,,,,,,,,,,,,,,,,,,,,,,,,,
1857,,shortestpath_phase,1443195,,GW/boulder.png,,,,50,GW/hotsprings.png,GW/huntsville.png,1,0.6909090909090909,,,,GW/huntsville.png,,,,Three Edge Diff,Three Edge Six Edge,,,,,,,,,,,,,
null,,html-keyboard-response,1444197,,<p></p>,,,,null,,,,,,,,,,,,,,,,,,,,,,,,,,
2047.5999999046326,,shortestpath_phase,1446246,,GW/hotsprings.png,,,,50,GW/boulder.png,GW/westpalmbeach.png,1,0.6964285714285714,,,,GW/westpalmbeach.png,,,,One Edge Diff,Four Edge Five Edge,,,,,,,,,,,,,
null,,html-keyboard-response,1447248,,<p></p>,,,,null,,,,,,,,,,,,,,,,,,,,,,,,,,
1198.5999999046326,,shortestpath_phase,1448448,,GW/boulder.png,,,,50,GW/hotsprings.png,GW/huntsville.png,1,0.7017543859649122,,,,GW/huntsville.png,,,,Three Edge Diff,Two Edge Five Edge,,,,,,,,,,,,,
null,,html-keyboard-response,1449449,,<p></p>,,,,null,,,,,,,,,,,,,,,,,,,,,,,,,,
1456.5999999046326,,shortestpath_phase,1450907,,GW/westpalmbeach.png,,,,50,GW/carmel.png,GW/newhope.png,1,0.7068965517241379,,,,GW/newhope.png,,,,Three Edge Diff,Two Edge Five Edge,,,,,,,,,,,,,
null,,html-keyboard-response,1451908,,<p></p>,,,,null,,,,,,,,,,,,,,,,,,,,,,,,,,
1840.7000002861023,,shortestpath_phase,1453750,,GW/huntsville.png,,,,50,GW/boulder.png,GW/carmel.png,0,0.6949152542372882,,,,GW/boulder.png,,,,Three Edge Diff,Three Edge Six Edge,,,,,,,,,,,,,
null,,html-keyboard-response,1454751,,<p></p>,,,,null,,,,,,,,,,,,,,,,,,,,,,,,,,
2415.5999999046326,,shortestpath_phase,1457168,,GW/carmel.png,,,,49,GW/peoria.png,GW/gatlinburg.png,0,0.6833333333333333,,,,GW/gatlinburg.png,,,,Four Edge Diff,Two Edge Six Edge,,,,,,,,,,,,,
null,,html-keyboard-response,1458170,,<p></p>,,,,null,,,,,,,,,,,,,,,,,,,,,,,,,,
1037.0999999046326,,shortestpath_phase,1459209,,GW/huntsville.png,,,,50,GW/hanover.png,GW/newhope.png,1,0.6885245901639344,,,,GW/newhope.png,,,,Two Edge Diff,Three Edge Five Edge,,,,,,,,,,,,,
null,,html-keyboard-response,1460210,,<p></p>,,,,null,,,,,,,,,,,,,,,,,,,,,,,,,,
1507.1999998092651,,shortestpath_phase,1461718,,GW/hanover.png,,,,50,GW/leesburg.png,GW/huntsville.png,0,0.6774193548387096,,,,GW/leesburg.png,,,,Two Edge Diff,Three Edge Five Edge,,,,,,,,,,,,,
null,,html-keyboard-response,1462720,,<p></p>,,,,null,,,,,,,,,,,,,,,,,,,,,,,,,,
1959.8000001907349,,shortestpath_phase,1464681,,GW/carmel.png,,,,50,GW/peoria.png,GW/huntsville.png,1,0.6825396825396826,,,,GW/huntsville.png,,,,One Edge Diff,Five Edge Six Edge,,,,,,,,,,,,,
null,,html-keyboard-response,1465683,,<p></p>,,,,null,,,,,,,,,,,,,,,,,,,,,,,,,,
1312.2999997138977,,shortestpath_phase,1466996,,GW/hotsprings.png,,,,50,GW/boulder.png,GW/newhope.png,1,0.6875,,,,GW/newhope.png,,,,Three Edge Diff,Three Edge Six Edge,,,,,,,,,,,,,
null,,html-keyboard-response,1467998,,<p></p>,,,,null,,,,,,,,,,,,,,,,,,,,,,,,,,
1876.5999999046326,,shortestpath_phase,1469875,,GW/carmel.png,,,,49,GW/huntsville.png,GW/boulder.png,1,0.6923076923076923,,,,GW/huntsville.png,,,,One Edge Diff,Five Edge Six Edge,,,,,,,,,,,,,
null,,html-keyboard-response,1470877,,<p></p>,,,,null,,,,,,,,,,,,,,,,,,,,,,,,,,
1647.3000001907349,,shortestpath_phase,1472525,,GW/peoria.png,,,,50,GW/carmel.png,GW/hotsprings.png,1,0.696969696969697,,,,GW/hotsprings.png,,,,One Edge Diff,Five Edge Six Edge,,,,,,,,,,,,,
null,,html-keyboard-response,1473527,,<p></p>,,,,null,,,,,,,,,,,,,,,,,,,,,,,,,,
1888.1999998092651,,shortestpath_phase,1475416,,GW/carmel.png,,,,49,GW/cornwall.png,GW/huntsville.png,1,0.7014925373134329,,,,GW/cornwall.png,,,,Two Edge Diff,Three Edge Five Edge,,,,,,,,,,,,,
null,,html-keyboard-response,1476418,,<p></p>,,,,null,,,,,,,,,,,,,,,,,,,,,,,,,,
