rt,responses,trial_type,time_elapsed,stimulus,graphorder,button_pressed,response,key_press,stimulus_left,stimulus_right,accuracy,cumulative_accuracy,stimulus_down_left,stimulus_down_mid,stimulus_down_right,stimulus_correct,stimulus_short,stimulus_far,weighted_accuracy,missedtrial,condition,specific_pairs
2779.4000000003725,{worker_id:5bcc60b95c2b810001dc68e2},id_enter,2781,id_enter,GW/camera.jpg; GW/basket.jpg; GW/jukebox.jpg; GW/barrel.jpg; GW/wheelchair.jpg; GW/hat.jpg; GW/dustpan.jpg; GW/teeth.jpg; GW/gong.jpg; GW/globe.jpg; GW/snail.jpg; GW/paint.jpg; GW/soldier.jpg,,,,,,,,,,,,,,,,,
3113.100000000559,,fullscreen,5898,fullscreen,,0,,,,,,,,,,,,,,,,
3776.100000000559,,intro_1,9675,instruct,,0,,,,,,,,,,,,,,,,
1234.6000000005588,,intro_2,10911,instruct,,1,Next,,,,,,,,,,,,,,,
128487.10000000056,,intro_3,556310,instruct,,1,Next,,,,,,,,,,,,,,,
null,,learn_prac_1,558313,lean_prac_1,,,,null,,,,,,,,,,,,,,
null,,html-keyboard-response,559316,<p></p>,,,,null,,,,,,,,,,,,,,
4310,,intro_1,563627,instruct,,0,,,,,,,,,,,,,,,,
2883.0999999996275,,intro_2,566511,instruct,,1,Next,,,,,,,,,,,,,,,
null,,learn_prac_2,568512,lean_prac_2,,,,null,,,,,,,,,,,,,,
null,,html-keyboard-response,569515,<p></p>,,,,null,,,,,,,,,,,,,,
2663.399999999441,,intro_1,572179,instruct,,0,,,,,,,,,,,,,,,,
3443.7000000001863,,intro_2,575624,instruct,,1,Next,,,,,,,,,,,,,,,
10649.699999999255,,intro_3,586275,instruct,,1,Next,,,,,,,,,,,,,,,
null,,prac_atten_color_black,587059,black_plus_sign,,,,null,,,,,,,,,,,,,,
null,,prac_atten_color,587678,prac_stop_color,,,,null,,,,,,,,,,,,,,
5.2999999998137355,,prac_atten_color_black,589681,black_plus_sign,,,,49,,,,,,,,,,,,,,
null,,prac_atten_color_black,590465,black_plus_sign,,,,null,,,,,,,,,,,,,,
519.9000000003725,,prac_atten_color,591065,prac_stop_color,,,,50,,,,,,,,,,,,,,
null,,prac_atten_color_black,593067,black_plus_sign,,,,null,,,,,,,,,,,,,,
null,,prac_atten_color_black,593870,black_plus_sign,,,,null,,,,,,,,,,,,,,
382.90000000037253,,prac_atten_color,594906,prac_stop_color,,,,49,,,,,,,,,,,,,,
null,,prac_atten_color_black,596907,black_plus_sign,,,,null,,,,,,,,,,,,,,
1838.7999999998137,,attentioncheck_help,598747,instruct,,,,32,,,,,,,,,,,,,,
null,,prac_atten_color_black,599115,black_plus_sign,,,,null,,,,,,,,,,,,,,
null,,prac_atten_color,599627,prac_stop_color,,,,null,,,,,,,,,,,,,,
2.7999999998137355,,prac_atten_color_black,601629,black_plus_sign,,,,49,,,,,,,,,,,,,,
null,,prac_atten_color_black,602521,black_plus_sign,,,,null,,,,,,,,,,,,,,
405.40000000037253,,prac_atten_color,603149,prac_stop_color,,,,50,,,,,,,,,,,,,,
null,,prac_atten_color_black,605150,black_plus_sign,,,,null,,,,,,,,,,,,,,
null,,prac_atten_color_black,605926,black_plus_sign,,,,null,,,,,,,,,,,,,,
399.19999999925494,,prac_atten_color,606543,prac_stop_color,,,,50,,,,,,,,,,,,,,
null,,prac_atten_color_black,608546,black_plus_sign,,,,null,,,,,,,,,,,,,,
null,,prac_atten_color_black,609331,black_plus_sign,,,,null,,,,,,,,,,,,,,
null,,prac_atten_color,609799,prac_stop_color,,,,null,,,,,,,,,,,,,,
99.09999999962747,,prac_atten_color_black,611801,black_plus_sign,,,,49,,,,,,,,,,,,,,
null,,prac_atten_color_black,612737,black_plus_sign,,,,null,,,,,,,,,,,,,,
485.19999999925494,,prac_atten_color,613501,prac_stop_color,,,,50,,,,,,,,,,,,,,
null,,prac_atten_color_black,615502,black_plus_sign,,,,null,,,,,,,,,,,,,,
null,,prac_atten_color_black,616141,black_plus_sign,,,,null,,,,,,,,,,,,,,
430,,prac_atten_color,616602,prac_stop_color,,,,49,,,,,,,,,,,,,,
null,,prac_atten_color_black,618603,black_plus_sign,,,,null,,,,,,,,,,,,,,
null,,prac_atten_color_black,619546,black_plus_sign,,,,null,,,,,,,,,,,,,,
548.9000000003725,,prac_atten_color,620203,prac_stop_color,,,,49,,,,,,,,,,,,,,
null,,prac_atten_color_black,622204,black_plus_sign,,,,null,,,,,,,,,,,,,,
4486.799999999814,,attentioncheck_feedback,626692,cross_check_feedback,,0,,,,,,,,,,,,,,,,
9769.900000000373,,last_instruct,636463,instruct,,,,32,,,,,,,,,,,,,,
null,,learn_phase(without_color),638464,black_plus_sign,,,,null,GW/gong.jpg,GW/snail.jpg,,,,,,,,,,,,
null,,black_cross(without_color),639112,blue,,,,null,GW/gong.jpg,GW/snail.jpg,,,,,,,,,,,,
null,,rt_plussign_withcolor,639614,blue,,,,null,GW/gong.jpg,GW/snail.jpg,,,,,,,,,,,,
893.7999999998137,,rt_thecrossant_black,640969,black_plus_sign,,,,49,,,1,1,,,,,,,,,,
null,,color_black,641071,black_plus_sign,,,,null,,,,,,,,,,,,,,
null,,learn_phase(without_color),643073,black_plus_sign,,,,null,GW/hat.jpg,GW/dustpan.jpg,,,,,,,,,,,,
null,,black_cross(without_color),644113,green,,,,null,GW/hat.jpg,GW/dustpan.jpg,,,,,,,,,,,,
407,,rt_plussign_withcolor,644614,green,,,,50,GW/hat.jpg,GW/dustpan.jpg,,,,,,,,,,,,
null,,rt_thecrossant_black,645578,black_plus_sign,,,,null,,,1,1,,,,,,,,,,
null,,color_black,645679,black_plus_sign,,,,null,,,,,,,,,,,,,,
null,,learn_phase(without_color),647681,black_plus_sign,,,,null,GW/dustpan.jpg,GW/soldier.jpg,,,,,,,,,,,,
null,,black_cross(without_color),648100,blue,,,,null,GW/dustpan.jpg,GW/soldier.jpg,,,,,,,,,,,,
null,,rt_plussign_withcolor,648602,blue,,,,null,GW/dustpan.jpg,GW/soldier.jpg,,,,,,,,,,,,
1207.5,,rt_thecrossant_black,650186,black_plus_sign,,,,50,,,0,0.6666666666666666,,,,,,,,,,
null,,color_black,650287,black_plus_sign,,,,null,,,,,,,,,,,,,,
null,,learn_phase(without_color),652289,black_plus_sign,,,,null,GW/jukebox.jpg,GW/hat.jpg,,,,,,,,,,,,
null,,black_cross(without_color),652823,green,,,,null,GW/jukebox.jpg,GW/hat.jpg,,,,,,,,,,,,
null,,rt_plussign_withcolor,653325,green,,,,null,GW/jukebox.jpg,GW/hat.jpg,,,,,,,,,,,,
620.8000000007451,,rt_thecrossant_black,654794,black_plus_sign,,,,50,,,1,0.75,,,,,,,,,,
null,,color_black,654895,black_plus_sign,,,,null,,,,,,,,,,,,,,
null,,learn_phase(without_color),656897,black_plus_sign,,,,null,GW/dustpan.jpg,GW/gong.jpg,,,,,,,,,,,,
null,,black_cross(without_color),657834,green,,,,null,GW/dustpan.jpg,GW/gong.jpg,,,,,,,,,,,,
455.59999999962747,,rt_plussign_withcolor,658335,green,,,,50,GW/dustpan.jpg,GW/gong.jpg,,,,,,,,,,,,
null,,rt_thecrossant_black,659401,black_plus_sign,,,,null,,,1,0.8,,,,,,,,,,
null,,color_black,659503,black_plus_sign,,,,null,,,,,,,,,,,,,,
null,,learn_phase(without_color),661505,black_plus_sign,,,,null,GW/barrel.jpg,GW/paint.jpg,,,,,,,,,,,,
null,,black_cross(without_color),662361,blue,,,,null,GW/barrel.jpg,GW/paint.jpg,,,,,,,,,,,,
443.20000000018626,,rt_plussign_withcolor,662862,blue,,,,49,GW/barrel.jpg,GW/paint.jpg,,,,,,,,,,,,
null,,rt_thecrossant_black,664010,black_plus_sign,,,,null,,,1,0.8333333333333334,,,,,,,,,,
null,,color_black,664112,black_plus_sign,,,,null,,,,,,,,,,,,,,
null,,learn_phase(without_color),666114,black_plus_sign,,,,null,GW/snail.jpg,GW/paint.jpg,,,,,,,,,,,,
null,,black_cross(without_color),667169,blue,,,,null,GW/snail.jpg,GW/paint.jpg,,,,,,,,,,,,
493.30000000074506,,rt_plussign_withcolor,667670,blue,,,,49,GW/snail.jpg,GW/paint.jpg,,,,,,,,,,,,
null,,rt_thecrossant_black,668620,black_plus_sign,,,,null,,,1,0.8571428571428571,,,,,,,,,,
null,,color_black,668721,black_plus_sign,,,,null,,,,,,,,,,,,,,
null,,learn_phase(without_color),670724,black_plus_sign,,,,null,GW/basket.jpg,GW/jukebox.jpg,,,,,,,,,,,,
null,,black_cross(without_color),671129,blue,,,,null,GW/basket.jpg,GW/jukebox.jpg,,,,,,,,,,,,
null,,rt_plussign_withcolor,671630,blue,,,,null,GW/basket.jpg,GW/jukebox.jpg,,,,,,,,,,,,
1497.6000000005588,,rt_thecrossant_black,673228,black_plus_sign,,,,49,,,1,0.875,,,,,,,,,,
null,,color_black,673329,black_plus_sign,,,,null,,,,,,,,,,,,,,
null,,learn_phase(without_color),675331,black_plus_sign,,,,null,GW/jukebox.jpg,GW/hat.jpg,,,,,,,,,,,,
null,,black_cross(without_color),676051,blue,,,,null,GW/jukebox.jpg,GW/hat.jpg,,,,,,,,,,,,
482.1000000005588,,rt_plussign_withcolor,676552,blue,,,,49,GW/jukebox.jpg,GW/hat.jpg,,,,,,,,,,,,
null,,rt_thecrossant_black,677835,black_plus_sign,,,,null,,,1,0.8888888888888888,,,,,,,,,,
null,,color_black,677937,black_plus_sign,,,,null,,,,,,,,,,,,,,
null,,learn_phase(without_color),679939,black_plus_sign,,,,null,GW/basket.jpg,GW/jukebox.jpg,,,,,,,,,,,,
null,,black_cross(without_color),680864,blue,,,,null,GW/basket.jpg,GW/jukebox.jpg,,,,,,,,,,,,
null,,rt_plussign_withcolor,681366,blue,,,,null,GW/basket.jpg,GW/jukebox.jpg,,,,,,,,,,,,
905.5999999996275,,rt_thecrossant_black,682443,black_plus_sign,,,,49,,,1,0.9,,,,,,,,,,
null,,color_black,682545,black_plus_sign,,,,null,,,,,,,,,,,,,,
null,,learn_phase(without_color),684548,black_plus_sign,,,,null,GW/hat.jpg,GW/dustpan.jpg,,,,,,,,,,,,
null,,black_cross(without_color),685053,blue,,,,null,GW/hat.jpg,GW/dustpan.jpg,,,,,,,,,,,,
499.29999999981374,,rt_plussign_withcolor,685555,blue,,,,49,GW/hat.jpg,GW/dustpan.jpg,,,,,,,,,,,,
null,,rt_thecrossant_black,687054,black_plus_sign,,,,null,,,1,0.9090909090909091,,,,,,,,,,
null,,color_black,687156,black_plus_sign,,,,null,,,,,,,,,,,,,,
null,,learn_phase(without_color),689158,black_plus_sign,,,,null,GW/hat.jpg,GW/gong.jpg,,,,,,,,,,,,
null,,black_cross(without_color),689999,green,,,,null,GW/hat.jpg,GW/gong.jpg,,,,,,,,,,,,
null,,rt_plussign_withcolor,690500,green,,,,null,GW/hat.jpg,GW/gong.jpg,,,,,,,,,,,,
624.9000000003725,,rt_thecrossant_black,691661,black_plus_sign,,,,50,,,1,0.9166666666666666,,,,,,,,,,
null,,color_black,691764,black_plus_sign,,,,null,,,,,,,,,,,,,,
null,,learn_phase(without_color),693766,black_plus_sign,,,,null,GW/jukebox.jpg,GW/hat.jpg,,,,,,,,,,,,
null,,black_cross(without_color),694759,blue,,,,null,GW/jukebox.jpg,GW/hat.jpg,,,,,,,,,,,,
null,,rt_plussign_withcolor,695261,blue,,,,null,GW/jukebox.jpg,GW/hat.jpg,,,,,,,,,,,,
967.8999999994412,,rt_thecrossant_black,696272,black_plus_sign,,,,49,,,1,0.9230769230769231,,,,,,,,,,
null,,color_black,696374,black_plus_sign,,,,null,,,,,,,,,,,,,,
null,,learn_phase(without_color),698378,black_plus_sign,,,,null,GW/teeth.jpg,GW/gong.jpg,,,,,,,,,,,,
null,,black_cross(without_color),698919,blue,,,,null,GW/teeth.jpg,GW/gong.jpg,,,,,,,,,,,,
null,,rt_plussign_withcolor,699421,blue,,,,null,GW/teeth.jpg,GW/gong.jpg,,,,,,,,,,,,
1354.4000000003725,,rt_thecrossant_black,700883,black_plus_sign,,,,50,,,0,0.8571428571428571,,,,,,,,,,
null,,color_black,700985,black_plus_sign,,,,null,,,,,,,,,,,,,,
null,,learn_phase(without_color),702986,black_plus_sign,,,,null,GW/barrel.jpg,GW/wheelchair.jpg,,,,,,,,,,,,
null,,black_cross(without_color),703432,blue,,,,null,GW/barrel.jpg,GW/wheelchair.jpg,,,,,,,,,,,,
null,,rt_plussign_withcolor,703934,blue,,,,null,GW/barrel.jpg,GW/wheelchair.jpg,,,,,,,,,,,,
725,,rt_thecrossant_black,705491,black_plus_sign,,,,49,,,1,0.8666666666666667,,,,,,,,,,
null,,color_black,705593,black_plus_sign,,,,null,,,,,,,,,,,,,,
null,,learn_phase(without_color),707595,black_plus_sign,,,,null,GW/gong.jpg,GW/snail.jpg,,,,,,,,,,,,
null,,black_cross(without_color),708589,blue,,,,null,GW/gong.jpg,GW/snail.jpg,,,,,,,,,,,,
null,,rt_plussign_withcolor,709089,blue,,,,null,GW/gong.jpg,GW/snail.jpg,,,,,,,,,,,,
718.2000000001863,,rt_thecrossant_black,710099,black_plus_sign,,,,49,,,1,0.875,,,,,,,,,,
null,,color_black,710200,black_plus_sign,,,,null,,,,,,,,,,,,,,
null,,learn_phase(without_color),712202,black_plus_sign,,,,null,GW/barrel.jpg,GW/paint.jpg,,,,,,,,,,,,
null,,black_cross(without_color),713014,blue,,,,null,GW/barrel.jpg,GW/paint.jpg,,,,,,,,,,,,
null,,rt_plussign_withcolor,713516,blue,,,,null,GW/barrel.jpg,GW/paint.jpg,,,,,,,,,,,,
1159.8999999994412,,rt_thecrossant_black,714709,black_plus_sign,,,,49,,,1,0.8823529411764706,,,,,,,,,,
null,,color_black,714811,black_plus_sign,,,,null,,,,,,,,,,,,,,
null,,learn_phase(without_color),716814,black_plus_sign,,,,null,GW/snail.jpg,GW/paint.jpg,,,,,,,,,,,,
null,,black_cross(without_color),717423,green,,,,null,GW/snail.jpg,GW/paint.jpg,,,,,,,,,,,,
null,,rt_plussign_withcolor,717925,green,,,,null,GW/snail.jpg,GW/paint.jpg,,,,,,,,,,,,
956.3999999994412,,rt_thecrossant_black,719320,black_plus_sign,,,,50,,,1,0.8888888888888888,,,,,,,,,,
null,,color_black,719423,black_plus_sign,,,,null,,,,,,,,,,,,,,
null,,learn_phase(without_color),721425,black_plus_sign,,,,null,GW/teeth.jpg,GW/gong.jpg,,,,,,,,,,,,
null,,black_cross(without_color),722465,blue,,,,null,GW/teeth.jpg,GW/gong.jpg,,,,,,,,,,,,
null,,rt_plussign_withcolor,722967,blue,,,,null,GW/teeth.jpg,GW/gong.jpg,,,,,,,,,,,,
720.6000000005588,,rt_thecrossant_black,723931,black_plus_sign,,,,49,,,1,0.8947368421052632,,,,,,,,,,
null,,color_black,724032,black_plus_sign,,,,null,,,,,,,,,,,,,,
null,,learn_phase(without_color),726035,black_plus_sign,,,,null,GW/hat.jpg,GW/dustpan.jpg,,,,,,,,,,,,
null,,black_cross(without_color),726577,blue,,,,null,GW/hat.jpg,GW/dustpan.jpg,,,,,,,,,,,,
null,,rt_plussign_withcolor,727078,blue,,,,null,GW/hat.jpg,GW/dustpan.jpg,,,,,,,,,,,,
null,,rt_thecrossant_black,728540,black_plus_sign,,,,null,,,,0.8947368421052632,,,,,,,,,,
null,,color_black,728642,black_plus_sign,,,,null,,,,,,,,,,,,,,
null,,learn_phase(without_color),730644,black_plus_sign,,,,null,GW/hat.jpg,GW/gong.jpg,,,,,,,,,,,,
null,,black_cross(without_color),731681,green,,,,null,GW/hat.jpg,GW/gong.jpg,,,,,,,,,,,,
null,,rt_plussign_withcolor,732183,green,,,,null,GW/hat.jpg,GW/gong.jpg,,,,,,,,,,,,
824.7000000001863,,rt_thecrossant_black,733149,black_plus_sign,,,,49,,,0,0.85,,,,,,,,,,
null,,warning_page,736150,warning,,,,null,,,,,,,,,,,,,,
null,,color_black,736252,black_plus_sign,,,,null,,,,,,,,,,,,,,
null,,learn_phase(without_color),738253,black_plus_sign,,,,null,GW/teeth.jpg,GW/globe.jpg,,,,,,,,,,,,
null,,black_cross(without_color),738779,green,,,,null,GW/teeth.jpg,GW/globe.jpg,,,,,,,,,,,,
null,,rt_plussign_withcolor,739279,green,,,,null,GW/teeth.jpg,GW/globe.jpg,,,,,,,,,,,,
1374.6000000005588,,rt_thecrossant_black,740758,black_plus_sign,,,,50,,,1,0.8571428571428571,,,,,,,,,,
null,,color_black,740860,black_plus_sign,,,,null,,,,,,,,,,,,,,
null,,learn_phase(without_color),742863,black_plus_sign,,,,null,GW/jukebox.jpg,GW/hat.jpg,,,,,,,,,,,,
null,,black_cross(without_color),743470,blue,,,,null,GW/jukebox.jpg,GW/hat.jpg,,,,,,,,,,,,
null,,rt_plussign_withcolor,743972,blue,,,,null,GW/jukebox.jpg,GW/hat.jpg,,,,,,,,,,,,
701.8000000007451,,rt_thecrossant_black,745369,black_plus_sign,,,,49,,,1,0.8636363636363636,,,,,,,,,,
null,,color_black,745471,black_plus_sign,,,,null,,,,,,,,,,,,,,
null,,learn_phase(without_color),747473,black_plus_sign,,,,null,GW/dustpan.jpg,GW/teeth.jpg,,,,,,,,,,,,
null,,black_cross(without_color),748371,blue,,,,null,GW/dustpan.jpg,GW/teeth.jpg,,,,,,,,,,,,
null,,rt_plussign_withcolor,748873,blue,,,,null,GW/dustpan.jpg,GW/teeth.jpg,,,,,,,,,,,,
710.3999999994412,,rt_thecrossant_black,749980,black_plus_sign,,,,49,,,1,0.8695652173913043,,,,,,,,,,
null,,color_black,750082,black_plus_sign,,,,null,,,,,,,,,,,,,,
null,,learn_phase(without_color),752083,black_plus_sign,,,,null,GW/basket.jpg,GW/jukebox.jpg,,,,,,,,,,,,
null,,black_cross(without_color),752929,green,,,,null,GW/basket.jpg,GW/jukebox.jpg,,,,,,,,,,,,
null,,rt_plussign_withcolor,753431,green,,,,null,GW/basket.jpg,GW/jukebox.jpg,,,,,,,,,,,,
1094.5,,rt_thecrossant_black,754589,black_plus_sign,,,,49,,,0,0.8333333333333334,,,,,,,,,,
null,,color_black,754691,black_plus_sign,,,,null,,,,,,,,,,,,,,
null,,learn_phase(without_color),756693,black_plus_sign,,,,null,GW/jukebox.jpg,GW/hat.jpg,,,,,,,,,,,,
null,,black_cross(without_color),757103,green,,,,null,GW/jukebox.jpg,GW/hat.jpg,,,,,,,,,,,,
null,,rt_plussign_withcolor,757604,green,,,,null,GW/jukebox.jpg,GW/hat.jpg,,,,,,,,,,,,
964.5,,rt_thecrossant_black,759197,black_plus_sign,,,,49,,,0,0.8,,,,,,,,,,
null,,warning_page,762199,warning,,,,null,,,,,,,,,,,,,,
null,,color_black,762300,black_plus_sign,,,,null,,,,,,,,,,,,,,
null,,learn_phase(without_color),764302,black_plus_sign,,,,null,GW/barrel.jpg,GW/wheelchair.jpg,,,,,,,,,,,,
null,,black_cross(without_color),765055,green,,,,null,GW/barrel.jpg,GW/wheelchair.jpg,,,,,,,,,,,,
null,,rt_plussign_withcolor,765556,green,,,,null,GW/barrel.jpg,GW/wheelchair.jpg,,,,,,,,,,,,
518.9000000003725,,rt_thecrossant_black,766806,black_plus_sign,,,,50,,,1,0.8076923076923077,,,,,,,,,,
null,,color_black,766908,black_plus_sign,,,,null,,,,,,,,,,,,,,
null,,learn_phase(without_color),768910,black_plus_sign,,,,null,GW/camera.jpg,GW/basket.jpg,,,,,,,,,,,,
null,,black_cross(without_color),769496,blue,,,,null,GW/camera.jpg,GW/basket.jpg,,,,,,,,,,,,
null,,rt_plussign_withcolor,769998,blue,,,,null,GW/camera.jpg,GW/basket.jpg,,,,,,,,,,,,
934.9000000003725,,rt_thecrossant_black,771416,black_plus_sign,,,,49,,,1,0.8148148148148148,,,,,,,,,,
null,,color_black,771518,black_plus_sign,,,,null,,,,,,,,,,,,,,
null,,learn_phase(without_color),773520,black_plus_sign,,,,null,GW/dustpan.jpg,GW/gong.jpg,,,,,,,,,,,,
null,,black_cross(without_color),774223,blue,,,,null,GW/dustpan.jpg,GW/gong.jpg,,,,,,,,,,,,
null,,rt_plussign_withcolor,774725,blue,,,,null,GW/dustpan.jpg,GW/gong.jpg,,,,,,,,,,,,
842.2000000001863,,rt_thecrossant_black,776027,black_plus_sign,,,,50,,,0,0.7857142857142857,,,,,,,,,,
null,,color_black,776130,black_plus_sign,,,,null,,,,,,,,,,,,,,
null,,learn_phase(without_color),778133,black_plus_sign,,,,null,GW/barrel.jpg,GW/wheelchair.jpg,,,,,,,,,,,,
null,,black_cross(without_color),779136,blue,,,,null,GW/barrel.jpg,GW/wheelchair.jpg,,,,,,,,,,,,
null,,rt_plussign_withcolor,779637,blue,,,,null,GW/barrel.jpg,GW/wheelchair.jpg,,,,,,,,,,,,
1065.800000000745,,rt_thecrossant_black,780637,black_plus_sign,,,,49,,,1,0.7931034482758621,,,,,,,,,,
null,,color_black,780738,black_plus_sign,,,,null,,,,,,,,,,,,,,
null,,learn_phase(without_color),782741,black_plus_sign,,,,null,GW/barrel.jpg,GW/paint.jpg,,,,,,,,,,,,
null,,black_cross(without_color),783243,green,,,,null,GW/barrel.jpg,GW/paint.jpg,,,,,,,,,,,,
449,,rt_plussign_withcolor,783744,green,,,,50,GW/barrel.jpg,GW/paint.jpg,,,,,,,,,,,,
null,,rt_thecrossant_black,785244,black_plus_sign,,,,null,,,1,0.8,,,,,,,,,,
null,,color_black,785345,black_plus_sign,,,,null,,,,,,,,,,,,,,
null,,learn_phase(without_color),787346,black_plus_sign,,,,null,GW/basket.jpg,GW/barrel.jpg,,,,,,,,,,,,
null,,black_cross(without_color),787761,green,,,,null,GW/basket.jpg,GW/barrel.jpg,,,,,,,,,,,,
null,,rt_plussign_withcolor,788263,green,,,,null,GW/basket.jpg,GW/barrel.jpg,,,,,,,,,,,,
739.4000000003725,,rt_thecrossant_black,789853,black_plus_sign,,,,50,,,1,0.8064516129032258,,,,,,,,,,
null,,color_black,789955,black_plus_sign,,,,null,,,,,,,,,,,,,,
null,,learn_phase(without_color),791958,black_plus_sign,,,,null,GW/basket.jpg,GW/jukebox.jpg,,,,,,,,,,,,
null,,black_cross(without_color),792745,blue,,,,null,GW/basket.jpg,GW/jukebox.jpg,,,,,,,,,,,,
null,,rt_plussign_withcolor,793246,blue,,,,null,GW/basket.jpg,GW/jukebox.jpg,,,,,,,,,,,,
565,,rt_thecrossant_black,794462,black_plus_sign,,,,49,,,1,0.8125,,,,,,,,,,
null,,color_black,794565,black_plus_sign,,,,null,,,,,,,,,,,,,,
null,,learn_phase(without_color),796568,black_plus_sign,,,,null,GW/dustpan.jpg,GW/soldier.jpg,,,,,,,,,,,,
null,,black_cross(without_color),797031,blue,,,,null,GW/dustpan.jpg,GW/soldier.jpg,,,,,,,,,,,,
488.70000000018626,,rt_plussign_withcolor,797533,blue,,,,49,GW/dustpan.jpg,GW/soldier.jpg,,,,,,,,,,,,
null,,rt_thecrossant_black,799074,black_plus_sign,,,,null,,,1,0.8181818181818182,,,,,,,,,,
null,,color_black,799176,black_plus_sign,,,,null,,,,,,,,,,,,,,
null,,learn_phase(without_color),801180,black_plus_sign,,,,null,GW/teeth.jpg,GW/globe.jpg,,,,,,,,,,,,
null,,black_cross(without_color),802147,blue,,,,null,GW/teeth.jpg,GW/globe.jpg,,,,,,,,,,,,
460.79999999981374,,rt_plussign_withcolor,802648,blue,,,,49,GW/teeth.jpg,GW/globe.jpg,,,,,,,,,,,,
null,,rt_thecrossant_black,803684,black_plus_sign,,,,null,,,1,0.8235294117647058,,,,,,,,,,
null,,color_black,803787,black_plus_sign,,,,null,,,,,,,,,,,,,,
null,,learn_phase(without_color),805790,black_plus_sign,,,,null,GW/basket.jpg,GW/jukebox.jpg,,,,,,,,,,,,
null,,black_cross(without_color),806231,blue,,,,null,GW/basket.jpg,GW/jukebox.jpg,,,,,,,,,,,,
null,,rt_plussign_withcolor,806734,blue,,,,null,GW/basket.jpg,GW/jukebox.jpg,,,,,,,,,,,,
1137.8999999994412,,rt_thecrossant_black,808295,black_plus_sign,,,,49,,,1,0.8285714285714286,,,,,,,,,,
null,,color_black,808397,black_plus_sign,,,,null,,,,,,,,,,,,,,
null,,learn_phase(without_color),810399,black_plus_sign,,,,null,GW/teeth.jpg,GW/globe.jpg,,,,,,,,,,,,
null,,black_cross(without_color),810990,green,,,,null,GW/teeth.jpg,GW/globe.jpg,,,,,,,,,,,,
450.8999999994412,,rt_plussign_withcolor,811492,green,,,,50,GW/teeth.jpg,GW/globe.jpg,,,,,,,,,,,,
null,,rt_thecrossant_black,812903,black_plus_sign,,,,null,,,1,0.8333333333333334,,,,,,,,,,
null,,color_black,813005,black_plus_sign,,,,null,,,,,,,,,,,,,,
null,,learn_phase(without_color),815007,black_plus_sign,,,,null,GW/hat.jpg,GW/dustpan.jpg,,,,,,,,,,,,
null,,black_cross(without_color),815533,green,,,,null,GW/hat.jpg,GW/dustpan.jpg,,,,,,,,,,,,
null,,rt_plussign_withcolor,816036,green,,,,null,GW/hat.jpg,GW/dustpan.jpg,,,,,,,,,,,,
988.7999999998137,,rt_thecrossant_black,817515,black_plus_sign,,,,49,,,0,0.8108108108108109,,,,,,,,,,
null,,color_black,817617,black_plus_sign,,,,null,,,,,,,,,,,,,,
null,,learn_phase(without_color),819620,black_plus_sign,,,,null,GW/jukebox.jpg,GW/snail.jpg,,,,,,,,,,,,
null,,black_cross(without_color),820722,blue,,,,null,GW/jukebox.jpg,GW/snail.jpg,,,,,,,,,,,,
null,,rt_plussign_withcolor,821224,blue,,,,null,GW/jukebox.jpg,GW/snail.jpg,,,,,,,,,,,,
725.7999999998137,,rt_thecrossant_black,822127,black_plus_sign,,,,49,,,1,0.8157894736842105,,,,,,,,,,
null,,color_black,822229,black_plus_sign,,,,null,,,,,,,,,,,,,,
null,,learn_phase(without_color),824232,black_plus_sign,,,,null,GW/dustpan.jpg,GW/teeth.jpg,,,,,,,,,,,,
null,,black_cross(without_color),825094,green,,,,null,GW/dustpan.jpg,GW/teeth.jpg,,,,,,,,,,,,
null,,rt_plussign_withcolor,825596,green,,,,null,GW/dustpan.jpg,GW/teeth.jpg,,,,,,,,,,,,
1250.1000000005588,,rt_thecrossant_black,826737,black_plus_sign,,,,50,,,1,0.8205128205128205,,,,,,,,,,
null,,color_black,826838,black_plus_sign,,,,null,,,,,,,,,,,,,,
null,,learn_phase(without_color),828840,black_plus_sign,,,,null,GW/hat.jpg,GW/dustpan.jpg,,,,,,,,,,,,
null,,black_cross(without_color),829719,blue,,,,null,GW/hat.jpg,GW/dustpan.jpg,,,,,,,,,,,,
501,,rt_plussign_withcolor,830222,blue,,,,49,GW/hat.jpg,GW/dustpan.jpg,,,,,,,,,,,,
null,,rt_thecrossant_black,831346,black_plus_sign,,,,null,,,1,0.825,,,,,,,,,,
null,,color_black,831448,black_plus_sign,,,,null,,,,,,,,,,,,,,
null,,learn_phase(without_color),833450,black_plus_sign,,,,null,GW/basket.jpg,GW/jukebox.jpg,,,,,,,,,,,,
null,,black_cross(without_color),833852,green,,,,null,GW/basket.jpg,GW/jukebox.jpg,,,,,,,,,,,,
null,,rt_plussign_withcolor,834353,green,,,,null,GW/basket.jpg,GW/jukebox.jpg,,,,,,,,,,,,
1035.8999999994412,,rt_thecrossant_black,835954,black_plus_sign,,,,50,,,1,0.8292682926829268,,,,,,,,,,
null,,color_black,836057,black_plus_sign,,,,null,,,,,,,,,,,,,,
null,,learn_phase(without_color),838058,black_plus_sign,,,,null,GW/hat.jpg,GW/dustpan.jpg,,,,,,,,,,,,
null,,black_cross(without_color),839076,blue,,,,null,GW/hat.jpg,GW/dustpan.jpg,,,,,,,,,,,,
null,,rt_plussign_withcolor,839577,blue,,,,null,GW/hat.jpg,GW/dustpan.jpg,,,,,,,,,,,,
502.69999999925494,,rt_thecrossant_black,840564,black_plus_sign,,,,49,,,1,0.8333333333333334,,,,,,,,,,
null,,color_black,840667,black_plus_sign,,,,null,,,,,,,,,,,,,,
null,,learn_phase(without_color),842670,black_plus_sign,,,,null,GW/jukebox.jpg,GW/snail.jpg,,,,,,,,,,,,
null,,black_cross(without_color),843367,green,,,,null,GW/jukebox.jpg,GW/snail.jpg,,,,,,,,,,,,
null,,rt_plussign_withcolor,843869,green,,,,null,GW/jukebox.jpg,GW/snail.jpg,,,,,,,,,,,,
1203,,rt_thecrossant_black,845176,black_plus_sign,,,,50,,,1,0.8372093023255814,,,,,,,,,,
null,,color_black,845279,black_plus_sign,,,,null,,,,,,,,,,,,,,
null,,learn_phase(without_color),847282,black_plus_sign,,,,null,GW/snail.jpg,GW/paint.jpg,,,,,,,,,,,,
null,,black_cross(without_color),848158,green,,,,null,GW/snail.jpg,GW/paint.jpg,,,,,,,,,,,,
null,,rt_plussign_withcolor,848659,green,,,,null,GW/snail.jpg,GW/paint.jpg,,,,,,,,,,,,
1349.0999999996275,,rt_thecrossant_black,849788,black_plus_sign,,,,50,,,1,0.8409090909090909,,,,,,,,,,
null,,color_black,849889,black_plus_sign,,,,null,,,,,,,,,,,,,,
null,,learn_phase(without_color),851892,black_plus_sign,,,,null,GW/jukebox.jpg,GW/snail.jpg,,,,,,,,,,,,
null,,black_cross(without_color),852550,green,,,,null,GW/jukebox.jpg,GW/snail.jpg,,,,,,,,,,,,
null,,rt_plussign_withcolor,853051,green,,,,null,GW/jukebox.jpg,GW/snail.jpg,,,,,,,,,,,,
1076.9000000003725,,rt_thecrossant_black,854396,black_plus_sign,,,,50,,,1,0.8444444444444444,,,,,,,,,,
null,,color_black,854497,black_plus_sign,,,,null,,,,,,,,,,,,,,
null,,learn_phase(without_color),856500,black_plus_sign,,,,null,GW/teeth.jpg,GW/globe.jpg,,,,,,,,,,,,
null,,black_cross(without_color),857206,blue,,,,null,GW/teeth.jpg,GW/globe.jpg,,,,,,,,,,,,
null,,rt_plussign_withcolor,857708,blue,,,,null,GW/teeth.jpg,GW/globe.jpg,,,,,,,,,,,,
759.6999999992549,,rt_thecrossant_black,859004,black_plus_sign,,,,49,,,1,0.8478260869565217,,,,,,,,,,
null,,color_black,859106,black_plus_sign,,,,null,,,,,,,,,,,,,,
null,,learn_phase(without_color),861109,black_plus_sign,,,,null,GW/teeth.jpg,GW/gong.jpg,,,,,,,,,,,,
null,,black_cross(without_color),861926,blue,,,,null,GW/teeth.jpg,GW/gong.jpg,,,,,,,,,,,,
null,,rt_plussign_withcolor,862429,blue,,,,null,GW/teeth.jpg,GW/gong.jpg,,,,,,,,,,,,
835.5,,rt_thecrossant_black,863617,black_plus_sign,,,,50,,,0,0.8297872340425532,,,,,,,,,,
null,,color_black,863719,black_plus_sign,,,,null,,,,,,,,,,,,,,
null,,learn_phase(without_color),865723,black_plus_sign,,,,null,GW/jukebox.jpg,GW/snail.jpg,,,,,,,,,,,,
null,,black_cross(without_color),866398,blue,,,,null,GW/jukebox.jpg,GW/snail.jpg,,,,,,,,,,,,
null,,rt_plussign_withcolor,866900,blue,,,,null,GW/jukebox.jpg,GW/snail.jpg,,,,,,,,,,,,
1117.4000000003725,,rt_thecrossant_black,868228,black_plus_sign,,,,49,,,1,0.8333333333333334,,,,,,,,,,
null,,color_black,868331,black_plus_sign,,,,null,,,,,,,,,,,,,,
null,,learn_phase(without_color),870334,black_plus_sign,,,,null,GW/barrel.jpg,GW/paint.jpg,,,,,,,,,,,,
null,,black_cross(without_color),871109,green,,,,null,GW/barrel.jpg,GW/paint.jpg,,,,,,,,,,,,
null,,rt_plussign_withcolor,871611,green,,,,null,GW/barrel.jpg,GW/paint.jpg,,,,,,,,,,,,
849,,rt_thecrossant_black,872840,black_plus_sign,,,,50,,,1,0.8367346938775511,,,,,,,,,,
null,,color_black,872943,black_plus_sign,,,,null,,,,,,,,,,,,,,
null,,learn_phase(without_color),874945,black_plus_sign,,,,null,GW/barrel.jpg,GW/wheelchair.jpg,,,,,,,,,,,,
null,,black_cross(without_color),875781,blue,,,,null,GW/barrel.jpg,GW/wheelchair.jpg,,,,,,,,,,,,
null,,rt_plussign_withcolor,876283,blue,,,,null,GW/barrel.jpg,GW/wheelchair.jpg,,,,,,,,,,,,
939,,rt_thecrossant_black,877451,black_plus_sign,,,,49,,,1,0.84,,,,,,,,,,
null,,color_black,877552,black_plus_sign,,,,null,,,,,,,,,,,,,,
null,,learn_phase(without_color),879554,black_plus_sign,,,,null,GW/dustpan.jpg,GW/teeth.jpg,,,,,,,,,,,,
null,,black_cross(without_color),880626,green,,,,null,GW/dustpan.jpg,GW/teeth.jpg,,,,,,,,,,,,
466.69999999925494,,rt_plussign_withcolor,881128,green,,,,50,GW/dustpan.jpg,GW/teeth.jpg,,,,,,,,,,,,
null,,rt_thecrossant_black,882061,black_plus_sign,,,,null,,,1,0.8431372549019608,,,,,,,,,,
null,,color_black,882163,black_plus_sign,,,,null,,,,,,,,,,,,,,
null,,learn_phase(without_color),884166,black_plus_sign,,,,null,GW/gong.jpg,GW/snail.jpg,,,,,,,,,,,,
null,,black_cross(without_color),885269,green,,,,null,GW/gong.jpg,GW/snail.jpg,,,,,,,,,,,,
451.80000000074506,,rt_plussign_withcolor,885770,green,,,,50,GW/gong.jpg,GW/snail.jpg,,,,,,,,,,,,
null,,rt_thecrossant_black,886672,black_plus_sign,,,,null,,,1,0.8461538461538461,,,,,,,,,,
null,,color_black,886774,black_plus_sign,,,,null,,,,,,,,,,,,,,
null,,learn_phase(without_color),888777,black_plus_sign,,,,null,GW/dustpan.jpg,GW/soldier.jpg,,,,,,,,,,,,
null,,black_cross(without_color),889355,blue,,,,null,GW/dustpan.jpg,GW/soldier.jpg,,,,,,,,,,,,
null,,rt_plussign_withcolor,889856,blue,,,,null,GW/dustpan.jpg,GW/soldier.jpg,,,,,,,,,,,,
1262.0999999996275,,rt_thecrossant_black,891282,black_plus_sign,,,,49,,,1,0.8490566037735849,,,,,,,,,,
null,,color_black,891384,black_plus_sign,,,,null,,,,,,,,,,,,,,
null,,learn_phase(without_color),893386,black_plus_sign,,,,null,GW/camera.jpg,GW/basket.jpg,,,,,,,,,,,,
null,,black_cross(without_color),894414,green,,,,null,GW/camera.jpg,GW/basket.jpg,,,,,,,,,,,,
null,,rt_plussign_withcolor,894916,green,,,,null,GW/camera.jpg,GW/basket.jpg,,,,,,,,,,,,
783.0999999996275,,rt_thecrossant_black,895892,black_plus_sign,,,,50,,,1,0.8518518518518519,,,,,,,,,,
null,,color_black,895994,black_plus_sign,,,,null,,,,,,,,,,,,,,
null,,learn_phase(without_color),897997,black_plus_sign,,,,null,GW/gong.jpg,GW/snail.jpg,,,,,,,,,,,,
null,,black_cross(without_color),898660,blue,,,,null,GW/gong.jpg,GW/snail.jpg,,,,,,,,,,,,
null,,rt_plussign_withcolor,899162,blue,,,,null,GW/gong.jpg,GW/snail.jpg,,,,,,,,,,,,
1135.2999999988824,,rt_thecrossant_black,900502,black_plus_sign,,,,49,,,1,0.8545454545454545,,,,,,,,,,
null,,color_black,900604,black_plus_sign,,,,null,,,,,,,,,,,,,,
null,,learn_phase(without_color),902606,black_plus_sign,,,,null,GW/camera.jpg,GW/basket.jpg,,,,,,,,,,,,
null,,black_cross(without_color),903661,green,,,,null,GW/camera.jpg,GW/basket.jpg,,,,,,,,,,,,
413.2999999988824,,rt_plussign_withcolor,904162,green,,,,50,GW/camera.jpg,GW/basket.jpg,,,,,,,,,,,,
null,,rt_thecrossant_black,905111,black_plus_sign,,,,null,,,1,0.8571428571428571,,,,,,,,,,
null,,color_black,905212,black_plus_sign,,,,null,,,,,,,,,,,,,,
null,,learn_phase(without_color),907215,black_plus_sign,,,,null,GW/dustpan.jpg,GW/soldier.jpg,,,,,,,,,,,,
null,,black_cross(without_color),907798,blue,,,,null,GW/dustpan.jpg,GW/soldier.jpg,,,,,,,,,,,,
null,,rt_plussign_withcolor,908300,blue,,,,null,GW/dustpan.jpg,GW/soldier.jpg,,,,,,,,,,,,
1234.5,,rt_thecrossant_black,909719,black_plus_sign,,,,49,,,1,0.8596491228070176,,,,,,,,,,
null,,color_black,909822,black_plus_sign,,,,null,,,,,,,,,,,,,,
null,,learn_phase(without_color),911823,black_plus_sign,,,,null,GW/camera.jpg,GW/basket.jpg,,,,,,,,,,,,
null,,black_cross(without_color),912846,green,,,,null,GW/camera.jpg,GW/basket.jpg,,,,,,,,,,,,
null,,rt_plussign_withcolor,913348,green,,,,null,GW/camera.jpg,GW/basket.jpg,,,,,,,,,,,,
715,,rt_thecrossant_black,914330,black_plus_sign,,,,50,,,1,0.8620689655172413,,,,,,,,,,
null,,color_black,914433,black_plus_sign,,,,null,,,,,,,,,,,,,,
null,,learn_phase(without_color),916435,black_plus_sign,,,,null,GW/barrel.jpg,GW/paint.jpg,,,,,,,,,,,,
null,,black_cross(without_color),917453,blue,,,,null,GW/barrel.jpg,GW/paint.jpg,,,,,,,,,,,,
469.09999999962747,,rt_plussign_withcolor,917955,blue,,,,49,GW/barrel.jpg,GW/paint.jpg,,,,,,,,,,,,
null,,rt_thecrossant_black,918941,black_plus_sign,,,,null,,,1,0.864406779661017,,,,,,,,,,
null,,color_black,919042,black_plus_sign,,,,null,,,,,,,,,,,,,,
null,,learn_phase(without_color),921044,black_plus_sign,,,,null,GW/hat.jpg,GW/gong.jpg,,,,,,,,,,,,
null,,black_cross(without_color),921628,green,,,,null,GW/hat.jpg,GW/gong.jpg,,,,,,,,,,,,
null,,rt_plussign_withcolor,922130,green,,,,null,GW/hat.jpg,GW/gong.jpg,,,,,,,,,,,,
1342.1000000014901,,rt_thecrossant_black,923550,black_plus_sign,,,,50,,,1,0.8666666666666667,,,,,,,,,,
null,,color_black,923651,black_plus_sign,,,,null,,,,,,,,,,,,,,
null,,learn_phase(without_color),925654,black_plus_sign,,,,null,GW/dustpan.jpg,GW/teeth.jpg,,,,,,,,,,,,
null,,black_cross(without_color),926246,green,,,,null,GW/dustpan.jpg,GW/teeth.jpg,,,,,,,,,,,,
null,,rt_plussign_withcolor,926747,green,,,,null,GW/dustpan.jpg,GW/teeth.jpg,,,,,,,,,,,,
682.1999999992549,,rt_thecrossant_black,928158,black_plus_sign,,,,50,,,1,0.8688524590163934,,,,,,,,,,
null,,color_black,928259,black_plus_sign,,,,null,,,,,,,,,,,,,,
null,,learn_phase(without_color),930262,black_plus_sign,,,,null,GW/basket.jpg,GW/barrel.jpg,,,,,,,,,,,,
null,,black_cross(without_color),931124,green,,,,null,GW/basket.jpg,GW/barrel.jpg,,,,,,,,,,,,
484.19999999925494,,rt_plussign_withcolor,931625,green,,,,49,GW/basket.jpg,GW/barrel.jpg,,,,,,,,,,,,
null,,rt_thecrossant_black,932768,black_plus_sign,,,,50,,,0,0.8548387096774194,,,,,,,,,,
null,,color_black,932869,black_plus_sign,,,,null,,,,,,,,,,,,,,
null,,learn_phase(without_color),934872,black_plus_sign,,,,null,GW/hat.jpg,GW/gong.jpg,,,,,,,,,,,,
null,,black_cross(without_color),935534,green,,,,null,GW/hat.jpg,GW/gong.jpg,,,,,,,,,,,,
null,,rt_plussign_withcolor,936036,green,,,,null,GW/hat.jpg,GW/gong.jpg,,,,,,,,,,,,
968.2000000011176,,rt_thecrossant_black,937380,black_plus_sign,,,,50,,,1,0.8571428571428571,,,,,,,,,,
null,,color_black,937482,black_plus_sign,,,,null,,,,,,,,,,,,,,
null,,learn_phase(without_color),939485,black_plus_sign,,,,null,GW/dustpan.jpg,GW/gong.jpg,,,,,,,,,,,,
null,,black_cross(without_color),940379,blue,,,,null,GW/dustpan.jpg,GW/gong.jpg,,,,,,,,,,,,
null,,rt_plussign_withcolor,940882,blue,,,,null,GW/dustpan.jpg,GW/gong.jpg,,,,,,,,,,,,
826.0999999996275,,rt_thecrossant_black,941992,black_plus_sign,,,,49,,,1,0.859375,,,,,,,,,,
null,,color_black,942093,black_plus_sign,,,,null,,,,,,,,,,,,,,
null,,learn_phase(without_color),944096,black_plus_sign,,,,null,GW/hat.jpg,GW/gong.jpg,,,,,,,,,,,,
null,,black_cross(without_color),944690,blue,,,,null,GW/hat.jpg,GW/gong.jpg,,,,,,,,,,,,
467.59999999962747,,rt_plussign_withcolor,945192,blue,,,,49,GW/hat.jpg,GW/gong.jpg,,,,,,,,,,,,
null,,rt_thecrossant_black,946602,black_plus_sign,,,,null,,,1,0.8615384615384616,,,,,,,,,,
null,,color_black,946704,black_plus_sign,,,,null,,,,,,,,,,,,,,
null,,learn_phase(without_color),948706,black_plus_sign,,,,null,GW/dustpan.jpg,GW/gong.jpg,,,,,,,,,,,,
null,,black_cross(without_color),949213,green,,,,null,GW/dustpan.jpg,GW/gong.jpg,,,,,,,,,,,,
null,,rt_plussign_withcolor,949715,green,,,,null,GW/dustpan.jpg,GW/gong.jpg,,,,,,,,,,,,
841.5999999996275,,rt_thecrossant_black,951211,black_plus_sign,,,,50,,,1,0.8636363636363636,,,,,,,,,,
null,,color_black,951313,black_plus_sign,,,,null,,,,,,,,,,,,,,
null,,learn_phase(without_color),953315,black_plus_sign,,,,null,GW/dustpan.jpg,GW/teeth.jpg,,,,,,,,,,,,
null,,black_cross(without_color),954316,green,,,,null,GW/dustpan.jpg,GW/teeth.jpg,,,,,,,,,,,,
null,,rt_plussign_withcolor,954817,green,,,,null,GW/dustpan.jpg,GW/teeth.jpg,,,,,,,,,,,,
708.0999999996275,,rt_thecrossant_black,955821,black_plus_sign,,,,50,,,1,0.8656716417910447,,,,,,,,,,
null,,color_black,955923,black_plus_sign,,,,null,,,,,,,,,,,,,,
null,,learn_phase(without_color),957926,black_plus_sign,,,,null,GW/jukebox.jpg,GW/snail.jpg,,,,,,,,,,,,
null,,black_cross(without_color),958441,green,,,,null,GW/jukebox.jpg,GW/snail.jpg,,,,,,,,,,,,
408.40000000037253,,rt_plussign_withcolor,958943,green,,,,50,GW/jukebox.jpg,GW/snail.jpg,,,,,,,,,,,,
null,,rt_thecrossant_black,960432,black_plus_sign,,,,null,,,1,0.8676470588235294,,,,,,,,,,
null,,color_black,960535,black_plus_sign,,,,null,,,,,,,,,,,,,,
null,,learn_phase(without_color),962537,black_plus_sign,,,,null,GW/basket.jpg,GW/barrel.jpg,,,,,,,,,,,,
null,,black_cross(without_color),963472,blue,,,,null,GW/basket.jpg,GW/barrel.jpg,,,,,,,,,,,,
null,,rt_plussign_withcolor,963974,blue,,,,null,GW/basket.jpg,GW/barrel.jpg,,,,,,,,,,,,
861.5999999996275,,rt_thecrossant_black,965044,black_plus_sign,,,,50,,,0,0.855072463768116,,,,,,,,,,
null,,color_black,965146,black_plus_sign,,,,null,,,,,,,,,,,,,,
null,,learn_phase(without_color),967149,black_plus_sign,,,,null,GW/jukebox.jpg,GW/snail.jpg,,,,,,,,,,,,
null,,black_cross(without_color),967551,green,,,,null,GW/jukebox.jpg,GW/snail.jpg,,,,,,,,,,,,
null,,rt_plussign_withcolor,968053,green,,,,null,GW/jukebox.jpg,GW/snail.jpg,,,,,,,,,,,,
1193.199999999255,,rt_thecrossant_black,969654,black_plus_sign,,,,50,,,1,0.8571428571428571,,,,,,,,,,
null,,color_black,969755,black_plus_sign,,,,null,,,,,,,,,,,,,,
null,,learn_phase(without_color),971757,black_plus_sign,,,,null,GW/teeth.jpg,GW/gong.jpg,,,,,,,,,,,,
null,,black_cross(without_color),972461,blue,,,,null,GW/teeth.jpg,GW/gong.jpg,,,,,,,,,,,,
null,,rt_plussign_withcolor,972962,blue,,,,null,GW/teeth.jpg,GW/gong.jpg,,,,,,,,,,,,
597.1999999992549,,rt_thecrossant_black,974262,black_plus_sign,,,,49,,,1,0.8591549295774648,,,,,,,,,,
null,,color_black,974363,black_plus_sign,,,,null,,,,,,,,,,,,,,
null,,learn_phase(without_color),976366,black_plus_sign,,,,null,GW/barrel.jpg,GW/paint.jpg,,,,,,,,,,,,
null,,black_cross(without_color),977187,green,,,,null,GW/barrel.jpg,GW/paint.jpg,,,,,,,,,,,,
444.6000000014901,,rt_plussign_withcolor,977689,green,,,,50,GW/barrel.jpg,GW/paint.jpg,,,,,,,,,,,,
null,,rt_thecrossant_black,978873,black_plus_sign,,,,null,,,1,0.8611111111111112,,,,,,,,,,
null,,color_black,978975,black_plus_sign,,,,null,,,,,,,,,,,,,,
null,,learn_phase(without_color),980979,black_plus_sign,,,,null,GW/camera.jpg,GW/basket.jpg,,,,,,,,,,,,
null,,black_cross(without_color),981796,green,,,,null,GW/camera.jpg,GW/basket.jpg,,,,,,,,,,,,
485.3999999985099,,rt_plussign_withcolor,982297,green,,,,50,GW/camera.jpg,GW/basket.jpg,,,,,,,,,,,,
null,,rt_thecrossant_black,983484,black_plus_sign,,,,null,,,1,0.863013698630137,,,,,,,,,,
null,,color_black,983587,black_plus_sign,,,,null,,,,,,,,,,,,,,
null,,learn_phase(without_color),985590,black_plus_sign,,,,null,GW/dustpan.jpg,GW/gong.jpg,,,,,,,,,,,,
null,,black_cross(without_color),986257,blue,,,,null,GW/dustpan.jpg,GW/gong.jpg,,,,,,,,,,,,
null,,rt_plussign_withcolor,986759,blue,,,,null,GW/dustpan.jpg,GW/gong.jpg,,,,,,,,,,,,
1002.5,,rt_thecrossant_black,988095,black_plus_sign,,,,49,,,1,0.8648648648648649,,,,,,,,,,
null,,color_black,988197,black_plus_sign,,,,null,,,,,,,,,,,,,,
null,,learn_phase(without_color),990199,black_plus_sign,,,,null,GW/gong.jpg,GW/snail.jpg,,,,,,,,,,,,
null,,black_cross(without_color),991300,green,,,,null,GW/gong.jpg,GW/snail.jpg,,,,,,,,,,,,
479.59999999962747,,rt_plussign_withcolor,991802,green,,,,50,GW/gong.jpg,GW/snail.jpg,,,,,,,,,,,,
null,,rt_thecrossant_black,992705,black_plus_sign,,,,null,,,1,0.8666666666666667,,,,,,,,,,
null,,color_black,992807,black_plus_sign,,,,null,,,,,,,,,,,,,,
null,,learn_phase(without_color),994808,black_plus_sign,,,,null,GW/basket.jpg,GW/barrel.jpg,,,,,,,,,,,,
null,,black_cross(without_color),995309,green,,,,null,GW/basket.jpg,GW/barrel.jpg,,,,,,,,,,,,
null,,rt_plussign_withcolor,995811,green,,,,null,GW/basket.jpg,GW/barrel.jpg,,,,,,,,,,,,
1253.4000000003725,,rt_thecrossant_black,997313,black_plus_sign,,,,50,,,1,0.868421052631579,,,,,,,,,,
null,,color_black,997415,black_plus_sign,,,,null,,,,,,,,,,,,,,
null,,learn_phase(without_color),999418,black_plus_sign,,,,null,GW/gong.jpg,GW/snail.jpg,,,,,,,,,,,,
null,,black_cross(without_color),1000044,blue,,,,null,GW/gong.jpg,GW/snail.jpg,,,,,,,,,,,,
null,,rt_plussign_withcolor,1000546,blue,,,,null,GW/gong.jpg,GW/snail.jpg,,,,,,,,,,,,
647.5999999996275,,rt_thecrossant_black,1001924,black_plus_sign,,,,49,,,1,0.8701298701298701,,,,,,,,,,
null,,color_black,1002026,black_plus_sign,,,,null,,,,,,,,,,,,,,
null,,learn_phase(without_color),1004029,black_plus_sign,,,,null,GW/snail.jpg,GW/paint.jpg,,,,,,,,,,,,
null,,black_cross(without_color),1004719,green,,,,null,GW/snail.jpg,GW/paint.jpg,,,,,,,,,,,,
null,,rt_plussign_withcolor,1005222,green,,,,null,GW/snail.jpg,GW/paint.jpg,,,,,,,,,,,,
750.7999999988824,,rt_thecrossant_black,1006536,black_plus_sign,,,,50,,,1,0.8717948717948718,,,,,,,,,,
null,,color_black,1006639,black_plus_sign,,,,null,,,,,,,,,,,,,,
null,,learn_phase(without_color),1008642,black_plus_sign,,,,null,GW/hat.jpg,GW/dustpan.jpg,,,,,,,,,,,,
null,,black_cross(without_color),1009611,blue,,,,null,GW/hat.jpg,GW/dustpan.jpg,,,,,,,,,,,,
null,,rt_plussign_withcolor,1010113,blue,,,,null,GW/hat.jpg,GW/dustpan.jpg,,,,,,,,,,,,
916.6999999992549,,rt_thecrossant_black,1011147,black_plus_sign,,,,49,,,1,0.8734177215189873,,,,,,,,,,
null,,color_black,1011249,black_plus_sign,,,,null,,,,,,,,,,,,,,
null,,learn_phase(without_color),1013251,black_plus_sign,,,,null,GW/basket.jpg,GW/jukebox.jpg,,,,,,,,,,,,
null,,black_cross(without_color),1013890,green,,,,null,GW/basket.jpg,GW/jukebox.jpg,,,,,,,,,,,,
null,,rt_plussign_withcolor,1014392,green,,,,null,GW/basket.jpg,GW/jukebox.jpg,,,,,,,,,,,,
1254.4000000003725,,rt_thecrossant_black,1015758,black_plus_sign,,,,50,,,1,0.875,,,,,,,,,,
null,,color_black,1015860,black_plus_sign,,,,null,,,,,,,,,,,,,,
null,,learn_phase(without_color),1017861,black_plus_sign,,,,null,GW/teeth.jpg,GW/globe.jpg,,,,,,,,,,,,
null,,black_cross(without_color),1018594,green,,,,null,GW/teeth.jpg,GW/globe.jpg,,,,,,,,,,,,
null,,rt_plussign_withcolor,1019097,green,,,,null,GW/teeth.jpg,GW/globe.jpg,,,,,,,,,,,,
765.1999999992549,,rt_thecrossant_black,1020368,black_plus_sign,,,,49,,,0,0.8641975308641975,,,,,,,,,,
null,,color_black,1020470,black_plus_sign,,,,null,,,,,,,,,,,,,,
null,,learn_phase(without_color),1022474,black_plus_sign,,,,null,GW/basket.jpg,GW/barrel.jpg,,,,,,,,,,,,
null,,black_cross(without_color),1023535,green,,,,null,GW/basket.jpg,GW/barrel.jpg,,,,,,,,,,,,
493.19999999925494,,rt_plussign_withcolor,1024037,green,,,,50,GW/basket.jpg,GW/barrel.jpg,,,,,,,,,,,,
null,,rt_thecrossant_black,1024982,black_plus_sign,,,,null,,,1,0.8658536585365854,,,,,,,,,,
null,,color_black,1025085,black_plus_sign,,,,null,,,,,,,,,,,,,,
null,,learn_phase(without_color),1027087,black_plus_sign,,,,null,GW/barrel.jpg,GW/paint.jpg,,,,,,,,,,,,
null,,black_cross(without_color),1027693,blue,,,,null,GW/barrel.jpg,GW/paint.jpg,,,,,,,,,,,,
null,,rt_plussign_withcolor,1028194,blue,,,,null,GW/barrel.jpg,GW/paint.jpg,,,,,,,,,,,,
1374.7999999988824,,rt_thecrossant_black,1029593,black_plus_sign,,,,49,,,1,0.8674698795180723,,,,,,,,,,
null,,color_black,1029695,black_plus_sign,,,,null,,,,,,,,,,,,,,
null,,learn_phase(without_color),1031697,black_plus_sign,,,,null,GW/barrel.jpg,GW/wheelchair.jpg,,,,,,,,,,,,
null,,black_cross(without_color),1032329,green,,,,null,GW/barrel.jpg,GW/wheelchair.jpg,,,,,,,,,,,,
null,,rt_plussign_withcolor,1032831,green,,,,null,GW/barrel.jpg,GW/wheelchair.jpg,,,,,,,,,,,,
708.6000000014901,,rt_thecrossant_black,1034204,black_plus_sign,,,,50,,,1,0.8690476190476191,,,,,,,,,,
null,,color_black,1034306,black_plus_sign,,,,null,,,,,,,,,,,,,,
null,,learn_phase(without_color),1036309,black_plus_sign,,,,null,GW/hat.jpg,GW/gong.jpg,,,,,,,,,,,,
null,,black_cross(without_color),1037201,green,,,,null,GW/hat.jpg,GW/gong.jpg,,,,,,,,,,,,
null,,rt_plussign_withcolor,1037703,green,,,,null,GW/hat.jpg,GW/gong.jpg,,,,,,,,,,,,
741.5,,rt_thecrossant_black,1038814,black_plus_sign,,,,50,,,1,0.8705882352941177,,,,,,,,,,
null,,color_black,1038916,black_plus_sign,,,,null,,,,,,,,,,,,,,
null,,learn_phase(without_color),1040919,black_plus_sign,,,,null,GW/hat.jpg,GW/dustpan.jpg,,,,,,,,,,,,
null,,black_cross(without_color),1041547,blue,,,,null,GW/hat.jpg,GW/dustpan.jpg,,,,,,,,,,,,
null,,rt_plussign_withcolor,1042049,blue,,,,null,GW/hat.jpg,GW/dustpan.jpg,,,,,,,,,,,,
1109.699999999255,,rt_thecrossant_black,1043424,black_plus_sign,,,,49,,,1,0.872093023255814,,,,,,,,,,
null,,color_black,1043527,black_plus_sign,,,,null,,,,,,,,,,,,,,
null,,learn_phase(without_color),1045530,black_plus_sign,,,,null,GW/dustpan.jpg,GW/gong.jpg,,,,,,,,,,,,
null,,black_cross(without_color),1045960,green,,,,null,GW/dustpan.jpg,GW/gong.jpg,,,,,,,,,,,,
null,,rt_plussign_withcolor,1046462,green,,,,null,GW/dustpan.jpg,GW/gong.jpg,,,,,,,,,,,,
753.5999999996275,,rt_thecrossant_black,1048036,black_plus_sign,,,,50,,,1,0.8735632183908046,,,,,,,,,,
null,,color_black,1048138,black_plus_sign,,,,null,,,,,,,,,,,,,,
null,,learn_phase(without_color),1050141,black_plus_sign,,,,null,GW/dustpan.jpg,GW/soldier.jpg,,,,,,,,,,,,
null,,black_cross(without_color),1050674,blue,,,,null,GW/dustpan.jpg,GW/soldier.jpg,,,,,,,,,,,,
null,,rt_plussign_withcolor,1051176,blue,,,,null,GW/dustpan.jpg,GW/soldier.jpg,,,,,,,,,,,,
669,,rt_thecrossant_black,1052647,black_plus_sign,,,,49,,,1,0.875,,,,,,,,,,
null,,color_black,1052750,black_plus_sign,,,,null,,,,,,,,,,,,,,
null,,learn_phase(without_color),1054752,black_plus_sign,,,,null,GW/camera.jpg,GW/basket.jpg,,,,,,,,,,,,
null,,black_cross(without_color),1055328,green,,,,null,GW/camera.jpg,GW/basket.jpg,,,,,,,,,,,,
null,,rt_plussign_withcolor,1055829,green,,,,null,GW/camera.jpg,GW/basket.jpg,,,,,,,,,,,,
687.8000000007451,,rt_thecrossant_black,1057258,black_plus_sign,,,,50,,,1,0.8764044943820225,,,,,,,,,,
null,,color_black,1057360,black_plus_sign,,,,null,,,,,,,,,,,,,,
null,,learn_phase(without_color),1059362,black_plus_sign,,,,null,GW/jukebox.jpg,GW/snail.jpg,,,,,,,,,,,,
null,,black_cross(without_color),1060337,green,,,,null,GW/jukebox.jpg,GW/snail.jpg,,,,,,,,,,,,
null,,rt_plussign_withcolor,1060838,green,,,,null,GW/jukebox.jpg,GW/snail.jpg,,,,,,,,,,,,
674.0999999996275,,rt_thecrossant_black,1061867,black_plus_sign,,,,50,,,1,0.8777777777777778,,,,,,,,,,
null,,color_black,1061970,black_plus_sign,,,,null,,,,,,,,,,,,,,
null,,learn_phase(without_color),1063973,black_plus_sign,,,,null,GW/dustpan.jpg,GW/gong.jpg,,,,,,,,,,,,
null,,black_cross(without_color),1064402,blue,,,,null,GW/dustpan.jpg,GW/gong.jpg,,,,,,,,,,,,
null,,rt_plussign_withcolor,1064904,blue,,,,null,GW/dustpan.jpg,GW/gong.jpg,,,,,,,,,,,,
1178.2999999988824,,rt_thecrossant_black,1066478,black_plus_sign,,,,49,,,1,0.8791208791208791,,,,,,,,,,
null,,color_black,1066581,black_plus_sign,,,,null,,,,,,,,,,,,,,
null,,learn_phase(without_color),1068584,black_plus_sign,,,,null,GW/snail.jpg,GW/paint.jpg,,,,,,,,,,,,
null,,black_cross(without_color),1069132,green,,,,null,GW/snail.jpg,GW/paint.jpg,,,,,,,,,,,,
null,,rt_plussign_withcolor,1069634,green,,,,null,GW/snail.jpg,GW/paint.jpg,,,,,,,,,,,,
648.1999999992549,,rt_thecrossant_black,1071091,black_plus_sign,,,,50,,,1,0.8804347826086957,,,,,,,,,,
null,,color_black,1071193,black_plus_sign,,,,null,,,,,,,,,,,,,,
null,,learn_phase(without_color),1073195,black_plus_sign,,,,null,GW/camera.jpg,GW/basket.jpg,,,,,,,,,,,,
null,,black_cross(without_color),1073921,green,,,,null,GW/camera.jpg,GW/basket.jpg,,,,,,,,,,,,
null,,rt_plussign_withcolor,1074423,green,,,,null,GW/camera.jpg,GW/basket.jpg,,,,,,,,,,,,
765,,rt_thecrossant_black,1075702,black_plus_sign,,,,50,,,1,0.8817204301075269,,,,,,,,,,
null,,color_black,1075804,black_plus_sign,,,,null,,,,,,,,,,,,,,
null,,learn_phase(without_color),1077806,black_plus_sign,,,,null,GW/teeth.jpg,GW/gong.jpg,,,,,,,,,,,,
null,,black_cross(without_color),1078729,blue,,,,null,GW/teeth.jpg,GW/gong.jpg,,,,,,,,,,,,
null,,rt_plussign_withcolor,1079231,blue,,,,null,GW/teeth.jpg,GW/gong.jpg,,,,,,,,,,,,
1001.0999999996275,,rt_thecrossant_black,1080312,black_plus_sign,,,,49,,,1,0.8829787234042553,,,,,,,,,,
null,,color_black,1080413,black_plus_sign,,,,null,,,,,,,,,,,,,,
null,,learn_phase(without_color),1082416,black_plus_sign,,,,null,GW/dustpan.jpg,GW/gong.jpg,,,,,,,,,,,,
null,,black_cross(without_color),1083117,green,,,,null,GW/dustpan.jpg,GW/gong.jpg,,,,,,,,,,,,
null,,rt_plussign_withcolor,1083619,green,,,,null,GW/dustpan.jpg,GW/gong.jpg,,,,,,,,,,,,
1112.0999999996275,,rt_thecrossant_black,1084922,black_plus_sign,,,,50,,,1,0.8842105263157894,,,,,,,,,,
null,,color_black,1085025,black_plus_sign,,,,null,,,,,,,,,,,,,,
null,,learn_phase(without_color),1087028,black_plus_sign,,,,null,GW/basket.jpg,GW/barrel.jpg,,,,,,,,,,,,
null,,black_cross(without_color),1088053,blue,,,,null,GW/basket.jpg,GW/barrel.jpg,,,,,,,,,,,,
null,,rt_plussign_withcolor,1088555,blue,,,,null,GW/basket.jpg,GW/barrel.jpg,,,,,,,,,,,,
981.4000000003725,,rt_thecrossant_black,1089534,black_plus_sign,,,,50,,,0,0.875,,,,,,,,,,
null,,color_black,1089636,black_plus_sign,,,,null,,,,,,,,,,,,,,
null,,learn_phase(without_color),1091638,black_plus_sign,,,,null,GW/camera.jpg,GW/basket.jpg,,,,,,,,,,,,
null,,black_cross(without_color),1092674,green,,,,null,GW/camera.jpg,GW/basket.jpg,,,,,,,,,,,,
449.80000000074506,,rt_plussign_withcolor,1093177,green,,,,50,GW/camera.jpg,GW/basket.jpg,,,,,,,,,,,,
null,,rt_thecrossant_black,1094146,black_plus_sign,,,,null,,,1,0.8762886597938144,,,,,,,,,,
null,,color_black,1094248,black_plus_sign,,,,null,,,,,,,,,,,,,,
null,,learn_phase(without_color),1096250,black_plus_sign,,,,null,GW/teeth.jpg,GW/globe.jpg,,,,,,,,,,,,
null,,black_cross(without_color),1096699,blue,,,,null,GW/teeth.jpg,GW/globe.jpg,,,,,,,,,,,,
496.8999999985099,,rt_plussign_withcolor,1097201,blue,,,,49,GW/teeth.jpg,GW/globe.jpg,,,,,,,,,,,,
null,,rt_thecrossant_black,1098754,black_plus_sign,,,,null,,,1,0.8775510204081632,,,,,,,,,,
null,,color_black,1098857,black_plus_sign,,,,null,,,,,,,,,,,,,,
null,,learn_phase(without_color),1100859,black_plus_sign,,,,null,GW/gong.jpg,GW/snail.jpg,,,,,,,,,,,,
null,,black_cross(without_color),1101881,green,,,,null,GW/gong.jpg,GW/snail.jpg,,,,,,,,,,,,
443,,rt_plussign_withcolor,1102384,green,,,,50,GW/gong.jpg,GW/snail.jpg,,,,,,,,,,,,
null,,rt_thecrossant_black,1103365,black_plus_sign,,,,null,,,1,0.8787878787878788,,,,,,,,,,
null,,color_black,1103468,black_plus_sign,,,,null,,,,,,,,,,,,,,
null,,learn_phase(without_color),1105472,black_plus_sign,,,,null,GW/barrel.jpg,GW/paint.jpg,,,,,,,,,,,,
null,,black_cross(without_color),1106116,blue,,,,null,GW/barrel.jpg,GW/paint.jpg,,,,,,,,,,,,
497.59999999962747,,rt_plussign_withcolor,1106618,blue,,,,49,GW/barrel.jpg,GW/paint.jpg,,,,,,,,,,,,
null,,rt_thecrossant_black,1107977,black_plus_sign,,,,null,,,1,0.88,,,,,,,,,,
null,,color_black,1108079,black_plus_sign,,,,null,,,,,,,,,,,,,,
null,,learn_phase(without_color),1110081,black_plus_sign,,,,null,GW/hat.jpg,GW/gong.jpg,,,,,,,,,,,,
null,,black_cross(without_color),1111136,green,,,,null,GW/hat.jpg,GW/gong.jpg,,,,,,,,,,,,
437,,rt_plussign_withcolor,1111639,green,,,,50,GW/hat.jpg,GW/gong.jpg,,,,,,,,,,,,
null,,rt_thecrossant_black,1112588,black_plus_sign,,,,null,,,1,0.8811881188118812,,,,,,,,,,
null,,color_black,1112691,black_plus_sign,,,,null,,,,,,,,,,,,,,
null,,learn_phase(without_color),1114694,black_plus_sign,,,,null,GW/teeth.jpg,GW/globe.jpg,,,,,,,,,,,,
null,,black_cross(without_color),1115444,blue,,,,null,GW/teeth.jpg,GW/globe.jpg,,,,,,,,,,,,
null,,rt_plussign_withcolor,1115947,blue,,,,null,GW/teeth.jpg,GW/globe.jpg,,,,,,,,,,,,
1465,,rt_thecrossant_black,1117202,black_plus_sign,,,,50,,,0,0.8725490196078431,,,,,,,,,,
null,,color_black,1117304,black_plus_sign,,,,null,,,,,,,,,,,,,,
null,,learn_phase(without_color),1119307,black_plus_sign,,,,null,GW/hat.jpg,GW/gong.jpg,,,,,,,,,,,,
null,,black_cross(without_color),1120265,blue,,,,null,GW/hat.jpg,GW/gong.jpg,,,,,,,,,,,,
null,,rt_plussign_withcolor,1120768,blue,,,,null,GW/hat.jpg,GW/gong.jpg,,,,,,,,,,,,
865.3000000007451,,rt_thecrossant_black,1121813,black_plus_sign,,,,49,,,1,0.8737864077669902,,,,,,,,,,
null,,color_black,1121915,black_plus_sign,,,,null,,,,,,,,,,,,,,
null,,learn_phase(without_color),1123917,black_plus_sign,,,,null,GW/jukebox.jpg,GW/hat.jpg,,,,,,,,,,,,
null,,black_cross(without_color),1124698,green,,,,null,GW/jukebox.jpg,GW/hat.jpg,,,,,,,,,,,,
455.2999999988824,,rt_plussign_withcolor,1125199,green,,,,50,GW/jukebox.jpg,GW/hat.jpg,,,,,,,,,,,,
null,,rt_thecrossant_black,1126423,black_plus_sign,,,,null,,,1,0.875,,,,,,,,,,
null,,color_black,1126526,black_plus_sign,,,,null,,,,,,,,,,,,,,
null,,learn_phase(without_color),1128529,black_plus_sign,,,,null,GW/dustpan.jpg,GW/teeth.jpg,,,,,,,,,,,,
null,,black_cross(without_color),1129199,blue,,,,null,GW/dustpan.jpg,GW/teeth.jpg,,,,,,,,,,,,
null,,rt_plussign_withcolor,1129702,blue,,,,null,GW/dustpan.jpg,GW/teeth.jpg,,,,,,,,,,,,
903.5,,rt_thecrossant_black,1131036,black_plus_sign,,,,49,,,1,0.8761904761904762,,,,,,,,,,
null,,color_black,1131139,black_plus_sign,,,,null,,,,,,,,,,,,,,
null,,learn_phase(without_color),1133142,black_plus_sign,,,,null,GW/basket.jpg,GW/barrel.jpg,,,,,,,,,,,,
null,,black_cross(without_color),1133969,green,,,,null,GW/basket.jpg,GW/barrel.jpg,,,,,,,,,,,,
457.2000000011176,,rt_plussign_withcolor,1134471,green,,,,50,GW/basket.jpg,GW/barrel.jpg,,,,,,,,,,,,
null,,rt_thecrossant_black,1135647,black_plus_sign,,,,null,,,1,0.8773584905660378,,,,,,,,,,
null,,color_black,1135749,black_plus_sign,,,,null,,,,,,,,,,,,,,
null,,learn_phase(without_color),1137751,black_plus_sign,,,,null,GW/snail.jpg,GW/paint.jpg,,,,,,,,,,,,
null,,black_cross(without_color),1138158,blue,,,,null,GW/snail.jpg,GW/paint.jpg,,,,,,,,,,,,
null,,rt_plussign_withcolor,1138659,blue,,,,null,GW/snail.jpg,GW/paint.jpg,,,,,,,,,,,,
null,,rt_thecrossant_black,1140256,black_plus_sign,,,,null,,,,0.8773584905660378,,,,,,,,,,
null,,color_black,1140358,black_plus_sign,,,,null,,,,,,,,,,,,,,
null,,learn_phase(without_color),1142360,black_plus_sign,,,,null,GW/basket.jpg,GW/jukebox.jpg,,,,,,,,,,,,
null,,black_cross(without_color),1142853,blue,,,,null,GW/basket.jpg,GW/jukebox.jpg,,,,,,,,,,,,
null,,rt_plussign_withcolor,1143356,blue,,,,null,GW/basket.jpg,GW/jukebox.jpg,,,,,,,,,,,,
542.1999999992549,,rt_thecrossant_black,1144867,black_plus_sign,,,,49,,,1,0.8785046728971962,,,,,,,,,,
null,,color_black,1144969,black_plus_sign,,,,null,,,,,,,,,,,,,,
null,,learn_phase(without_color),1146972,black_plus_sign,,,,null,GW/basket.jpg,GW/barrel.jpg,,,,,,,,,,,,
null,,black_cross(without_color),1148043,green,,,,null,GW/basket.jpg,GW/barrel.jpg,,,,,,,,,,,,
null,,rt_plussign_withcolor,1148545,green,,,,null,GW/basket.jpg,GW/barrel.jpg,,,,,,,,,,,,
753.0999999996275,,rt_thecrossant_black,1149477,black_plus_sign,,,,50,,,1,0.8796296296296297,,,,,,,,,,
null,,color_black,1149579,black_plus_sign,,,,null,,,,,,,,,,,,,,
null,,learn_phase(without_color),1151582,black_plus_sign,,,,null,GW/dustpan.jpg,GW/soldier.jpg,,,,,,,,,,,,
null,,black_cross(without_color),1152309,blue,,,,null,GW/dustpan.jpg,GW/soldier.jpg,,,,,,,,,,,,
null,,rt_plussign_withcolor,1152811,blue,,,,null,GW/dustpan.jpg,GW/soldier.jpg,,,,,,,,,,,,
1342.9000000003725,,rt_thecrossant_black,1154088,black_plus_sign,,,,49,,,1,0.8807339449541285,,,,,,,,,,
null,,color_black,1154189,black_plus_sign,,,,null,,,,,,,,,,,,,,
null,,learn_phase(without_color),1156192,black_plus_sign,,,,null,GW/teeth.jpg,GW/gong.jpg,,,,,,,,,,,,
null,,black_cross(without_color),1156987,blue,,,,null,GW/teeth.jpg,GW/gong.jpg,,,,,,,,,,,,
null,,rt_plussign_withcolor,1157489,blue,,,,null,GW/teeth.jpg,GW/gong.jpg,,,,,,,,,,,,
1088.699999999255,,rt_thecrossant_black,1158699,black_plus_sign,,,,49,,,1,0.8818181818181818,,,,,,,,,,
null,,color_black,1158801,black_plus_sign,,,,null,,,,,,,,,,,,,,
null,,learn_phase(without_color),1160804,black_plus_sign,,,,null,GW/barrel.jpg,GW/wheelchair.jpg,,,,,,,,,,,,
null,,black_cross(without_color),1161382,green,,,,null,GW/barrel.jpg,GW/wheelchair.jpg,,,,,,,,,,,,
null,,rt_plussign_withcolor,1161884,green,,,,null,GW/barrel.jpg,GW/wheelchair.jpg,,,,,,,,,,,,
null,,rt_thecrossant_black,1163309,black_plus_sign,,,,null,,,,0.8818181818181818,,,,,,,,,,
null,,color_black,1163410,black_plus_sign,,,,null,,,,,,,,,,,,,,
null,,learn_phase(without_color),1165413,black_plus_sign,,,,null,GW/teeth.jpg,GW/gong.jpg,,,,,,,,,,,,
null,,black_cross(without_color),1166209,blue,,,,null,GW/teeth.jpg,GW/gong.jpg,,,,,,,,,,,,
null,,rt_plussign_withcolor,1166710,blue,,,,null,GW/teeth.jpg,GW/gong.jpg,,,,,,,,,,,,
739.9000000003725,,rt_thecrossant_black,1167917,black_plus_sign,,,,49,,,1,0.8828828828828829,,,,,,,,,,
null,,color_black,1168018,black_plus_sign,,,,null,,,,,,,,,,,,,,
null,,learn_phase(without_color),1170021,black_plus_sign,,,,null,GW/snail.jpg,GW/paint.jpg,,,,,,,,,,,,
null,,black_cross(without_color),1170604,blue,,,,null,GW/snail.jpg,GW/paint.jpg,,,,,,,,,,,,
null,,rt_plussign_withcolor,1171106,blue,,,,null,GW/snail.jpg,GW/paint.jpg,,,,,,,,,,,,
1045.199999999255,,rt_thecrossant_black,1172527,black_plus_sign,,,,49,,,1,0.8839285714285714,,,,,,,,,,
null,,color_black,1172630,black_plus_sign,,,,null,,,,,,,,,,,,,,
null,,learn_phase(without_color),1174633,black_plus_sign,,,,null,GW/dustpan.jpg,GW/teeth.jpg,,,,,,,,,,,,
null,,black_cross(without_color),1175640,green,,,,null,GW/dustpan.jpg,GW/teeth.jpg,,,,,,,,,,,,
null,,rt_plussign_withcolor,1176141,green,,,,null,GW/dustpan.jpg,GW/teeth.jpg,,,,,,,,,,,,
749.4000000003725,,rt_thecrossant_black,1177138,black_plus_sign,,,,49,,,0,0.8761061946902655,,,,,,,,,,
null,,color_black,1177240,black_plus_sign,,,,null,,,,,,,,,,,,,,
null,,learn_phase(without_color),1179242,black_plus_sign,,,,null,GW/teeth.jpg,GW/globe.jpg,,,,,,,,,,,,
null,,black_cross(without_color),1179851,green,,,,null,GW/teeth.jpg,GW/globe.jpg,,,,,,,,,,,,
null,,rt_plussign_withcolor,1180352,green,,,,null,GW/teeth.jpg,GW/globe.jpg,,,,,,,,,,,,
1213.6000000014901,,rt_thecrossant_black,1181747,black_plus_sign,,,,50,,,1,0.8771929824561403,,,,,,,,,,
null,,color_black,1181850,black_plus_sign,,,,null,,,,,,,,,,,,,,
null,,learn_phase(without_color),1183851,black_plus_sign,,,,null,GW/gong.jpg,GW/snail.jpg,,,,,,,,,,,,
null,,black_cross(without_color),1184611,blue,,,,null,GW/gong.jpg,GW/snail.jpg,,,,,,,,,,,,
null,,rt_plussign_withcolor,1185112,blue,,,,null,GW/gong.jpg,GW/snail.jpg,,,,,,,,,,,,
1079.9000000003725,,rt_thecrossant_black,1186356,black_plus_sign,,,,50,,,0,0.8695652173913043,,,,,,,,,,
null,,color_black,1186458,black_plus_sign,,,,null,,,,,,,,,,,,,,
null,,learn_phase(without_color),1188460,black_plus_sign,,,,null,GW/barrel.jpg,GW/wheelchair.jpg,,,,,,,,,,,,
null,,black_cross(without_color),1189486,green,,,,null,GW/barrel.jpg,GW/wheelchair.jpg,,,,,,,,,,,,
null,,rt_plussign_withcolor,1189988,green,,,,null,GW/barrel.jpg,GW/wheelchair.jpg,,,,,,,,,,,,
1347.4000000003725,,rt_thecrossant_black,1190967,black_plus_sign,,,,50,,,1,0.8706896551724138,,,,,,,,,,
null,,color_black,1191069,black_plus_sign,,,,null,,,,,,,,,,,,,,
null,,learn_phase(without_color),1193072,black_plus_sign,,,,null,GW/teeth.jpg,GW/gong.jpg,,,,,,,,,,,,
null,,black_cross(without_color),1194152,green,,,,null,GW/teeth.jpg,GW/gong.jpg,,,,,,,,,,,,
null,,rt_plussign_withcolor,1194654,green,,,,null,GW/teeth.jpg,GW/gong.jpg,,,,,,,,,,,,
1198.5,,rt_thecrossant_black,1195578,black_plus_sign,,,,50,,,1,0.8717948717948718,,,,,,,,,,
null,,color_black,1195681,black_plus_sign,,,,null,,,,,,,,,,,,,,
null,,learn_phase(without_color),1197684,black_plus_sign,,,,null,GW/dustpan.jpg,GW/teeth.jpg,,,,,,,,,,,,
null,,black_cross(without_color),1198538,blue,,,,null,GW/dustpan.jpg,GW/teeth.jpg,,,,,,,,,,,,
null,,rt_plussign_withcolor,1199040,blue,,,,null,GW/dustpan.jpg,GW/teeth.jpg,,,,,,,,,,,,
1525.2000000011176,,rt_thecrossant_black,1200189,black_plus_sign,,,,49,,,1,0.8728813559322034,,,,,,,,,,
null,,color_black,1200291,black_plus_sign,,,,null,,,,,,,,,,,,,,
null,,learn_phase(without_color),1202294,black_plus_sign,,,,null,GW/snail.jpg,GW/paint.jpg,,,,,,,,,,,,
null,,black_cross(without_color),1202784,green,,,,null,GW/snail.jpg,GW/paint.jpg,,,,,,,,,,,,
null,,rt_plussign_withcolor,1203286,green,,,,null,GW/snail.jpg,GW/paint.jpg,,,,,,,,,,,,
1344.4000000003725,,rt_thecrossant_black,1204801,black_plus_sign,,,,50,,,1,0.8739495798319328,,,,,,,,,,
null,,color_black,1204903,black_plus_sign,,,,null,,,,,,,,,,,,,,
null,,learn_phase(without_color),1206905,black_plus_sign,,,,null,GW/jukebox.jpg,GW/hat.jpg,,,,,,,,,,,,
null,,black_cross(without_color),1207949,green,,,,null,GW/jukebox.jpg,GW/hat.jpg,,,,,,,,,,,,
485.7000000011176,,rt_plussign_withcolor,1208451,green,,,,50,GW/jukebox.jpg,GW/hat.jpg,,,,,,,,,,,,
null,,rt_thecrossant_black,1209411,black_plus_sign,,,,null,,,1,0.875,,,,,,,,,,
null,,color_black,1209513,black_plus_sign,,,,null,,,,,,,,,,,,,,
null,,learn_phase(without_color),1211516,black_plus_sign,,,,null,GW/dustpan.jpg,GW/soldier.jpg,,,,,,,,,,,,
null,,black_cross(without_color),1212067,blue,,,,null,GW/dustpan.jpg,GW/soldier.jpg,,,,,,,,,,,,
null,,rt_plussign_withcolor,1212569,blue,,,,null,GW/dustpan.jpg,GW/soldier.jpg,,,,,,,,,,,,
1423.2000000011176,,rt_thecrossant_black,1214022,black_plus_sign,,,,49,,,1,0.8760330578512396,,,,,,,,,,
null,,color_black,1214125,black_plus_sign,,,,null,,,,,,,,,,,,,,
null,,learn_phase(without_color),1216129,black_plus_sign,,,,null,GW/barrel.jpg,GW/wheelchair.jpg,,,,,,,,,,,,
null,,black_cross(without_color),1216882,green,,,,null,GW/barrel.jpg,GW/wheelchair.jpg,,,,,,,,,,,,
null,,rt_plussign_withcolor,1217383,green,,,,null,GW/barrel.jpg,GW/wheelchair.jpg,,,,,,,,,,,,
878.4000000003725,,rt_thecrossant_black,1218635,black_plus_sign,,,,50,,,1,0.8770491803278688,,,,,,,,,,
null,,color_black,1218738,black_plus_sign,,,,null,,,,,,,,,,,,,,
null,,learn_phase(without_color),1220740,black_plus_sign,,,,null,GW/jukebox.jpg,GW/hat.jpg,,,,,,,,,,,,
null,,black_cross(without_color),1221486,blue,,,,null,GW/jukebox.jpg,GW/hat.jpg,,,,,,,,,,,,
null,,rt_plussign_withcolor,1221989,blue,,,,null,GW/jukebox.jpg,GW/hat.jpg,,,,,,,,,,,,
1247.5,,rt_thecrossant_black,1223249,black_plus_sign,,,,49,,,1,0.8780487804878049,,,,,,,,,,
null,,color_black,1223351,black_plus_sign,,,,null,,,,,,,,,,,,,,
null,,learn_phase(without_color),1225355,black_plus_sign,,,,null,GW/dustpan.jpg,GW/soldier.jpg,,,,,,,,,,,,
null,,black_cross(without_color),1226123,green,,,,null,GW/dustpan.jpg,GW/soldier.jpg,,,,,,,,,,,,
null,,rt_plussign_withcolor,1226626,green,,,,null,GW/dustpan.jpg,GW/soldier.jpg,,,,,,,,,,,,
1264.4000000003725,,rt_thecrossant_black,1227862,black_plus_sign,,,,50,,,1,0.8790322580645161,,,,,,,,,,
null,,color_black,1227964,black_plus_sign,,,,null,,,,,,,,,,,,,,
null,,learn_phase(without_color),1229967,black_plus_sign,,,,null,GW/jukebox.jpg,GW/snail.jpg,,,,,,,,,,,,
null,,black_cross(without_color),1230887,blue,,,,null,GW/jukebox.jpg,GW/snail.jpg,,,,,,,,,,,,
null,,rt_plussign_withcolor,1231390,blue,,,,null,GW/jukebox.jpg,GW/snail.jpg,,,,,,,,,,,,
null,,rt_thecrossant_black,1232473,black_plus_sign,,,,null,,,,0.8790322580645161,,,,,,,,,,
null,,color_black,1232576,black_plus_sign,,,,null,,,,,,,,,,,,,,
12718.60000000149,,intro_1,1245297,instruct,,0,Start,,,,,,,,,,,,,,,
2077.7999999988824,,directmemory_phase,1247376,GW/jukebox.jpg,,,,51,,,0,0,GW/snail.jpg,GW/globe.jpg,GW/barrel.jpg,GW/snail.jpg,GW/barrel.jpg,GW/globe.jpg,0.5,closer,,
null,,html-keyboard-response,1248379,<p></p>,,,,null,,,,,,,,,,,,,,
2533.89999999851,,directmemory_phase,1250915,GW/teeth.jpg,,,,49,,,0,0,GW/jukebox.jpg,GW/hat.jpg,GW/globe.jpg,GW/globe.jpg,GW/hat.jpg,GW/jukebox.jpg,0.5,closer,,
null,,html-keyboard-response,1251916,<p></p>,,,,null,,,,,,,,,,,,,,
2868.699999999255,,directmemory_phase,1254786,GW/gong.jpg,,,,49,,,1,0.3333333333333333,GW/dustpan.jpg,GW/wheelchair.jpg,GW/paint.jpg,GW/dustpan.jpg,GW/paint.jpg,GW/wheelchair.jpg,1,,,
null,,html-keyboard-response,1255788,<p></p>,,,,null,,,,,,,,,,,,,,
1668.9000000003725,,directmemory_phase,1257459,GW/barrel.jpg,,,,50,,,0,0.25,GW/teeth.jpg,GW/snail.jpg,GW/paint.jpg,GW/paint.jpg,GW/snail.jpg,GW/teeth.jpg,0.5,closer,,
null,,html-keyboard-response,1258460,<p></p>,,,,null,,,,,,,,,,,,,,
2156.9000000003725,,directmemory_phase,1260618,GW/gong.jpg,,,,49,,,1,0.4,GW/snail.jpg,GW/camera.jpg,GW/globe.jpg,GW/snail.jpg,GW/globe.jpg,GW/camera.jpg,1,,,
null,,html-keyboard-response,1261621,<p></p>,,,,null,,,,,,,,,,,,,,
1301.5999999996275,,directmemory_phase,1262923,GW/wheelchair.jpg,,,,51,,,0,0.3333333333333333,GW/barrel.jpg,GW/jukebox.jpg,GW/paint.jpg,GW/barrel.jpg,GW/paint.jpg,GW/jukebox.jpg,0.5,closer,,
null,,html-keyboard-response,1263927,<p></p>,,,,null,,,,,,,,,,,,,,
1274.800000000745,,directmemory_phase,1265203,GW/dustpan.jpg,,,,50,,,0,0.2857142857142857,GW/basket.jpg,GW/globe.jpg,GW/teeth.jpg,GW/teeth.jpg,GW/globe.jpg,GW/basket.jpg,0.5,closer,,
null,,html-keyboard-response,1266205,<p></p>,,,,null,,,,,,,,,,,,,,
1363.2000000011176,,directmemory_phase,1267569,GW/snail.jpg,,,,50,,,0,0.25,GW/soldier.jpg,GW/dustpan.jpg,GW/gong.jpg,GW/gong.jpg,GW/dustpan.jpg,GW/soldier.jpg,0.5,closer,,
null,,html-keyboard-response,1268572,<p></p>,,,,null,,,,,,,,,,,,,,
854.2000000011176,,directmemory_phase,1269427,GW/jukebox.jpg,,,,50,,,0,0.2222222222222222,GW/hat.jpg,GW/wheelchair.jpg,GW/paint.jpg,GW/hat.jpg,GW/paint.jpg,GW/wheelchair.jpg,0.5,closer,,
null,,html-keyboard-response,1270430,<p></p>,,,,null,,,,,,,,,,,,,,
1704.5999999996275,,directmemory_phase,1272135,GW/gong.jpg,,,,51,,,1,0.3,GW/wheelchair.jpg,GW/globe.jpg,GW/teeth.jpg,GW/teeth.jpg,GW/globe.jpg,GW/wheelchair.jpg,1,,,
null,,html-keyboard-response,1273138,<p></p>,,,,null,,,,,,,,,,,,,,
943,,directmemory_phase,1274082,GW/snail.jpg,,,,51,,,0,0.2727272727272727,GW/paint.jpg,GW/soldier.jpg,GW/barrel.jpg,GW/paint.jpg,GW/barrel.jpg,GW/soldier.jpg,0.5,closer,,
null,,html-keyboard-response,1275085,<p></p>,,,,null,,,,,,,,,,,,,,
1704.9000000003725,,directmemory_phase,1276790,GW/gong.jpg,,,,49,,,0,0.25,GW/soldier.jpg,GW/hat.jpg,GW/basket.jpg,GW/hat.jpg,GW/soldier.jpg,GW/basket.jpg,0.5,closer,,
null,,html-keyboard-response,1277793,<p></p>,,,,null,,,,,,,,,,,,,,
1479.7000000011176,,directmemory_phase,1279273,GW/barrel.jpg,,,,50,,,0,0.23076923076923078,GW/hat.jpg,GW/snail.jpg,GW/wheelchair.jpg,GW/wheelchair.jpg,GW/snail.jpg,GW/hat.jpg,0.5,closer,,
null,,html-keyboard-response,1280276,<p></p>,,,,null,,,,,,,,,,,,,,
2950,,directmemory_phase,1283227,GW/dustpan.jpg,,,,49,,,0,0.21428571428571427,GW/jukebox.jpg,GW/gong.jpg,GW/basket.jpg,GW/gong.jpg,GW/jukebox.jpg,GW/basket.jpg,0.5,closer,,
null,,html-keyboard-response,1284230,<p></p>,,,,null,,,,,,,,,,,,,,
1371.2999999988824,,directmemory_phase,1285603,GW/paint.jpg,,,,50,,,1,0.26666666666666666,GW/gong.jpg,GW/snail.jpg,GW/hat.jpg,GW/snail.jpg,GW/gong.jpg,GW/hat.jpg,1,,,
null,,html-keyboard-response,1286605,<p></p>,,,,null,,,,,,,,,,,,,,
1834.300000000745,,directmemory_phase,1288440,GW/hat.jpg,,,,51,,,1,0.3125,GW/paint.jpg,GW/soldier.jpg,GW/dustpan.jpg,GW/dustpan.jpg,GW/soldier.jpg,GW/paint.jpg,1,,,
null,,html-keyboard-response,1289443,<p></p>,,,,null,,,,,,,,,,,,,,
3533.800000000745,,directmemory_phase,1292978,GW/teeth.jpg,,,,50,,,0,0.29411764705882354,GW/barrel.jpg,GW/snail.jpg,GW/gong.jpg,GW/gong.jpg,GW/snail.jpg,GW/barrel.jpg,0.5,closer,,
null,,html-keyboard-response,1293980,<p></p>,,,,null,,,,,,,,,,,,,,
1991.5999999996275,,directmemory_phase,1295973,GW/paint.jpg,,,,49,,,0,0.2777777777777778,GW/camera.jpg,GW/jukebox.jpg,GW/barrel.jpg,GW/barrel.jpg,GW/jukebox.jpg,GW/camera.jpg,0.5,closer,,
null,,html-keyboard-response,1296976,<p></p>,,,,null,,,,,,,,,,,,,,
2147.0999999996275,,directmemory_phase,1299125,GW/dustpan.jpg,,,,50,,,0,0.2631578947368421,GW/camera.jpg,GW/snail.jpg,GW/soldier.jpg,GW/soldier.jpg,GW/snail.jpg,GW/camera.jpg,0.5,closer,,
null,,html-keyboard-response,1300127,<p></p>,,,,null,,,,,,,,,,,,,,
2636.199999999255,,directmemory_phase,1302765,GW/camera.jpg,,,,49,,,0,0.25,GW/barrel.jpg,GW/basket.jpg,GW/paint.jpg,GW/basket.jpg,GW/barrel.jpg,GW/paint.jpg,0.5,closer,,
null,,html-keyboard-response,1303767,<p></p>,,,,null,,,,,,,,,,,,,,
2580.2000000011176,,directmemory_phase,1306348,GW/soldier.jpg,,,,49,,,1,0.2857142857142857,GW/dustpan.jpg,GW/basket.jpg,GW/gong.jpg,GW/dustpan.jpg,GW/gong.jpg,GW/basket.jpg,1,,,
null,,html-keyboard-response,1307351,<p></p>,,,,null,,,,,,,,,,,,,,
2668.60000000149,,directmemory_phase,1310021,GW/hat.jpg,,,,50,,,0,0.2727272727272727,GW/gong.jpg,GW/camera.jpg,GW/soldier.jpg,GW/gong.jpg,GW/soldier.jpg,GW/camera.jpg,0.5,closer,,
null,,html-keyboard-response,1311024,<p></p>,,,,null,,,,,,,,,,,,,,
1851,,directmemory_phase,1312876,GW/teeth.jpg,,,,50,,,1,0.30434782608695654,GW/snail.jpg,GW/dustpan.jpg,GW/jukebox.jpg,GW/dustpan.jpg,GW/snail.jpg,GW/jukebox.jpg,1,,,
null,,html-keyboard-response,1313879,<p></p>,,,,null,,,,,,,,,,,,,,
1023.0999999996275,,directmemory_phase,1314903,GW/jukebox.jpg,,,,50,,,1,0.3333333333333333,GW/dustpan.jpg,GW/basket.jpg,GW/soldier.jpg,GW/basket.jpg,GW/dustpan.jpg,GW/soldier.jpg,1,,,
null,,html-keyboard-response,1315905,<p></p>,,,,null,,,,,,,,,,,,,,
2357,,directmemory_phase,1318263,GW/dustpan.jpg,,,,49,,,0,0.32,GW/barrel.jpg,GW/globe.jpg,GW/hat.jpg,GW/hat.jpg,GW/globe.jpg,GW/barrel.jpg,0.5,closer,,
null,,html-keyboard-response,1319265,<p></p>,,,,null,,,,,,,,,,,,,,
2528.4000000003725,,directmemory_phase,1321794,GW/globe.jpg,,,,51,,,0,0.3076923076923077,GW/teeth.jpg,GW/snail.jpg,GW/dustpan.jpg,GW/teeth.jpg,GW/dustpan.jpg,GW/snail.jpg,0.5,closer,,
null,,html-keyboard-response,1322797,<p></p>,,,,null,,,,,,,,,,,,,,
1733.9000000003725,,directmemory_phase,1324532,GW/hat.jpg,,,,51,,,0,0.2962962962962963,GW/jukebox.jpg,GW/wheelchair.jpg,GW/snail.jpg,GW/jukebox.jpg,GW/snail.jpg,GW/wheelchair.jpg,0.5,closer,,
null,,html-keyboard-response,1325534,<p></p>,,,,null,,,,,,,,,,,,,,
1773.1000000014901,,directmemory_phase,1327308,GW/basket.jpg,,,,50,,,0,0.2857142857142857,GW/gong.jpg,GW/snail.jpg,GW/camera.jpg,GW/camera.jpg,GW/snail.jpg,GW/gong.jpg,0.5,closer,,
null,,html-keyboard-response,1328310,<p></p>,,,,null,,,,,,,,,,,,,,
747.3000000007451,,directmemory_phase,1329059,GW/snail.jpg,,,,50,,,1,0.3103448275862069,GW/basket.jpg,GW/jukebox.jpg,GW/camera.jpg,GW/jukebox.jpg,GW/basket.jpg,GW/camera.jpg,1,,,
null,,html-keyboard-response,1330062,<p></p>,,,,null,,,,,,,,,,,,,,
908.8000000007451,,directmemory_phase,1330971,GW/barrel.jpg,,,,50,,,0,0.3,GW/basket.jpg,GW/hat.jpg,GW/snail.jpg,GW/basket.jpg,GW/snail.jpg,GW/hat.jpg,0.5,closer,,
null,,html-keyboard-response,1331974,<p></p>,,,,null,,,,,,,,,,,,,,
1463.7999999988824,,directmemory_phase,1333438,,,,,50,,,1,0.3225806451612903,,,,,,,0.5,closer,,
null,,html-keyboard-response,1334441,<p></p>,,,,null,,,,,,,,,,,,,,
1568.2999999988824,,directmemory_phase,1336010,,,,,49,,,1,0.34375,,,,,,,0.5,closer,,
null,,html-keyboard-response,1337012,<p></p>,,,,null,,,,,,,,,,,,,,
6555.4000000003725,,intro_1,1343569,instruct,,0,,,,,,,,,,,,,,,,
5702.10000000149,,intro_2,1349273,instruct,,1,Next,,,,,,,,,,,,,,,
1792.199999999255,,intro_3,1351067,instruct,,1,Next,,,,,,,,,,,,,,,
6175.5,,intro_4,1357244,instruct,,1,Next,,,,,,,,,,,,,,,
2910.199999999255,,intro_5,1360156,instruct,,1,Next,,,,,,,,,,,,,,,
1192.7999999988824,,intro_6,1361350,instruct,,1,Next,,,,,,,,,,,,,,,
3358.7999999988824,,intro_7,1364710,instruct,,1,Next,,,,,,,,,,,,,,,
4116.300000000745,,intro_8,1368828,instruct,,1,Next,,,,,,,,,,,,,,,
1334.699999999255,,shortestpath_phase,1370164,GW/teeth.jpg,,,,50,GW/basket.jpg,GW/soldier.jpg,1,1,,,,GW/soldier.jpg,,,,,Two Edge Diff,Two Edge Four Edge
null,,html-keyboard-response,1371166,<p></p>,,,,null,,,,,,,,,,,,,,
1573.9000000003725,,shortestpath_phase,1372741,GW/wheelchair.jpg,,,,50,GW/teeth.jpg,GW/paint.jpg,1,1,,,,GW/paint.jpg,,,,,Three Edge Diff,Three Edge Six Edge
null,,html-keyboard-response,1373745,<p></p>,,,,null,,,,,,,,,,,,,,
1741.699999999255,,shortestpath_phase,1375488,GW/basket.jpg,,,,50,GW/globe.jpg,GW/gong.jpg,1,1,,,,GW/gong.jpg,,,,,Two Edge Diff,Three Edge Five Edge
null,,html-keyboard-response,1376491,<p></p>,,,,null,,,,,,,,,,,,,,
1448.2000000011176,,shortestpath_phase,1377940,GW/wheelchair.jpg,,,,50,GW/dustpan.jpg,GW/soldier.jpg,0,0.75,,,,GW/dustpan.jpg,,,,,One Edge Diff,Five Edge Six Edge
null,,html-keyboard-response,1378944,<p></p>,,,,null,,,,,,,,,,,,,,
1169.0999999996275,,shortestpath_phase,1380114,GW/jukebox.jpg,,,,50,GW/paint.jpg,GW/globe.jpg,0,0.6,,,,GW/paint.jpg,,,,,Two Edge Diff,Two Edge Four Edge
null,,html-keyboard-response,1381117,<p></p>,,,,null,,,,,,,,,,,,,,
1347.2999999988824,,shortestpath_phase,1382465,GW/camera.jpg,,,,49,GW/barrel.jpg,GW/teeth.jpg,1,0.6666666666666666,,,,GW/barrel.jpg,,,,,Three Edge Diff,Two Edge Five Edge
null,,html-keyboard-response,1383468,<p></p>,,,,null,,,,,,,,,,,,,,
774.5,,shortestpath_phase,1384243,GW/wheelchair.jpg,,,,50,GW/gong.jpg,GW/paint.jpg,1,0.7142857142857143,,,,GW/paint.jpg,,,,,Two Edge Diff,Two Edge Four Edge
null,,html-keyboard-response,1385246,<p></p>,,,,null,,,,,,,,,,,,,,
784,,shortestpath_phase,1386031,GW/teeth.jpg,,,,50,GW/barrel.jpg,GW/snail.jpg,1,0.75,,,,GW/snail.jpg,,,,,Two Edge Diff,Two Edge Four Edge
null,,html-keyboard-response,1387034,<p></p>,,,,null,,,,,,,,,,,,,,
454,,shortestpath_phase,1387489,GW/globe.jpg,,,,50,GW/jukebox.jpg,GW/wheelchair.jpg,0,0.6666666666666666,,,,GW/jukebox.jpg,,,,,Two Edge Diff,Four Edge Six Edge
null,,html-keyboard-response,1388492,<p></p>,,,,null,,,,,,,,,,,,,,
989.3000000007451,,shortestpath_phase,1389482,GW/soldier.jpg,,,,50,GW/barrel.jpg,GW/hat.jpg,1,0.7,,,,GW/hat.jpg,,,,,Three Edge Diff,Three Edge Six Edge
null,,html-keyboard-response,1390485,<p></p>,,,,null,,,,,,,,,,,,,,
549.5999999996275,,shortestpath_phase,1391036,GW/globe.jpg,,,,50,GW/basket.jpg,GW/wheelchair.jpg,0,0.6363636363636364,,,,GW/basket.jpg,,,,,One Edge Diff,Five Edge Six Edge
null,,html-keyboard-response,1392038,<p></p>,,,,null,,,,,,,,,,,,,,
1078.300000000745,,shortestpath_phase,1393118,GW/hat.jpg,,,,49,GW/camera.jpg,GW/wheelchair.jpg,1,0.6666666666666666,,,,GW/camera.jpg,,,,,One Edge Diff,Three Edge Four Edge
null,,html-keyboard-response,1394121,<p></p>,,,,null,,,,,,,,,,,,,,
1677.5,,shortestpath_phase,1395800,GW/globe.jpg,,,,49,GW/soldier.jpg,GW/basket.jpg,1,0.6923076923076923,,,,GW/soldier.jpg,,,,,Two Edge Diff,Three Edge Five Edge
null,,html-keyboard-response,1396802,<p></p>,,,,null,,,,,,,,,,,,,,
973,,shortestpath_phase,1397776,GW/wheelchair.jpg,,,,49,GW/dustpan.jpg,GW/paint.jpg,0,0.6428571428571429,,,,GW/paint.jpg,,,,,Three Edge Diff,Three Edge Six Edge
null,,html-keyboard-response,1398780,<p></p>,,,,null,,,,,,,,,,,,,,
1551.7000000011176,,shortestpath_phase,1400333,GW/teeth.jpg,,,,49,GW/barrel.jpg,GW/wheelchair.jpg,1,0.6666666666666666,,,,GW/barrel.jpg,,,,,One Edge Diff,Four Edge Five Edge
null,,html-keyboard-response,1401335,<p></p>,,,,null,,,,,,,,,,,,,,
1554.2000000011176,,shortestpath_phase,1402891,GW/paint.jpg,,,,49,GW/basket.jpg,GW/soldier.jpg,1,0.6875,,,,GW/basket.jpg,,,,,Two Edge Diff,Two Edge Four Edge
null,,html-keyboard-response,1403892,<p></p>,,,,null,,,,,,,,,,,,,,
2530.39999999851,,shortestpath_phase,1406424,GW/wheelchair.jpg,,,,49,GW/globe.jpg,GW/dustpan.jpg,0,0.6470588235294118,,,,GW/dustpan.jpg,,,,,One Edge Diff,Five Edge Six Edge
null,,html-keyboard-response,1407426,<p></p>,,,,null,,,,,,,,,,,,,,
1993.800000000745,,shortestpath_phase,1409421,GW/camera.jpg,,,,49,GW/soldier.jpg,GW/snail.jpg,0,0.6111111111111112,,,,GW/snail.jpg,,,,,Two Edge Diff,Three Edge Five Edge
null,,html-keyboard-response,1410423,<p></p>,,,,null,,,,,,,,,,,,,,
2297.699999999255,,shortestpath_phase,1412722,GW/teeth.jpg,,,,49,GW/hat.jpg,GW/paint.jpg,1,0.631578947368421,,,,GW/hat.jpg,,,,,One Edge Diff,Two Edge Three Edge
null,,html-keyboard-response,1413724,<p></p>,,,,null,,,,,,,,,,,,,,
3442.7000000011176,,shortestpath_phase,1417168,GW/globe.jpg,,,,49,GW/snail.jpg,GW/jukebox.jpg,1,0.65,,,,GW/snail.jpg,,,,,One Edge Diff,Three Edge Four Edge
null,,html-keyboard-response,1418171,<p></p>,,,,null,,,,,,,,,,,,,,
3286.9000000003725,,shortestpath_phase,1421459,GW/wheelchair.jpg,,,,49,GW/globe.jpg,GW/teeth.jpg,0,0.6190476190476191,,,,GW/teeth.jpg,,,,,One Edge Diff,Five Edge Six Edge
null,,html-keyboard-response,1422461,<p></p>,,,,null,,,,,,,,,,,,,,
2802.4000000003725,,shortestpath_phase,1425265,GW/basket.jpg,,,,49,GW/globe.jpg,GW/snail.jpg,0,0.5909090909090909,,,,GW/snail.jpg,,,,,Three Edge Diff,Two Edge Five Edge
null,,html-keyboard-response,1426268,<p></p>,,,,null,,,,,,,,,,,,,,
1238.0999999996275,,shortestpath_phase,1427507,GW/soldier.jpg,,,,50,GW/wheelchair.jpg,GW/camera.jpg,1,0.6086956521739131,,,,GW/camera.jpg,,,,,One Edge Diff,Five Edge Six Edge
null,,html-keyboard-response,1428510,<p></p>,,,,null,,,,,,,,,,,,,,
2747.5,,shortestpath_phase,1431258,GW/globe.jpg,,,,50,GW/wheelchair.jpg,GW/gong.jpg,1,0.625,,,,GW/gong.jpg,,,,,Four Edge Diff,Two Edge Six Edge
null,,html-keyboard-response,1432261,<p></p>,,,,null,,,,,,,,,,,,,,
1897.9000000003725,,shortestpath_phase,1434160,GW/soldier.jpg,,,,49,GW/camera.jpg,GW/basket.jpg,0,0.6,,,,GW/basket.jpg,,,,,One Edge Diff,Four Edge Five Edge
null,,html-keyboard-response,1435163,<p></p>,,,,null,,,,,,,,,,,,,,
2464.10000000149,,shortestpath_phase,1437628,GW/wheelchair.jpg,,,,49,GW/hat.jpg,GW/paint.jpg,0,0.5769230769230769,,,,GW/paint.jpg,,,,,Two Edge Diff,Two Edge Four Edge
null,,html-keyboard-response,1438631,<p></p>,,,,null,,,,,,,,,,,,,,
692.9000000003725,,shortestpath_phase,1439325,GW/soldier.jpg,,,,49,GW/camera.jpg,GW/snail.jpg,0,0.5555555555555556,,,,GW/snail.jpg,,,,,Two Edge Diff,Three Edge Five Edge
null,,html-keyboard-response,1440327,<p></p>,,,,null,,,,,,,,,,,,,,
2344.10000000149,,shortestpath_phase,1442672,GW/camera.jpg,,,,49,GW/barrel.jpg,GW/soldier.jpg,1,0.5714285714285714,,,,GW/barrel.jpg,,,,,Three Edge Diff,Three Edge Six Edge
null,,html-keyboard-response,1443674,<p></p>,,,,null,,,,,,,,,,,,,,
1935.5999999996275,,shortestpath_phase,1445611,GW/wheelchair.jpg,,,,49,GW/soldier.jpg,GW/hat.jpg,0,0.5517241379310345,,,,GW/hat.jpg,,,,,Two Edge Diff,Four Edge Six Edge
null,,html-keyboard-response,1446613,<p></p>,,,,null,,,,,,,,,,,,,,
775.8999999985099,,shortestpath_phase,1447390,GW/teeth.jpg,,,,49,GW/camera.jpg,GW/jukebox.jpg,0,0.5333333333333333,,,,GW/jukebox.jpg,,,,,Two Edge Diff,Three Edge Five Edge
null,,html-keyboard-response,1448392,<p></p>,,,,null,,,,,,,,,,,,,,
1873.5,,shortestpath_phase,1450267,GW/camera.jpg,,,,49,GW/wheelchair.jpg,GW/soldier.jpg,1,0.5483870967741935,,,,GW/wheelchair.jpg,,,,,Two Edge Diff,Three Edge Five Edge
null,,html-keyboard-response,1451269,<p></p>,,,,null,,,,,,,,,,,,,,
5166.4000000003725,,shortestpath_phase,1456437,GW/globe.jpg,,,,49,GW/basket.jpg,GW/paint.jpg,0,0.53125,,,,GW/paint.jpg,,,,,One Edge Diff,Four Edge Five Edge
null,,html-keyboard-response,1457440,<p></p>,,,,null,,,,,,,,,,,,,,
2349.9000000003725,,shortestpath_phase,1459791,GW/camera.jpg,,,,49,GW/jukebox.jpg,GW/teeth.jpg,1,0.5454545454545454,,,,GW/jukebox.jpg,,,,,Three Edge Diff,Three Edge Six Edge
null,,html-keyboard-response,1460794,<p></p>,,,,null,,,,,,,,,,,,,,
338.40000000037253,,shortestpath_phase,1461134,GW/soldier.jpg,,,,49,GW/basket.jpg,GW/teeth.jpg,0,0.5294117647058824,,,,GW/teeth.jpg,,,,,Two Edge Diff,Two Edge Four Edge
null,,html-keyboard-response,1462136,<p></p>,,,,null,,,,,,,,,,,,,,
985.2999999988824,,shortestpath_phase,1463122,GW/camera.jpg,,,,49,GW/soldier.jpg,GW/paint.jpg,0,0.5142857142857142,,,,GW/paint.jpg,,,,,Two Edge Diff,Three Edge Five Edge
null,,html-keyboard-response,1464125,<p></p>,,,,null,,,,,,,,,,,,,,
1593.5,,shortestpath_phase,1465719,GW/teeth.jpg,,,,49,GW/camera.jpg,GW/snail.jpg,0,0.5,,,,GW/snail.jpg,,,,,Three Edge Diff,Two Edge Five Edge
null,,html-keyboard-response,1466721,<p></p>,,,,null,,,,,,,,,,,,,,
1475.9000000003725,,shortestpath_phase,1468199,GW/barrel.jpg,,,,50,GW/jukebox.jpg,GW/soldier.jpg,0,0.4864864864864865,,,,GW/jukebox.jpg,,,,,Three Edge Diff,Two Edge Five Edge
null,,html-keyboard-response,1469202,<p></p>,,,,null,,,,,,,,,,,,,,
1024.300000000745,,shortestpath_phase,1470227,GW/soldier.jpg,,,,50,GW/teeth.jpg,GW/jukebox.jpg,0,0.47368421052631576,,,,GW/teeth.jpg,,,,,One Edge Diff,Two Edge Three Edge
null,,html-keyboard-response,1471229,<p></p>,,,,null,,,,,,,,,,,,,,
2422.5,,shortestpath_phase,1473653,GW/basket.jpg,,,,50,GW/snail.jpg,GW/teeth.jpg,0,0.46153846153846156,,,,GW/snail.jpg,,,,,Two Edge Diff,Two Edge Four Edge
null,,html-keyboard-response,1474656,<p></p>,,,,null,,,,,,,,,,,,,,
1846,,shortestpath_phase,1476503,GW/teeth.jpg,,,,50,GW/basket.jpg,GW/hat.jpg,1,0.475,,,,GW/hat.jpg,,,,,Two Edge Diff,Two Edge Four Edge
null,,html-keyboard-response,1477506,<p></p>,,,,null,,,,,,,,,,,,,,
2105,,shortestpath_phase,1479612,GW/paint.jpg,,,,50,GW/globe.jpg,GW/camera.jpg,1,0.4878048780487805,,,,GW/camera.jpg,,,,,One Edge Diff,Three Edge Four Edge
null,,html-keyboard-response,1480615,<p></p>,,,,null,,,,,,,,,,,,,,
2331.7999999988824,,shortestpath_phase,1482948,GW/teeth.jpg,,,,50,GW/basket.jpg,GW/camera.jpg,0,0.47619047619047616,,,,GW/basket.jpg,,,,,One Edge Diff,Four Edge Five Edge
null,,html-keyboard-response,1483950,<p></p>,,,,null,,,,,,,,,,,,,,
3088,,shortestpath_phase,1487039,GW/globe.jpg,,,,49,GW/barrel.jpg,GW/camera.jpg,1,0.4883720930232558,,,,GW/barrel.jpg,,,,,One Edge Diff,Five Edge Six Edge
null,,html-keyboard-response,1488042,<p></p>,,,,null,,,,,,,,,,,,,,
1834.800000000745,,shortestpath_phase,1489878,GW/soldier.jpg,,,,50,GW/teeth.jpg,GW/barrel.jpg,0,0.4772727272727273,,,,GW/teeth.jpg,,,,,Three Edge Diff,Two Edge Five Edge
null,,html-keyboard-response,1490881,<p></p>,,,,null,,,,,,,,,,,,,,
1207.7000000011176,,shortestpath_phase,1492090,GW/hat.jpg,,,,50,GW/globe.jpg,GW/snail.jpg,1,0.4888888888888889,,,,GW/snail.jpg,,,,,One Edge Diff,Two Edge Three Edge
null,,html-keyboard-response,1493093,<p></p>,,,,null,,,,,,,,,,,,,,
1089.7999999988824,,shortestpath_phase,1494184,GW/dustpan.jpg,,,,50,GW/wheelchair.jpg,GW/globe.jpg,1,0.5,,,,GW/globe.jpg,,,,,Three Edge Diff,Two Edge Five Edge
null,,html-keyboard-response,1495186,<p></p>,,,,null,,,,,,,,,,,,,,
1540.4000000003725,,shortestpath_phase,1496728,GW/soldier.jpg,,,,50,GW/hat.jpg,GW/snail.jpg,0,0.48936170212765956,,,,GW/hat.jpg,,,,,One Edge Diff,Two Edge Three Edge
null,,html-keyboard-response,1497730,<p></p>,,,,null,,,,,,,,,,,,,,
2364.9000000003725,,shortestpath_phase,1500096,GW/barrel.jpg,,,,50,GW/dustpan.jpg,GW/gong.jpg,1,0.5,,,,GW/gong.jpg,,,,,One Edge Diff,Three Edge Four Edge
null,,html-keyboard-response,1501099,<p></p>,,,,null,,,,,,,,,,,,,,
810.2000000011176,,shortestpath_phase,1501910,GW/paint.jpg,,,,50,GW/hat.jpg,GW/soldier.jpg,0,0.4897959183673469,,,,GW/hat.jpg,,,,,One Edge Diff,Three Edge Four Edge
null,,html-keyboard-response,1502913,<p></p>,,,,null,,,,,,,,,,,,,,
1396.5999999996275,,shortestpath_phase,1504311,GW/camera.jpg,,,,50,GW/wheelchair.jpg,GW/gong.jpg,0,0.48,,,,GW/wheelchair.jpg,,,,,One Edge Diff,Three Edge Four Edge
null,,html-keyboard-response,1505313,<p></p>,,,,null,,,,,,,,,,,,,,
1057.0999999996275,,shortestpath_phase,1506372,GW/globe.jpg,,,,49,GW/basket.jpg,GW/jukebox.jpg,0,0.47058823529411764,,,,GW/jukebox.jpg,,,,,One Edge Diff,Four Edge Five Edge
null,,html-keyboard-response,1507374,<p></p>,,,,null,,,,,,,,,,,,,,
1643.7999999988824,,shortestpath_phase,1509019,GW/barrel.jpg,,,,50,GW/dustpan.jpg,GW/soldier.jpg,0,0.46153846153846156,,,,GW/dustpan.jpg,,,,,One Edge Diff,Four Edge Five Edge
null,,html-keyboard-response,1510021,<p></p>,,,,null,,,,,,,,,,,,,,
1354.2000000011176,,shortestpath_phase,1511376,GW/globe.jpg,,,,50,GW/basket.jpg,GW/camera.jpg,0,0.4528301886792453,,,,GW/basket.jpg,,,,,One Edge Diff,Five Edge Six Edge
null,,html-keyboard-response,1512379,<p></p>,,,,null,,,,,,,,,,,,,,
1619,,shortestpath_phase,1513999,GW/camera.jpg,,,,49,GW/teeth.jpg,GW/globe.jpg,1,0.46296296296296297,,,,GW/teeth.jpg,,,,,One Edge Diff,Five Edge Six Edge
null,,html-keyboard-response,1515002,<p></p>,,,,null,,,,,,,,,,,,,,
866.6999999992549,,shortestpath_phase,1515870,GW/globe.jpg,,,,50,GW/paint.jpg,GW/barrel.jpg,0,0.45454545454545453,,,,GW/paint.jpg,,,,,One Edge Diff,Four Edge Five Edge
null,,html-keyboard-response,1516872,<p></p>,,,,null,,,,,,,,,,,,,,
1575.800000000745,,shortestpath_phase,1518449,GW/wheelchair.jpg,,,,50,GW/teeth.jpg,GW/gong.jpg,1,0.4642857142857143,,,,GW/gong.jpg,,,,,One Edge Diff,Four Edge Five Edge
null,,html-keyboard-response,1519452,<p></p>,,,,null,,,,,,,,,,,,,,
4207.200000001118,,shortestpath_phase,1523661,GW/globe.jpg,,,,50,GW/barrel.jpg,GW/wheelchair.jpg,0,0.45614035087719296,,,,GW/barrel.jpg,,,,,One Edge Diff,Five Edge Six Edge
null,,html-keyboard-response,1524663,<p></p>,,,,null,,,,,,,,,,,,,,
320.09999999962747,,shortestpath_phase,1524984,GW/paint.jpg,,,,50,GW/jukebox.jpg,GW/soldier.jpg,0,0.4482758620689655,,,,GW/jukebox.jpg,,,,,Two Edge Diff,Two Edge Four Edge
null,,html-keyboard-response,1525987,<p></p>,,,,null,,,,,,,,,,,,,,
1623.4000000003725,,shortestpath_phase,1527611,GW/basket.jpg,,,,50,GW/gong.jpg,GW/wheelchair.jpg,1,0.4576271186440678,,,,GW/wheelchair.jpg,,,,,One Edge Diff,Two Edge Three Edge
null,,html-keyboard-response,1528614,<p></p>,,,,null,,,,,,,,,,,,,,
1560.0999999996275,,shortestpath_phase,1530175,GW/soldier.jpg,,,,50,GW/wheelchair.jpg,GW/paint.jpg,1,0.4666666666666667,,,,GW/paint.jpg,,,,,Two Edge Diff,Four Edge Six Edge
null,,html-keyboard-response,1531178,<p></p>,,,,null,,,,,,,,,,,,,,
1024.2999999988824,,shortestpath_phase,1532204,GW/camera.jpg,,,,49,GW/hat.jpg,GW/gong.jpg,1,0.47540983606557374,,,,GW/hat.jpg,,,,,One Edge Diff,Three Edge Four Edge
null,,html-keyboard-response,1533207,<p></p>,,,,null,,,,,,,,,,,,,,
876.6000000014901,,shortestpath_phase,1534085,GW/paint.jpg,,,,49,GW/teeth.jpg,GW/jukebox.jpg,0,0.46774193548387094,,,,GW/jukebox.jpg,,,,,One Edge Diff,Two Edge Three Edge
null,,html-keyboard-response,1535087,<p></p>,,,,null,,,,,,,,,,,,,,
383.30000000074506,,shortestpath_phase,1535472,GW/camera.jpg,,,,49,GW/hat.jpg,GW/dustpan.jpg,1,0.47619047619047616,,,,GW/hat.jpg,,,,,One Edge Diff,Three Edge Four Edge
null,,html-keyboard-response,1536474,<p></p>,,,,null,,,,,,,,,,,,,,
1409.699999999255,,shortestpath_phase,1537885,GW/paint.jpg,,,,49,GW/dustpan.jpg,GW/wheelchair.jpg,0,0.46875,,,,GW/wheelchair.jpg,,,,,One Edge Diff,Two Edge Three Edge
null,,html-keyboard-response,1538887,<p></p>,,,,null,,,,,,,,,,,,,,
573.2000000011176,,shortestpath_phase,1539462,GW/globe.jpg,,,,49,GW/jukebox.jpg,GW/barrel.jpg,1,0.47692307692307695,,,,GW/jukebox.jpg,,,,,One Edge Diff,Four Edge Five Edge
null,,html-keyboard-response,1540464,<p></p>,,,,null,,,,,,,,,,,,,,
224.30000000074506,,shortestpath_phase,1540690,GW/soldier.jpg,,,,49,GW/wheelchair.jpg,GW/teeth.jpg,0,0.4696969696969697,,,,GW/teeth.jpg,,,,,Four Edge Diff,Two Edge Six Edge
null,,html-keyboard-response,1541693,<p></p>,,,,null,,,,,,,,,,,,,,
382.40000000037253,,shortestpath_phase,1542077,GW/globe.jpg,,,,50,GW/barrel.jpg,GW/gong.jpg,1,0.47761194029850745,,,,GW/gong.jpg,,,,,Three Edge Diff,Three Edge Six Edge
null,,html-keyboard-response,1543080,<p></p>,,,,null,,,,,,,,,,,,,,
817.8000000007451,,shortestpath_phase,1543899,GW/soldier.jpg,,,,50,GW/basket.jpg,GW/wheelchair.jpg,0,0.47058823529411764,,,,GW/basket.jpg,,,,,Two Edge Diff,Four Edge Six Edge
null,,html-keyboard-response,1544901,<p></p>,,,,null,,,,,,,,,,,,,,
643.2000000011176,,shortestpath_phase,1545546,GW/wheelchair.jpg,,,,50,GW/soldier.jpg,GW/teeth.jpg,1,0.4782608695652174,,,,GW/teeth.jpg,,,,,One Edge Diff,Five Edge Six Edge
null,,html-keyboard-response,1546548,<p></p>,,,,null,,,,,,,,,,,,,,
615,,shortestpath_phase,1547165,GW/soldier.jpg,,,,49,GW/camera.jpg,GW/globe.jpg,0,0.4714285714285714,,,,GW/globe.jpg,,,,,Two Edge Diff,Three Edge Five Edge
null,,html-keyboard-response,1548166,<p></p>,,,,null,,,,,,,,,,,,,,
669.0999999996275,,shortestpath_phase,1548837,GW/basket.jpg,,,,50,GW/dustpan.jpg,GW/snail.jpg,1,0.4788732394366197,,,,GW/snail.jpg,,,,,One Edge Diff,Two Edge Three Edge
null,,html-keyboard-response,1549840,<p></p>,,,,null,,,,,,,,,,,,,,
501.59999999962747,,shortestpath_phase,1550343,GW/globe.jpg,,,,50,GW/wheelchair.jpg,GW/paint.jpg,1,0.4861111111111111,,,,GW/paint.jpg,,,,,Two Edge Diff,Four Edge Six Edge
null,,html-keyboard-response,1551346,<p></p>,,,,null,,,,,,,,,,,,,,
590.8000000007451,,shortestpath_phase,1551938,GW/barrel.jpg,,,,50,GW/globe.jpg,GW/jukebox.jpg,1,0.4931506849315068,,,,GW/jukebox.jpg,,,,,Three Edge Diff,Three Edge Six Edge
null,,html-keyboard-response,1552941,<p></p>,,,,null,,,,,,,,,,,,,,
754.4000000003725,,shortestpath_phase,1553697,GW/globe.jpg,,,,50,GW/barrel.jpg,GW/dustpan.jpg,1,0.5,,,,GW/dustpan.jpg,,,,,Three Edge Diff,Three Edge Six Edge
null,,html-keyboard-response,1554700,<p></p>,,,,null,,,,,,,,,,,,,,
391.7999999988824,,shortestpath_phase,1555093,GW/soldier.jpg,,,,50,GW/teeth.jpg,GW/camera.jpg,0,0.49333333333333335,,,,GW/teeth.jpg,,,,,Three Edge Diff,Two Edge Five Edge
null,,html-keyboard-response,1556096,<p></p>,,,,null,,,,,,,,,,,,,,
342,,shortestpath_phase,1556439,GW/globe.jpg,,,,50,GW/dustpan.jpg,GW/barrel.jpg,0,0.4868421052631579,,,,GW/dustpan.jpg,,,,,Three Edge Diff,Two Edge Five Edge
null,,html-keyboard-response,1557442,<p></p>,,,,null,,,,,,,,,,,,,,
1966.0999999996275,,shortestpath_phase,1559409,GW/wheelchair.jpg,,,,49,GW/paint.jpg,GW/soldier.jpg,1,0.4935064935064935,,,,GW/paint.jpg,,,,,Four Edge Diff,Two Edge Six Edge
null,,html-keyboard-response,1560411,<p></p>,,,,null,,,,,,,,,,,,,,
333.6000000014901,,shortestpath_phase,1560746,GW/barrel.jpg,,,,50,GW/soldier.jpg,GW/teeth.jpg,1,0.5,,,,GW/teeth.jpg,,,,,One Edge Diff,Four Edge Five Edge
null,,html-keyboard-response,1561749,<p></p>,,,,null,,,,,,,,,,,,,,
548.5,,shortestpath_phase,1562299,GW/paint.jpg,,,,50,GW/soldier.jpg,GW/camera.jpg,1,0.5063291139240507,,,,GW/camera.jpg,,,,,One Edge Diff,Three Edge Four Edge
null,,html-keyboard-response,1563300,<p></p>,,,,null,,,,,,,,,,,,,,
939,,shortestpath_phase,1564241,GW/globe.jpg,,,,50,GW/camera.jpg,GW/jukebox.jpg,1,0.5125,,,,GW/jukebox.jpg,,,,,Two Edge Diff,Four Edge Six Edge
null,,html-keyboard-response,1565244,<p></p>,,,,null,,,,,,,,,,,,,,
497.69999999925494,,shortestpath_phase,1565743,GW/basket.jpg,,,,50,GW/teeth.jpg,GW/globe.jpg,0,0.5061728395061729,,,,GW/teeth.jpg,,,,,One Edge Diff,Four Edge Five Edge
null,,html-keyboard-response,1566745,<p></p>,,,,null,,,,,,,,,,,,,,
657.1999999992549,,shortestpath_phase,1567403,GW/globe.jpg,,,,49,GW/paint.jpg,GW/camera.jpg,1,0.5121951219512195,,,,GW/paint.jpg,,,,,Two Edge Diff,Four Edge Six Edge
null,,html-keyboard-response,1568405,<p></p>,,,,null,,,,,,,,,,,,,,
204,,shortestpath_phase,1568610,GW/camera.jpg,,,,49,GW/globe.jpg,GW/dustpan.jpg,0,0.5060240963855421,,,,GW/dustpan.jpg,,,,,Two Edge Diff,Four Edge Six Edge
null,,html-keyboard-response,1569612,<p></p>,,,,null,,,,,,,,,,,,,,
260.30000000074506,,shortestpath_phase,1569874,GW/wheelchair.jpg,,,,50,GW/basket.jpg,GW/globe.jpg,0,0.5,,,,GW/basket.jpg,,,,,Four Edge Diff,Two Edge Six Edge
null,,html-keyboard-response,1570876,<p></p>,,,,null,,,,,,,,,,,,,,
385.5,,shortestpath_phase,1571263,GW/hat.jpg,,,,50,GW/paint.jpg,GW/teeth.jpg,1,0.5058823529411764,,,,GW/teeth.jpg,,,,,One Edge Diff,Two Edge Three Edge
null,,html-keyboard-response,1572265,<p></p>,,,,null,,,,,,,,,,,,,,
1014.5,,shortestpath_phase,1573281,GW/camera.jpg,,,,49,GW/soldier.jpg,GW/globe.jpg,1,0.5116279069767442,,,,GW/soldier.jpg,,,,,One Edge Diff,Five Edge Six Edge
null,,html-keyboard-response,1574284,<p></p>,,,,null,,,,,,,,,,,,,,
422.19999999925494,,shortestpath_phase,1574707,GW/teeth.jpg,,,,49,GW/wheelchair.jpg,GW/jukebox.jpg,0,0.5057471264367817,,,,GW/jukebox.jpg,,,,,Two Edge Diff,Three Edge Five Edge
null,,html-keyboard-response,1575710,<p></p>,,,,null,,,,,,,,,,,,,,
674.8000000007451,,shortestpath_phase,1576386,GW/camera.jpg,,,,49,GW/globe.jpg,GW/gong.jpg,0,0.5,,,,GW/gong.jpg,,,,,Two Edge Diff,Four Edge Six Edge
null,,html-keyboard-response,1577389,<p></p>,,,,null,,,,,,,,,,,,,,
332.90000000037253,,shortestpath_phase,1577723,GW/soldier.jpg,,,,49,GW/barrel.jpg,GW/basket.jpg,0,0.4943820224719101,,,,GW/basket.jpg,,,,,One Edge Diff,Four Edge Five Edge
null,,html-keyboard-response,1578726,<p></p>,,,,null,,,,,,,,,,,,,,
148.7999999988824,,shortestpath_phase,1578876,GW/gong.jpg,,,,49,GW/camera.jpg,GW/jukebox.jpg,0,0.4888888888888889,,,,GW/jukebox.jpg,,,,,Two Edge Diff,Two Edge Four Edge
null,,html-keyboard-response,1579878,<p></p>,,,,null,,,,,,,,,,,,,,
261.6000000014901,,shortestpath_phase,1580141,GW/camera.jpg,,,,50,GW/barrel.jpg,GW/globe.jpg,0,0.4835164835164835,,,,GW/barrel.jpg,,,,,Four Edge Diff,Two Edge Six Edge
null,,html-keyboard-response,1581144,<p></p>,,,,null,,,,,,,,,,,,,,
620.0999999996275,,shortestpath_phase,1581765,GW/globe.jpg,,,,50,GW/dustpan.jpg,GW/wheelchair.jpg,0,0.4782608695652174,,,,GW/dustpan.jpg,,,,,Four Edge Diff,Two Edge Six Edge
null,,html-keyboard-response,1582767,<p></p>,,,,null,,,,,,,,,,,,,,
23.699999999254942,,shortestpath_phase,1582792,GW/barrel.jpg,,,,50,GW/soldier.jpg,GW/jukebox.jpg,1,0.4838709677419355,,,,GW/jukebox.jpg,,,,,Three Edge Diff,Three Edge Six Edge
null,,html-keyboard-response,1583794,<p></p>,,,,null,,,,,,,,,,,,,,
1202.2999999988824,,shortestpath_phase,1584998,GW/soldier.jpg,,,,50,GW/hat.jpg,GW/wheelchair.jpg,0,0.4787234042553192,,,,GW/hat.jpg,,,,,Four Edge Diff,Two Edge Six Edge
null,,html-keyboard-response,1586000,<p></p>,,,,null,,,,,,,,,,,,,,
256.2999999988824,,shortestpath_phase,1586258,GW/wheelchair.jpg,,,,50,GW/basket.jpg,GW/teeth.jpg,0,0.47368421052631576,,,,GW/basket.jpg,,,,,Three Edge Diff,Two Edge Five Edge
null,,html-keyboard-response,1587262,<p></p>,,,,null,,,,,,,,,,,,,,
634.3000000007451,,shortestpath_phase,1587897,GW/soldier.jpg,,,,50,GW/camera.jpg,GW/jukebox.jpg,1,0.4791666666666667,,,,GW/jukebox.jpg,,,,,Two Edge Diff,Three Edge Five Edge
null,,html-keyboard-response,1588900,<p></p>,,,,null,,,,,,,,,,,,,,
322.90000000037253,,shortestpath_phase,1589224,GW/basket.jpg,,,,50,GW/dustpan.jpg,GW/soldier.jpg,0,0.4742268041237113,,,,GW/dustpan.jpg,,,,,One Edge Diff,Three Edge Four Edge
null,,html-keyboard-response,1590226,<p></p>,,,,null,,,,,,,,,,,,,,
279.40000000037253,,shortestpath_phase,1590507,GW/globe.jpg,,,,50,GW/gong.jpg,GW/barrel.jpg,0,0.46938775510204084,,,,GW/gong.jpg,,,,,Three Edge Diff,Two Edge Five Edge
null,,html-keyboard-response,1591510,<p></p>,,,,null,,,,,,,,,,,,,,
577.1999999992549,,shortestpath_phase,1592088,GW/paint.jpg,,,,50,GW/globe.jpg,GW/jukebox.jpg,1,0.47474747474747475,,,,GW/jukebox.jpg,,,,,Two Edge Diff,Two Edge Four Edge
null,,html-keyboard-response,1593091,<p></p>,,,,null,,,,,,,,,,,,,,
691.4000000003725,,shortestpath_phase,1593784,GW/wheelchair.jpg,,,,50,GW/globe.jpg,GW/gong.jpg,1,0.48,,,,GW/gong.jpg,,,,,Two Edge Diff,Four Edge Six Edge
null,,html-keyboard-response,1594787,<p></p>,,,,null,,,,,,,,,,,,,,
346,,shortestpath_phase,1595134,GW/globe.jpg,,,,50,GW/dustpan.jpg,GW/basket.jpg,0,0.4752475247524752,,,,GW/dustpan.jpg,,,,,Three Edge Diff,Three Edge Six Edge
null,,html-keyboard-response,1596136,<p></p>,,,,null,,,,,,,,,,,,,,
521.4000000003725,,shortestpath_phase,1596659,GW/wheelchair.jpg,,,,50,GW/globe.jpg,GW/hat.jpg,1,0.4803921568627451,,,,GW/hat.jpg,,,,,Two Edge Diff,Four Edge Six Edge
null,,html-keyboard-response,1597661,<p></p>,,,,null,,,,,,,,,,,,,,
191.40000000037253,,shortestpath_phase,1597854,GW/snail.jpg,,,,49,GW/barrel.jpg,GW/globe.jpg,1,0.4854368932038835,,,,GW/barrel.jpg,,,,,One Edge Diff,Two Edge Three Edge
null,,html-keyboard-response,1598858,<p></p>,,,,null,,,,,,,,,,,,,,
98.20000000111759,,shortestpath_phase,1598957,GW/wheelchair.jpg,,,,50,GW/soldier.jpg,GW/gong.jpg,1,0.49038461538461536,,,,GW/gong.jpg,,,,,Two Edge Diff,Four Edge Six Edge
null,,html-keyboard-response,1599959,<p></p>,,,,null,,,,,,,,,,,,,,
783.2999999988824,,shortestpath_phase,1600744,GW/soldier.jpg,,,,50,GW/hat.jpg,GW/camera.jpg,0,0.4857142857142857,,,,GW/hat.jpg,,,,,Three Edge Diff,Two Edge Five Edge
null,,html-keyboard-response,1601748,<p></p>,,,,null,,,,,,,,,,,,,,
122.19999999925494,,shortestpath_phase,1601871,GW/wheelchair.jpg,,,,49,GW/soldier.jpg,GW/basket.jpg,0,0.4811320754716981,,,,GW/basket.jpg,,,,,Four Edge Diff,Two Edge Six Edge
null,,html-keyboard-response,1602874,<p></p>,,,,null,,,,,,,,,,,,,,
490.90000000037253,,shortestpath_phase,1603366,GW/soldier.jpg,,,,50,GW/wheelchair.jpg,GW/gong.jpg,1,0.48598130841121495,,,,GW/gong.jpg,,,,,Four Edge Diff,Two Edge Six Edge
null,,html-keyboard-response,1604369,<p></p>,,,,null,,,,,,,,,,,,,,
248.09999999962747,,shortestpath_phase,1604618,GW/basket.jpg,,,,50,GW/wheelchair.jpg,GW/globe.jpg,0,0.48148148148148145,,,,GW/wheelchair.jpg,,,,,Three Edge Diff,Two Edge Five Edge
null,,html-keyboard-response,1605621,<p></p>,,,,null,,,,,,,,,,,,,,
597.0999999996275,,shortestpath_phase,1606219,GW/jukebox.jpg,,,,50,GW/gong.jpg,GW/wheelchair.jpg,0,0.47706422018348627,,,,GW/gong.jpg,,,,,One Edge Diff,Two Edge Three Edge
null,,html-keyboard-response,1607221,<p></p>,,,,null,,,,,,,,,,,,,,
115.69999999925494,,shortestpath_phase,1607338,GW/wheelchair.jpg,,,,50,GW/paint.jpg,GW/globe.jpg,0,0.4727272727272727,,,,GW/paint.jpg,,,,,Four Edge Diff,Two Edge Six Edge
null,,html-keyboard-response,1608341,<p></p>,,,,null,,,,,,,,,,,,,,
501.40000000037253,,shortestpath_phase,1608844,GW/globe.jpg,,,,50,GW/gong.jpg,GW/camera.jpg,0,0.46846846846846846,,,,GW/gong.jpg,,,,,Four Edge Diff,Two Edge Six Edge
null,,html-keyboard-response,1609847,<p></p>,,,,null,,,,,,,,,,,,,,
365.2000000011176,,shortestpath_phase,1610214,GW/camera.jpg,,,,50,GW/wheelchair.jpg,GW/teeth.jpg,0,0.4642857142857143,,,,GW/wheelchair.jpg,,,,,Two Edge Diff,Three Edge Five Edge
null,,html-keyboard-response,1611216,<p></p>,,,,null,,,,,,,,,,,,,,
241.69999999925494,,shortestpath_phase,1611459,GW/teeth.jpg,,,,50,GW/snail.jpg,GW/paint.jpg,0,0.46017699115044247,,,,GW/snail.jpg,,,,,One Edge Diff,Two Edge Three Edge
null,,html-keyboard-response,1612461,<p></p>,,,,null,,,,,,,,,,,,,,
877.2000000011176,,shortestpath_phase,1613340,GW/camera.jpg,,,,49,GW/dustpan.jpg,GW/paint.jpg,0,0.45614035087719296,,,,GW/paint.jpg,,,,,One Edge Diff,Three Edge Four Edge
null,,html-keyboard-response,1614344,<p></p>,,,,null,,,,,,,,,,,,,,
727,,shortestpath_phase,1615072,GW/wheelchair.jpg,,,,49,GW/basket.jpg,GW/dustpan.jpg,1,0.4608695652173913,,,,GW/basket.jpg,,,,,Three Edge Diff,Three Edge Six Edge
null,,html-keyboard-response,1616074,<p></p>,,,,null,,,,,,,,,,,,,,
1291.2000000011176,,shortestpath_phase,1617367,GW/barrel.jpg,,,,49,GW/snail.jpg,GW/soldier.jpg,1,0.46551724137931033,,,,GW/snail.jpg,,,,,Three Edge Diff,Three Edge Six Edge
null,,html-keyboard-response,1618370,<p></p>,,,,null,,,,,,,,,,,,,,
1302.7999999988824,,shortestpath_phase,1619674,GW/jukebox.jpg,,,,50,GW/globe.jpg,GW/wheelchair.jpg,1,0.4700854700854701,,,,GW/wheelchair.jpg,,,,,One Edge Diff,Three Edge Four Edge
null,,html-keyboard-response,1620677,<p></p>,,,,null,,,,,,,,,,,,,,
667.1999999992549,,shortestpath_phase,1621345,GW/soldier.jpg,,,,50,GW/barrel.jpg,GW/globe.jpg,1,0.4745762711864407,,,,GW/globe.jpg,,,,,Two Edge Diff,Three Edge Five Edge
null,,html-keyboard-response,1622348,<p></p>,,,,null,,,,,,,,,,,,,,
681.1999999992549,,shortestpath_phase,1623031,GW/camera.jpg,,,,50,GW/jukebox.jpg,GW/globe.jpg,0,0.47058823529411764,,,,GW/jukebox.jpg,,,,,Four Edge Diff,Two Edge Six Edge
null,,html-keyboard-response,1624033,<p></p>,,,,null,,,,,,,,,,,,,,
526,,shortestpath_phase,1624560,GW/globe.jpg,,,,50,GW/camera.jpg,GW/dustpan.jpg,1,0.475,,,,GW/dustpan.jpg,,,,,Four Edge Diff,Two Edge Six Edge
null,,html-keyboard-response,1625563,<p></p>,,,,null,,,,,,,,,,,,,,
146.59999999962747,,shortestpath_phase,1625711,GW/soldier.jpg,,,,50,GW/barrel.jpg,GW/wheelchair.jpg,0,0.47107438016528924,,,,GW/barrel.jpg,,,,,One Edge Diff,Five Edge Six Edge
null,,html-keyboard-response,1626714,<p></p>,,,,null,,,,,,,,,,,,,,
5449.0999999996275,,intro_1,1632164,instruct,,0,,,,,,,,,,,,,,,,
11425.199999999255,,intro_2,1643593,instruct,,1,Next,,,,,,,,,,,,,,,
3866.60000000149,,intro_3,1647409,instruct,,1,Next,,,,,,,,,,,,,,,
