rt,responses,trial_type,time_elapsed,stimulus,graphorder,button_pressed,response,key_press,stimulus_left,stimulus_right,accuracy,cumulative_accuracy,stimulus_down_left,stimulus_down_mid,stimulus_down_right,stimulus_correct,stimulus_short,stimulus_far,weighted_accuracy,missedtrial,condition,specific_pairs
17759.30000000447,{worker_id:5c1199258b095d00015cf0ec},id_enter,17766,id_enter,GW/wheelchair.jpg; GW/dustpan.jpg; GW/camera.jpg; GW/soldier.jpg; GW/jukebox.jpg; GW/basket.jpg; GW/globe.jpg; GW/snail.jpg; GW/barrel.jpg; GW/paint.jpg; GW/hat.jpg; GW/teeth.jpg; GW/gong.jpg,,,,,,,,,,,,,,,,,
8001.80000000447,,fullscreen,25786,fullscreen,,0,,,,,,,,,,,,,,,,
75975.70000000298,,intro_1,101764,instruct,,0,,,,,,,,,,,,,,,,
12425.10000000149,,intro_2,114196,instruct,,1,Next,,,,,,,,,,,,,,,
19284.39999999851,,intro_3,133483,instruct,,1,Next,,,,,,,,,,,,,,,
null,,learn_prac_1,135487,lean_prac_1,,,,null,,,,,,,,,,,,,,
null,,html-keyboard-response,136492,<p></p>,,,,null,,,,,,,,,,,,,,
3828.10000000149,,intro_1,140322,instruct,,0,,,,,,,,,,,,,,,,
6167,,intro_2,146491,instruct,,1,Next,,,,,,,,,,,,,,,
null,,learn_prac_2,148494,lean_prac_2,,,,null,,,,,,,,,,,,,,
null,,html-keyboard-response,149497,<p></p>,,,,null,,,,,,,,,,,,,,
1816.3000000044703,,intro_1,151315,instruct,,0,,,,,,,,,,,,,,,,
2604.7000000029802,,intro_2,153923,instruct,,1,Next,,,,,,,,,,,,,,,
22149,,intro_3,176075,instruct,,1,Next,,,,,,,,,,,,,,,
null,,prac_atten_color_black,177046,black_plus_sign,,,,null,,,,,,,,,,,,,,
null,,prac_atten_color,177481,prac_stop_color,,,,null,,,,,,,,,,,,,,
90.19999999552965,,prac_atten_color_black,179483,black_plus_sign,,,,49,,,,,,,,,,,,,,
null,,prac_atten_color_black,180455,black_plus_sign,,,,null,,,,,,,,,,,,,,
null,,prac_atten_color,181068,prac_stop_color,,,,null,,,,,,,,,,,,,,
184.89999999850988,,prac_atten_color_black,183071,black_plus_sign,,,,50,,,,,,,,,,,,,,
null,,prac_atten_color_black,183863,black_plus_sign,,,,null,,,,,,,,,,,,,,
null,,prac_atten_color,184350,prac_stop_color,,,,null,,,,,,,,,,,,,,
274.19999999552965,,prac_atten_color_black,186352,black_plus_sign,,,,49,,,,,,,,,,,,,,
22572.89999999851,,attentioncheck_help,208928,instruct,,,,32,,,,,,,,,,,,,,
null,,prac_atten_color_black,209846,black_plus_sign,,,,null,,,,,,,,,,,,,,
554.8999999985099,,prac_atten_color,210718,prac_stop_color,,,,49,,,,,,,,,,,,,,
null,,prac_atten_color_black,212721,black_plus_sign,,,,null,,,,,,,,,,,,,,
null,,prac_atten_color_black,213254,black_plus_sign,,,,null,,,,,,,,,,,,,,
559.8999999985099,,prac_atten_color,213977,prac_stop_color,,,,50,,,,,,,,,,,,,,
null,,prac_atten_color_black,215978,black_plus_sign,,,,null,,,,,,,,,,,,,,
null,,prac_atten_color_black,216661,black_plus_sign,,,,null,,,,,,,,,,,,,,
null,,prac_atten_color,217081,prac_stop_color,,,,null,,,,,,,,,,,,,,
106.30000000447035,,prac_atten_color_black,219084,black_plus_sign,,,,50,,,,,,,,,,,,,,
null,,prac_atten_color_black,220069,black_plus_sign,,,,null,,,,,,,,,,,,,,
null,,prac_atten_color,220623,prac_stop_color,,,,null,,,,,,,,,,,,,,
356.1000000014901,,prac_atten_color_black,222625,black_plus_sign,,,,49,,,,,,,,,,,,,,
null,,prac_atten_color_black,223476,black_plus_sign,,,,null,,,,,,,,,,,,,,
589,,prac_atten_color,224217,prac_stop_color,,,,50,,,,,,,,,,,,,,
null,,prac_atten_color_black,226220,black_plus_sign,,,,null,,,,,,,,,,,,,,
null,,prac_atten_color_black,226885,black_plus_sign,,,,null,,,,,,,,,,,,,,
null,,prac_atten_color,227492,prac_stop_color,,,,null,,,,,,,,,,,,,,
175.19999999552965,,prac_atten_color_black,229494,black_plus_sign,,,,49,,,,,,,,,,,,,,
null,,prac_atten_color_black,230292,black_plus_sign,,,,null,,,,,,,,,,,,,,
null,,prac_atten_color,230865,prac_stop_color,,,,null,,,,,,,,,,,,,,
164.09999999403954,,prac_atten_color_black,232867,black_plus_sign,,,,49,,,,,,,,,,,,,,
6885.10000000149,,attentioncheck_feedback,239756,cross_check_feedback,,0,,,,,,,,,,,,,,,,
31070.70000000298,,last_instruct,270828,instruct,,,,32,,,,,,,,,,,,,,
null,,learn_phase(without_color),272831,black_plus_sign,,,,null,GW/snail.jpg,GW/barrel.jpg,,,,,,,,,,,,
null,,black_cross(without_color),273279,blue,,,,null,GW/snail.jpg,GW/barrel.jpg,,,,,,,,,,,,
null,,rt_plussign_withcolor,273781,blue,,,,null,GW/snail.jpg,GW/barrel.jpg,,,,,,,,,,,,
859.2999999970198,,rt_thecrossant_black,275338,black_plus_sign,,,,49,,,1,1,,,,,,,,,,
null,,color_black,275442,black_plus_sign,,,,null,,,,,,,,,,,,,,
null,,learn_phase(without_color),277462,black_plus_sign,,,,null,GW/globe.jpg,GW/snail.jpg,,,,,,,,,,,,
null,,black_cross(without_color),278402,blue,,,,null,GW/globe.jpg,GW/snail.jpg,,,,,,,,,,,,
null,,rt_plussign_withcolor,278904,blue,,,,null,GW/globe.jpg,GW/snail.jpg,,,,,,,,,,,,
921.3999999985099,,rt_thecrossant_black,279970,black_plus_sign,,,,49,,,1,1,,,,,,,,,,
null,,color_black,280073,black_plus_sign,,,,null,,,,,,,,,,,,,,
null,,learn_phase(without_color),282076,black_plus_sign,,,,null,GW/snail.jpg,GW/barrel.jpg,,,,,,,,,,,,
null,,black_cross(without_color),282523,blue,,,,null,GW/snail.jpg,GW/barrel.jpg,,,,,,,,,,,,
null,,rt_plussign_withcolor,283025,blue,,,,null,GW/snail.jpg,GW/barrel.jpg,,,,,,,,,,,,
1368.8999999985099,,rt_thecrossant_black,284583,black_plus_sign,,,,49,,,1,1,,,,,,,,,,
null,,color_black,284686,black_plus_sign,,,,null,,,,,,,,,,,,,,
null,,learn_phase(without_color),286689,black_plus_sign,,,,null,GW/soldier.jpg,GW/teeth.jpg,,,,,,,,,,,,
null,,black_cross(without_color),287475,blue,,,,null,GW/soldier.jpg,GW/teeth.jpg,,,,,,,,,,,,
null,,rt_plussign_withcolor,287977,blue,,,,null,GW/soldier.jpg,GW/teeth.jpg,,,,,,,,,,,,
588.7000000029802,,rt_thecrossant_black,289194,black_plus_sign,,,,49,,,1,1,,,,,,,,,,
null,,color_black,289296,black_plus_sign,,,,null,,,,,,,,,,,,,,
null,,learn_phase(without_color),291298,black_plus_sign,,,,null,GW/camera.jpg,GW/hat.jpg,,,,,,,,,,,,
null,,black_cross(without_color),291890,green,,,,null,GW/camera.jpg,GW/hat.jpg,,,,,,,,,,,,
null,,rt_plussign_withcolor,292392,green,,,,null,GW/camera.jpg,GW/hat.jpg,,,,,,,,,,,,
1071.3000000044703,,rt_thecrossant_black,293805,black_plus_sign,,,,50,,,1,1,,,,,,,,,,
null,,color_black,293908,black_plus_sign,,,,null,,,,,,,,,,,,,,
null,,learn_phase(without_color),295912,black_plus_sign,,,,null,GW/dustpan.jpg,GW/camera.jpg,,,,,,,,,,,,
null,,black_cross(without_color),296729,green,,,,null,GW/dustpan.jpg,GW/camera.jpg,,,,,,,,,,,,
null,,rt_plussign_withcolor,297231,green,,,,null,GW/dustpan.jpg,GW/camera.jpg,,,,,,,,,,,,
875.2999999970198,,rt_thecrossant_black,298418,black_plus_sign,,,,50,,,1,1,,,,,,,,,,
null,,color_black,298521,black_plus_sign,,,,null,,,,,,,,,,,,,,
null,,learn_phase(without_color),300524,black_plus_sign,,,,null,GW/dustpan.jpg,GW/soldier.jpg,,,,,,,,,,,,
null,,black_cross(without_color),301036,blue,,,,null,GW/dustpan.jpg,GW/soldier.jpg,,,,,,,,,,,,
null,,rt_plussign_withcolor,301538,blue,,,,null,GW/dustpan.jpg,GW/soldier.jpg,,,,,,,,,,,,
1125.2000000029802,,rt_thecrossant_black,303032,black_plus_sign,,,,49,,,1,1,,,,,,,,,,
null,,color_black,303134,black_plus_sign,,,,null,,,,,,,,,,,,,,
null,,learn_phase(without_color),305137,black_plus_sign,,,,null,GW/globe.jpg,GW/gong.jpg,,,,,,,,,,,,
null,,black_cross(without_color),305656,blue,,,,null,GW/globe.jpg,GW/gong.jpg,,,,,,,,,,,,
null,,rt_plussign_withcolor,306158,blue,,,,null,GW/globe.jpg,GW/gong.jpg,,,,,,,,,,,,
667.2000000029802,,rt_thecrossant_black,307644,black_plus_sign,,,,49,,,1,1,,,,,,,,,,
null,,color_black,307747,black_plus_sign,,,,null,,,,,,,,,,,,,,
null,,learn_phase(without_color),309750,black_plus_sign,,,,null,GW/soldier.jpg,GW/teeth.jpg,,,,,,,,,,,,
null,,black_cross(without_color),310270,green,,,,null,GW/soldier.jpg,GW/teeth.jpg,,,,,,,,,,,,
null,,rt_plussign_withcolor,310772,green,,,,null,GW/soldier.jpg,GW/teeth.jpg,,,,,,,,,,,,
910.3999999985099,,rt_thecrossant_black,312258,black_plus_sign,,,,50,,,1,1,,,,,,,,,,
null,,color_black,312360,black_plus_sign,,,,null,,,,,,,,,,,,,,
null,,learn_phase(without_color),314364,black_plus_sign,,,,null,GW/dustpan.jpg,GW/soldier.jpg,,,,,,,,,,,,
null,,black_cross(without_color),315164,blue,,,,null,GW/dustpan.jpg,GW/soldier.jpg,,,,,,,,,,,,
null,,rt_plussign_withcolor,315667,blue,,,,null,GW/dustpan.jpg,GW/soldier.jpg,,,,,,,,,,,,
732.1000000014901,,rt_thecrossant_black,316872,black_plus_sign,,,,49,,,1,1,,,,,,,,,,
null,,color_black,316974,black_plus_sign,,,,null,,,,,,,,,,,,,,
null,,learn_phase(without_color),318976,black_plus_sign,,,,null,GW/camera.jpg,GW/hat.jpg,,,,,,,,,,,,
null,,black_cross(without_color),319495,green,,,,null,GW/camera.jpg,GW/hat.jpg,,,,,,,,,,,,
null,,rt_plussign_withcolor,319997,green,,,,null,GW/camera.jpg,GW/hat.jpg,,,,,,,,,,,,
1065,,rt_thecrossant_black,321484,black_plus_sign,,,,50,,,1,1,,,,,,,,,,
null,,color_black,321586,black_plus_sign,,,,null,,,,,,,,,,,,,,
null,,learn_phase(without_color),323590,black_plus_sign,,,,null,GW/basket.jpg,GW/globe.jpg,,,,,,,,,,,,
null,,black_cross(without_color),324229,blue,,,,null,GW/basket.jpg,GW/globe.jpg,,,,,,,,,,,,
null,,rt_plussign_withcolor,324730,blue,,,,null,GW/basket.jpg,GW/globe.jpg,,,,,,,,,,,,
709.3000000044703,,rt_thecrossant_black,326096,black_plus_sign,,,,49,,,1,1,,,,,,,,,,
null,,color_black,326200,black_plus_sign,,,,null,,,,,,,,,,,,,,
null,,learn_phase(without_color),328203,black_plus_sign,,,,null,GW/snail.jpg,GW/barrel.jpg,,,,,,,,,,,,
null,,black_cross(without_color),328779,green,,,,null,GW/snail.jpg,GW/barrel.jpg,,,,,,,,,,,,
null,,rt_plussign_withcolor,329281,green,,,,null,GW/snail.jpg,GW/barrel.jpg,,,,,,,,,,,,
1162.7000000029802,,rt_thecrossant_black,330711,black_plus_sign,,,,50,,,1,1,,,,,,,,,,
null,,color_black,330814,black_plus_sign,,,,null,,,,,,,,,,,,,,
null,,learn_phase(without_color),332817,black_plus_sign,,,,null,GW/barrel.jpg,GW/hat.jpg,,,,,,,,,,,,
null,,black_cross(without_color),333469,green,,,,null,GW/barrel.jpg,GW/hat.jpg,,,,,,,,,,,,
null,,rt_plussign_withcolor,333971,green,,,,null,GW/barrel.jpg,GW/hat.jpg,,,,,,,,,,,,
1020.1000000014901,,rt_thecrossant_black,335324,black_plus_sign,,,,50,,,1,1,,,,,,,,,,
null,,color_black,335427,black_plus_sign,,,,null,,,,,,,,,,,,,,
null,,learn_phase(without_color),337430,black_plus_sign,,,,null,GW/basket.jpg,GW/barrel.jpg,,,,,,,,,,,,
null,,black_cross(without_color),338194,green,,,,null,GW/basket.jpg,GW/barrel.jpg,,,,,,,,,,,,
null,,rt_plussign_withcolor,338696,green,,,,null,GW/basket.jpg,GW/barrel.jpg,,,,,,,,,,,,
827.2000000029802,,rt_thecrossant_black,339937,black_plus_sign,,,,50,,,1,1,,,,,,,,,,
null,,color_black,340040,black_plus_sign,,,,null,,,,,,,,,,,,,,
null,,learn_phase(without_color),342043,black_plus_sign,,,,null,GW/globe.jpg,GW/barrel.jpg,,,,,,,,,,,,
null,,black_cross(without_color),342839,green,,,,null,GW/globe.jpg,GW/barrel.jpg,,,,,,,,,,,,
null,,rt_plussign_withcolor,343341,green,,,,null,GW/globe.jpg,GW/barrel.jpg,,,,,,,,,,,,
980.2000000029802,,rt_thecrossant_black,344550,black_plus_sign,,,,50,,,1,1,,,,,,,,,,
null,,color_black,344653,black_plus_sign,,,,null,,,,,,,,,,,,,,
null,,learn_phase(without_color),346656,black_plus_sign,,,,null,GW/hat.jpg,GW/teeth.jpg,,,,,,,,,,,,
null,,black_cross(without_color),347588,blue,,,,null,GW/hat.jpg,GW/teeth.jpg,,,,,,,,,,,,
null,,rt_plussign_withcolor,348090,blue,,,,null,GW/hat.jpg,GW/teeth.jpg,,,,,,,,,,,,
1033.2999999970198,,rt_thecrossant_black,349163,black_plus_sign,,,,49,,,1,1,,,,,,,,,,
null,,color_black,349265,black_plus_sign,,,,null,,,,,,,,,,,,,,
null,,learn_phase(without_color),351268,black_plus_sign,,,,null,GW/camera.jpg,GW/basket.jpg,,,,,,,,,,,,
null,,black_cross(without_color),351996,blue,,,,null,GW/camera.jpg,GW/basket.jpg,,,,,,,,,,,,
null,,rt_plussign_withcolor,352498,blue,,,,null,GW/camera.jpg,GW/basket.jpg,,,,,,,,,,,,
1273,,rt_thecrossant_black,353776,black_plus_sign,,,,49,,,1,1,,,,,,,,,,
null,,color_black,353878,black_plus_sign,,,,null,,,,,,,,,,,,,,
null,,learn_phase(without_color),355882,black_plus_sign,,,,null,GW/barrel.jpg,GW/hat.jpg,,,,,,,,,,,,
null,,black_cross(without_color),356395,blue,,,,null,GW/barrel.jpg,GW/hat.jpg,,,,,,,,,,,,
null,,rt_plussign_withcolor,356897,blue,,,,null,GW/barrel.jpg,GW/hat.jpg,,,,,,,,,,,,
1160,,rt_thecrossant_black,358389,black_plus_sign,,,,49,,,1,1,,,,,,,,,,
null,,color_black,358491,black_plus_sign,,,,null,,,,,,,,,,,,,,
null,,learn_phase(without_color),360495,black_plus_sign,,,,null,GW/soldier.jpg,GW/teeth.jpg,,,,,,,,,,,,
null,,black_cross(without_color),360956,green,,,,null,GW/soldier.jpg,GW/teeth.jpg,,,,,,,,,,,,
null,,rt_plussign_withcolor,361457,green,,,,null,GW/soldier.jpg,GW/teeth.jpg,,,,,,,,,,,,
782.4000000059605,,rt_thecrossant_black,363001,black_plus_sign,,,,50,,,1,1,,,,,,,,,,
null,,color_black,363103,black_plus_sign,,,,null,,,,,,,,,,,,,,
null,,learn_phase(without_color),365107,black_plus_sign,,,,null,GW/wheelchair.jpg,GW/dustpan.jpg,,,,,,,,,,,,
null,,black_cross(without_color),365900,blue,,,,null,GW/wheelchair.jpg,GW/dustpan.jpg,,,,,,,,,,,,
null,,rt_plussign_withcolor,366402,blue,,,,null,GW/wheelchair.jpg,GW/dustpan.jpg,,,,,,,,,,,,
876.1000000014901,,rt_thecrossant_black,367615,black_plus_sign,,,,49,,,1,1,,,,,,,,,,
null,,color_black,367717,black_plus_sign,,,,null,,,,,,,,,,,,,,
null,,learn_phase(without_color),369720,black_plus_sign,,,,null,GW/globe.jpg,GW/snail.jpg,,,,,,,,,,,,
null,,black_cross(without_color),370308,blue,,,,null,GW/globe.jpg,GW/snail.jpg,,,,,,,,,,,,
null,,rt_plussign_withcolor,370810,blue,,,,null,GW/globe.jpg,GW/snail.jpg,,,,,,,,,,,,
1109.5,,rt_thecrossant_black,372225,black_plus_sign,,,,49,,,1,1,,,,,,,,,,
null,,color_black,372328,black_plus_sign,,,,null,,,,,,,,,,,,,,
null,,learn_phase(without_color),374330,black_plus_sign,,,,null,GW/barrel.jpg,GW/hat.jpg,,,,,,,,,,,,
null,,black_cross(without_color),375086,green,,,,null,GW/barrel.jpg,GW/hat.jpg,,,,,,,,,,,,
null,,rt_plussign_withcolor,375588,green,,,,null,GW/barrel.jpg,GW/hat.jpg,,,,,,,,,,,,
809.6000000014901,,rt_thecrossant_black,376837,black_plus_sign,,,,50,,,1,1,,,,,,,,,,
null,,color_black,376939,black_plus_sign,,,,null,,,,,,,,,,,,,,
null,,learn_phase(without_color),378942,black_plus_sign,,,,null,GW/basket.jpg,GW/barrel.jpg,,,,,,,,,,,,
null,,black_cross(without_color),379402,green,,,,null,GW/basket.jpg,GW/barrel.jpg,,,,,,,,,,,,
null,,rt_plussign_withcolor,379904,green,,,,null,GW/basket.jpg,GW/barrel.jpg,,,,,,,,,,,,
1149.1000000014901,,rt_thecrossant_black,381449,black_plus_sign,,,,50,,,1,1,,,,,,,,,,
null,,color_black,381552,black_plus_sign,,,,null,,,,,,,,,,,,,,
null,,learn_phase(without_color),383555,black_plus_sign,,,,null,GW/wheelchair.jpg,GW/dustpan.jpg,,,,,,,,,,,,
null,,black_cross(without_color),384023,green,,,,null,GW/wheelchair.jpg,GW/dustpan.jpg,,,,,,,,,,,,
null,,rt_plussign_withcolor,384524,green,,,,null,GW/wheelchair.jpg,GW/dustpan.jpg,,,,,,,,,,,,
644.5,,rt_thecrossant_black,386061,black_plus_sign,,,,50,,,1,1,,,,,,,,,,
null,,color_black,386164,black_plus_sign,,,,null,,,,,,,,,,,,,,
null,,learn_phase(without_color),388167,black_plus_sign,,,,null,GW/snail.jpg,GW/paint.jpg,,,,,,,,,,,,
null,,black_cross(without_color),389074,green,,,,null,GW/snail.jpg,GW/paint.jpg,,,,,,,,,,,,
null,,rt_plussign_withcolor,389576,green,,,,null,GW/snail.jpg,GW/paint.jpg,,,,,,,,,,,,
785,,rt_thecrossant_black,390675,black_plus_sign,,,,50,,,1,1,,,,,,,,,,
null,,color_black,390777,black_plus_sign,,,,null,,,,,,,,,,,,,,
null,,learn_phase(without_color),392779,black_plus_sign,,,,null,GW/dustpan.jpg,GW/soldier.jpg,,,,,,,,,,,,
null,,black_cross(without_color),393352,blue,,,,null,GW/dustpan.jpg,GW/soldier.jpg,,,,,,,,,,,,
481.3999999985099,,rt_plussign_withcolor,393854,blue,,,,49,GW/dustpan.jpg,GW/soldier.jpg,,,,,,,,,,,,
null,,rt_thecrossant_black,395286,black_plus_sign,,,,null,,,1,1,,,,,,,,,,
null,,color_black,395389,black_plus_sign,,,,null,,,,,,,,,,,,,,
null,,learn_phase(without_color),397392,black_plus_sign,,,,null,GW/snail.jpg,GW/barrel.jpg,,,,,,,,,,,,
null,,black_cross(without_color),398449,green,,,,null,GW/snail.jpg,GW/barrel.jpg,,,,,,,,,,,,
null,,rt_plussign_withcolor,398951,green,,,,null,GW/snail.jpg,GW/barrel.jpg,,,,,,,,,,,,
885.9000000059605,,rt_thecrossant_black,399899,black_plus_sign,,,,50,,,1,1,,,,,,,,,,
null,,color_black,400002,black_plus_sign,,,,null,,,,,,,,,,,,,,
null,,learn_phase(without_color),402006,black_plus_sign,,,,null,GW/soldier.jpg,GW/teeth.jpg,,,,,,,,,,,,
null,,black_cross(without_color),402747,blue,,,,null,GW/soldier.jpg,GW/teeth.jpg,,,,,,,,,,,,
null,,rt_plussign_withcolor,403249,blue,,,,null,GW/soldier.jpg,GW/teeth.jpg,,,,,,,,,,,,
1402.3999999985099,,rt_thecrossant_black,404513,black_plus_sign,,,,49,,,1,1,,,,,,,,,,
null,,color_black,404616,black_plus_sign,,,,null,,,,,,,,,,,,,,
null,,learn_phase(without_color),406619,black_plus_sign,,,,null,GW/camera.jpg,GW/hat.jpg,,,,,,,,,,,,
null,,black_cross(without_color),407570,green,,,,null,GW/camera.jpg,GW/hat.jpg,,,,,,,,,,,,
null,,rt_plussign_withcolor,408072,green,,,,null,GW/camera.jpg,GW/hat.jpg,,,,,,,,,,,,
1171,,rt_thecrossant_black,409126,black_plus_sign,,,,50,,,1,1,,,,,,,,,,
null,,color_black,409228,black_plus_sign,,,,null,,,,,,,,,,,,,,
null,,learn_phase(without_color),411231,black_plus_sign,,,,null,GW/barrel.jpg,GW/hat.jpg,,,,,,,,,,,,
null,,black_cross(without_color),412070,blue,,,,null,GW/barrel.jpg,GW/hat.jpg,,,,,,,,,,,,
null,,rt_plussign_withcolor,412572,blue,,,,null,GW/barrel.jpg,GW/hat.jpg,,,,,,,,,,,,
1084.1000000014901,,rt_thecrossant_black,413738,black_plus_sign,,,,49,,,1,1,,,,,,,,,,
null,,color_black,413841,black_plus_sign,,,,null,,,,,,,,,,,,,,
null,,learn_phase(without_color),415845,black_plus_sign,,,,null,GW/soldier.jpg,GW/jukebox.jpg,,,,,,,,,,,,
null,,black_cross(without_color),416659,green,,,,null,GW/soldier.jpg,GW/jukebox.jpg,,,,,,,,,,,,
null,,rt_plussign_withcolor,417161,green,,,,null,GW/soldier.jpg,GW/jukebox.jpg,,,,,,,,,,,,
1401.7000000029802,,rt_thecrossant_black,418353,black_plus_sign,,,,50,,,1,1,,,,,,,,,,
null,,color_black,418456,black_plus_sign,,,,null,,,,,,,,,,,,,,
null,,learn_phase(without_color),420460,black_plus_sign,,,,null,GW/camera.jpg,GW/hat.jpg,,,,,,,,,,,,
null,,black_cross(without_color),421510,green,,,,null,GW/camera.jpg,GW/hat.jpg,,,,,,,,,,,,
null,,rt_plussign_withcolor,422013,green,,,,null,GW/camera.jpg,GW/hat.jpg,,,,,,,,,,,,
1026.3000000044703,,rt_thecrossant_black,422967,black_plus_sign,,,,50,,,1,1,,,,,,,,,,
null,,color_black,423070,black_plus_sign,,,,null,,,,,,,,,,,,,,
null,,learn_phase(without_color),425073,black_plus_sign,,,,null,GW/snail.jpg,GW/barrel.jpg,,,,,,,,,,,,
null,,black_cross(without_color),425827,green,,,,null,GW/snail.jpg,GW/barrel.jpg,,,,,,,,,,,,
null,,rt_plussign_withcolor,426329,green,,,,null,GW/snail.jpg,GW/barrel.jpg,,,,,,,,,,,,
1403,,rt_thecrossant_black,427581,black_plus_sign,,,,50,,,1,1,,,,,,,,,,
null,,color_black,427684,black_plus_sign,,,,null,,,,,,,,,,,,,,
null,,learn_phase(without_color),429688,black_plus_sign,,,,null,GW/hat.jpg,GW/teeth.jpg,,,,,,,,,,,,
null,,black_cross(without_color),430266,blue,,,,null,GW/hat.jpg,GW/teeth.jpg,,,,,,,,,,,,
null,,rt_plussign_withcolor,430769,blue,,,,null,GW/hat.jpg,GW/teeth.jpg,,,,,,,,,,,,
1135.5,,rt_thecrossant_black,432197,black_plus_sign,,,,49,,,1,1,,,,,,,,,,
null,,color_black,432299,black_plus_sign,,,,null,,,,,,,,,,,,,,
null,,learn_phase(without_color),434303,black_plus_sign,,,,null,GW/dustpan.jpg,GW/camera.jpg,,,,,,,,,,,,
null,,black_cross(without_color),434840,blue,,,,null,GW/dustpan.jpg,GW/camera.jpg,,,,,,,,,,,,
null,,rt_plussign_withcolor,435342,blue,,,,null,GW/dustpan.jpg,GW/camera.jpg,,,,,,,,,,,,
1010.8999999985099,,rt_thecrossant_black,436810,black_plus_sign,,,,49,,,1,1,,,,,,,,,,
null,,color_black,436914,black_plus_sign,,,,null,,,,,,,,,,,,,,
null,,learn_phase(without_color),438918,black_plus_sign,,,,null,GW/basket.jpg,GW/barrel.jpg,,,,,,,,,,,,
null,,black_cross(without_color),439516,green,,,,null,GW/basket.jpg,GW/barrel.jpg,,,,,,,,,,,,
null,,rt_plussign_withcolor,440018,green,,,,null,GW/basket.jpg,GW/barrel.jpg,,,,,,,,,,,,
883.1000000014901,,rt_thecrossant_black,441425,black_plus_sign,,,,50,,,1,1,,,,,,,,,,
null,,color_black,441528,black_plus_sign,,,,null,,,,,,,,,,,,,,
null,,learn_phase(without_color),443531,black_plus_sign,,,,null,GW/basket.jpg,GW/globe.jpg,,,,,,,,,,,,
null,,black_cross(without_color),444045,blue,,,,null,GW/basket.jpg,GW/globe.jpg,,,,,,,,,,,,
null,,rt_plussign_withcolor,444547,blue,,,,null,GW/basket.jpg,GW/globe.jpg,,,,,,,,,,,,
957.5999999940395,,rt_thecrossant_black,446038,black_plus_sign,,,,49,,,1,1,,,,,,,,,,
null,,color_black,446141,black_plus_sign,,,,null,,,,,,,,,,,,,,
null,,learn_phase(without_color),448145,black_plus_sign,,,,null,GW/globe.jpg,GW/snail.jpg,,,,,,,,,,,,
null,,black_cross(without_color),449209,blue,,,,null,GW/globe.jpg,GW/snail.jpg,,,,,,,,,,,,
null,,rt_plussign_withcolor,449710,blue,,,,null,GW/globe.jpg,GW/snail.jpg,,,,,,,,,,,,
696.9000000059605,,rt_thecrossant_black,450650,black_plus_sign,,,,49,,,1,1,,,,,,,,,,
null,,color_black,450753,black_plus_sign,,,,null,,,,,,,,,,,,,,
null,,learn_phase(without_color),452756,black_plus_sign,,,,null,GW/wheelchair.jpg,GW/dustpan.jpg,,,,,,,,,,,,
null,,black_cross(without_color),453353,green,,,,null,GW/wheelchair.jpg,GW/dustpan.jpg,,,,,,,,,,,,
null,,rt_plussign_withcolor,453855,green,,,,null,GW/wheelchair.jpg,GW/dustpan.jpg,,,,,,,,,,,,
1486.1000000014901,,rt_thecrossant_black,455263,black_plus_sign,,,,50,,,1,1,,,,,,,,,,
null,,color_black,455366,black_plus_sign,,,,null,,,,,,,,,,,,,,
null,,learn_phase(without_color),457369,black_plus_sign,,,,null,GW/dustpan.jpg,GW/camera.jpg,,,,,,,,,,,,
null,,black_cross(without_color),458441,green,,,,null,GW/dustpan.jpg,GW/camera.jpg,,,,,,,,,,,,
null,,rt_plussign_withcolor,458943,green,,,,null,GW/dustpan.jpg,GW/camera.jpg,,,,,,,,,,,,
1034.4000000059605,,rt_thecrossant_black,459876,black_plus_sign,,,,50,,,1,1,,,,,,,,,,
null,,color_black,459979,black_plus_sign,,,,null,,,,,,,,,,,,,,
null,,learn_phase(without_color),461983,black_plus_sign,,,,null,GW/hat.jpg,GW/teeth.jpg,,,,,,,,,,,,
null,,black_cross(without_color),462391,green,,,,null,GW/hat.jpg,GW/teeth.jpg,,,,,,,,,,,,
null,,rt_plussign_withcolor,462893,green,,,,null,GW/hat.jpg,GW/teeth.jpg,,,,,,,,,,,,
1450.5,,rt_thecrossant_black,464491,black_plus_sign,,,,50,,,1,1,,,,,,,,,,
null,,color_black,464593,black_plus_sign,,,,null,,,,,,,,,,,,,,
null,,learn_phase(without_color),466597,black_plus_sign,,,,null,GW/globe.jpg,GW/gong.jpg,,,,,,,,,,,,
null,,black_cross(without_color),467244,green,,,,null,GW/globe.jpg,GW/gong.jpg,,,,,,,,,,,,
null,,rt_plussign_withcolor,467746,green,,,,null,GW/globe.jpg,GW/gong.jpg,,,,,,,,,,,,
818.8999999985099,,rt_thecrossant_black,469104,black_plus_sign,,,,50,,,1,1,,,,,,,,,,
null,,color_black,469207,black_plus_sign,,,,null,,,,,,,,,,,,,,
null,,learn_phase(without_color),471210,black_plus_sign,,,,null,GW/snail.jpg,GW/barrel.jpg,,,,,,,,,,,,
null,,black_cross(without_color),471667,green,,,,null,GW/snail.jpg,GW/barrel.jpg,,,,,,,,,,,,
null,,rt_plussign_withcolor,472168,green,,,,null,GW/snail.jpg,GW/barrel.jpg,,,,,,,,,,,,
1082.6000000014901,,rt_thecrossant_black,473716,black_plus_sign,,,,50,,,1,1,,,,,,,,,,
null,,color_black,473819,black_plus_sign,,,,null,,,,,,,,,,,,,,
null,,learn_phase(without_color),475823,black_plus_sign,,,,null,GW/globe.jpg,GW/barrel.jpg,,,,,,,,,,,,
null,,black_cross(without_color),476505,green,,,,null,GW/globe.jpg,GW/barrel.jpg,,,,,,,,,,,,
null,,rt_plussign_withcolor,477007,green,,,,null,GW/globe.jpg,GW/barrel.jpg,,,,,,,,,,,,
920.2000000029802,,rt_thecrossant_black,478331,black_plus_sign,,,,50,,,1,1,,,,,,,,,,
null,,color_black,478433,black_plus_sign,,,,null,,,,,,,,,,,,,,
null,,learn_phase(without_color),480437,black_plus_sign,,,,null,GW/camera.jpg,GW/hat.jpg,,,,,,,,,,,,
null,,black_cross(without_color),481221,blue,,,,null,GW/camera.jpg,GW/hat.jpg,,,,,,,,,,,,
null,,rt_plussign_withcolor,481724,blue,,,,null,GW/camera.jpg,GW/hat.jpg,,,,,,,,,,,,
955.6999999955297,,rt_thecrossant_black,482944,black_plus_sign,,,,49,,,1,1,,,,,,,,,,
null,,color_black,483047,black_plus_sign,,,,null,,,,,,,,,,,,,,
null,,learn_phase(without_color),485051,black_plus_sign,,,,null,GW/basket.jpg,GW/barrel.jpg,,,,,,,,,,,,
null,,black_cross(without_color),485885,blue,,,,null,GW/basket.jpg,GW/barrel.jpg,,,,,,,,,,,,
null,,rt_plussign_withcolor,486387,blue,,,,null,GW/basket.jpg,GW/barrel.jpg,,,,,,,,,,,,
934.0999999940395,,rt_thecrossant_black,487557,black_plus_sign,,,,49,,,1,1,,,,,,,,,,
null,,color_black,487660,black_plus_sign,,,,null,,,,,,,,,,,,,,
null,,learn_phase(without_color),489663,black_plus_sign,,,,null,GW/basket.jpg,GW/globe.jpg,,,,,,,,,,,,
null,,black_cross(without_color),490752,blue,,,,null,GW/basket.jpg,GW/globe.jpg,,,,,,,,,,,,
null,,rt_plussign_withcolor,491254,blue,,,,null,GW/basket.jpg,GW/globe.jpg,,,,,,,,,,,,
1334.5,,rt_thecrossant_black,492172,black_plus_sign,,,,49,,,1,1,,,,,,,,,,
null,,color_black,492274,black_plus_sign,,,,null,,,,,,,,,,,,,,
null,,learn_phase(without_color),494278,black_plus_sign,,,,null,GW/snail.jpg,GW/paint.jpg,,,,,,,,,,,,
null,,black_cross(without_color),495381,blue,,,,null,GW/snail.jpg,GW/paint.jpg,,,,,,,,,,,,
null,,rt_plussign_withcolor,495883,blue,,,,null,GW/snail.jpg,GW/paint.jpg,,,,,,,,,,,,
1219.3999999985099,,rt_thecrossant_black,496786,black_plus_sign,,,,49,,,1,1,,,,,,,,,,
null,,color_black,496888,black_plus_sign,,,,null,,,,,,,,,,,,,,
null,,learn_phase(without_color),498890,black_plus_sign,,,,null,GW/dustpan.jpg,GW/camera.jpg,,,,,,,,,,,,
null,,black_cross(without_color),499965,green,,,,null,GW/dustpan.jpg,GW/camera.jpg,,,,,,,,,,,,
null,,rt_plussign_withcolor,500467,green,,,,null,GW/dustpan.jpg,GW/camera.jpg,,,,,,,,,,,,
1398,,rt_thecrossant_black,501397,black_plus_sign,,,,50,,,1,1,,,,,,,,,,
null,,color_black,501500,black_plus_sign,,,,null,,,,,,,,,,,,,,
null,,learn_phase(without_color),503505,black_plus_sign,,,,null,GW/hat.jpg,GW/teeth.jpg,,,,,,,,,,,,
null,,black_cross(without_color),504595,blue,,,,null,GW/hat.jpg,GW/teeth.jpg,,,,,,,,,,,,
null,,rt_plussign_withcolor,505097,blue,,,,null,GW/hat.jpg,GW/teeth.jpg,,,,,,,,,,,,
1297.6000000014901,,rt_thecrossant_black,506012,black_plus_sign,,,,49,,,1,1,,,,,,,,,,
null,,color_black,506115,black_plus_sign,,,,null,,,,,,,,,,,,,,
null,,learn_phase(without_color),508118,black_plus_sign,,,,null,GW/soldier.jpg,GW/jukebox.jpg,,,,,,,,,,,,
null,,black_cross(without_color),509087,blue,,,,null,GW/soldier.jpg,GW/jukebox.jpg,,,,,,,,,,,,
null,,rt_plussign_withcolor,509589,blue,,,,null,GW/soldier.jpg,GW/jukebox.jpg,,,,,,,,,,,,
1382.1000000014901,,rt_thecrossant_black,510625,black_plus_sign,,,,49,,,1,1,,,,,,,,,,
null,,color_black,510728,black_plus_sign,,,,null,,,,,,,,,,,,,,
null,,learn_phase(without_color),512732,black_plus_sign,,,,null,GW/globe.jpg,GW/gong.jpg,,,,,,,,,,,,
null,,black_cross(without_color),513304,green,,,,null,GW/globe.jpg,GW/gong.jpg,,,,,,,,,,,,
null,,rt_plussign_withcolor,513807,green,,,,null,GW/globe.jpg,GW/gong.jpg,,,,,,,,,,,,
1229.5,,rt_thecrossant_black,515239,black_plus_sign,,,,50,,,1,1,,,,,,,,,,
null,,color_black,515341,black_plus_sign,,,,null,,,,,,,,,,,,,,
null,,learn_phase(without_color),517345,black_plus_sign,,,,null,GW/barrel.jpg,GW/hat.jpg,,,,,,,,,,,,
null,,black_cross(without_color),518333,green,,,,null,GW/barrel.jpg,GW/hat.jpg,,,,,,,,,,,,
null,,rt_plussign_withcolor,518835,green,,,,null,GW/barrel.jpg,GW/hat.jpg,,,,,,,,,,,,
763.1000000014901,,rt_thecrossant_black,519852,black_plus_sign,,,,50,,,1,1,,,,,,,,,,
null,,color_black,519955,black_plus_sign,,,,null,,,,,,,,,,,,,,
null,,learn_phase(without_color),521958,black_plus_sign,,,,null,GW/basket.jpg,GW/globe.jpg,,,,,,,,,,,,
null,,black_cross(without_color),522794,blue,,,,null,GW/basket.jpg,GW/globe.jpg,,,,,,,,,,,,
null,,rt_plussign_withcolor,523297,blue,,,,null,GW/basket.jpg,GW/globe.jpg,,,,,,,,,,,,
1236.5,,rt_thecrossant_black,524466,black_plus_sign,,,,49,,,1,1,,,,,,,,,,
null,,color_black,524568,black_plus_sign,,,,null,,,,,,,,,,,,,,
null,,learn_phase(without_color),526572,black_plus_sign,,,,null,GW/globe.jpg,GW/gong.jpg,,,,,,,,,,,,
null,,black_cross(without_color),526980,blue,,,,null,GW/globe.jpg,GW/gong.jpg,,,,,,,,,,,,
null,,rt_plussign_withcolor,527483,blue,,,,null,GW/globe.jpg,GW/gong.jpg,,,,,,,,,,,,
1244.2000000029802,,rt_thecrossant_black,529079,black_plus_sign,,,,49,,,1,1,,,,,,,,,,
null,,color_black,529182,black_plus_sign,,,,null,,,,,,,,,,,,,,
null,,learn_phase(without_color),531186,black_plus_sign,,,,null,GW/dustpan.jpg,GW/camera.jpg,,,,,,,,,,,,
null,,black_cross(without_color),532042,blue,,,,null,GW/dustpan.jpg,GW/camera.jpg,,,,,,,,,,,,
null,,rt_plussign_withcolor,532544,blue,,,,null,GW/dustpan.jpg,GW/camera.jpg,,,,,,,,,,,,
812.3999999985099,,rt_thecrossant_black,533694,black_plus_sign,,,,49,,,1,1,,,,,,,,,,
null,,color_black,533797,black_plus_sign,,,,null,,,,,,,,,,,,,,
null,,learn_phase(without_color),535801,black_plus_sign,,,,null,GW/dustpan.jpg,GW/soldier.jpg,,,,,,,,,,,,
null,,black_cross(without_color),536747,green,,,,null,GW/dustpan.jpg,GW/soldier.jpg,,,,,,,,,,,,
null,,rt_plussign_withcolor,537249,green,,,,null,GW/dustpan.jpg,GW/soldier.jpg,,,,,,,,,,,,
1313.7000000029802,,rt_thecrossant_black,538308,black_plus_sign,,,,50,,,1,1,,,,,,,,,,
null,,color_black,538411,black_plus_sign,,,,null,,,,,,,,,,,,,,
null,,learn_phase(without_color),540415,black_plus_sign,,,,null,GW/dustpan.jpg,GW/camera.jpg,,,,,,,,,,,,
null,,black_cross(without_color),540848,green,,,,null,GW/dustpan.jpg,GW/camera.jpg,,,,,,,,,,,,
null,,rt_plussign_withcolor,541350,green,,,,null,GW/dustpan.jpg,GW/camera.jpg,,,,,,,,,,,,
1390.0999999940395,,rt_thecrossant_black,542922,black_plus_sign,,,,50,,,1,1,,,,,,,,,,
null,,color_black,543025,black_plus_sign,,,,null,,,,,,,,,,,,,,
null,,learn_phase(without_color),545028,black_plus_sign,,,,null,GW/dustpan.jpg,GW/soldier.jpg,,,,,,,,,,,,
null,,black_cross(without_color),546052,green,,,,null,GW/dustpan.jpg,GW/soldier.jpg,,,,,,,,,,,,
null,,rt_plussign_withcolor,546554,green,,,,null,GW/dustpan.jpg,GW/soldier.jpg,,,,,,,,,,,,
694.2000000029802,,rt_thecrossant_black,547536,black_plus_sign,,,,50,,,1,1,,,,,,,,,,
null,,color_black,547639,black_plus_sign,,,,null,,,,,,,,,,,,,,
null,,learn_phase(without_color),549643,black_plus_sign,,,,null,GW/barrel.jpg,GW/hat.jpg,,,,,,,,,,,,
null,,black_cross(without_color),550208,green,,,,null,GW/barrel.jpg,GW/hat.jpg,,,,,,,,,,,,
null,,rt_plussign_withcolor,550710,green,,,,null,GW/barrel.jpg,GW/hat.jpg,,,,,,,,,,,,
1508.3000000044703,,rt_thecrossant_black,552151,black_plus_sign,,,,50,,,1,1,,,,,,,,,,
null,,color_black,552253,black_plus_sign,,,,null,,,,,,,,,,,,,,
null,,learn_phase(without_color),554257,black_plus_sign,,,,null,GW/wheelchair.jpg,GW/dustpan.jpg,,,,,,,,,,,,
null,,black_cross(without_color),554882,blue,,,,null,GW/wheelchair.jpg,GW/dustpan.jpg,,,,,,,,,,,,
null,,rt_plussign_withcolor,555384,blue,,,,null,GW/wheelchair.jpg,GW/dustpan.jpg,,,,,,,,,,,,
1115.0999999940395,,rt_thecrossant_black,556764,black_plus_sign,,,,49,,,1,1,,,,,,,,,,
null,,color_black,556866,black_plus_sign,,,,null,,,,,,,,,,,,,,
null,,learn_phase(without_color),558870,black_plus_sign,,,,null,GW/dustpan.jpg,GW/soldier.jpg,,,,,,,,,,,,
null,,black_cross(without_color),559399,blue,,,,null,GW/dustpan.jpg,GW/soldier.jpg,,,,,,,,,,,,
null,,rt_plussign_withcolor,559902,blue,,,,null,GW/dustpan.jpg,GW/soldier.jpg,,,,,,,,,,,,
985.8999999985099,,rt_thecrossant_black,561378,black_plus_sign,,,,49,,,1,1,,,,,,,,,,
null,,color_black,561481,black_plus_sign,,,,null,,,,,,,,,,,,,,
null,,learn_phase(without_color),563484,black_plus_sign,,,,null,GW/camera.jpg,GW/hat.jpg,,,,,,,,,,,,
null,,black_cross(without_color),564297,blue,,,,null,GW/camera.jpg,GW/hat.jpg,,,,,,,,,,,,
null,,rt_plussign_withcolor,564800,blue,,,,null,GW/camera.jpg,GW/hat.jpg,,,,,,,,,,,,
923.1999999955297,,rt_thecrossant_black,565992,black_plus_sign,,,,49,,,1,1,,,,,,,,,,
null,,color_black,566095,black_plus_sign,,,,null,,,,,,,,,,,,,,
null,,learn_phase(without_color),568099,black_plus_sign,,,,null,GW/basket.jpg,GW/globe.jpg,,,,,,,,,,,,
null,,black_cross(without_color),569130,green,,,,null,GW/basket.jpg,GW/globe.jpg,,,,,,,,,,,,
null,,rt_plussign_withcolor,569632,green,,,,null,GW/basket.jpg,GW/globe.jpg,,,,,,,,,,,,
1177.3999999985099,,rt_thecrossant_black,570606,black_plus_sign,,,,50,,,1,1,,,,,,,,,,
null,,color_black,570710,black_plus_sign,,,,null,,,,,,,,,,,,,,
null,,learn_phase(without_color),572713,black_plus_sign,,,,null,GW/hat.jpg,GW/teeth.jpg,,,,,,,,,,,,
null,,black_cross(without_color),573118,green,,,,null,GW/hat.jpg,GW/teeth.jpg,,,,,,,,,,,,
null,,rt_plussign_withcolor,573619,green,,,,null,GW/hat.jpg,GW/teeth.jpg,,,,,,,,,,,,
1472.1000000014901,,rt_thecrossant_black,575220,black_plus_sign,,,,50,,,1,1,,,,,,,,,,
null,,color_black,575323,black_plus_sign,,,,null,,,,,,,,,,,,,,
null,,learn_phase(without_color),577327,black_plus_sign,,,,null,GW/soldier.jpg,GW/teeth.jpg,,,,,,,,,,,,
null,,black_cross(without_color),577980,blue,,,,null,GW/soldier.jpg,GW/teeth.jpg,,,,,,,,,,,,
null,,rt_plussign_withcolor,578482,blue,,,,null,GW/soldier.jpg,GW/teeth.jpg,,,,,,,,,,,,
721.5,,rt_thecrossant_black,579835,black_plus_sign,,,,49,,,1,1,,,,,,,,,,
null,,color_black,579939,black_plus_sign,,,,null,,,,,,,,,,,,,,
null,,learn_phase(without_color),581942,black_plus_sign,,,,null,GW/basket.jpg,GW/globe.jpg,,,,,,,,,,,,
null,,black_cross(without_color),582903,blue,,,,null,GW/basket.jpg,GW/globe.jpg,,,,,,,,,,,,
null,,rt_plussign_withcolor,583405,blue,,,,null,GW/basket.jpg,GW/globe.jpg,,,,,,,,,,,,
1438.1000000014901,,rt_thecrossant_black,584449,black_plus_sign,,,,49,,,1,1,,,,,,,,,,
null,,color_black,584552,black_plus_sign,,,,null,,,,,,,,,,,,,,
null,,learn_phase(without_color),586556,black_plus_sign,,,,null,GW/soldier.jpg,GW/jukebox.jpg,,,,,,,,,,,,
null,,black_cross(without_color),587280,green,,,,null,GW/soldier.jpg,GW/jukebox.jpg,,,,,,,,,,,,
null,,rt_plussign_withcolor,587783,green,,,,null,GW/soldier.jpg,GW/jukebox.jpg,,,,,,,,,,,,
1339.8999999985099,,rt_thecrossant_black,589067,black_plus_sign,,,,50,,,1,1,,,,,,,,,,
null,,color_black,589170,black_plus_sign,,,,null,,,,,,,,,,,,,,
null,,learn_phase(without_color),591174,black_plus_sign,,,,null,GW/dustpan.jpg,GW/soldier.jpg,,,,,,,,,,,,
null,,black_cross(without_color),592134,blue,,,,null,GW/dustpan.jpg,GW/soldier.jpg,,,,,,,,,,,,
null,,rt_plussign_withcolor,592636,blue,,,,null,GW/dustpan.jpg,GW/soldier.jpg,,,,,,,,,,,,
991.1000000014901,,rt_thecrossant_black,593682,black_plus_sign,,,,49,,,1,1,,,,,,,,,,
null,,color_black,593785,black_plus_sign,,,,null,,,,,,,,,,,,,,
null,,learn_phase(without_color),595789,black_plus_sign,,,,null,GW/globe.jpg,GW/gong.jpg,,,,,,,,,,,,
null,,black_cross(without_color),596341,green,,,,null,GW/globe.jpg,GW/gong.jpg,,,,,,,,,,,,
null,,rt_plussign_withcolor,596844,green,,,,null,GW/globe.jpg,GW/gong.jpg,,,,,,,,,,,,
1429.5,,rt_thecrossant_black,598297,black_plus_sign,,,,50,,,1,1,,,,,,,,,,
null,,color_black,598400,black_plus_sign,,,,null,,,,,,,,,,,,,,
null,,learn_phase(without_color),600404,black_plus_sign,,,,null,GW/soldier.jpg,GW/jukebox.jpg,,,,,,,,,,,,
null,,black_cross(without_color),601033,blue,,,,null,GW/soldier.jpg,GW/jukebox.jpg,,,,,,,,,,,,
null,,rt_plussign_withcolor,601535,blue,,,,null,GW/soldier.jpg,GW/jukebox.jpg,,,,,,,,,,,,
801,,rt_thecrossant_black,602912,black_plus_sign,,,,49,,,1,1,,,,,,,,,,
null,,color_black,603015,black_plus_sign,,,,null,,,,,,,,,,,,,,
null,,learn_phase(without_color),605019,black_plus_sign,,,,null,GW/basket.jpg,GW/barrel.jpg,,,,,,,,,,,,
null,,black_cross(without_color),605847,blue,,,,null,GW/basket.jpg,GW/barrel.jpg,,,,,,,,,,,,
null,,rt_plussign_withcolor,606349,blue,,,,null,GW/basket.jpg,GW/barrel.jpg,,,,,,,,,,,,
963.1999999955297,,rt_thecrossant_black,607527,black_plus_sign,,,,49,,,1,1,,,,,,,,,,
null,,color_black,607631,black_plus_sign,,,,null,,,,,,,,,,,,,,
null,,learn_phase(without_color),609635,black_plus_sign,,,,null,GW/dustpan.jpg,GW/soldier.jpg,,,,,,,,,,,,
null,,black_cross(without_color),610702,blue,,,,null,GW/dustpan.jpg,GW/soldier.jpg,,,,,,,,,,,,
null,,rt_plussign_withcolor,611204,blue,,,,null,GW/dustpan.jpg,GW/soldier.jpg,,,,,,,,,,,,
973.9000000059605,,rt_thecrossant_black,612144,black_plus_sign,,,,49,,,1,1,,,,,,,,,,
null,,color_black,612247,black_plus_sign,,,,null,,,,,,,,,,,,,,
null,,learn_phase(without_color),614251,black_plus_sign,,,,null,GW/snail.jpg,GW/paint.jpg,,,,,,,,,,,,
null,,black_cross(without_color),615003,blue,,,,null,GW/snail.jpg,GW/paint.jpg,,,,,,,,,,,,
null,,rt_plussign_withcolor,615505,blue,,,,null,GW/snail.jpg,GW/paint.jpg,,,,,,,,,,,,
1259.1000000014901,,rt_thecrossant_black,616759,black_plus_sign,,,,49,,,1,1,,,,,,,,,,
null,,color_black,616862,black_plus_sign,,,,null,,,,,,,,,,,,,,
null,,learn_phase(without_color),618865,black_plus_sign,,,,null,GW/soldier.jpg,GW/teeth.jpg,,,,,,,,,,,,
null,,black_cross(without_color),619772,green,,,,null,GW/soldier.jpg,GW/teeth.jpg,,,,,,,,,,,,
null,,rt_plussign_withcolor,620275,green,,,,null,GW/soldier.jpg,GW/teeth.jpg,,,,,,,,,,,,
987.1000000014901,,rt_thecrossant_black,621373,black_plus_sign,,,,50,,,1,1,,,,,,,,,,
null,,color_black,621476,black_plus_sign,,,,null,,,,,,,,,,,,,,
null,,learn_phase(without_color),623480,black_plus_sign,,,,null,GW/camera.jpg,GW/basket.jpg,,,,,,,,,,,,
null,,black_cross(without_color),624095,blue,,,,null,GW/camera.jpg,GW/basket.jpg,,,,,,,,,,,,
null,,rt_plussign_withcolor,624597,blue,,,,null,GW/camera.jpg,GW/basket.jpg,,,,,,,,,,,,
1237.8000000044703,,rt_thecrossant_black,625988,black_plus_sign,,,,49,,,1,1,,,,,,,,,,
null,,color_black,626091,black_plus_sign,,,,null,,,,,,,,,,,,,,
null,,learn_phase(without_color),628096,black_plus_sign,,,,null,GW/globe.jpg,GW/snail.jpg,,,,,,,,,,,,
null,,black_cross(without_color),629077,blue,,,,null,GW/globe.jpg,GW/snail.jpg,,,,,,,,,,,,
null,,rt_plussign_withcolor,629580,blue,,,,null,GW/globe.jpg,GW/snail.jpg,,,,,,,,,,,,
922.1999999955297,,rt_thecrossant_black,630605,black_plus_sign,,,,49,,,1,1,,,,,,,,,,
null,,color_black,630708,black_plus_sign,,,,null,,,,,,,,,,,,,,
null,,learn_phase(without_color),632712,black_plus_sign,,,,null,GW/basket.jpg,GW/barrel.jpg,,,,,,,,,,,,
null,,black_cross(without_color),633615,blue,,,,null,GW/basket.jpg,GW/barrel.jpg,,,,,,,,,,,,
null,,rt_plussign_withcolor,634117,blue,,,,null,GW/basket.jpg,GW/barrel.jpg,,,,,,,,,,,,
1265.2999999970198,,rt_thecrossant_black,635221,black_plus_sign,,,,49,,,1,1,,,,,,,,,,
null,,color_black,635324,black_plus_sign,,,,null,,,,,,,,,,,,,,
null,,learn_phase(without_color),637328,black_plus_sign,,,,null,GW/camera.jpg,GW/basket.jpg,,,,,,,,,,,,
null,,black_cross(without_color),638373,blue,,,,null,GW/camera.jpg,GW/basket.jpg,,,,,,,,,,,,
null,,rt_plussign_withcolor,638875,blue,,,,null,GW/camera.jpg,GW/basket.jpg,,,,,,,,,,,,
1115,,rt_thecrossant_black,639836,black_plus_sign,,,,49,,,1,1,,,,,,,,,,
null,,color_black,639939,black_plus_sign,,,,null,,,,,,,,,,,,,,
null,,learn_phase(without_color),641943,black_plus_sign,,,,null,GW/basket.jpg,GW/globe.jpg,,,,,,,,,,,,
null,,black_cross(without_color),642587,green,,,,null,GW/basket.jpg,GW/globe.jpg,,,,,,,,,,,,
null,,rt_plussign_withcolor,643089,green,,,,null,GW/basket.jpg,GW/globe.jpg,,,,,,,,,,,,
1408.2000000029802,,rt_thecrossant_black,644450,black_plus_sign,,,,50,,,1,1,,,,,,,,,,
null,,color_black,644553,black_plus_sign,,,,null,,,,,,,,,,,,,,
null,,learn_phase(without_color),646558,black_plus_sign,,,,null,GW/soldier.jpg,GW/jukebox.jpg,,,,,,,,,,,,
null,,black_cross(without_color),647437,blue,,,,null,GW/soldier.jpg,GW/jukebox.jpg,,,,,,,,,,,,
null,,rt_plussign_withcolor,647939,blue,,,,null,GW/soldier.jpg,GW/jukebox.jpg,,,,,,,,,,,,
1131.5,,rt_thecrossant_black,649065,black_plus_sign,,,,49,,,1,1,,,,,,,,,,
null,,color_black,649168,black_plus_sign,,,,null,,,,,,,,,,,,,,
null,,learn_phase(without_color),651171,black_plus_sign,,,,null,GW/hat.jpg,GW/teeth.jpg,,,,,,,,,,,,
null,,black_cross(without_color),651859,green,,,,null,GW/hat.jpg,GW/teeth.jpg,,,,,,,,,,,,
null,,rt_plussign_withcolor,652361,green,,,,null,GW/hat.jpg,GW/teeth.jpg,,,,,,,,,,,,
1123.2000000029802,,rt_thecrossant_black,653680,black_plus_sign,,,,50,,,1,1,,,,,,,,,,
null,,color_black,653783,black_plus_sign,,,,null,,,,,,,,,,,,,,
null,,learn_phase(without_color),655787,black_plus_sign,,,,null,GW/dustpan.jpg,GW/camera.jpg,,,,,,,,,,,,
null,,black_cross(without_color),656827,green,,,,null,GW/dustpan.jpg,GW/camera.jpg,,,,,,,,,,,,
null,,rt_plussign_withcolor,657329,green,,,,null,GW/dustpan.jpg,GW/camera.jpg,,,,,,,,,,,,
995.0999999940395,,rt_thecrossant_black,658295,black_plus_sign,,,,50,,,1,1,,,,,,,,,,
null,,color_black,658398,black_plus_sign,,,,null,,,,,,,,,,,,,,
null,,learn_phase(without_color),660403,black_plus_sign,,,,null,GW/camera.jpg,GW/basket.jpg,,,,,,,,,,,,
null,,black_cross(without_color),660822,blue,,,,null,GW/camera.jpg,GW/basket.jpg,,,,,,,,,,,,
null,,rt_plussign_withcolor,661325,blue,,,,null,GW/camera.jpg,GW/basket.jpg,,,,,,,,,,,,
1278.3999999985099,,rt_thecrossant_black,662911,black_plus_sign,,,,49,,,1,1,,,,,,,,,,
null,,color_black,663014,black_plus_sign,,,,null,,,,,,,,,,,,,,
null,,learn_phase(without_color),665019,black_plus_sign,,,,null,GW/basket.jpg,GW/barrel.jpg,,,,,,,,,,,,
null,,black_cross(without_color),665685,blue,,,,null,GW/basket.jpg,GW/barrel.jpg,,,,,,,,,,,,
null,,rt_plussign_withcolor,666188,blue,,,,null,GW/basket.jpg,GW/barrel.jpg,,,,,,,,,,,,
745.3999999985099,,rt_thecrossant_black,667527,black_plus_sign,,,,49,,,1,1,,,,,,,,,,
null,,color_black,667630,black_plus_sign,,,,null,,,,,,,,,,,,,,
null,,learn_phase(without_color),669633,black_plus_sign,,,,null,GW/camera.jpg,GW/basket.jpg,,,,,,,,,,,,
null,,black_cross(without_color),670096,blue,,,,null,GW/camera.jpg,GW/basket.jpg,,,,,,,,,,,,
null,,rt_plussign_withcolor,670598,blue,,,,null,GW/camera.jpg,GW/basket.jpg,,,,,,,,,,,,
989.4000000059605,,rt_thecrossant_black,672141,black_plus_sign,,,,49,,,1,1,,,,,,,,,,
null,,color_black,672245,black_plus_sign,,,,null,,,,,,,,,,,,,,
null,,learn_phase(without_color),674249,black_plus_sign,,,,null,GW/soldier.jpg,GW/jukebox.jpg,,,,,,,,,,,,
null,,black_cross(without_color),675214,green,,,,null,GW/soldier.jpg,GW/jukebox.jpg,,,,,,,,,,,,
null,,rt_plussign_withcolor,675717,green,,,,null,GW/soldier.jpg,GW/jukebox.jpg,,,,,,,,,,,,
848.7000000029802,,rt_thecrossant_black,676757,black_plus_sign,,,,50,,,1,1,,,,,,,,,,
null,,color_black,676860,black_plus_sign,,,,null,,,,,,,,,,,,,,
null,,learn_phase(without_color),678864,black_plus_sign,,,,null,GW/hat.jpg,GW/teeth.jpg,,,,,,,,,,,,
null,,black_cross(without_color),679861,green,,,,null,GW/hat.jpg,GW/teeth.jpg,,,,,,,,,,,,
null,,rt_plussign_withcolor,680364,green,,,,null,GW/hat.jpg,GW/teeth.jpg,,,,,,,,,,,,
1395.3000000044703,,rt_thecrossant_black,681373,black_plus_sign,,,,50,,,1,1,,,,,,,,,,
null,,color_black,681476,black_plus_sign,,,,null,,,,,,,,,,,,,,
null,,learn_phase(without_color),683480,black_plus_sign,,,,null,GW/basket.jpg,GW/globe.jpg,,,,,,,,,,,,
null,,black_cross(without_color),684580,green,,,,null,GW/basket.jpg,GW/globe.jpg,,,,,,,,,,,,
null,,rt_plussign_withcolor,685082,green,,,,null,GW/basket.jpg,GW/globe.jpg,,,,,,,,,,,,
1224.3999999985099,,rt_thecrossant_black,685989,black_plus_sign,,,,50,,,1,1,,,,,,,,,,
null,,color_black,686092,black_plus_sign,,,,null,,,,,,,,,,,,,,
null,,learn_phase(without_color),688096,black_plus_sign,,,,null,GW/globe.jpg,GW/gong.jpg,,,,,,,,,,,,
null,,black_cross(without_color),689107,blue,,,,null,GW/globe.jpg,GW/gong.jpg,,,,,,,,,,,,
null,,rt_plussign_withcolor,689609,blue,,,,null,GW/globe.jpg,GW/gong.jpg,,,,,,,,,,,,
1608.6000000014901,,rt_thecrossant_black,690603,black_plus_sign,,,,49,,,1,1,,,,,,,,,,
null,,color_black,690706,black_plus_sign,,,,null,,,,,,,,,,,,,,
null,,learn_phase(without_color),692711,black_plus_sign,,,,null,GW/camera.jpg,GW/basket.jpg,,,,,,,,,,,,
null,,black_cross(without_color),693745,green,,,,null,GW/camera.jpg,GW/basket.jpg,,,,,,,,,,,,
null,,rt_plussign_withcolor,694247,green,,,,null,GW/camera.jpg,GW/basket.jpg,,,,,,,,,,,,
1350,,rt_thecrossant_black,695219,black_plus_sign,,,,50,,,1,1,,,,,,,,,,
null,,color_black,695322,black_plus_sign,,,,null,,,,,,,,,,,,,,
null,,learn_phase(without_color),697327,black_plus_sign,,,,null,GW/wheelchair.jpg,GW/dustpan.jpg,,,,,,,,,,,,
null,,black_cross(without_color),697971,green,,,,null,GW/wheelchair.jpg,GW/dustpan.jpg,,,,,,,,,,,,
null,,rt_plussign_withcolor,698473,green,,,,null,GW/wheelchair.jpg,GW/dustpan.jpg,,,,,,,,,,,,
1262.5,,rt_thecrossant_black,699835,black_plus_sign,,,,50,,,1,1,,,,,,,,,,
null,,color_black,699939,black_plus_sign,,,,null,,,,,,,,,,,,,,
null,,learn_phase(without_color),701943,black_plus_sign,,,,null,GW/soldier.jpg,GW/jukebox.jpg,,,,,,,,,,,,
null,,black_cross(without_color),702596,green,,,,null,GW/soldier.jpg,GW/jukebox.jpg,,,,,,,,,,,,
null,,rt_plussign_withcolor,703099,green,,,,null,GW/soldier.jpg,GW/jukebox.jpg,,,,,,,,,,,,
1558.1000000014901,,rt_thecrossant_black,704452,black_plus_sign,,,,50,,,1,1,,,,,,,,,,
null,,color_black,704556,black_plus_sign,,,,null,,,,,,,,,,,,,,
null,,learn_phase(without_color),706560,black_plus_sign,,,,null,GW/wheelchair.jpg,GW/dustpan.jpg,,,,,,,,,,,,
null,,black_cross(without_color),707354,green,,,,null,GW/wheelchair.jpg,GW/dustpan.jpg,,,,,,,,,,,,
null,,rt_plussign_withcolor,707856,green,,,,null,GW/wheelchair.jpg,GW/dustpan.jpg,,,,,,,,,,,,
1021.1999999955297,,rt_thecrossant_black,709068,black_plus_sign,,,,50,,,1,1,,,,,,,,,,
null,,color_black,709171,black_plus_sign,,,,null,,,,,,,,,,,,,,
null,,learn_phase(without_color),711176,black_plus_sign,,,,null,GW/snail.jpg,GW/paint.jpg,,,,,,,,,,,,
null,,black_cross(without_color),712048,blue,,,,null,GW/snail.jpg,GW/paint.jpg,,,,,,,,,,,,
null,,rt_plussign_withcolor,712551,blue,,,,null,GW/snail.jpg,GW/paint.jpg,,,,,,,,,,,,
1172.6999999955297,,rt_thecrossant_black,713684,black_plus_sign,,,,49,,,1,1,,,,,,,,,,
null,,color_black,713787,black_plus_sign,,,,null,,,,,,,,,,,,,,
null,,learn_phase(without_color),715791,black_plus_sign,,,,null,GW/globe.jpg,GW/barrel.jpg,,,,,,,,,,,,
null,,black_cross(without_color),716248,blue,,,,null,GW/globe.jpg,GW/barrel.jpg,,,,,,,,,,,,
null,,rt_plussign_withcolor,716750,blue,,,,null,GW/globe.jpg,GW/barrel.jpg,,,,,,,,,,,,
1042.5,,rt_thecrossant_black,718299,black_plus_sign,,,,49,,,1,1,,,,,,,,,,
null,,color_black,718402,black_plus_sign,,,,null,,,,,,,,,,,,,,
null,,learn_phase(without_color),720406,black_plus_sign,,,,null,GW/basket.jpg,GW/barrel.jpg,,,,,,,,,,,,
null,,black_cross(without_color),720960,blue,,,,null,GW/basket.jpg,GW/barrel.jpg,,,,,,,,,,,,
null,,rt_plussign_withcolor,721462,blue,,,,null,GW/basket.jpg,GW/barrel.jpg,,,,,,,,,,,,
606.7000000029802,,rt_thecrossant_black,722916,black_plus_sign,,,,49,,,1,1,,,,,,,,,,
null,,color_black,723019,black_plus_sign,,,,null,,,,,,,,,,,,,,
null,,learn_phase(without_color),725022,black_plus_sign,,,,null,GW/snail.jpg,GW/paint.jpg,,,,,,,,,,,,
null,,black_cross(without_color),725727,blue,,,,null,GW/snail.jpg,GW/paint.jpg,,,,,,,,,,,,
487.5,,rt_plussign_withcolor,726229,blue,,,,49,GW/snail.jpg,GW/paint.jpg,,,,,,,,,,,,
null,,rt_thecrossant_black,727529,black_plus_sign,,,,null,,,1,1,,,,,,,,,,
null,,color_black,727633,black_plus_sign,,,,null,,,,,,,,,,,,,,
null,,learn_phase(without_color),729637,black_plus_sign,,,,null,GW/soldier.jpg,GW/teeth.jpg,,,,,,,,,,,,
null,,black_cross(without_color),730656,green,,,,null,GW/soldier.jpg,GW/teeth.jpg,,,,,,,,,,,,
null,,rt_plussign_withcolor,731159,green,,,,null,GW/soldier.jpg,GW/teeth.jpg,,,,,,,,,,,,
1262.2999999970198,,rt_thecrossant_black,732144,black_plus_sign,,,,50,,,1,1,,,,,,,,,,
null,,color_black,732247,black_plus_sign,,,,null,,,,,,,,,,,,,,
null,,learn_phase(without_color),734252,black_plus_sign,,,,null,GW/snail.jpg,GW/barrel.jpg,,,,,,,,,,,,
null,,black_cross(without_color),734792,blue,,,,null,GW/snail.jpg,GW/barrel.jpg,,,,,,,,,,,,
null,,rt_plussign_withcolor,735294,blue,,,,null,GW/snail.jpg,GW/barrel.jpg,,,,,,,,,,,,
1257,,rt_thecrossant_black,736760,black_plus_sign,,,,49,,,1,1,,,,,,,,,,
null,,color_black,736863,black_plus_sign,,,,null,,,,,,,,,,,,,,
null,,learn_phase(without_color),738868,black_plus_sign,,,,null,GW/soldier.jpg,GW/jukebox.jpg,,,,,,,,,,,,
null,,black_cross(without_color),739729,green,,,,null,GW/soldier.jpg,GW/jukebox.jpg,,,,,,,,,,,,
null,,rt_plussign_withcolor,740231,green,,,,null,GW/soldier.jpg,GW/jukebox.jpg,,,,,,,,,,,,
728.1000000014901,,rt_thecrossant_black,741376,black_plus_sign,,,,50,,,1,1,,,,,,,,,,
null,,color_black,741479,black_plus_sign,,,,null,,,,,,,,,,,,,,
null,,learn_phase(without_color),743483,black_plus_sign,,,,null,GW/barrel.jpg,GW/hat.jpg,,,,,,,,,,,,
null,,black_cross(without_color),744158,green,,,,null,GW/barrel.jpg,GW/hat.jpg,,,,,,,,,,,,
null,,rt_plussign_withcolor,744661,green,,,,null,GW/barrel.jpg,GW/hat.jpg,,,,,,,,,,,,
1204.5,,rt_thecrossant_black,745991,black_plus_sign,,,,50,,,1,1,,,,,,,,,,
null,,color_black,746094,black_plus_sign,,,,null,,,,,,,,,,,,,,
null,,learn_phase(without_color),748098,black_plus_sign,,,,null,GW/wheelchair.jpg,GW/dustpan.jpg,,,,,,,,,,,,
null,,black_cross(without_color),748700,green,,,,null,GW/wheelchair.jpg,GW/dustpan.jpg,,,,,,,,,,,,
null,,rt_plussign_withcolor,749203,green,,,,null,GW/wheelchair.jpg,GW/dustpan.jpg,,,,,,,,,,,,
867.1000000014901,,rt_thecrossant_black,750607,black_plus_sign,,,,50,,,1,1,,,,,,,,,,
null,,color_black,750709,black_plus_sign,,,,null,,,,,,,,,,,,,,
null,,learn_phase(without_color),752714,black_plus_sign,,,,null,GW/snail.jpg,GW/paint.jpg,,,,,,,,,,,,
null,,black_cross(without_color),753158,green,,,,null,GW/snail.jpg,GW/paint.jpg,,,,,,,,,,,,
null,,rt_plussign_withcolor,753660,green,,,,null,GW/snail.jpg,GW/paint.jpg,,,,,,,,,,,,
763.3999999985099,,rt_thecrossant_black,755222,black_plus_sign,,,,50,,,1,1,,,,,,,,,,
null,,color_black,755325,black_plus_sign,,,,null,,,,,,,,,,,,,,
null,,learn_phase(without_color),757330,black_plus_sign,,,,null,GW/globe.jpg,GW/barrel.jpg,,,,,,,,,,,,
null,,black_cross(without_color),758280,blue,,,,null,GW/globe.jpg,GW/barrel.jpg,,,,,,,,,,,,
null,,rt_plussign_withcolor,758783,blue,,,,null,GW/globe.jpg,GW/barrel.jpg,,,,,,,,,,,,
938.6000000014901,,rt_thecrossant_black,759838,black_plus_sign,,,,49,,,1,1,,,,,,,,,,
null,,color_black,759941,black_plus_sign,,,,null,,,,,,,,,,,,,,
null,,learn_phase(without_color),761945,black_plus_sign,,,,null,GW/camera.jpg,GW/basket.jpg,,,,,,,,,,,,
null,,black_cross(without_color),762406,blue,,,,null,GW/camera.jpg,GW/basket.jpg,,,,,,,,,,,,
null,,rt_plussign_withcolor,762908,blue,,,,null,GW/camera.jpg,GW/basket.jpg,,,,,,,,,,,,
1126.6999999955297,,rt_thecrossant_black,764452,black_plus_sign,,,,49,,,1,1,,,,,,,,,,
null,,color_black,764555,black_plus_sign,,,,null,,,,,,,,,,,,,,
null,,learn_phase(without_color),766560,black_plus_sign,,,,null,GW/snail.jpg,GW/paint.jpg,,,,,,,,,,,,
null,,black_cross(without_color),767011,green,,,,null,GW/snail.jpg,GW/paint.jpg,,,,,,,,,,,,
null,,rt_plussign_withcolor,767513,green,,,,null,GW/snail.jpg,GW/paint.jpg,,,,,,,,,,,,
815.1999999955297,,rt_thecrossant_black,769067,black_plus_sign,,,,50,,,1,1,,,,,,,,,,
null,,color_black,769170,black_plus_sign,,,,null,,,,,,,,,,,,,,
null,,learn_phase(without_color),771174,black_plus_sign,,,,null,GW/barrel.jpg,GW/hat.jpg,,,,,,,,,,,,
null,,black_cross(without_color),771668,blue,,,,null,GW/barrel.jpg,GW/hat.jpg,,,,,,,,,,,,
null,,rt_plussign_withcolor,772170,blue,,,,null,GW/barrel.jpg,GW/hat.jpg,,,,,,,,,,,,
746.1999999955297,,rt_thecrossant_black,773682,black_plus_sign,,,,49,,,1,1,,,,,,,,,,
null,,color_black,773785,black_plus_sign,,,,null,,,,,,,,,,,,,,
null,,learn_phase(without_color),775789,black_plus_sign,,,,null,GW/globe.jpg,GW/barrel.jpg,,,,,,,,,,,,
null,,black_cross(without_color),776407,green,,,,null,GW/globe.jpg,GW/barrel.jpg,,,,,,,,,,,,
null,,rt_plussign_withcolor,776910,green,,,,null,GW/globe.jpg,GW/barrel.jpg,,,,,,,,,,,,
958,,rt_thecrossant_black,778297,black_plus_sign,,,,50,,,1,1,,,,,,,,,,
null,,color_black,778400,black_plus_sign,,,,null,,,,,,,,,,,,,,
null,,learn_phase(without_color),780404,black_plus_sign,,,,null,GW/camera.jpg,GW/basket.jpg,,,,,,,,,,,,
null,,black_cross(without_color),781076,green,,,,null,GW/camera.jpg,GW/basket.jpg,,,,,,,,,,,,
null,,rt_plussign_withcolor,781578,green,,,,null,GW/camera.jpg,GW/basket.jpg,,,,,,,,,,,,
857.6999999955297,,rt_thecrossant_black,782913,black_plus_sign,,,,50,,,1,1,,,,,,,,,,
null,,color_black,783016,black_plus_sign,,,,null,,,,,,,,,,,,,,
null,,learn_phase(without_color),785020,black_plus_sign,,,,null,GW/globe.jpg,GW/gong.jpg,,,,,,,,,,,,
null,,black_cross(without_color),785592,green,,,,null,GW/globe.jpg,GW/gong.jpg,,,,,,,,,,,,
null,,rt_plussign_withcolor,786094,green,,,,null,GW/globe.jpg,GW/gong.jpg,,,,,,,,,,,,
792.6999999955297,,rt_thecrossant_black,787528,black_plus_sign,,,,50,,,1,1,,,,,,,,,,
null,,color_black,787631,black_plus_sign,,,,null,,,,,,,,,,,,,,
null,,learn_phase(without_color),789635,black_plus_sign,,,,null,GW/globe.jpg,GW/barrel.jpg,,,,,,,,,,,,
null,,black_cross(without_color),790070,blue,,,,null,GW/globe.jpg,GW/barrel.jpg,,,,,,,,,,,,
null,,rt_plussign_withcolor,790575,blue,,,,null,GW/globe.jpg,GW/barrel.jpg,,,,,,,,,,,,
740,,rt_thecrossant_black,792148,black_plus_sign,,,,49,,,1,1,,,,,,,,,,
null,,color_black,792251,black_plus_sign,,,,null,,,,,,,,,,,,,,
null,,learn_phase(without_color),794255,black_plus_sign,,,,null,GW/soldier.jpg,GW/teeth.jpg,,,,,,,,,,,,
null,,black_cross(without_color),795207,green,,,,null,GW/soldier.jpg,GW/teeth.jpg,,,,,,,,,,,,
null,,rt_plussign_withcolor,795709,green,,,,null,GW/soldier.jpg,GW/teeth.jpg,,,,,,,,,,,,
548.6999999955297,,rt_thecrossant_black,796762,black_plus_sign,,,,50,,,1,1,,,,,,,,,,
null,,color_black,796865,black_plus_sign,,,,null,,,,,,,,,,,,,,
null,,learn_phase(without_color),798870,black_plus_sign,,,,null,GW/globe.jpg,GW/barrel.jpg,,,,,,,,,,,,
null,,black_cross(without_color),799878,green,,,,null,GW/globe.jpg,GW/barrel.jpg,,,,,,,,,,,,
null,,rt_plussign_withcolor,800380,green,,,,null,GW/globe.jpg,GW/barrel.jpg,,,,,,,,,,,,
1269.3999999985099,,rt_thecrossant_black,801378,black_plus_sign,,,,50,,,1,1,,,,,,,,,,
null,,color_black,801481,black_plus_sign,,,,null,,,,,,,,,,,,,,
null,,learn_phase(without_color),803485,black_plus_sign,,,,null,GW/globe.jpg,GW/snail.jpg,,,,,,,,,,,,
null,,black_cross(without_color),804184,blue,,,,null,GW/globe.jpg,GW/snail.jpg,,,,,,,,,,,,
null,,rt_plussign_withcolor,804686,blue,,,,null,GW/globe.jpg,GW/snail.jpg,,,,,,,,,,,,
1368.6999999955297,,rt_thecrossant_black,805994,black_plus_sign,,,,49,,,1,1,,,,,,,,,,
null,,color_black,806097,black_plus_sign,,,,null,,,,,,,,,,,,,,
null,,learn_phase(without_color),808101,black_plus_sign,,,,null,GW/hat.jpg,GW/teeth.jpg,,,,,,,,,,,,
null,,black_cross(without_color),808740,green,,,,null,GW/hat.jpg,GW/teeth.jpg,,,,,,,,,,,,
null,,rt_plussign_withcolor,809242,green,,,,null,GW/hat.jpg,GW/teeth.jpg,,,,,,,,,,,,
966.4000000059605,,rt_thecrossant_black,810609,black_plus_sign,,,,50,,,1,1,,,,,,,,,,
null,,color_black,810712,black_plus_sign,,,,null,,,,,,,,,,,,,,
null,,learn_phase(without_color),812719,black_plus_sign,,,,null,GW/globe.jpg,GW/snail.jpg,,,,,,,,,,,,
null,,black_cross(without_color),813347,green,,,,null,GW/globe.jpg,GW/snail.jpg,,,,,,,,,,,,
null,,rt_plussign_withcolor,813850,green,,,,null,GW/globe.jpg,GW/snail.jpg,,,,,,,,,,,,
895.1000000014901,,rt_thecrossant_black,815226,black_plus_sign,,,,50,,,1,1,,,,,,,,,,
null,,color_black,815330,black_plus_sign,,,,null,,,,,,,,,,,,,,
null,,learn_phase(without_color),817334,black_plus_sign,,,,null,GW/snail.jpg,GW/barrel.jpg,,,,,,,,,,,,
null,,black_cross(without_color),818274,blue,,,,null,GW/snail.jpg,GW/barrel.jpg,,,,,,,,,,,,
null,,rt_plussign_withcolor,818776,blue,,,,null,GW/snail.jpg,GW/barrel.jpg,,,,,,,,,,,,
926.8000000044703,,rt_thecrossant_black,819842,black_plus_sign,,,,49,,,1,1,,,,,,,,,,
null,,color_black,819946,black_plus_sign,,,,null,,,,,,,,,,,,,,
null,,learn_phase(without_color),821950,black_plus_sign,,,,null,GW/dustpan.jpg,GW/camera.jpg,,,,,,,,,,,,
null,,black_cross(without_color),822627,green,,,,null,GW/dustpan.jpg,GW/camera.jpg,,,,,,,,,,,,
null,,rt_plussign_withcolor,823130,green,,,,null,GW/dustpan.jpg,GW/camera.jpg,,,,,,,,,,,,
1231.5,,rt_thecrossant_black,824459,black_plus_sign,,,,50,,,1,1,,,,,,,,,,
null,,color_black,824562,black_plus_sign,,,,null,,,,,,,,,,,,,,
null,,learn_phase(without_color),826566,black_plus_sign,,,,null,GW/globe.jpg,GW/barrel.jpg,,,,,,,,,,,,
null,,black_cross(without_color),827500,green,,,,null,GW/globe.jpg,GW/barrel.jpg,,,,,,,,,,,,
493.6000000014901,,rt_plussign_withcolor,828002,green,,,,50,GW/globe.jpg,GW/barrel.jpg,,,,,,,,,,,,
null,,rt_thecrossant_black,829073,black_plus_sign,,,,null,,,1,1,,,,,,,,,,
null,,color_black,829176,black_plus_sign,,,,null,,,,,,,,,,,,,,
null,,learn_phase(without_color),831181,black_plus_sign,,,,null,GW/camera.jpg,GW/hat.jpg,,,,,,,,,,,,
null,,black_cross(without_color),831907,blue,,,,null,GW/camera.jpg,GW/hat.jpg,,,,,,,,,,,,
null,,rt_plussign_withcolor,832409,blue,,,,null,GW/camera.jpg,GW/hat.jpg,,,,,,,,,,,,
1245.8000000044703,,rt_thecrossant_black,833689,black_plus_sign,,,,49,,,1,1,,,,,,,,,,
null,,color_black,833792,black_plus_sign,,,,null,,,,,,,,,,,,,,
null,,learn_phase(without_color),835797,black_plus_sign,,,,null,GW/wheelchair.jpg,GW/dustpan.jpg,,,,,,,,,,,,
null,,black_cross(without_color),836477,blue,,,,null,GW/wheelchair.jpg,GW/dustpan.jpg,,,,,,,,,,,,
null,,rt_plussign_withcolor,836980,blue,,,,null,GW/wheelchair.jpg,GW/dustpan.jpg,,,,,,,,,,,,
1123.3000000044703,,rt_thecrossant_black,838305,black_plus_sign,,,,49,,,1,1,,,,,,,,,,
null,,color_black,838408,black_plus_sign,,,,null,,,,,,,,,,,,,,
null,,learn_phase(without_color),840412,black_plus_sign,,,,null,GW/camera.jpg,GW/hat.jpg,,,,,,,,,,,,
null,,black_cross(without_color),841472,green,,,,null,GW/camera.jpg,GW/hat.jpg,,,,,,,,,,,,
null,,rt_plussign_withcolor,841974,green,,,,null,GW/camera.jpg,GW/hat.jpg,,,,,,,,,,,,
1142.2999999970198,,rt_thecrossant_black,842920,black_plus_sign,,,,50,,,1,1,,,,,,,,,,
null,,color_black,843024,black_plus_sign,,,,null,,,,,,,,,,,,,,
null,,learn_phase(without_color),845028,black_plus_sign,,,,null,GW/globe.jpg,GW/snail.jpg,,,,,,,,,,,,
null,,black_cross(without_color),845766,blue,,,,null,GW/globe.jpg,GW/snail.jpg,,,,,,,,,,,,
null,,rt_plussign_withcolor,846269,blue,,,,null,GW/globe.jpg,GW/snail.jpg,,,,,,,,,,,,
1361,,rt_thecrossant_black,847537,black_plus_sign,,,,49,,,1,1,,,,,,,,,,
null,,color_black,847640,black_plus_sign,,,,null,,,,,,,,,,,,,,
null,,learn_phase(without_color),849644,black_plus_sign,,,,null,GW/globe.jpg,GW/gong.jpg,,,,,,,,,,,,
null,,black_cross(without_color),850477,green,,,,null,GW/globe.jpg,GW/gong.jpg,,,,,,,,,,,,
null,,rt_plussign_withcolor,850980,green,,,,null,GW/globe.jpg,GW/gong.jpg,,,,,,,,,,,,
1055.7000000029802,,rt_thecrossant_black,852153,black_plus_sign,,,,50,,,1,1,,,,,,,,,,
null,,color_black,852256,black_plus_sign,,,,null,,,,,,,,,,,,,,
null,,learn_phase(without_color),854260,black_plus_sign,,,,null,GW/snail.jpg,GW/paint.jpg,,,,,,,,,,,,
null,,black_cross(without_color),855004,green,,,,null,GW/snail.jpg,GW/paint.jpg,,,,,,,,,,,,
null,,rt_plussign_withcolor,855507,green,,,,null,GW/snail.jpg,GW/paint.jpg,,,,,,,,,,,,
1083.7999999970198,,rt_thecrossant_black,856769,black_plus_sign,,,,50,,,1,1,,,,,,,,,,
null,,color_black,856872,black_plus_sign,,,,null,,,,,,,,,,,,,,
null,,learn_phase(without_color),858877,black_plus_sign,,,,null,GW/globe.jpg,GW/snail.jpg,,,,,,,,,,,,
null,,black_cross(without_color),859581,blue,,,,null,GW/globe.jpg,GW/snail.jpg,,,,,,,,,,,,
null,,rt_plussign_withcolor,860083,blue,,,,null,GW/globe.jpg,GW/snail.jpg,,,,,,,,,,,,
1090.1000000014901,,rt_thecrossant_black,861385,black_plus_sign,,,,49,,,1,1,,,,,,,,,,
null,,color_black,861489,black_plus_sign,,,,null,,,,,,,,,,,,,,
16126.79999999702,,intro_1,877620,instruct,,0,Start,,,,,,,,,,,,,,,
6063.70000000298,,directmemory_phase,883688,GW/basket.jpg,,,,51,,,1,1,GW/wheelchair.jpg,GW/snail.jpg,GW/barrel.jpg,GW/barrel.jpg,GW/snail.jpg,GW/wheelchair.jpg,1,,,
null,,html-keyboard-response,884693,<p></p>,,,,null,,,,,,,,,,,,,,
2640.8000000044703,,directmemory_phase,887337,GW/dustpan.jpg,,,,49,,,1,1,GW/wheelchair.jpg,GW/gong.jpg,GW/jukebox.jpg,GW/wheelchair.jpg,GW/jukebox.jpg,GW/gong.jpg,1,,,
null,,html-keyboard-response,888339,<p></p>,,,,null,,,,,,,,,,,,,,
4709.10000000149,,directmemory_phase,893051,GW/hat.jpg,,,,50,,,0,0.6666666666666666,GW/jukebox.jpg,GW/dustpan.jpg,GW/barrel.jpg,GW/barrel.jpg,GW/dustpan.jpg,GW/jukebox.jpg,0.5,closer,,
null,,html-keyboard-response,894055,<p></p>,,,,null,,,,,,,,,,,,,,
2905.8000000044703,,directmemory_phase,896964,GW/basket.jpg,,,,49,,,1,0.75,GW/camera.jpg,GW/soldier.jpg,GW/dustpan.jpg,GW/camera.jpg,GW/dustpan.jpg,GW/soldier.jpg,1,,,
null,,html-keyboard-response,897968,<p></p>,,,,null,,,,,,,,,,,,,,
5188,,directmemory_phase,903159,GW/barrel.jpg,,,,49,,,1,0.8,GW/snail.jpg,GW/soldier.jpg,GW/paint.jpg,GW/snail.jpg,GW/paint.jpg,GW/soldier.jpg,1,,,
null,,html-keyboard-response,904162,<p></p>,,,,null,,,,,,,,,,,,,,
2205.6999999955297,,directmemory_phase,906371,GW/globe.jpg,,,,51,,,1,0.8333333333333334,GW/soldier.jpg,GW/paint.jpg,GW/basket.jpg,GW/basket.jpg,GW/paint.jpg,GW/soldier.jpg,1,,,
null,,html-keyboard-response,907374,<p></p>,,,,null,,,,,,,,,,,,,,
2566.7999999970198,,directmemory_phase,909944,GW/hat.jpg,,,,50,,,1,0.8571428571428571,GW/dustpan.jpg,GW/teeth.jpg,GW/wheelchair.jpg,GW/teeth.jpg,GW/dustpan.jpg,GW/wheelchair.jpg,1,,,
null,,html-keyboard-response,910948,<p></p>,,,,null,,,,,,,,,,,,,,
2338.8000000044703,,directmemory_phase,913290,GW/barrel.jpg,,,,49,,,1,0.875,GW/basket.jpg,GW/jukebox.jpg,GW/teeth.jpg,GW/basket.jpg,GW/teeth.jpg,GW/jukebox.jpg,1,,,
null,,html-keyboard-response,914294,<p></p>,,,,null,,,,,,,,,,,,,,
1428.8999999985099,,directmemory_phase,915726,GW/wheelchair.jpg,,,,49,,,1,0.8888888888888888,GW/dustpan.jpg,GW/teeth.jpg,GW/soldier.jpg,GW/dustpan.jpg,GW/soldier.jpg,GW/teeth.jpg,1,,,
null,,html-keyboard-response,916730,<p></p>,,,,null,,,,,,,,,,,,,,
3295.8000000044703,,directmemory_phase,920029,GW/barrel.jpg,,,,49,,,1,0.9,GW/globe.jpg,GW/wheelchair.jpg,GW/teeth.jpg,GW/globe.jpg,GW/teeth.jpg,GW/wheelchair.jpg,1,,,
null,,html-keyboard-response,921033,<p></p>,,,,null,,,,,,,,,,,,,,
4668,,directmemory_phase,925704,GW/soldier.jpg,,,,50,,,0,0.8181818181818182,GW/basket.jpg,GW/hat.jpg,GW/dustpan.jpg,GW/dustpan.jpg,GW/hat.jpg,GW/basket.jpg,0.5,closer,,
null,,html-keyboard-response,926707,<p></p>,,,,null,,,,,,,,,,,,,,
2624.6999999955297,,directmemory_phase,929335,GW/globe.jpg,,,,51,,,1,0.8333333333333334,GW/teeth.jpg,GW/paint.jpg,GW/barrel.jpg,GW/barrel.jpg,GW/paint.jpg,GW/teeth.jpg,1,,,
null,,html-keyboard-response,930339,<p></p>,,,,null,,,,,,,,,,,,,,
2344.8000000044703,,directmemory_phase,932687,GW/teeth.jpg,,,,49,,,1,0.8461538461538461,GW/hat.jpg,GW/paint.jpg,GW/camera.jpg,GW/hat.jpg,GW/camera.jpg,GW/paint.jpg,1,,,
null,,html-keyboard-response,933690,<p></p>,,,,null,,,,,,,,,,,,,,
5701.39999999851,,directmemory_phase,939395,GW/basket.jpg,,,,49,,,1,0.8571428571428571,GW/globe.jpg,GW/paint.jpg,GW/gong.jpg,GW/globe.jpg,GW/gong.jpg,GW/paint.jpg,1,,,
null,,html-keyboard-response,940398,<p></p>,,,,null,,,,,,,,,,,,,,
6332.80000000447,,directmemory_phase,946733,GW/snail.jpg,,,,50,,,1,0.8666666666666667,GW/gong.jpg,GW/paint.jpg,GW/dustpan.jpg,GW/paint.jpg,GW/gong.jpg,GW/dustpan.jpg,1,,,
null,,html-keyboard-response,947737,<p></p>,,,,null,,,,,,,,,,,,,,
1903.8000000044703,,directmemory_phase,949644,GW/globe.jpg,,,,51,,,1,0.875,GW/soldier.jpg,GW/paint.jpg,GW/gong.jpg,GW/gong.jpg,GW/paint.jpg,GW/soldier.jpg,1,,,
null,,html-keyboard-response,950648,<p></p>,,,,null,,,,,,,,,,,,,,
4969.0999999940395,,directmemory_phase,955620,GW/paint.jpg,,,,50,,,0,0.8235294117647058,GW/camera.jpg,GW/globe.jpg,GW/snail.jpg,GW/snail.jpg,GW/globe.jpg,GW/camera.jpg,0.5,closer,,
null,,html-keyboard-response,956623,<p></p>,,,,null,,,,,,,,,,,,,,
2157.8000000044703,,directmemory_phase,958784,GW/hat.jpg,,,,49,,,1,0.8333333333333334,GW/camera.jpg,GW/wheelchair.jpg,GW/soldier.jpg,GW/camera.jpg,GW/soldier.jpg,GW/wheelchair.jpg,1,,,
null,,html-keyboard-response,959786,<p></p>,,,,null,,,,,,,,,,,,,,
4013.10000000149,,directmemory_phase,963813,GW/globe.jpg,,,,51,,,1,0.8421052631578947,GW/teeth.jpg,GW/paint.jpg,GW/snail.jpg,GW/snail.jpg,GW/paint.jpg,GW/teeth.jpg,1,,,
null,,html-keyboard-response,964825,<p></p>,,,,null,,,,,,,,,,,,,,
2634.2999999970198,,directmemory_phase,967464,GW/soldier.jpg,,,,51,,,1,0.85,GW/snail.jpg,GW/camera.jpg,GW/teeth.jpg,GW/teeth.jpg,GW/camera.jpg,GW/snail.jpg,1,,,
null,,html-keyboard-response,968468,<p></p>,,,,null,,,,,,,,,,,,,,
null,,directmemory_phase,974972,GW/snail.jpg,,,,null,,,0,0.8095238095238095,GW/barrel.jpg,GW/soldier.jpg,GW/basket.jpg,GW/barrel.jpg,GW/basket.jpg,GW/soldier.jpg,0,,,
null,,html-keyboard-response,975976,<p></p>,,,,null,,,,,,,,,,,,,,
3113.0999999940395,,directmemory_phase,979093,GW/camera.jpg,,,,49,,,1,0.8181818181818182,GW/basket.jpg,GW/jukebox.jpg,GW/wheelchair.jpg,GW/basket.jpg,GW/wheelchair.jpg,GW/jukebox.jpg,1,,,
null,,html-keyboard-response,980097,<p></p>,,,,null,,,,,,,,,,,,,,
null,,directmemory_phase,986601,GW/snail.jpg,,,,null,,,0,0.782608695652174,GW/hat.jpg,GW/globe.jpg,GW/teeth.jpg,GW/globe.jpg,GW/hat.jpg,GW/teeth.jpg,0,,,
null,,html-keyboard-response,987605,<p></p>,,,,null,,,,,,,,,,,,,,
2773.60000000149,,directmemory_phase,990382,GW/soldier.jpg,,,,49,,,1,0.7916666666666666,GW/jukebox.jpg,GW/snail.jpg,GW/wheelchair.jpg,GW/jukebox.jpg,GW/wheelchair.jpg,GW/snail.jpg,1,,,
null,,html-keyboard-response,991385,<p></p>,,,,null,,,,,,,,,,,,,,
2390.89999999851,,directmemory_phase,993779,GW/dustpan.jpg,,,,50,,,1,0.8,GW/jukebox.jpg,GW/camera.jpg,GW/globe.jpg,GW/camera.jpg,GW/jukebox.jpg,GW/globe.jpg,1,,,
null,,html-keyboard-response,994783,<p></p>,,,,null,,,,,,,,,,,,,,
1461.3999999985099,,directmemory_phase,996249,GW/jukebox.jpg,,,,49,,,1,0.8076923076923077,GW/soldier.jpg,GW/hat.jpg,GW/teeth.jpg,GW/soldier.jpg,GW/teeth.jpg,GW/hat.jpg,1,,,
null,,html-keyboard-response,997254,<p></p>,,,,null,,,,,,,,,,,,,,
2041.8000000044703,,directmemory_phase,999299,GW/camera.jpg,,,,50,,,1,0.8148148148148148,GW/soldier.jpg,GW/hat.jpg,GW/paint.jpg,GW/hat.jpg,GW/soldier.jpg,GW/paint.jpg,1,,,
null,,html-keyboard-response,1000302,<p></p>,,,,null,,,,,,,,,,,,,,
1403.2999999970198,,directmemory_phase,1001709,GW/gong.jpg,,,,49,,,1,0.8214285714285714,GW/globe.jpg,GW/paint.jpg,GW/barrel.jpg,GW/globe.jpg,GW/barrel.jpg,GW/paint.jpg,1,,,
null,,html-keyboard-response,1002714,<p></p>,,,,null,,,,,,,,,,,,,,
2619.3000000044703,,directmemory_phase,1005337,GW/dustpan.jpg,,,,50,,,0,0.7931034482758621,GW/gong.jpg,GW/basket.jpg,GW/soldier.jpg,GW/soldier.jpg,GW/basket.jpg,GW/gong.jpg,0.5,closer,,
null,,html-keyboard-response,1006341,<p></p>,,,,null,,,,,,,,,,,,,,
3109.10000000149,,directmemory_phase,1009454,GW/barrel.jpg,,,,49,,,0,0.7666666666666667,GW/soldier.jpg,GW/gong.jpg,GW/hat.jpg,GW/hat.jpg,GW/gong.jpg,GW/soldier.jpg,0.5,closer,,
null,,html-keyboard-response,1010458,<p></p>,,,,null,,,,,,,,,,,,,,
4128.60000000149,,directmemory_phase,1014591,GW/camera.jpg,,,,51,,,1,0.7741935483870968,GW/jukebox.jpg,GW/globe.jpg,GW/dustpan.jpg,GW/dustpan.jpg,GW/globe.jpg,GW/jukebox.jpg,1,,,
null,,html-keyboard-response,1015595,<p></p>,,,,null,,,,,,,,,,,,,,
1638.7999999970198,,directmemory_phase,1017238,GW/teeth.jpg,,,,50,,,1,0.78125,GW/camera.jpg,GW/soldier.jpg,GW/paint.jpg,GW/soldier.jpg,GW/camera.jpg,GW/paint.jpg,1,,,
null,,html-keyboard-response,1018240,<p></p>,,,,null,,,,,,,,,,,,,,
29320.70000000298,,intro_1,1047565,instruct,,0,,,,,,,,,,,,,,,,
9863,,intro_2,1057436,instruct,,1,Next,,,,,,,,,,,,,,,
6442.69999999553,,intro_3,1063884,instruct,,1,Next,,,,,,,,,,,,,,,
6395.20000000298,,intro_4,1070284,instruct,,1,Next,,,,,,,,,,,,,,,
19514.5,,intro_5,1089804,instruct,,1,Next,,,,,,,,,,,,,,,
18329.70000000298,,intro_6,1108140,instruct,,1,Next,,,,,,,,,,,,,,,
11667.89999999851,,intro_7,1119813,instruct,,1,Next,,,,,,,,,,,,,,,
18585.89999999851,,intro_8,1138404,instruct,,1,Next,,,,,,,,,,,,,,,
3601.10000000149,,shortestpath_phase,1142010,GW/teeth.jpg,,,,49,GW/snail.jpg,GW/paint.jpg,1,1,,,,GW/snail.jpg,,,,,One Edge Diff,Three Edge Four Edge
null,,html-keyboard-response,1143015,<p></p>,,,,null,,,,,,,,,,,,,,
5488,,shortestpath_phase,1148506,GW/globe.jpg,,,,49,GW/dustpan.jpg,GW/camera.jpg,0,0.5,,,,GW/camera.jpg,,,,,One Edge Diff,Two Edge Three Edge
null,,html-keyboard-response,1149509,<p></p>,,,,null,,,,,,,,,,,,,,
4045.5,,shortestpath_phase,1153557,GW/dustpan.jpg,,,,50,GW/teeth.jpg,GW/paint.jpg,0,0.3333333333333333,,,,GW/teeth.jpg,,,,,Three Edge Diff,Three Edge Six Edge
null,,html-keyboard-response,1154561,<p></p>,,,,null,,,,,,,,,,,,,,
5605.69999999553,,shortestpath_phase,1160170,GW/gong.jpg,,,,50,GW/soldier.jpg,GW/jukebox.jpg,0,0.25,,,,GW/soldier.jpg,,,,,One Edge Diff,Five Edge Six Edge
null,,html-keyboard-response,1161173,<p></p>,,,,null,,,,,,,,,,,,,,
6200.5,,shortestpath_phase,1167377,GW/snail.jpg,,,,49,GW/dustpan.jpg,GW/wheelchair.jpg,1,0.4,,,,GW/dustpan.jpg,,,,,One Edge Diff,Four Edge Five Edge
null,,html-keyboard-response,1168383,<p></p>,,,,null,,,,,,,,,,,,,,
2229.5999999940395,,shortestpath_phase,1170616,GW/basket.jpg,,,,50,GW/jukebox.jpg,GW/gong.jpg,1,0.5,,,,GW/gong.jpg,,,,,Two Edge Diff,Two Edge Four Edge
null,,html-keyboard-response,1171620,<p></p>,,,,null,,,,,,,,,,,,,,
3002.39999999851,,shortestpath_phase,1174625,GW/wheelchair.jpg,,,,49,GW/snail.jpg,GW/paint.jpg,1,0.5714285714285714,,,,GW/snail.jpg,,,,,One Edge Diff,Five Edge Six Edge
null,,html-keyboard-response,1175629,<p></p>,,,,null,,,,,,,,,,,,,,
4995.89999999851,,shortestpath_phase,1180628,GW/dustpan.jpg,,,,49,GW/paint.jpg,GW/jukebox.jpg,0,0.5,,,,GW/jukebox.jpg,,,,,Three Edge Diff,Three Edge Six Edge
null,,html-keyboard-response,1181633,<p></p>,,,,null,,,,,,,,,,,,,,
3136.89999999851,,shortestpath_phase,1184773,GW/gong.jpg,,,,49,GW/snail.jpg,GW/hat.jpg,1,0.5555555555555556,,,,GW/snail.jpg,,,,,One Edge Diff,Two Edge Three Edge
null,,html-keyboard-response,1185776,<p></p>,,,,null,,,,,,,,,,,,,,
3964.4000000059605,,shortestpath_phase,1189744,GW/jukebox.jpg,,,,49,GW/snail.jpg,GW/teeth.jpg,0,0.5,,,,GW/teeth.jpg,,,,,Three Edge Diff,Two Edge Five Edge
null,,html-keyboard-response,1190748,<p></p>,,,,null,,,,,,,,,,,,,,
2743.2999999970198,,shortestpath_phase,1193495,GW/dustpan.jpg,,,,49,GW/snail.jpg,GW/paint.jpg,1,0.5454545454545454,,,,GW/snail.jpg,,,,,One Edge Diff,Four Edge Five Edge
null,,html-keyboard-response,1194499,<p></p>,,,,null,,,,,,,,,,,,,,
4590.10000000149,,shortestpath_phase,1199091,GW/wheelchair.jpg,,,,49,GW/gong.jpg,GW/hat.jpg,0,0.5,,,,GW/hat.jpg,,,,,Two Edge Diff,Three Edge Five Edge
null,,html-keyboard-response,1200094,<p></p>,,,,null,,,,,,,,,,,,,,
4011,,shortestpath_phase,1204108,GW/dustpan.jpg,,,,50,GW/barrel.jpg,GW/gong.jpg,0,0.46153846153846156,,,,GW/barrel.jpg,,,,,One Edge Diff,Three Edge Four Edge
null,,html-keyboard-response,1205112,<p></p>,,,,null,,,,,,,,,,,,,,
4694.29999999702,,shortestpath_phase,1209810,GW/snail.jpg,,,,49,GW/basket.jpg,GW/wheelchair.jpg,1,0.5,,,,GW/basket.jpg,,,,,Three Edge Diff,Three Edge Six Edge
null,,html-keyboard-response,1210814,<p></p>,,,,null,,,,,,,,,,,,,,
null,,shortestpath_phase,1218317,GW/paint.jpg,,,,null,GW/wheelchair.jpg,GW/teeth.jpg,0,0.4666666666666667,,,,GW/teeth.jpg,,,,,Two Edge Diff,Four Edge Six Edge
null,,html-keyboard-response,1219321,<p></p>,,,,null,,,,,,,,,,,,,,
4142.39999999851,,shortestpath_phase,1223466,GW/gong.jpg,,,,50,GW/jukebox.jpg,GW/barrel.jpg,1,0.5,,,,GW/barrel.jpg,,,,,Four Edge Diff,Two Edge Six Edge
null,,html-keyboard-response,1224469,<p></p>,,,,null,,,,,,,,,,,,,,
3576.7999999970198,,shortestpath_phase,1228049,GW/dustpan.jpg,,,,50,GW/teeth.jpg,GW/snail.jpg,0,0.47058823529411764,,,,GW/teeth.jpg,,,,,Two Edge Diff,Two Edge Four Edge
null,,html-keyboard-response,1229051,<p></p>,,,,null,,,,,,,,,,,,,,
3885.7999999970198,,shortestpath_phase,1232940,GW/jukebox.jpg,,,,49,GW/basket.jpg,GW/wheelchair.jpg,0,0.4444444444444444,,,,GW/wheelchair.jpg,,,,,One Edge Diff,Three Edge Four Edge
null,,html-keyboard-response,1233944,<p></p>,,,,null,,,,,,,,,,,,,,
3201.6999999955297,,shortestpath_phase,1237149,GW/gong.jpg,,,,49,GW/wheelchair.jpg,GW/teeth.jpg,0,0.42105263157894735,,,,GW/teeth.jpg,,,,,One Edge Diff,Four Edge Five Edge
null,,html-keyboard-response,1238153,<p></p>,,,,null,,,,,,,,,,,,,,
5277.5,,shortestpath_phase,1243433,GW/barrel.jpg,,,,49,GW/camera.jpg,GW/jukebox.jpg,1,0.45,,,,GW/camera.jpg,,,,,Two Edge Diff,Two Edge Four Edge
null,,html-keyboard-response,1244436,<p></p>,,,,null,,,,,,,,,,,,,,
3628.89999999851,,shortestpath_phase,1248068,GW/soldier.jpg,,,,50,GW/basket.jpg,GW/paint.jpg,0,0.42857142857142855,,,,GW/basket.jpg,,,,,Two Edge Diff,Three Edge Five Edge
null,,html-keyboard-response,1249071,<p></p>,,,,null,,,,,,,,,,,,,,
5095,,shortestpath_phase,1254169,GW/paint.jpg,,,,50,GW/jukebox.jpg,GW/barrel.jpg,1,0.45454545454545453,,,,GW/barrel.jpg,,,,,Four Edge Diff,Two Edge Six Edge
null,,html-keyboard-response,1255173,<p></p>,,,,null,,,,,,,,,,,,,,
3475,,shortestpath_phase,1258651,GW/snail.jpg,,,,50,GW/hat.jpg,GW/dustpan.jpg,0,0.43478260869565216,,,,GW/hat.jpg,,,,,Two Edge Diff,Two Edge Four Edge
null,,html-keyboard-response,1259654,<p></p>,,,,null,,,,,,,,,,,,,,
3786.5,,shortestpath_phase,1263444,GW/paint.jpg,,,,49,GW/soldier.jpg,GW/wheelchair.jpg,1,0.4583333333333333,,,,GW/soldier.jpg,,,,,One Edge Diff,Five Edge Six Edge
null,,html-keyboard-response,1264448,<p></p>,,,,null,,,,,,,,,,,,,,
3827.0999999940395,,shortestpath_phase,1268279,GW/camera.jpg,,,,49,GW/barrel.jpg,GW/paint.jpg,1,0.48,,,,GW/barrel.jpg,,,,,Two Edge Diff,Two Edge Four Edge
null,,html-keyboard-response,1269282,<p></p>,,,,null,,,,,,,,,,,,,,
3895,,shortestpath_phase,1273180,GW/globe.jpg,,,,49,GW/paint.jpg,GW/jukebox.jpg,1,0.5,,,,GW/paint.jpg,,,,,Three Edge Diff,Two Edge Five Edge
null,,html-keyboard-response,1274184,<p></p>,,,,null,,,,,,,,,,,,,,
3186,,shortestpath_phase,1277373,GW/jukebox.jpg,,,,50,GW/paint.jpg,GW/teeth.jpg,1,0.5185185185185185,,,,GW/teeth.jpg,,,,,Four Edge Diff,Two Edge Six Edge
null,,html-keyboard-response,1278377,<p></p>,,,,null,,,,,,,,,,,,,,
3820.10000000149,,shortestpath_phase,1282200,GW/hat.jpg,,,,50,GW/globe.jpg,GW/paint.jpg,0,0.5,,,,GW/globe.jpg,,,,,One Edge Diff,Two Edge Three Edge
null,,html-keyboard-response,1283203,<p></p>,,,,null,,,,,,,,,,,,,,
3335.89999999851,,shortestpath_phase,1286542,GW/jukebox.jpg,,,,49,GW/snail.jpg,GW/paint.jpg,1,0.5172413793103449,,,,GW/snail.jpg,,,,,One Edge Diff,Five Edge Six Edge
null,,html-keyboard-response,1287547,<p></p>,,,,null,,,,,,,,,,,,,,
4451.80000000447,,shortestpath_phase,1292002,GW/camera.jpg,,,,49,GW/barrel.jpg,GW/snail.jpg,1,0.5333333333333333,,,,GW/barrel.jpg,,,,,One Edge Diff,Two Edge Three Edge
null,,html-keyboard-response,1293006,<p></p>,,,,null,,,,,,,,,,,,,,
4053.4000000059605,,shortestpath_phase,1297062,GW/snail.jpg,,,,49,GW/soldier.jpg,GW/wheelchair.jpg,1,0.5483870967741935,,,,GW/soldier.jpg,,,,,One Edge Diff,Four Edge Five Edge
null,,html-keyboard-response,1298065,<p></p>,,,,null,,,,,,,,,,,,,,
3834.7000000029802,,shortestpath_phase,1301903,GW/wheelchair.jpg,,,,49,GW/globe.jpg,GW/paint.jpg,1,0.5625,,,,GW/globe.jpg,,,,,Two Edge Diff,Four Edge Six Edge
null,,html-keyboard-response,1302906,<p></p>,,,,null,,,,,,,,,,,,,,
5654,,shortestpath_phase,1308563,GW/snail.jpg,,,,50,GW/wheelchair.jpg,GW/camera.jpg,1,0.5757575757575758,,,,GW/camera.jpg,,,,,Two Edge Diff,Three Edge Five Edge
null,,html-keyboard-response,1309565,<p></p>,,,,null,,,,,,,,,,,,,,
4008.9000000059605,,shortestpath_phase,1313578,GW/basket.jpg,,,,49,GW/hat.jpg,GW/jukebox.jpg,1,0.5882352941176471,,,,GW/hat.jpg,,,,,Two Edge Diff,Two Edge Four Edge
null,,html-keyboard-response,1314582,<p></p>,,,,null,,,,,,,,,,,,,,
4455.9000000059605,,shortestpath_phase,1319040,GW/soldier.jpg,,,,49,GW/paint.jpg,GW/wheelchair.jpg,0,0.5714285714285714,,,,GW/wheelchair.jpg,,,,,Three Edge Diff,Two Edge Five Edge
null,,html-keyboard-response,1320043,<p></p>,,,,null,,,,,,,,,,,,,,
4348.20000000298,,shortestpath_phase,1324394,GW/jukebox.jpg,,,,50,GW/paint.jpg,GW/basket.jpg,1,0.5833333333333334,,,,GW/basket.jpg,,,,,Two Edge Diff,Four Edge Six Edge
null,,html-keyboard-response,1325397,<p></p>,,,,null,,,,,,,,,,,,,,
4671.89999999851,,shortestpath_phase,1330071,GW/wheelchair.jpg,,,,49,GW/hat.jpg,GW/snail.jpg,1,0.5945945945945946,,,,GW/hat.jpg,,,,,Two Edge Diff,Three Edge Five Edge
null,,html-keyboard-response,1331074,<p></p>,,,,null,,,,,,,,,,,,,,
1591.3999999985099,,shortestpath_phase,1332668,GW/gong.jpg,,,,49,GW/basket.jpg,GW/soldier.jpg,1,0.6052631578947368,,,,GW/basket.jpg,,,,,Three Edge Diff,Three Edge Six Edge
null,,html-keyboard-response,1333672,<p></p>,,,,null,,,,,,,,,,,,,,
4229.39999999851,,shortestpath_phase,1337905,GW/jukebox.jpg,,,,49,GW/snail.jpg,GW/hat.jpg,0,0.5897435897435898,,,,GW/hat.jpg,,,,,Two Edge Diff,Three Edge Five Edge
null,,html-keyboard-response,1338909,<p></p>,,,,null,,,,,,,,,,,,,,
3147.2999999970198,,shortestpath_phase,1342059,GW/paint.jpg,,,,50,GW/soldier.jpg,GW/camera.jpg,1,0.6,,,,GW/camera.jpg,,,,,One Edge Diff,Four Edge Five Edge
null,,html-keyboard-response,1343063,<p></p>,,,,null,,,,,,,,,,,,,,
4066.39999999851,,shortestpath_phase,1347132,GW/wheelchair.jpg,,,,49,GW/jukebox.jpg,GW/snail.jpg,1,0.6097560975609756,,,,GW/jukebox.jpg,,,,,Two Edge Diff,Three Edge Five Edge
null,,html-keyboard-response,1348135,<p></p>,,,,null,,,,,,,,,,,,,,
4243.60000000149,,shortestpath_phase,1352382,GW/gong.jpg,,,,49,GW/jukebox.jpg,GW/teeth.jpg,0,0.5952380952380952,,,,GW/teeth.jpg,,,,,Two Edge Diff,Four Edge Six Edge
null,,html-keyboard-response,1353385,<p></p>,,,,null,,,,,,,,,,,,,,
3330.5999999940395,,shortestpath_phase,1356719,GW/jukebox.jpg,,,,50,GW/dustpan.jpg,GW/paint.jpg,0,0.5813953488372093,,,,GW/dustpan.jpg,,,,,Four Edge Diff,Two Edge Six Edge
null,,html-keyboard-response,1357722,<p></p>,,,,null,,,,,,,,,,,,,,
4608.70000000298,,shortestpath_phase,1362334,GW/hat.jpg,,,,49,GW/jukebox.jpg,GW/globe.jpg,0,0.5681818181818182,,,,GW/globe.jpg,,,,,One Edge Diff,Two Edge Three Edge
null,,html-keyboard-response,1363337,<p></p>,,,,null,,,,,,,,,,,,,,
4234.30000000447,,shortestpath_phase,1367575,GW/jukebox.jpg,,,,49,GW/barrel.jpg,GW/gong.jpg,1,0.5777777777777777,,,,GW/barrel.jpg,,,,,Two Edge Diff,Four Edge Six Edge
null,,html-keyboard-response,1368577,<p></p>,,,,null,,,,,,,,,,,,,,
3859.60000000149,,shortestpath_phase,1372438,GW/paint.jpg,,,,49,GW/camera.jpg,GW/jukebox.jpg,1,0.5869565217391305,,,,GW/camera.jpg,,,,,Two Edge Diff,Four Edge Six Edge
null,,html-keyboard-response,1373442,<p></p>,,,,null,,,,,,,,,,,,,,
5356,,shortestpath_phase,1378801,GW/jukebox.jpg,,,,50,GW/dustpan.jpg,GW/gong.jpg,0,0.574468085106383,,,,GW/dustpan.jpg,,,,,Four Edge Diff,Two Edge Six Edge
null,,html-keyboard-response,1379805,<p></p>,,,,null,,,,,,,,,,,,,,
3100.5,,shortestpath_phase,1382909,GW/soldier.jpg,,,,49,GW/basket.jpg,GW/globe.jpg,1,0.5833333333333334,,,,GW/basket.jpg,,,,,One Edge Diff,Three Edge Four Edge
null,,html-keyboard-response,1383913,<p></p>,,,,null,,,,,,,,,,,,,,
2143.89999999851,,shortestpath_phase,1386060,GW/dustpan.jpg,,,,49,GW/hat.jpg,GW/paint.jpg,1,0.5918367346938775,,,,GW/hat.jpg,,,,,Three Edge Diff,Three Edge Six Edge
null,,html-keyboard-response,1387064,<p></p>,,,,null,,,,,,,,,,,,,,
2596,,shortestpath_phase,1389663,GW/teeth.jpg,,,,49,GW/paint.jpg,GW/globe.jpg,0,0.58,,,,GW/globe.jpg,,,,,One Edge Diff,Three Edge Four Edge
null,,html-keyboard-response,1390667,<p></p>,,,,null,,,,,,,,,,,,,,
1913.5,,shortestpath_phase,1392584,GW/gong.jpg,,,,49,GW/basket.jpg,GW/jukebox.jpg,1,0.5882352941176471,,,,GW/basket.jpg,,,,,Four Edge Diff,Two Edge Six Edge
null,,html-keyboard-response,1393588,<p></p>,,,,null,,,,,,,,,,,,,,
3286.5,,shortestpath_phase,1396877,GW/soldier.jpg,,,,49,GW/camera.jpg,GW/gong.jpg,1,0.5961538461538461,,,,GW/camera.jpg,,,,,Three Edge Diff,Two Edge Five Edge
null,,html-keyboard-response,1397881,<p></p>,,,,null,,,,,,,,,,,,,,
4141.70000000298,,shortestpath_phase,1402025,GW/snail.jpg,,,,50,GW/jukebox.jpg,GW/basket.jpg,1,0.6037735849056604,,,,GW/basket.jpg,,,,,Three Edge Diff,Three Edge Six Edge
null,,html-keyboard-response,1403028,<p></p>,,,,null,,,,,,,,,,,,,,
4962.39999999851,,shortestpath_phase,1407993,GW/wheelchair.jpg,,,,49,GW/camera.jpg,GW/snail.jpg,1,0.6111111111111112,,,,GW/camera.jpg,,,,,Three Edge Diff,Two Edge Five Edge
null,,html-keyboard-response,1408997,<p></p>,,,,null,,,,,,,,,,,,,,
2040.2999999970198,,shortestpath_phase,1411039,GW/snail.jpg,,,,50,GW/hat.jpg,GW/jukebox.jpg,0,0.6,,,,GW/hat.jpg,,,,,Three Edge Diff,Two Edge Five Edge
null,,html-keyboard-response,1412044,<p></p>,,,,null,,,,,,,,,,,,,,
3020.7999999970198,,shortestpath_phase,1415068,GW/paint.jpg,,,,49,GW/barrel.jpg,GW/soldier.jpg,1,0.6071428571428571,,,,GW/barrel.jpg,,,,,Three Edge Diff,Three Edge Six Edge
null,,html-keyboard-response,1416071,<p></p>,,,,null,,,,,,,,,,,,,,
2745.10000000149,,shortestpath_phase,1418819,GW/jukebox.jpg,,,,50,GW/dustpan.jpg,GW/snail.jpg,0,0.5964912280701754,,,,GW/dustpan.jpg,,,,,Three Edge Diff,Three Edge Six Edge
null,,html-keyboard-response,1419823,<p></p>,,,,null,,,,,,,,,,,,,,
3618.2000000029802,,shortestpath_phase,1423444,GW/globe.jpg,,,,49,GW/jukebox.jpg,GW/paint.jpg,0,0.5862068965517241,,,,GW/paint.jpg,,,,,Three Edge Diff,Three Edge Six Edge
null,,html-keyboard-response,1424448,<p></p>,,,,null,,,,,,,,,,,,,,
1886.7999999970198,,shortestpath_phase,1426337,GW/soldier.jpg,,,,50,GW/paint.jpg,GW/barrel.jpg,1,0.5932203389830508,,,,GW/barrel.jpg,,,,,Two Edge Diff,Three Edge Five Edge
null,,html-keyboard-response,1427341,<p></p>,,,,null,,,,,,,,,,,,,,
4690.79999999702,,shortestpath_phase,1432035,GW/paint.jpg,,,,50,GW/soldier.jpg,GW/basket.jpg,1,0.6,,,,GW/basket.jpg,,,,,Two Edge Diff,Three Edge Five Edge
null,,html-keyboard-response,1433038,<p></p>,,,,null,,,,,,,,,,,,,,
4137.39999999851,,shortestpath_phase,1437179,GW/soldier.jpg,,,,49,GW/hat.jpg,GW/paint.jpg,1,0.6065573770491803,,,,GW/hat.jpg,,,,,Three Edge Diff,Three Edge Six Edge
null,,html-keyboard-response,1438183,<p></p>,,,,null,,,,,,,,,,,,,,
4832.29999999702,,shortestpath_phase,1443018,GW/teeth.jpg,,,,50,GW/paint.jpg,GW/basket.jpg,1,0.6129032258064516,,,,GW/basket.jpg,,,,,One Edge Diff,Three Edge Four Edge
null,,html-keyboard-response,1444022,<p></p>,,,,null,,,,,,,,,,,,,,
3359.89999999851,,shortestpath_phase,1447386,GW/wheelchair.jpg,,,,49,GW/soldier.jpg,GW/teeth.jpg,1,0.6190476190476191,,,,GW/soldier.jpg,,,,,One Edge Diff,Two Edge Three Edge
null,,html-keyboard-response,1448390,<p></p>,,,,null,,,,,,,,,,,,,,
4329.80000000447,,shortestpath_phase,1452723,GW/jukebox.jpg,,,,50,GW/gong.jpg,GW/basket.jpg,1,0.625,,,,GW/basket.jpg,,,,,Two Edge Diff,Four Edge Six Edge
null,,html-keyboard-response,1453727,<p></p>,,,,null,,,,,,,,,,,,,,
3171.60000000149,,shortestpath_phase,1456901,GW/dustpan.jpg,,,,49,GW/paint.jpg,GW/teeth.jpg,0,0.6153846153846154,,,,GW/teeth.jpg,,,,,Three Edge Diff,Two Edge Five Edge
null,,html-keyboard-response,1457904,<p></p>,,,,null,,,,,,,,,,,,,,
3172.9000000059605,,shortestpath_phase,1461080,GW/soldier.jpg,,,,49,GW/basket.jpg,GW/snail.jpg,1,0.6212121212121212,,,,GW/basket.jpg,,,,,One Edge Diff,Three Edge Four Edge
null,,html-keyboard-response,1462084,<p></p>,,,,null,,,,,,,,,,,,,,
3858.7999999970198,,shortestpath_phase,1465946,GW/paint.jpg,,,,50,GW/jukebox.jpg,GW/teeth.jpg,1,0.6268656716417911,,,,GW/teeth.jpg,,,,,Two Edge Diff,Four Edge Six Edge
null,,html-keyboard-response,1466949,<p></p>,,,,null,,,,,,,,,,,,,,
2807.8000000044703,,shortestpath_phase,1469761,GW/soldier.jpg,,,,49,GW/barrel.jpg,GW/snail.jpg,1,0.6323529411764706,,,,GW/barrel.jpg,,,,,One Edge Diff,Three Edge Four Edge
null,,html-keyboard-response,1470764,<p></p>,,,,null,,,,,,,,,,,,,,
1917.2999999970198,,shortestpath_phase,1472685,GW/paint.jpg,,,,49,GW/teeth.jpg,GW/hat.jpg,0,0.6231884057971014,,,,GW/hat.jpg,,,,,One Edge Diff,Three Edge Four Edge
null,,html-keyboard-response,1473689,<p></p>,,,,null,,,,,,,,,,,,,,
3526.5,,shortestpath_phase,1477218,GW/wheelchair.jpg,,,,50,GW/snail.jpg,GW/barrel.jpg,1,0.6285714285714286,,,,GW/barrel.jpg,,,,,One Edge Diff,Four Edge Five Edge
null,,html-keyboard-response,1478222,<p></p>,,,,null,,,,,,,,,,,,,,
3932,,shortestpath_phase,1482158,GW/paint.jpg,,,,49,GW/basket.jpg,GW/dustpan.jpg,1,0.6338028169014085,,,,GW/basket.jpg,,,,,Two Edge Diff,Three Edge Five Edge
null,,html-keyboard-response,1483166,<p></p>,,,,null,,,,,,,,,,,,,,
4093,,shortestpath_phase,1487261,GW/hat.jpg,,,,50,GW/wheelchair.jpg,GW/globe.jpg,1,0.6388888888888888,,,,GW/globe.jpg,,,,,One Edge Diff,Two Edge Three Edge
null,,html-keyboard-response,1488264,<p></p>,,,,null,,,,,,,,,,,,,,
3648.10000000149,,shortestpath_phase,1491915,GW/teeth.jpg,,,,50,GW/paint.jpg,GW/jukebox.jpg,1,0.6438356164383562,,,,GW/jukebox.jpg,,,,,Two Edge Diff,Two Edge Four Edge
null,,html-keyboard-response,1492919,<p></p>,,,,null,,,,,,,,,,,,,,
3865.1999999955297,,shortestpath_phase,1496788,GW/snail.jpg,,,,50,GW/hat.jpg,GW/wheelchair.jpg,0,0.6351351351351351,,,,GW/hat.jpg,,,,,Three Edge Diff,Two Edge Five Edge
null,,html-keyboard-response,1497791,<p></p>,,,,null,,,,,,,,,,,,,,
3486.2999999970198,,shortestpath_phase,1501280,GW/gong.jpg,,,,50,GW/wheelchair.jpg,GW/paint.jpg,1,0.64,,,,GW/paint.jpg,,,,,Two Edge Diff,Three Edge Five Edge
null,,html-keyboard-response,1502283,<p></p>,,,,null,,,,,,,,,,,,,,
2222.0999999940395,,shortestpath_phase,1504508,GW/jukebox.jpg,,,,50,GW/snail.jpg,GW/gong.jpg,0,0.631578947368421,,,,GW/snail.jpg,,,,,One Edge Diff,Five Edge Six Edge
null,,html-keyboard-response,1505513,<p></p>,,,,null,,,,,,,,,,,,,,
3617.7999999970198,,shortestpath_phase,1509135,GW/teeth.jpg,,,,50,GW/globe.jpg,GW/dustpan.jpg,1,0.6363636363636364,,,,GW/dustpan.jpg,,,,,One Edge Diff,Two Edge Three Edge
null,,html-keyboard-response,1510139,<p></p>,,,,null,,,,,,,,,,,,,,
2810,,shortestpath_phase,1512951,GW/snail.jpg,,,,50,GW/gong.jpg,GW/jukebox.jpg,0,0.6282051282051282,,,,GW/gong.jpg,,,,,Three Edge Diff,Three Edge Six Edge
null,,html-keyboard-response,1513954,<p></p>,,,,null,,,,,,,,,,,,,,
4338.29999999702,,shortestpath_phase,1518296,GW/wheelchair.jpg,,,,50,GW/camera.jpg,GW/gong.jpg,0,0.620253164556962,,,,GW/camera.jpg,,,,,Three Edge Diff,Three Edge Six Edge
null,,html-keyboard-response,1519300,<p></p>,,,,null,,,,,,,,,,,,,,
3683.39999999851,,shortestpath_phase,1522986,GW/jukebox.jpg,,,,49,GW/globe.jpg,GW/paint.jpg,1,0.625,,,,GW/globe.jpg,,,,,One Edge Diff,Five Edge Six Edge
null,,html-keyboard-response,1523990,<p></p>,,,,null,,,,,,,,,,,,,,
3559.4000000059605,,shortestpath_phase,1527553,GW/paint.jpg,,,,49,GW/soldier.jpg,GW/jukebox.jpg,1,0.6296296296296297,,,,GW/soldier.jpg,,,,,One Edge Diff,Five Edge Six Edge
null,,html-keyboard-response,1528557,<p></p>,,,,null,,,,,,,,,,,,,,
3804.5,,shortestpath_phase,1532364,GW/globe.jpg,,,,50,GW/jukebox.jpg,GW/hat.jpg,1,0.6341463414634146,,,,GW/hat.jpg,,,,,Three Edge Diff,Two Edge Five Edge
null,,html-keyboard-response,1533368,<p></p>,,,,null,,,,,,,,,,,,,,
3640,,shortestpath_phase,1537012,GW/snail.jpg,,,,50,GW/jukebox.jpg,GW/soldier.jpg,1,0.6385542168674698,,,,GW/soldier.jpg,,,,,One Edge Diff,Four Edge Five Edge
null,,html-keyboard-response,1538016,<p></p>,,,,null,,,,,,,,,,,,,,
3875.5,,shortestpath_phase,1541895,GW/jukebox.jpg,,,,49,GW/globe.jpg,GW/gong.jpg,1,0.6428571428571429,,,,GW/globe.jpg,,,,,One Edge Diff,Five Edge Six Edge
null,,html-keyboard-response,1542899,<p></p>,,,,null,,,,,,,,,,,,,,
3950.10000000149,,shortestpath_phase,1546852,GW/paint.jpg,,,,50,GW/barrel.jpg,GW/teeth.jpg,0,0.6352941176470588,,,,GW/barrel.jpg,,,,,Two Edge Diff,Two Edge Four Edge
null,,html-keyboard-response,1547855,<p></p>,,,,null,,,,,,,,,,,,,,
3916.2000000029802,,shortestpath_phase,1551775,GW/snail.jpg,,,,50,GW/gong.jpg,GW/teeth.jpg,0,0.627906976744186,,,,GW/gong.jpg,,,,,One Edge Diff,Two Edge Three Edge
null,,html-keyboard-response,1552779,<p></p>,,,,null,,,,,,,,,,,,,,
2463.39999999851,,shortestpath_phase,1555245,GW/hat.jpg,,,,50,GW/jukebox.jpg,GW/soldier.jpg,1,0.632183908045977,,,,GW/soldier.jpg,,,,,One Edge Diff,Two Edge Three Edge
null,,html-keyboard-response,1556249,<p></p>,,,,null,,,,,,,,,,,,,,
3008.2999999970198,,shortestpath_phase,1559261,GW/gong.jpg,,,,49,GW/soldier.jpg,GW/teeth.jpg,0,0.625,,,,GW/teeth.jpg,,,,,One Edge Diff,Four Edge Five Edge
null,,html-keyboard-response,1560265,<p></p>,,,,null,,,,,,,,,,,,,,
3378.2000000029802,,shortestpath_phase,1563647,GW/snail.jpg,,,,49,GW/camera.jpg,GW/jukebox.jpg,1,0.6292134831460674,,,,GW/camera.jpg,,,,,Two Edge Diff,Three Edge Five Edge
null,,html-keyboard-response,1564651,<p></p>,,,,null,,,,,,,,,,,,,,
2694.39999999851,,shortestpath_phase,1567348,GW/wheelchair.jpg,,,,50,GW/gong.jpg,GW/paint.jpg,0,0.6222222222222222,,,,GW/gong.jpg,,,,,One Edge Diff,Five Edge Six Edge
null,,html-keyboard-response,1568352,<p></p>,,,,null,,,,,,,,,,,,,,
2930.39999999851,,shortestpath_phase,1571286,GW/teeth.jpg,,,,50,GW/gong.jpg,GW/basket.jpg,1,0.6263736263736264,,,,GW/basket.jpg,,,,,One Edge Diff,Three Edge Four Edge
null,,html-keyboard-response,1572290,<p></p>,,,,null,,,,,,,,,,,,,,
4278.39999999851,,shortestpath_phase,1576572,GW/wheelchair.jpg,,,,49,GW/barrel.jpg,GW/paint.jpg,1,0.6304347826086957,,,,GW/barrel.jpg,,,,,Two Edge Diff,Four Edge Six Edge
null,,html-keyboard-response,1577576,<p></p>,,,,null,,,,,,,,,,,,,,
3791.89999999851,,shortestpath_phase,1581371,GW/soldier.jpg,,,,49,GW/globe.jpg,GW/gong.jpg,1,0.6344086021505376,,,,GW/globe.jpg,,,,,One Edge Diff,Four Edge Five Edge
null,,html-keyboard-response,1582374,<p></p>,,,,null,,,,,,,,,,,,,,
3695.89999999851,,shortestpath_phase,1586073,GW/jukebox.jpg,,,,49,GW/paint.jpg,GW/barrel.jpg,0,0.6276595744680851,,,,GW/barrel.jpg,,,,,Two Edge Diff,Four Edge Six Edge
null,,html-keyboard-response,1587078,<p></p>,,,,null,,,,,,,,,,,,,,
3717,,shortestpath_phase,1590798,GW/wheelchair.jpg,,,,50,GW/gong.jpg,GW/camera.jpg,1,0.631578947368421,,,,GW/camera.jpg,,,,,Three Edge Diff,Two Edge Five Edge
null,,html-keyboard-response,1591802,<p></p>,,,,null,,,,,,,,,,,,,,
4129.70000000298,,shortestpath_phase,1595936,GW/gong.jpg,,,,50,GW/dustpan.jpg,GW/jukebox.jpg,0,0.625,,,,GW/dustpan.jpg,,,,,Two Edge Diff,Four Edge Six Edge
null,,html-keyboard-response,1596940,<p></p>,,,,null,,,,,,,,,,,,,,
3210.3000000044703,,shortestpath_phase,1600153,GW/basket.jpg,,,,49,GW/soldier.jpg,GW/jukebox.jpg,1,0.6288659793814433,,,,GW/soldier.jpg,,,,,One Edge Diff,Three Edge Four Edge
null,,html-keyboard-response,1601157,<p></p>,,,,null,,,,,,,,,,,,,,
4515.89999999851,,shortestpath_phase,1605676,GW/paint.jpg,,,,50,GW/wheelchair.jpg,GW/dustpan.jpg,1,0.6326530612244898,,,,GW/dustpan.jpg,,,,,One Edge Diff,Five Edge Six Edge
null,,html-keyboard-response,1606680,<p></p>,,,,null,,,,,,,,,,,,,,
1912,,shortestpath_phase,1608595,GW/camera.jpg,,,,49,GW/globe.jpg,GW/gong.jpg,1,0.6363636363636364,,,,GW/globe.jpg,,,,,One Edge Diff,Two Edge Three Edge
null,,html-keyboard-response,1609598,<p></p>,,,,null,,,,,,,,,,,,,,
3451.9000000059605,,shortestpath_phase,1613053,GW/snail.jpg,,,,49,GW/jukebox.jpg,GW/basket.jpg,0,0.63,,,,GW/basket.jpg,,,,,Three Edge Diff,Two Edge Five Edge
null,,html-keyboard-response,1614058,<p></p>,,,,null,,,,,,,,,,,,,,
3600.6999999955297,,shortestpath_phase,1617662,GW/paint.jpg,,,,49,GW/soldier.jpg,GW/gong.jpg,0,0.6237623762376238,,,,GW/gong.jpg,,,,,Two Edge Diff,Three Edge Five Edge
null,,html-keyboard-response,1618666,<p></p>,,,,null,,,,,,,,,,,,,,
2999.10000000149,,shortestpath_phase,1621668,GW/basket.jpg,,,,50,GW/snail.jpg,GW/jukebox.jpg,0,0.6176470588235294,,,,GW/snail.jpg,,,,,Two Edge Diff,Two Edge Four Edge
null,,html-keyboard-response,1622673,<p></p>,,,,null,,,,,,,,,,,,,,
3929.7999999970198,,shortestpath_phase,1626606,GW/paint.jpg,,,,50,GW/globe.jpg,GW/jukebox.jpg,0,0.6116504854368932,,,,GW/globe.jpg,,,,,Four Edge Diff,Two Edge Six Edge
null,,html-keyboard-response,1627609,<p></p>,,,,null,,,,,,,,,,,,,,
3307.7000000029802,,shortestpath_phase,1630920,GW/gong.jpg,,,,50,GW/jukebox.jpg,GW/wheelchair.jpg,1,0.6153846153846154,,,,GW/wheelchair.jpg,,,,,One Edge Diff,Five Edge Six Edge
null,,html-keyboard-response,1631925,<p></p>,,,,null,,,,,,,,,,,,,,
3837.5,,shortestpath_phase,1635766,GW/jukebox.jpg,,,,50,GW/gong.jpg,GW/teeth.jpg,1,0.6190476190476191,,,,GW/teeth.jpg,,,,,Four Edge Diff,Two Edge Six Edge
null,,html-keyboard-response,1636774,<p></p>,,,,null,,,,,,,,,,,,,,
3819.2999999970198,,shortestpath_phase,1640596,GW/gong.jpg,,,,49,GW/soldier.jpg,GW/barrel.jpg,0,0.6132075471698113,,,,GW/barrel.jpg,,,,,Three Edge Diff,Two Edge Five Edge
null,,html-keyboard-response,1641599,<p></p>,,,,null,,,,,,,,,,,,,,
4247.19999999553,,shortestpath_phase,1645849,GW/wheelchair.jpg,,,,49,GW/snail.jpg,GW/globe.jpg,0,0.6074766355140186,,,,GW/globe.jpg,,,,,One Edge Diff,Four Edge Five Edge
null,,html-keyboard-response,1646852,<p></p>,,,,null,,,,,,,,,,,,,,
2362,,shortestpath_phase,1649218,GW/paint.jpg,,,,50,GW/wheelchair.jpg,GW/barrel.jpg,1,0.6111111111111112,,,,GW/barrel.jpg,,,,,Four Edge Diff,Two Edge Six Edge
null,,html-keyboard-response,1650222,<p></p>,,,,null,,,,,,,,,,,,,,
3863.89999999851,,shortestpath_phase,1654090,GW/gong.jpg,,,,49,GW/jukebox.jpg,GW/snail.jpg,0,0.6055045871559633,,,,GW/snail.jpg,,,,,Four Edge Diff,Two Edge Six Edge
null,,html-keyboard-response,1655094,<p></p>,,,,null,,,,,,,,,,,,,,
3064.39999999851,,shortestpath_phase,1658161,GW/teeth.jpg,,,,49,GW/gong.jpg,GW/dustpan.jpg,0,0.6,,,,GW/dustpan.jpg,,,,,Two Edge Diff,Two Edge Four Edge
null,,html-keyboard-response,1659165,<p></p>,,,,null,,,,,,,,,,,,,,
2505.7000000029802,,shortestpath_phase,1661674,GW/wheelchair.jpg,,,,49,GW/paint.jpg,GW/soldier.jpg,0,0.5945945945945946,,,,GW/soldier.jpg,,,,,Four Edge Diff,Two Edge Six Edge
null,,html-keyboard-response,1662678,<p></p>,,,,null,,,,,,,,,,,,,,
2945.4000000059605,,shortestpath_phase,1665627,GW/teeth.jpg,,,,49,GW/gong.jpg,GW/snail.jpg,0,0.5892857142857143,,,,GW/snail.jpg,,,,,One Edge Diff,Three Edge Four Edge
null,,html-keyboard-response,1666631,<p></p>,,,,null,,,,,,,,,,,,,,
4251.39999999851,,shortestpath_phase,1670885,GW/barrel.jpg,,,,50,GW/wheelchair.jpg,GW/paint.jpg,1,0.5929203539823009,,,,GW/paint.jpg,,,,,Two Edge Diff,Two Edge Four Edge
null,,html-keyboard-response,1671888,<p></p>,,,,null,,,,,,,,,,,,,,
4172.10000000149,,shortestpath_phase,1676064,GW/jukebox.jpg,,,,49,GW/snail.jpg,GW/basket.jpg,0,0.5877192982456141,,,,GW/basket.jpg,,,,,One Edge Diff,Four Edge Five Edge
null,,html-keyboard-response,1677068,<p></p>,,,,null,,,,,,,,,,,,,,
2907.89999999851,,shortestpath_phase,1679979,GW/paint.jpg,,,,50,GW/dustpan.jpg,GW/jukebox.jpg,0,0.5826086956521739,,,,GW/dustpan.jpg,,,,,One Edge Diff,Five Edge Six Edge
null,,html-keyboard-response,1680984,<p></p>,,,,null,,,,,,,,,,,,,,
3684.89999999851,,shortestpath_phase,1684672,GW/gong.jpg,,,,50,GW/paint.jpg,GW/basket.jpg,1,0.5862068965517241,,,,GW/basket.jpg,,,,,One Edge Diff,Two Edge Three Edge
null,,html-keyboard-response,1685676,<p></p>,,,,null,,,,,,,,,,,,,,
4437.39999999851,,shortestpath_phase,1690118,GW/paint.jpg,,,,49,GW/wheelchair.jpg,GW/globe.jpg,0,0.5811965811965812,,,,GW/globe.jpg,,,,,Four Edge Diff,Two Edge Six Edge
null,,html-keyboard-response,1691121,<p></p>,,,,null,,,,,,,,,,,,,,
3401.5,,shortestpath_phase,1694526,GW/barrel.jpg,,,,50,GW/wheelchair.jpg,GW/teeth.jpg,1,0.5847457627118644,,,,GW/teeth.jpg,,,,,Two Edge Diff,Two Edge Four Edge
null,,html-keyboard-response,1695530,<p></p>,,,,null,,,,,,,,,,,,,,
4318.10000000149,,shortestpath_phase,1699852,GW/paint.jpg,,,,50,GW/camera.jpg,GW/dustpan.jpg,0,0.5798319327731093,,,,GW/camera.jpg,,,,,One Edge Diff,Four Edge Five Edge
null,,html-keyboard-response,1700856,<p></p>,,,,null,,,,,,,,,,,,,,
4120.60000000149,,shortestpath_phase,1704981,,,,,50,,,1,0.5833333333333334,,,,,,,,,Two Edge Diff,Four Edge Six Edge
null,,html-keyboard-response,1705985,<p></p>,,,,null,,,,,,,,,,,,,,
3033.39999999851,,shortestpath_phase,1709021,,,,,49,,,1,0.5867768595041323,,,,,,,,,Four Edge Diff,Two Edge Six Edge
null,,html-keyboard-response,1710026,<p></p>,,,,null,,,,,,,,,,,,,,
19270.29999999702,,intro_1,1729299,instruct,,0,,,,,,,,,,,,,,,,
25189.29999999702,,intro_2,1754493,instruct,,1,Next,,,,,,,,,,,,,,,
5146.5,,intro_3,1759645,instruct,,1,Next,,,,,,,,,,,,,,,
