rt,responses,trial_type,time_elapsed,stimulus,graphorder,button_pressed,response,key_press,stimulus_left,stimulus_right,accuracy,cumulative_accuracy,stimulus_down_left,stimulus_down_mid,stimulus_down_right,stimulus_correct,stimulus_short,stimulus_far,weighted_accuracy,missedtrial,condition,specific_pairs
26962,{worker_id:5d4ac837d2844e0001ecf699},id_enter,26965,id_enter,GW/paint.jpg; GW/jukebox.jpg; GW/camera.jpg; GW/teeth.jpg; GW/dustpan.jpg; GW/snail.jpg; GW/gong.jpg; GW/globe.jpg; GW/basket.jpg; GW/barrel.jpg; GW/wheelchair.jpg; GW/soldier.jpg; GW/hat.jpg,,,,,,,,,,,,,,,,,
24904,,fullscreen,51879,fullscreen,,0,,,,,,,,,,,,,,,,
1811895.2999999523,,intro_1,1863816,instruct,,0,,,,,,,,,,,,,,,,
12722.700000047684,,intro_2,1876541,instruct,,1,Next,,,,,,,,,,,,,,,
11128.800000190735,,intro_3,1887672,instruct,,1,Next,,,,,,,,,,,,,,,
null,,learn_prac_1,1889674,lean_prac_1,,,,null,,,,,,,,,,,,,,
null,,html-keyboard-response,1890676,<p></p>,,,,null,,,,,,,,,,,,,,
3429.5,,intro_1,1894107,instruct,,0,,,,,,,,,,,,,,,,
6560.599999904633,,intro_2,1900669,instruct,,1,Next,,,,,,,,,,,,,,,
null,,learn_prac_2,1902672,lean_prac_2,,,,null,,,,,,,,,,,,,,
null,,html-keyboard-response,1903675,<p></p>,,,,null,,,,,,,,,,,,,,
2486.9000000953674,,intro_1,1906163,instruct,,0,,,,,,,,,,,,,,,,
6323.900000095367,,intro_2,1912490,instruct,,1,Next,,,,,,,,,,,,,,,
26705.800000190735,,intro_3,1939197,instruct,,1,Next,,,,,,,,,,,,,,,
null,,prac_atten_color_black,1939507,black_plus_sign,,,,null,,,,,,,,,,,,,,
null,,prac_atten_color,1940602,prac_stop_color,,,,null,,,,,,,,,,,,,,
null,,prac_atten_color_black,1942615,black_plus_sign,,,,null,,,,,,,,,,,,,,
12762.900000095367,,attentioncheck_help,1955380,instruct,,,,32,,,,,,,,,,,,,,
null,,prac_atten_color_black,1955691,black_plus_sign,,,,null,,,,,,,,,,,,,,
null,,prac_atten_color,1956293,prac_stop_color,,,,null,,,,,,,,,,,,,,
null,,prac_atten_color_black,1958295,black_plus_sign,,,,null,,,,,,,,,,,,,,
3753.7999999523163,,attentioncheck_help,1962050,instruct,,,,32,,,,,,,,,,,,,,
null,,prac_atten_color_black,1962855,black_plus_sign,,,,null,,,,,,,,,,,,,,
812.6000001430511,,prac_atten_color,1963683,prac_stop_color,,,,50,,,,,,,,,,,,,,
null,,prac_atten_color_black,1965685,black_plus_sign,,,,null,,,,,,,,,,,,,,
null,,prac_atten_color_black,1966260,black_plus_sign,,,,null,,,,,,,,,,,,,,
484.89999985694885,,prac_atten_color,1967241,prac_stop_color,,,,49,,,,,,,,,,,,,,
null,,prac_atten_color_black,1969243,black_plus_sign,,,,null,,,,,,,,,,,,,,
null,,prac_atten_color_black,1969682,black_plus_sign,,,,null,,,,,,,,,,,,,,
446.2000000476837,,prac_atten_color,1970617,prac_stop_color,,,,50,,,,,,,,,,,,,,
null,,prac_atten_color_black,1972620,black_plus_sign,,,,null,,,,,,,,,,,,,,
null,,prac_atten_color_black,1973088,black_plus_sign,,,,null,,,,,,,,,,,,,,
705.7000000476837,,prac_atten_color,1973942,prac_stop_color,,,,50,,,,,,,,,,,,,,
null,,prac_atten_color_black,1975944,black_plus_sign,,,,null,,,,,,,,,,,,,,
null,,prac_atten_color_black,1976497,black_plus_sign,,,,null,,,,,,,,,,,,,,
508.89999985694885,,prac_atten_color,1977364,prac_stop_color,,,,49,,,,,,,,,,,,,,
null,,prac_atten_color_black,1979366,black_plus_sign,,,,null,,,,,,,,,,,,,,
null,,prac_atten_color_black,1979904,black_plus_sign,,,,null,,,,,,,,,,,,,,
null,,prac_atten_color,1980318,prac_stop_color,,,,null,,,,,,,,,,,,,,
78.40000009536743,,prac_atten_color_black,1982319,black_plus_sign,,,,50,,,,,,,,,,,,,,
null,,prac_atten_color_black,1983309,black_plus_sign,,,,null,,,,,,,,,,,,,,
342.80000019073486,,prac_atten_color,1984378,prac_stop_color,,,,50,,,,,,,,,,,,,,
null,,prac_atten_color_black,1986379,black_plus_sign,,,,null,,,,,,,,,,,,,,
15964,,attentioncheck_help,2002344,instruct,,,,32,,,,,,,,,,,,,,
null,,prac_atten_color_black,2002679,black_plus_sign,,,,null,,,,,,,,,,,,,,
null,,prac_atten_color,2003097,prac_stop_color,,,,null,,,,,,,,,,,,,,
176.70000004768372,,prac_atten_color_black,2005098,black_plus_sign,,,,49,,,,,,,,,,,,,,
11378.699999809265,,attentioncheck_feedback,2016478,cross_check_feedback,,0,,,,,,,,,,,,,,,,
33791,,last_instruct,2050271,instruct,,,,32,,,,,,,,,,,,,,
null,,learn_phase(without_color),2052273,black_plus_sign,,,,null,GW/basket.jpg,GW/wheelchair.jpg,,,,,,,,,,,,
null,,black_cross(without_color),2053023,blue,,,,null,GW/basket.jpg,GW/wheelchair.jpg,,,,,,,,,,,,
null,,rt_plussign_withcolor,2053525,blue,,,,null,GW/basket.jpg,GW/wheelchair.jpg,,,,,,,,,,,,
932.0999999046326,,rt_thecrossant_black,2054779,black_plus_sign,,,,49,,,1,1,,,,,,,,,,
null,,color_black,2054881,black_plus_sign,,,,null,,,,,,,,,,,,,,
null,,learn_phase(without_color),2056883,black_plus_sign,,,,null,GW/jukebox.jpg,GW/camera.jpg,,,,,,,,,,,,
null,,black_cross(without_color),2057528,blue,,,,null,GW/jukebox.jpg,GW/camera.jpg,,,,,,,,,,,,
null,,rt_plussign_withcolor,2058029,blue,,,,null,GW/jukebox.jpg,GW/camera.jpg,,,,,,,,,,,,
933.5,,rt_thecrossant_black,2059387,black_plus_sign,,,,49,,,1,1,,,,,,,,,,
null,,color_black,2059489,black_plus_sign,,,,null,,,,,,,,,,,,,,
null,,learn_phase(without_color),2061491,black_plus_sign,,,,null,GW/globe.jpg,GW/barrel.jpg,,,,,,,,,,,,
null,,black_cross(without_color),2062080,green,,,,null,GW/globe.jpg,GW/barrel.jpg,,,,,,,,,,,,
456.7000000476837,,rt_plussign_withcolor,2062581,green,,,,50,GW/globe.jpg,GW/barrel.jpg,,,,,,,,,,,,
null,,rt_thecrossant_black,2063999,black_plus_sign,,,,null,,,1,1,,,,,,,,,,
null,,color_black,2064100,black_plus_sign,,,,null,,,,,,,,,,,,,,
null,,learn_phase(without_color),2066102,black_plus_sign,,,,null,GW/gong.jpg,GW/hat.jpg,,,,,,,,,,,,
null,,black_cross(without_color),2066755,blue,,,,null,GW/gong.jpg,GW/hat.jpg,,,,,,,,,,,,
345.39999985694885,,rt_plussign_withcolor,2067257,blue,,,,49,GW/gong.jpg,GW/hat.jpg,,,,,,,,,,,,
null,,rt_thecrossant_black,2068608,black_plus_sign,,,,null,,,1,1,,,,,,,,,,
null,,color_black,2068711,black_plus_sign,,,,null,,,,,,,,,,,,,,
null,,learn_phase(without_color),2070713,black_plus_sign,,,,null,GW/globe.jpg,GW/barrel.jpg,,,,,,,,,,,,
null,,black_cross(without_color),2071386,blue,,,,null,GW/globe.jpg,GW/barrel.jpg,,,,,,,,,,,,
null,,rt_plussign_withcolor,2071888,blue,,,,null,GW/globe.jpg,GW/barrel.jpg,,,,,,,,,,,,
795.2000000476837,,rt_thecrossant_black,2073219,black_plus_sign,,,,49,,,1,1,,,,,,,,,,
null,,color_black,2073322,black_plus_sign,,,,null,,,,,,,,,,,,,,
null,,learn_phase(without_color),2075324,black_plus_sign,,,,null,GW/camera.jpg,GW/snail.jpg,,,,,,,,,,,,
null,,black_cross(without_color),2075741,blue,,,,null,GW/camera.jpg,GW/snail.jpg,,,,,,,,,,,,
null,,rt_plussign_withcolor,2076246,blue,,,,null,GW/camera.jpg,GW/snail.jpg,,,,,,,,,,,,
892.7000000476837,,rt_thecrossant_black,2077833,black_plus_sign,,,,49,,,1,1,,,,,,,,,,
null,,color_black,2077935,black_plus_sign,,,,null,,,,,,,,,,,,,,
null,,learn_phase(without_color),2079938,black_plus_sign,,,,null,GW/teeth.jpg,GW/soldier.jpg,,,,,,,,,,,,
null,,black_cross(without_color),2080852,blue,,,,null,GW/teeth.jpg,GW/soldier.jpg,,,,,,,,,,,,
457.7999999523163,,rt_plussign_withcolor,2081353,blue,,,,49,GW/teeth.jpg,GW/soldier.jpg,,,,,,,,,,,,
null,,rt_thecrossant_black,2082442,black_plus_sign,,,,null,,,1,1,,,,,,,,,,
null,,color_black,2082544,black_plus_sign,,,,null,,,,,,,,,,,,,,
null,,learn_phase(without_color),2084547,black_plus_sign,,,,null,GW/camera.jpg,GW/snail.jpg,,,,,,,,,,,,
null,,black_cross(without_color),2084978,green,,,,null,GW/camera.jpg,GW/snail.jpg,,,,,,,,,,,,
null,,rt_plussign_withcolor,2085487,green,,,,null,GW/camera.jpg,GW/snail.jpg,,,,,,,,,,,,
1221.7999999523163,,rt_thecrossant_black,2087061,black_plus_sign,,,,49,,,0,0.875,,,,,,,,,,
null,,color_black,2087163,black_plus_sign,,,,null,,,,,,,,,,,,,,
null,,learn_phase(without_color),2089166,black_plus_sign,,,,null,GW/gong.jpg,GW/globe.jpg,,,,,,,,,,,,
null,,black_cross(without_color),2089580,green,,,,null,GW/gong.jpg,GW/globe.jpg,,,,,,,,,,,,
null,,rt_plussign_withcolor,2090096,green,,,,null,GW/gong.jpg,GW/globe.jpg,,,,,,,,,,,,
624.7000000476837,,rt_thecrossant_black,2091686,black_plus_sign,,,,50,,,1,0.8888888888888888,,,,,,,,,,
null,,color_black,2091797,black_plus_sign,,,,null,,,,,,,,,,,,,,
null,,learn_phase(without_color),2093800,black_plus_sign,,,,null,GW/teeth.jpg,GW/soldier.jpg,,,,,,,,,,,,
null,,black_cross(without_color),2094576,green,,,,null,GW/teeth.jpg,GW/soldier.jpg,,,,,,,,,,,,
465.89999985694885,,rt_plussign_withcolor,2095077,green,,,,50,GW/teeth.jpg,GW/soldier.jpg,,,,,,,,,,,,
null,,rt_thecrossant_black,2096305,black_plus_sign,,,,null,,,1,0.9,,,,,,,,,,
null,,color_black,2096406,black_plus_sign,,,,null,,,,,,,,,,,,,,
null,,learn_phase(without_color),2098408,black_plus_sign,,,,null,GW/camera.jpg,GW/snail.jpg,,,,,,,,,,,,
null,,black_cross(without_color),2099174,green,,,,null,GW/camera.jpg,GW/snail.jpg,,,,,,,,,,,,
null,,rt_plussign_withcolor,2099675,green,,,,null,GW/camera.jpg,GW/snail.jpg,,,,,,,,,,,,
950,,rt_thecrossant_black,2100912,black_plus_sign,,,,50,,,1,0.9090909090909091,,,,,,,,,,
null,,color_black,2101014,black_plus_sign,,,,null,,,,,,,,,,,,,,
null,,learn_phase(without_color),2103017,black_plus_sign,,,,null,GW/snail.jpg,GW/gong.jpg,,,,,,,,,,,,
null,,black_cross(without_color),2103795,green,,,,null,GW/snail.jpg,GW/gong.jpg,,,,,,,,,,,,
361.09999990463257,,rt_plussign_withcolor,2104297,green,,,,50,GW/snail.jpg,GW/gong.jpg,,,,,,,,,,,,
null,,rt_thecrossant_black,2105522,black_plus_sign,,,,null,,,1,0.9166666666666666,,,,,,,,,,
null,,color_black,2105624,black_plus_sign,,,,null,,,,,,,,,,,,,,
null,,learn_phase(without_color),2107629,black_plus_sign,,,,null,GW/gong.jpg,GW/hat.jpg,,,,,,,,,,,,
null,,black_cross(without_color),2108460,green,,,,null,GW/gong.jpg,GW/hat.jpg,,,,,,,,,,,,
null,,rt_plussign_withcolor,2108962,green,,,,null,GW/gong.jpg,GW/hat.jpg,,,,,,,,,,,,
876.2000000476837,,rt_thecrossant_black,2110134,black_plus_sign,,,,50,,,1,0.9230769230769231,,,,,,,,,,
null,,color_black,2110236,black_plus_sign,,,,null,,,,,,,,,,,,,,
null,,learn_phase(without_color),2112237,black_plus_sign,,,,null,GW/globe.jpg,GW/basket.jpg,,,,,,,,,,,,
null,,black_cross(without_color),2112681,green,,,,null,GW/globe.jpg,GW/basket.jpg,,,,,,,,,,,,
459.5,,rt_plussign_withcolor,2113182,green,,,,49,GW/globe.jpg,GW/basket.jpg,,,,,,,,,,,,
null,,rt_thecrossant_black,2114742,black_plus_sign,,,,50,,,0,0.8571428571428571,,,,,,,,,,
null,,color_black,2114845,black_plus_sign,,,,null,,,,,,,,,,,,,,
null,,learn_phase(without_color),2116847,black_plus_sign,,,,null,GW/teeth.jpg,GW/soldier.jpg,,,,,,,,,,,,
null,,black_cross(without_color),2117745,blue,,,,null,GW/teeth.jpg,GW/soldier.jpg,,,,,,,,,,,,
389.7000000476837,,rt_plussign_withcolor,2118247,blue,,,,49,GW/teeth.jpg,GW/soldier.jpg,,,,,,,,,,,,
null,,rt_thecrossant_black,2119352,black_plus_sign,,,,null,,,1,0.8666666666666667,,,,,,,,,,
null,,color_black,2119453,black_plus_sign,,,,null,,,,,,,,,,,,,,
null,,learn_phase(without_color),2121456,black_plus_sign,,,,null,GW/teeth.jpg,GW/dustpan.jpg,,,,,,,,,,,,
null,,black_cross(without_color),2121928,blue,,,,null,GW/teeth.jpg,GW/dustpan.jpg,,,,,,,,,,,,
null,,rt_plussign_withcolor,2122429,blue,,,,null,GW/teeth.jpg,GW/dustpan.jpg,,,,,,,,,,,,
1069.7000000476837,,rt_thecrossant_black,2123961,black_plus_sign,,,,49,,,1,0.875,,,,,,,,,,
null,,color_black,2124062,black_plus_sign,,,,null,,,,,,,,,,,,,,
null,,learn_phase(without_color),2126064,black_plus_sign,,,,null,GW/gong.jpg,GW/globe.jpg,,,,,,,,,,,,
null,,black_cross(without_color),2126676,blue,,,,null,GW/gong.jpg,GW/globe.jpg,,,,,,,,,,,,
434.89999985694885,,rt_plussign_withcolor,2127177,blue,,,,49,GW/gong.jpg,GW/globe.jpg,,,,,,,,,,,,
null,,rt_thecrossant_black,2128570,black_plus_sign,,,,null,,,1,0.8823529411764706,,,,,,,,,,
null,,color_black,2128672,black_plus_sign,,,,null,,,,,,,,,,,,,,
null,,learn_phase(without_color),2130674,black_plus_sign,,,,null,GW/basket.jpg,GW/wheelchair.jpg,,,,,,,,,,,,
null,,black_cross(without_color),2131692,blue,,,,null,GW/basket.jpg,GW/wheelchair.jpg,,,,,,,,,,,,
463.7000000476837,,rt_plussign_withcolor,2132192,blue,,,,49,GW/basket.jpg,GW/wheelchair.jpg,,,,,,,,,,,,
null,,rt_thecrossant_black,2133178,black_plus_sign,,,,null,,,1,0.8888888888888888,,,,,,,,,,
null,,color_black,2133280,black_plus_sign,,,,null,,,,,,,,,,,,,,
null,,learn_phase(without_color),2135282,black_plus_sign,,,,null,GW/wheelchair.jpg,GW/soldier.jpg,,,,,,,,,,,,
null,,black_cross(without_color),2135826,green,,,,null,GW/wheelchair.jpg,GW/soldier.jpg,,,,,,,,,,,,
null,,rt_plussign_withcolor,2136328,green,,,,null,GW/wheelchair.jpg,GW/soldier.jpg,,,,,,,,,,,,
1182.4000000953674,,rt_thecrossant_black,2137788,black_plus_sign,,,,50,,,1,0.8947368421052632,,,,,,,,,,
null,,color_black,2137889,black_plus_sign,,,,null,,,,,,,,,,,,,,
null,,learn_phase(without_color),2139891,black_plus_sign,,,,null,GW/globe.jpg,GW/basket.jpg,,,,,,,,,,,,
null,,black_cross(without_color),2140865,blue,,,,null,GW/globe.jpg,GW/basket.jpg,,,,,,,,,,,,
472.2999999523163,,rt_plussign_withcolor,2141367,blue,,,,49,GW/globe.jpg,GW/basket.jpg,,,,,,,,,,,,
null,,rt_thecrossant_black,2142406,black_plus_sign,,,,null,,,1,0.9,,,,,,,,,,
null,,color_black,2142518,black_plus_sign,,,,null,,,,,,,,,,,,,,
null,,learn_phase(without_color),2144520,black_plus_sign,,,,null,GW/camera.jpg,GW/snail.jpg,,,,,,,,,,,,
null,,black_cross(without_color),2145359,blue,,,,null,GW/camera.jpg,GW/snail.jpg,,,,,,,,,,,,
398,,rt_plussign_withcolor,2145861,blue,,,,49,GW/camera.jpg,GW/snail.jpg,,,,,,,,,,,,
null,,rt_thecrossant_black,2147026,black_plus_sign,,,,null,,,1,0.9047619047619048,,,,,,,,,,
null,,color_black,2147128,black_plus_sign,,,,null,,,,,,,,,,,,,,
null,,learn_phase(without_color),2149131,black_plus_sign,,,,null,GW/globe.jpg,GW/barrel.jpg,,,,,,,,,,,,
null,,black_cross(without_color),2150187,blue,,,,null,GW/globe.jpg,GW/barrel.jpg,,,,,,,,,,,,
null,,rt_plussign_withcolor,2150691,blue,,,,null,GW/globe.jpg,GW/barrel.jpg,,,,,,,,,,,,
1133.2999999523163,,rt_thecrossant_black,2151641,black_plus_sign,,,,49,,,1,0.9090909090909091,,,,,,,,,,
null,,color_black,2151744,black_plus_sign,,,,null,,,,,,,,,,,,,,
null,,learn_phase(without_color),2153747,black_plus_sign,,,,null,GW/jukebox.jpg,GW/camera.jpg,,,,,,,,,,,,
null,,black_cross(without_color),2154703,green,,,,null,GW/jukebox.jpg,GW/camera.jpg,,,,,,,,,,,,
null,,rt_plussign_withcolor,2155204,green,,,,null,GW/jukebox.jpg,GW/camera.jpg,,,,,,,,,,,,
1219.5,,rt_thecrossant_black,2156256,black_plus_sign,,,,50,,,1,0.9130434782608695,,,,,,,,,,
null,,color_black,2156367,black_plus_sign,,,,null,,,,,,,,,,,,,,
null,,learn_phase(without_color),2158369,black_plus_sign,,,,null,GW/globe.jpg,GW/basket.jpg,,,,,,,,,,,,
null,,black_cross(without_color),2158898,green,,,,null,GW/globe.jpg,GW/basket.jpg,,,,,,,,,,,,
null,,rt_plussign_withcolor,2159399,green,,,,null,GW/globe.jpg,GW/basket.jpg,,,,,,,,,,,,
1097.8999998569489,,rt_thecrossant_black,2160874,black_plus_sign,,,,50,,,1,0.9166666666666666,,,,,,,,,,
null,,color_black,2160976,black_plus_sign,,,,null,,,,,,,,,,,,,,
null,,learn_phase(without_color),2162978,black_plus_sign,,,,null,GW/teeth.jpg,GW/dustpan.jpg,,,,,,,,,,,,
null,,black_cross(without_color),2163704,green,,,,null,GW/teeth.jpg,GW/dustpan.jpg,,,,,,,,,,,,
null,,rt_plussign_withcolor,2164206,green,,,,null,GW/teeth.jpg,GW/dustpan.jpg,,,,,,,,,,,,
645.7999999523163,,rt_thecrossant_black,2165484,black_plus_sign,,,,50,,,1,0.92,,,,,,,,,,
null,,color_black,2165585,black_plus_sign,,,,null,,,,,,,,,,,,,,
null,,learn_phase(without_color),2167588,black_plus_sign,,,,null,GW/gong.jpg,GW/basket.jpg,,,,,,,,,,,,
null,,black_cross(without_color),2168307,blue,,,,null,GW/gong.jpg,GW/basket.jpg,,,,,,,,,,,,
426.59999990463257,,rt_plussign_withcolor,2168808,blue,,,,49,GW/gong.jpg,GW/basket.jpg,,,,,,,,,,,,
null,,rt_thecrossant_black,2170092,black_plus_sign,,,,null,,,1,0.9230769230769231,,,,,,,,,,
null,,color_black,2170194,black_plus_sign,,,,null,,,,,,,,,,,,,,
null,,learn_phase(without_color),2172208,black_plus_sign,,,,null,GW/snail.jpg,GW/basket.jpg,,,,,,,,,,,,
null,,black_cross(without_color),2172696,blue,,,,null,GW/snail.jpg,GW/basket.jpg,,,,,,,,,,,,
421,,rt_plussign_withcolor,2173198,blue,,,,49,GW/snail.jpg,GW/basket.jpg,,,,,,,,,,,,
null,,rt_thecrossant_black,2174714,black_plus_sign,,,,null,,,1,0.9259259259259259,,,,,,,,,,
null,,color_black,2174820,black_plus_sign,,,,null,,,,,,,,,,,,,,
null,,learn_phase(without_color),2176823,black_plus_sign,,,,null,GW/teeth.jpg,GW/soldier.jpg,,,,,,,,,,,,
null,,black_cross(without_color),2177399,green,,,,null,GW/teeth.jpg,GW/soldier.jpg,,,,,,,,,,,,
338.5,,rt_plussign_withcolor,2177901,green,,,,50,GW/teeth.jpg,GW/soldier.jpg,,,,,,,,,,,,
null,,rt_thecrossant_black,2179329,black_plus_sign,,,,null,,,1,0.9285714285714286,,,,,,,,,,
null,,color_black,2179432,black_plus_sign,,,,null,,,,,,,,,,,,,,
null,,learn_phase(without_color),2181434,black_plus_sign,,,,null,GW/camera.jpg,GW/wheelchair.jpg,,,,,,,,,,,,
null,,black_cross(without_color),2182347,green,,,,null,GW/camera.jpg,GW/wheelchair.jpg,,,,,,,,,,,,
399.59999990463257,,rt_plussign_withcolor,2182850,green,,,,50,GW/camera.jpg,GW/wheelchair.jpg,,,,,,,,,,,,
null,,rt_thecrossant_black,2183941,black_plus_sign,,,,null,,,1,0.9310344827586207,,,,,,,,,,
null,,color_black,2184043,black_plus_sign,,,,null,,,,,,,,,,,,,,
null,,learn_phase(without_color),2186045,black_plus_sign,,,,null,GW/snail.jpg,GW/basket.jpg,,,,,,,,,,,,
null,,black_cross(without_color),2187059,green,,,,null,GW/snail.jpg,GW/basket.jpg,,,,,,,,,,,,
442.2999999523163,,rt_plussign_withcolor,2187561,green,,,,50,GW/snail.jpg,GW/basket.jpg,,,,,,,,,,,,
null,,rt_thecrossant_black,2188550,black_plus_sign,,,,null,,,1,0.9333333333333333,,,,,,,,,,
null,,color_black,2188651,black_plus_sign,,,,null,,,,,,,,,,,,,,
null,,learn_phase(without_color),2190653,black_plus_sign,,,,null,GW/jukebox.jpg,GW/camera.jpg,,,,,,,,,,,,
null,,black_cross(without_color),2191512,green,,,,null,GW/jukebox.jpg,GW/camera.jpg,,,,,,,,,,,,
459.60000014305115,,rt_plussign_withcolor,2192013,green,,,,50,GW/jukebox.jpg,GW/camera.jpg,,,,,,,,,,,,
null,,rt_thecrossant_black,2193161,black_plus_sign,,,,null,,,1,0.9354838709677419,,,,,,,,,,
null,,color_black,2193264,black_plus_sign,,,,null,,,,,,,,,,,,,,
null,,learn_phase(without_color),2195267,black_plus_sign,,,,null,GW/gong.jpg,GW/hat.jpg,,,,,,,,,,,,
null,,black_cross(without_color),2196132,blue,,,,null,GW/gong.jpg,GW/hat.jpg,,,,,,,,,,,,
null,,rt_plussign_withcolor,2196634,blue,,,,null,GW/gong.jpg,GW/hat.jpg,,,,,,,,,,,,
1045.8999998569489,,rt_thecrossant_black,2197773,black_plus_sign,,,,49,,,1,0.9375,,,,,,,,,,
null,,color_black,2197875,black_plus_sign,,,,null,,,,,,,,,,,,,,
null,,learn_phase(without_color),2199879,black_plus_sign,,,,null,GW/snail.jpg,GW/basket.jpg,,,,,,,,,,,,
null,,black_cross(without_color),2200366,green,,,,null,GW/snail.jpg,GW/basket.jpg,,,,,,,,,,,,
null,,rt_plussign_withcolor,2200868,green,,,,null,GW/snail.jpg,GW/basket.jpg,,,,,,,,,,,,
1079.5,,rt_thecrossant_black,2202392,black_plus_sign,,,,49,,,0,0.9090909090909091,,,,,,,,,,
null,,color_black,2202495,black_plus_sign,,,,null,,,,,,,,,,,,,,
null,,learn_phase(without_color),2204498,black_plus_sign,,,,null,GW/wheelchair.jpg,GW/soldier.jpg,,,,,,,,,,,,
null,,black_cross(without_color),2205361,green,,,,null,GW/wheelchair.jpg,GW/soldier.jpg,,,,,,,,,,,,
null,,rt_plussign_withcolor,2205864,green,,,,null,GW/wheelchair.jpg,GW/soldier.jpg,,,,,,,,,,,,
592.5999999046326,,rt_thecrossant_black,2207006,black_plus_sign,,,,50,,,1,0.9117647058823529,,,,,,,,,,
null,,color_black,2207107,black_plus_sign,,,,null,,,,,,,,,,,,,,
null,,learn_phase(without_color),2209110,black_plus_sign,,,,null,GW/snail.jpg,GW/gong.jpg,,,,,,,,,,,,
null,,black_cross(without_color),2209535,blue,,,,null,GW/snail.jpg,GW/gong.jpg,,,,,,,,,,,,
null,,rt_plussign_withcolor,2210038,blue,,,,null,GW/snail.jpg,GW/gong.jpg,,,,,,,,,,,,
1088,,rt_thecrossant_black,2211617,black_plus_sign,,,,49,,,1,0.9142857142857143,,,,,,,,,,
null,,color_black,2211733,black_plus_sign,,,,null,,,,,,,,,,,,,,
null,,learn_phase(without_color),2213735,black_plus_sign,,,,null,GW/gong.jpg,GW/globe.jpg,,,,,,,,,,,,
null,,black_cross(without_color),2214796,green,,,,null,GW/gong.jpg,GW/globe.jpg,,,,,,,,,,,,
354.89999985694885,,rt_plussign_withcolor,2215298,green,,,,50,GW/gong.jpg,GW/globe.jpg,,,,,,,,,,,,
null,,rt_thecrossant_black,2216240,black_plus_sign,,,,null,,,1,0.9166666666666666,,,,,,,,,,
null,,color_black,2216342,black_plus_sign,,,,null,,,,,,,,,,,,,,
null,,learn_phase(without_color),2218345,black_plus_sign,,,,null,GW/teeth.jpg,GW/soldier.jpg,,,,,,,,,,,,
null,,black_cross(without_color),2218982,green,,,,null,GW/teeth.jpg,GW/soldier.jpg,,,,,,,,,,,,
null,,rt_plussign_withcolor,2219484,green,,,,null,GW/teeth.jpg,GW/soldier.jpg,,,,,,,,,,,,
1244.5,,rt_thecrossant_black,2220850,black_plus_sign,,,,50,,,1,0.918918918918919,,,,,,,,,,
null,,color_black,2220952,black_plus_sign,,,,null,,,,,,,,,,,,,,
null,,learn_phase(without_color),2222956,black_plus_sign,,,,null,GW/paint.jpg,GW/jukebox.jpg,,,,,,,,,,,,
null,,black_cross(without_color),2223540,blue,,,,null,GW/paint.jpg,GW/jukebox.jpg,,,,,,,,,,,,
318.40000009536743,,rt_plussign_withcolor,2224042,blue,,,,49,GW/paint.jpg,GW/jukebox.jpg,,,,,,,,,,,,
null,,rt_thecrossant_black,2225463,black_plus_sign,,,,null,,,1,0.9210526315789473,,,,,,,,,,
null,,color_black,2225565,black_plus_sign,,,,null,,,,,,,,,,,,,,
null,,learn_phase(without_color),2227566,black_plus_sign,,,,null,GW/snail.jpg,GW/gong.jpg,,,,,,,,,,,,
null,,black_cross(without_color),2227971,green,,,,null,GW/snail.jpg,GW/gong.jpg,,,,,,,,,,,,
null,,rt_plussign_withcolor,2228472,green,,,,null,GW/snail.jpg,GW/gong.jpg,,,,,,,,,,,,
791.5999999046326,,rt_thecrossant_black,2230072,black_plus_sign,,,,50,,,1,0.9230769230769231,,,,,,,,,,
null,,color_black,2230174,black_plus_sign,,,,null,,,,,,,,,,,,,,
null,,learn_phase(without_color),2232176,black_plus_sign,,,,null,GW/snail.jpg,GW/basket.jpg,,,,,,,,,,,,
null,,black_cross(without_color),2233115,blue,,,,null,GW/snail.jpg,GW/basket.jpg,,,,,,,,,,,,
null,,rt_plussign_withcolor,2233616,blue,,,,null,GW/snail.jpg,GW/basket.jpg,,,,,,,,,,,,
584.5,,rt_thecrossant_black,2234683,black_plus_sign,,,,50,,,0,0.9,,,,,,,,,,
null,,color_black,2234799,black_plus_sign,,,,null,,,,,,,,,,,,,,
null,,learn_phase(without_color),2236802,black_plus_sign,,,,null,GW/teeth.jpg,GW/soldier.jpg,,,,,,,,,,,,
null,,black_cross(without_color),2237462,blue,,,,null,GW/teeth.jpg,GW/soldier.jpg,,,,,,,,,,,,
455.39999985694885,,rt_plussign_withcolor,2237965,blue,,,,49,GW/teeth.jpg,GW/soldier.jpg,,,,,,,,,,,,
null,,rt_thecrossant_black,2239309,black_plus_sign,,,,null,,,1,0.9024390243902439,,,,,,,,,,
null,,color_black,2239413,black_plus_sign,,,,null,,,,,,,,,,,,,,
null,,learn_phase(without_color),2241415,black_plus_sign,,,,null,GW/jukebox.jpg,GW/teeth.jpg,,,,,,,,,,,,
null,,black_cross(without_color),2241872,green,,,,null,GW/jukebox.jpg,GW/teeth.jpg,,,,,,,,,,,,
440.69999980926514,,rt_plussign_withcolor,2242374,green,,,,50,GW/jukebox.jpg,GW/teeth.jpg,,,,,,,,,,,,
null,,rt_thecrossant_black,2243923,black_plus_sign,,,,null,,,1,0.9047619047619048,,,,,,,,,,
null,,color_black,2244024,black_plus_sign,,,,null,,,,,,,,,,,,,,
null,,learn_phase(without_color),2246028,black_plus_sign,,,,null,GW/snail.jpg,GW/basket.jpg,,,,,,,,,,,,
null,,black_cross(without_color),2246837,blue,,,,null,GW/snail.jpg,GW/basket.jpg,,,,,,,,,,,,
448.2999999523163,,rt_plussign_withcolor,2247339,blue,,,,49,GW/snail.jpg,GW/basket.jpg,,,,,,,,,,,,
null,,rt_thecrossant_black,2248535,black_plus_sign,,,,null,,,1,0.9069767441860465,,,,,,,,,,
null,,color_black,2248636,black_plus_sign,,,,null,,,,,,,,,,,,,,
null,,learn_phase(without_color),2250639,black_plus_sign,,,,null,GW/gong.jpg,GW/hat.jpg,,,,,,,,,,,,
null,,black_cross(without_color),2251694,green,,,,null,GW/gong.jpg,GW/hat.jpg,,,,,,,,,,,,
433.10000014305115,,rt_plussign_withcolor,2252196,green,,,,50,GW/gong.jpg,GW/hat.jpg,,,,,,,,,,,,
null,,rt_thecrossant_black,2253143,black_plus_sign,,,,null,,,1,0.9090909090909091,,,,,,,,,,
null,,color_black,2253245,black_plus_sign,,,,null,,,,,,,,,,,,,,
null,,learn_phase(without_color),2255247,black_plus_sign,,,,null,GW/globe.jpg,GW/basket.jpg,,,,,,,,,,,,
null,,black_cross(without_color),2255789,green,,,,null,GW/globe.jpg,GW/basket.jpg,,,,,,,,,,,,
502,,rt_plussign_withcolor,2256292,green,,,,50,GW/globe.jpg,GW/basket.jpg,,,,,,,,,,,,
null,,rt_thecrossant_black,2257754,black_plus_sign,,,,null,,,1,0.9111111111111111,,,,,,,,,,
null,,color_black,2257856,black_plus_sign,,,,null,,,,,,,,,,,,,,
null,,learn_phase(without_color),2259859,black_plus_sign,,,,null,GW/gong.jpg,GW/basket.jpg,,,,,,,,,,,,
null,,black_cross(without_color),2260343,blue,,,,null,GW/gong.jpg,GW/basket.jpg,,,,,,,,,,,,
null,,rt_plussign_withcolor,2260846,blue,,,,null,GW/gong.jpg,GW/basket.jpg,,,,,,,,,,,,
709.0999999046326,,rt_thecrossant_black,2262365,black_plus_sign,,,,49,,,1,0.9130434782608695,,,,,,,,,,
null,,color_black,2262466,black_plus_sign,,,,null,,,,,,,,,,,,,,
null,,learn_phase(without_color),2264468,black_plus_sign,,,,null,GW/jukebox.jpg,GW/camera.jpg,,,,,,,,,,,,
null,,black_cross(without_color),2265183,green,,,,null,GW/jukebox.jpg,GW/camera.jpg,,,,,,,,,,,,
488.2999999523163,,rt_plussign_withcolor,2265684,green,,,,50,GW/jukebox.jpg,GW/camera.jpg,,,,,,,,,,,,
null,,rt_thecrossant_black,2266974,black_plus_sign,,,,null,,,1,0.9148936170212766,,,,,,,,,,
null,,color_black,2267076,black_plus_sign,,,,null,,,,,,,,,,,,,,
null,,learn_phase(without_color),2269078,black_plus_sign,,,,null,GW/gong.jpg,GW/basket.jpg,,,,,,,,,,,,
null,,black_cross(without_color),2269994,green,,,,null,GW/gong.jpg,GW/basket.jpg,,,,,,,,,,,,
407,,rt_plussign_withcolor,2270496,green,,,,50,GW/gong.jpg,GW/basket.jpg,,,,,,,,,,,,
null,,rt_thecrossant_black,2271584,black_plus_sign,,,,null,,,1,0.9166666666666666,,,,,,,,,,
null,,color_black,2271686,black_plus_sign,,,,null,,,,,,,,,,,,,,
null,,learn_phase(without_color),2273689,black_plus_sign,,,,null,GW/camera.jpg,GW/wheelchair.jpg,,,,,,,,,,,,
null,,black_cross(without_color),2274122,blue,,,,null,GW/camera.jpg,GW/wheelchair.jpg,,,,,,,,,,,,
null,,rt_plussign_withcolor,2274624,blue,,,,null,GW/camera.jpg,GW/wheelchair.jpg,,,,,,,,,,,,
1114.5999999046326,,rt_thecrossant_black,2276194,black_plus_sign,,,,49,,,1,0.9183673469387755,,,,,,,,,,
null,,color_black,2276296,black_plus_sign,,,,null,,,,,,,,,,,,,,
null,,learn_phase(without_color),2278299,black_plus_sign,,,,null,GW/jukebox.jpg,GW/teeth.jpg,,,,,,,,,,,,
null,,black_cross(without_color),2278860,green,,,,null,GW/jukebox.jpg,GW/teeth.jpg,,,,,,,,,,,,
481.59999990463257,,rt_plussign_withcolor,2279361,green,,,,50,GW/jukebox.jpg,GW/teeth.jpg,,,,,,,,,,,,
null,,rt_thecrossant_black,2280804,black_plus_sign,,,,null,,,1,0.92,,,,,,,,,,
null,,color_black,2280907,black_plus_sign,,,,null,,,,,,,,,,,,,,
null,,learn_phase(without_color),2282910,black_plus_sign,,,,null,GW/camera.jpg,GW/snail.jpg,,,,,,,,,,,,
null,,black_cross(without_color),2283715,green,,,,null,GW/camera.jpg,GW/snail.jpg,,,,,,,,,,,,
433.5,,rt_plussign_withcolor,2284217,green,,,,50,GW/camera.jpg,GW/snail.jpg,,,,,,,,,,,,
null,,rt_thecrossant_black,2285414,black_plus_sign,,,,null,,,1,0.9215686274509803,,,,,,,,,,
null,,color_black,2285517,black_plus_sign,,,,null,,,,,,,,,,,,,,
null,,learn_phase(without_color),2287520,black_plus_sign,,,,null,GW/paint.jpg,GW/jukebox.jpg,,,,,,,,,,,,
null,,black_cross(without_color),2288089,green,,,,null,GW/paint.jpg,GW/jukebox.jpg,,,,,,,,,,,,
null,,rt_plussign_withcolor,2288591,green,,,,null,GW/paint.jpg,GW/jukebox.jpg,,,,,,,,,,,,
1116.9000000953674,,rt_thecrossant_black,2290026,black_plus_sign,,,,50,,,1,0.9230769230769231,,,,,,,,,,
null,,color_black,2290128,black_plus_sign,,,,null,,,,,,,,,,,,,,
null,,learn_phase(without_color),2292130,black_plus_sign,,,,null,GW/basket.jpg,GW/wheelchair.jpg,,,,,,,,,,,,
null,,black_cross(without_color),2292604,blue,,,,null,GW/basket.jpg,GW/wheelchair.jpg,,,,,,,,,,,,
319.2000000476837,,rt_plussign_withcolor,2293105,blue,,,,49,GW/basket.jpg,GW/wheelchair.jpg,,,,,,,,,,,,
null,,rt_thecrossant_black,2294636,black_plus_sign,,,,null,,,1,0.9245283018867925,,,,,,,,,,
null,,color_black,2294738,black_plus_sign,,,,null,,,,,,,,,,,,,,
null,,learn_phase(without_color),2296740,black_plus_sign,,,,null,GW/paint.jpg,GW/jukebox.jpg,,,,,,,,,,,,
null,,black_cross(without_color),2297450,blue,,,,null,GW/paint.jpg,GW/jukebox.jpg,,,,,,,,,,,,
490.2000000476837,,rt_plussign_withcolor,2297951,blue,,,,49,GW/paint.jpg,GW/jukebox.jpg,,,,,,,,,,,,
null,,rt_thecrossant_black,2299245,black_plus_sign,,,,null,,,1,0.9259259259259259,,,,,,,,,,
null,,color_black,2299347,black_plus_sign,,,,null,,,,,,,,,,,,,,
null,,learn_phase(without_color),2301349,black_plus_sign,,,,null,GW/camera.jpg,GW/wheelchair.jpg,,,,,,,,,,,,
null,,black_cross(without_color),2301885,blue,,,,null,GW/camera.jpg,GW/wheelchair.jpg,,,,,,,,,,,,
null,,rt_plussign_withcolor,2302387,blue,,,,null,GW/camera.jpg,GW/wheelchair.jpg,,,,,,,,,,,,
852.8999998569489,,rt_thecrossant_black,2303855,black_plus_sign,,,,49,,,1,0.9272727272727272,,,,,,,,,,
null,,color_black,2303957,black_plus_sign,,,,null,,,,,,,,,,,,,,
null,,learn_phase(without_color),2305960,black_plus_sign,,,,null,GW/gong.jpg,GW/globe.jpg,,,,,,,,,,,,
null,,black_cross(without_color),2306956,blue,,,,null,GW/gong.jpg,GW/globe.jpg,,,,,,,,,,,,
429.7999999523163,,rt_plussign_withcolor,2307457,blue,,,,49,GW/gong.jpg,GW/globe.jpg,,,,,,,,,,,,
null,,rt_thecrossant_black,2308466,black_plus_sign,,,,null,,,1,0.9285714285714286,,,,,,,,,,
null,,color_black,2308567,black_plus_sign,,,,null,,,,,,,,,,,,,,
null,,learn_phase(without_color),2310571,black_plus_sign,,,,null,GW/teeth.jpg,GW/dustpan.jpg,,,,,,,,,,,,
null,,black_cross(without_color),2311653,green,,,,null,GW/teeth.jpg,GW/dustpan.jpg,,,,,,,,,,,,
472.2000000476837,,rt_plussign_withcolor,2312155,green,,,,50,GW/teeth.jpg,GW/dustpan.jpg,,,,,,,,,,,,
null,,rt_thecrossant_black,2313076,black_plus_sign,,,,null,,,1,0.9298245614035088,,,,,,,,,,
null,,color_black,2313178,black_plus_sign,,,,null,,,,,,,,,,,,,,
null,,learn_phase(without_color),2315180,black_plus_sign,,,,null,GW/camera.jpg,GW/snail.jpg,,,,,,,,,,,,
null,,black_cross(without_color),2315757,blue,,,,null,GW/camera.jpg,GW/snail.jpg,,,,,,,,,,,,
null,,rt_plussign_withcolor,2316258,blue,,,,null,GW/camera.jpg,GW/snail.jpg,,,,,,,,,,,,
1384.2999999523163,,rt_thecrossant_black,2317686,black_plus_sign,,,,49,,,1,0.9310344827586207,,,,,,,,,,
null,,color_black,2317788,black_plus_sign,,,,null,,,,,,,,,,,,,,
null,,learn_phase(without_color),2319790,black_plus_sign,,,,null,GW/camera.jpg,GW/wheelchair.jpg,,,,,,,,,,,,
null,,black_cross(without_color),2320345,green,,,,null,GW/camera.jpg,GW/wheelchair.jpg,,,,,,,,,,,,
360,,rt_plussign_withcolor,2320848,green,,,,50,GW/camera.jpg,GW/wheelchair.jpg,,,,,,,,,,,,
null,,rt_thecrossant_black,2322296,black_plus_sign,,,,null,,,1,0.9322033898305084,,,,,,,,,,
null,,color_black,2322409,black_plus_sign,,,,null,,,,,,,,,,,,,,
null,,learn_phase(without_color),2324415,black_plus_sign,,,,null,GW/paint.jpg,GW/jukebox.jpg,,,,,,,,,,,,
null,,black_cross(without_color),2325051,green,,,,null,GW/paint.jpg,GW/jukebox.jpg,,,,,,,,,,,,
335.5,,rt_plussign_withcolor,2325552,green,,,,50,GW/paint.jpg,GW/jukebox.jpg,,,,,,,,,,,,
null,,rt_thecrossant_black,2326921,black_plus_sign,,,,null,,,1,0.9333333333333333,,,,,,,,,,
null,,color_black,2327023,black_plus_sign,,,,null,,,,,,,,,,,,,,
null,,learn_phase(without_color),2329026,black_plus_sign,,,,null,GW/gong.jpg,GW/hat.jpg,,,,,,,,,,,,
null,,black_cross(without_color),2329633,blue,,,,null,GW/gong.jpg,GW/hat.jpg,,,,,,,,,,,,
485.30000019073486,,rt_plussign_withcolor,2330134,blue,,,,50,GW/gong.jpg,GW/hat.jpg,,,,,,,,,,,,
null,,rt_thecrossant_black,2331532,black_plus_sign,,,,49,,,0,0.9180327868852459,,,,,,,,,,
null,,color_black,2331639,black_plus_sign,,,,null,,,,,,,,,,,,,,
null,,learn_phase(without_color),2333641,black_plus_sign,,,,null,GW/wheelchair.jpg,GW/soldier.jpg,,,,,,,,,,,,
null,,black_cross(without_color),2334662,blue,,,,null,GW/wheelchair.jpg,GW/soldier.jpg,,,,,,,,,,,,
427.09999990463257,,rt_plussign_withcolor,2335164,blue,,,,49,GW/wheelchair.jpg,GW/soldier.jpg,,,,,,,,,,,,
null,,rt_thecrossant_black,2336147,black_plus_sign,,,,null,,,1,0.9193548387096774,,,,,,,,,,
null,,color_black,2336248,black_plus_sign,,,,null,,,,,,,,,,,,,,
null,,learn_phase(without_color),2338251,black_plus_sign,,,,null,GW/camera.jpg,GW/wheelchair.jpg,,,,,,,,,,,,
null,,black_cross(without_color),2339151,green,,,,null,GW/camera.jpg,GW/wheelchair.jpg,,,,,,,,,,,,
387,,rt_plussign_withcolor,2339653,green,,,,50,GW/camera.jpg,GW/wheelchair.jpg,,,,,,,,,,,,
null,,rt_thecrossant_black,2340757,black_plus_sign,,,,null,,,1,0.9206349206349206,,,,,,,,,,
null,,color_black,2340860,black_plus_sign,,,,null,,,,,,,,,,,,,,
null,,learn_phase(without_color),2342863,black_plus_sign,,,,null,GW/teeth.jpg,GW/dustpan.jpg,,,,,,,,,,,,
null,,black_cross(without_color),2343782,blue,,,,null,GW/teeth.jpg,GW/dustpan.jpg,,,,,,,,,,,,
473.5,,rt_plussign_withcolor,2344285,blue,,,,49,GW/teeth.jpg,GW/dustpan.jpg,,,,,,,,,,,,
null,,rt_thecrossant_black,2345370,black_plus_sign,,,,null,,,1,0.921875,,,,,,,,,,
null,,color_black,2345472,black_plus_sign,,,,null,,,,,,,,,,,,,,
null,,learn_phase(without_color),2347474,black_plus_sign,,,,null,GW/wheelchair.jpg,GW/soldier.jpg,,,,,,,,,,,,
null,,black_cross(without_color),2348224,blue,,,,null,GW/wheelchair.jpg,GW/soldier.jpg,,,,,,,,,,,,
395.40000009536743,,rt_plussign_withcolor,2348726,blue,,,,49,GW/wheelchair.jpg,GW/soldier.jpg,,,,,,,,,,,,
null,,rt_thecrossant_black,2349979,black_plus_sign,,,,null,,,1,0.9230769230769231,,,,,,,,,,
null,,color_black,2350080,black_plus_sign,,,,null,,,,,,,,,,,,,,
null,,learn_phase(without_color),2352083,black_plus_sign,,,,null,GW/gong.jpg,GW/basket.jpg,,,,,,,,,,,,
null,,black_cross(without_color),2352538,green,,,,null,GW/gong.jpg,GW/basket.jpg,,,,,,,,,,,,
null,,rt_plussign_withcolor,2353040,green,,,,null,GW/gong.jpg,GW/basket.jpg,,,,,,,,,,,,
921.8999998569489,,rt_thecrossant_black,2354590,black_plus_sign,,,,50,,,1,0.9242424242424242,,,,,,,,,,
null,,color_black,2354692,black_plus_sign,,,,null,,,,,,,,,,,,,,
null,,learn_phase(without_color),2356695,black_plus_sign,,,,null,GW/wheelchair.jpg,GW/soldier.jpg,,,,,,,,,,,,
null,,black_cross(without_color),2357211,blue,,,,null,GW/wheelchair.jpg,GW/soldier.jpg,,,,,,,,,,,,
428.2000000476837,,rt_plussign_withcolor,2357713,blue,,,,49,GW/wheelchair.jpg,GW/soldier.jpg,,,,,,,,,,,,
null,,rt_thecrossant_black,2359201,black_plus_sign,,,,null,,,1,0.9253731343283582,,,,,,,,,,
null,,color_black,2359303,black_plus_sign,,,,null,,,,,,,,,,,,,,
null,,learn_phase(without_color),2361305,black_plus_sign,,,,null,GW/gong.jpg,GW/hat.jpg,,,,,,,,,,,,
null,,black_cross(without_color),2362370,green,,,,null,GW/gong.jpg,GW/hat.jpg,,,,,,,,,,,,
411.7000000476837,,rt_plussign_withcolor,2362873,green,,,,50,GW/gong.jpg,GW/hat.jpg,,,,,,,,,,,,
null,,rt_thecrossant_black,2363811,black_plus_sign,,,,null,,,1,0.9264705882352942,,,,,,,,,,
null,,color_black,2363914,black_plus_sign,,,,null,,,,,,,,,,,,,,
null,,learn_phase(without_color),2365916,black_plus_sign,,,,null,GW/wheelchair.jpg,GW/soldier.jpg,,,,,,,,,,,,
null,,black_cross(without_color),2366845,green,,,,null,GW/wheelchair.jpg,GW/soldier.jpg,,,,,,,,,,,,
351,,rt_plussign_withcolor,2367347,green,,,,49,GW/wheelchair.jpg,GW/soldier.jpg,,,,,,,,,,,,
null,,rt_thecrossant_black,2368423,black_plus_sign,,,,null,,,0,0.9130434782608695,,,,,,,,,,
null,,color_black,2368525,black_plus_sign,,,,null,,,,,,,,,,,,,,
null,,learn_phase(without_color),2370527,black_plus_sign,,,,null,GW/jukebox.jpg,GW/camera.jpg,,,,,,,,,,,,
null,,black_cross(without_color),2371564,green,,,,null,GW/jukebox.jpg,GW/camera.jpg,,,,,,,,,,,,
340.7000000476837,,rt_plussign_withcolor,2372067,green,,,,50,GW/jukebox.jpg,GW/camera.jpg,,,,,,,,,,,,
null,,rt_thecrossant_black,2373034,black_plus_sign,,,,null,,,1,0.9142857142857143,,,,,,,,,,
null,,color_black,2373137,black_plus_sign,,,,null,,,,,,,,,,,,,,
null,,learn_phase(without_color),2375139,black_plus_sign,,,,null,GW/wheelchair.jpg,GW/soldier.jpg,,,,,,,,,,,,
null,,black_cross(without_color),2375746,green,,,,null,GW/wheelchair.jpg,GW/soldier.jpg,,,,,,,,,,,,
null,,rt_plussign_withcolor,2376248,green,,,,null,GW/wheelchair.jpg,GW/soldier.jpg,,,,,,,,,,,,
1167.7999999523163,,rt_thecrossant_black,2377645,black_plus_sign,,,,50,,,1,0.9154929577464789,,,,,,,,,,
null,,color_black,2377747,black_plus_sign,,,,null,,,,,,,,,,,,,,
null,,learn_phase(without_color),2379750,black_plus_sign,,,,null,GW/gong.jpg,GW/basket.jpg,,,,,,,,,,,,
null,,black_cross(without_color),2380321,green,,,,null,GW/gong.jpg,GW/basket.jpg,,,,,,,,,,,,
null,,rt_plussign_withcolor,2380823,green,,,,null,GW/gong.jpg,GW/basket.jpg,,,,,,,,,,,,
743.7000000476837,,rt_thecrossant_black,2382256,black_plus_sign,,,,50,,,1,0.9166666666666666,,,,,,,,,,
null,,color_black,2382358,black_plus_sign,,,,null,,,,,,,,,,,,,,
null,,learn_phase(without_color),2384361,black_plus_sign,,,,null,GW/globe.jpg,GW/barrel.jpg,,,,,,,,,,,,
null,,black_cross(without_color),2385279,green,,,,null,GW/globe.jpg,GW/barrel.jpg,,,,,,,,,,,,
412.5,,rt_plussign_withcolor,2385781,green,,,,50,GW/globe.jpg,GW/barrel.jpg,,,,,,,,,,,,
null,,rt_thecrossant_black,2386867,black_plus_sign,,,,null,,,1,0.9178082191780822,,,,,,,,,,
null,,color_black,2386970,black_plus_sign,,,,null,,,,,,,,,,,,,,
null,,learn_phase(without_color),2388972,black_plus_sign,,,,null,GW/basket.jpg,GW/wheelchair.jpg,,,,,,,,,,,,
null,,black_cross(without_color),2389906,green,,,,null,GW/basket.jpg,GW/wheelchair.jpg,,,,,,,,,,,,
387.7000000476837,,rt_plussign_withcolor,2390408,green,,,,50,GW/basket.jpg,GW/wheelchair.jpg,,,,,,,,,,,,
null,,rt_thecrossant_black,2391478,black_plus_sign,,,,null,,,1,0.918918918918919,,,,,,,,,,
null,,color_black,2391579,black_plus_sign,,,,null,,,,,,,,,,,,,,
null,,learn_phase(without_color),2393582,black_plus_sign,,,,null,GW/snail.jpg,GW/basket.jpg,,,,,,,,,,,,
null,,black_cross(without_color),2394237,green,,,,null,GW/snail.jpg,GW/basket.jpg,,,,,,,,,,,,
348.39999985694885,,rt_plussign_withcolor,2394740,green,,,,50,GW/snail.jpg,GW/basket.jpg,,,,,,,,,,,,
null,,rt_thecrossant_black,2396089,black_plus_sign,,,,null,,,1,0.92,,,,,,,,,,
null,,color_black,2396192,black_plus_sign,,,,null,,,,,,,,,,,,,,
null,,learn_phase(without_color),2398195,black_plus_sign,,,,null,GW/jukebox.jpg,GW/teeth.jpg,,,,,,,,,,,,
null,,black_cross(without_color),2399015,blue,,,,null,GW/jukebox.jpg,GW/teeth.jpg,,,,,,,,,,,,
380.10000014305115,,rt_plussign_withcolor,2399516,blue,,,,49,GW/jukebox.jpg,GW/teeth.jpg,,,,,,,,,,,,
null,,rt_thecrossant_black,2400700,black_plus_sign,,,,null,,,1,0.9210526315789473,,,,,,,,,,
null,,color_black,2400803,black_plus_sign,,,,null,,,,,,,,,,,,,,
null,,learn_phase(without_color),2402807,black_plus_sign,,,,null,GW/gong.jpg,GW/basket.jpg,,,,,,,,,,,,
null,,black_cross(without_color),2403245,green,,,,null,GW/gong.jpg,GW/basket.jpg,,,,,,,,,,,,
493.7999999523163,,rt_plussign_withcolor,2403746,green,,,,50,GW/gong.jpg,GW/basket.jpg,,,,,,,,,,,,
null,,rt_thecrossant_black,2405312,black_plus_sign,,,,null,,,1,0.922077922077922,,,,,,,,,,
null,,color_black,2405422,black_plus_sign,,,,null,,,,,,,,,,,,,,
null,,learn_phase(without_color),2407426,black_plus_sign,,,,null,GW/basket.jpg,GW/wheelchair.jpg,,,,,,,,,,,,
null,,black_cross(without_color),2407935,green,,,,null,GW/basket.jpg,GW/wheelchair.jpg,,,,,,,,,,,,
451.7000000476837,,rt_plussign_withcolor,2408436,green,,,,50,GW/basket.jpg,GW/wheelchair.jpg,,,,,,,,,,,,
null,,rt_thecrossant_black,2409929,black_plus_sign,,,,null,,,1,0.9230769230769231,,,,,,,,,,
null,,color_black,2410031,black_plus_sign,,,,null,,,,,,,,,,,,,,
null,,learn_phase(without_color),2412033,black_plus_sign,,,,null,GW/jukebox.jpg,GW/teeth.jpg,,,,,,,,,,,,
null,,black_cross(without_color),2413135,green,,,,null,GW/jukebox.jpg,GW/teeth.jpg,,,,,,,,,,,,
366,,rt_plussign_withcolor,2413637,green,,,,50,GW/jukebox.jpg,GW/teeth.jpg,,,,,,,,,,,,
null,,rt_thecrossant_black,2414544,black_plus_sign,,,,null,,,1,0.9240506329113924,,,,,,,,,,
null,,color_black,2414647,black_plus_sign,,,,null,,,,,,,,,,,,,,
null,,learn_phase(without_color),2416650,black_plus_sign,,,,null,GW/paint.jpg,GW/jukebox.jpg,,,,,,,,,,,,
null,,black_cross(without_color),2417571,blue,,,,null,GW/paint.jpg,GW/jukebox.jpg,,,,,,,,,,,,
null,,rt_plussign_withcolor,2418072,blue,,,,null,GW/paint.jpg,GW/jukebox.jpg,,,,,,,,,,,,
1205.2999999523163,,rt_thecrossant_black,2419155,black_plus_sign,,,,49,,,1,0.925,,,,,,,,,,
null,,color_black,2419257,black_plus_sign,,,,null,,,,,,,,,,,,,,
null,,learn_phase(without_color),2421259,black_plus_sign,,,,null,GW/jukebox.jpg,GW/camera.jpg,,,,,,,,,,,,
null,,black_cross(without_color),2421952,blue,,,,null,GW/jukebox.jpg,GW/camera.jpg,,,,,,,,,,,,
454.5,,rt_plussign_withcolor,2422454,blue,,,,49,GW/jukebox.jpg,GW/camera.jpg,,,,,,,,,,,,
null,,rt_thecrossant_black,2423766,black_plus_sign,,,,null,,,1,0.9259259259259259,,,,,,,,,,
null,,color_black,2423868,black_plus_sign,,,,null,,,,,,,,,,,,,,
null,,learn_phase(without_color),2425870,black_plus_sign,,,,null,GW/snail.jpg,GW/basket.jpg,,,,,,,,,,,,
null,,black_cross(without_color),2426340,blue,,,,null,GW/snail.jpg,GW/basket.jpg,,,,,,,,,,,,
null,,rt_plussign_withcolor,2426842,blue,,,,null,GW/snail.jpg,GW/basket.jpg,,,,,,,,,,,,
808.9000000953674,,rt_thecrossant_black,2428380,black_plus_sign,,,,49,,,1,0.926829268292683,,,,,,,,,,
null,,color_black,2428482,black_plus_sign,,,,null,,,,,,,,,,,,,,
null,,learn_phase(without_color),2430485,black_plus_sign,,,,null,GW/gong.jpg,GW/globe.jpg,,,,,,,,,,,,
null,,black_cross(without_color),2431069,blue,,,,null,GW/gong.jpg,GW/globe.jpg,,,,,,,,,,,,
null,,rt_plussign_withcolor,2431571,blue,,,,null,GW/gong.jpg,GW/globe.jpg,,,,,,,,,,,,
777.8999998569489,,rt_thecrossant_black,2432992,black_plus_sign,,,,50,,,0,0.9156626506024096,,,,,,,,,,
null,,color_black,2433103,black_plus_sign,,,,null,,,,,,,,,,,,,,
null,,learn_phase(without_color),2435106,black_plus_sign,,,,null,GW/teeth.jpg,GW/dustpan.jpg,,,,,,,,,,,,
null,,black_cross(without_color),2436061,blue,,,,null,GW/teeth.jpg,GW/dustpan.jpg,,,,,,,,,,,,
378.89999985694885,,rt_plussign_withcolor,2436562,blue,,,,49,GW/teeth.jpg,GW/dustpan.jpg,,,,,,,,,,,,
null,,rt_thecrossant_black,2437612,black_plus_sign,,,,null,,,1,0.9166666666666666,,,,,,,,,,
null,,color_black,2437714,black_plus_sign,,,,null,,,,,,,,,,,,,,
null,,learn_phase(without_color),2439717,black_plus_sign,,,,null,GW/camera.jpg,GW/snail.jpg,,,,,,,,,,,,
null,,black_cross(without_color),2440772,green,,,,null,GW/camera.jpg,GW/snail.jpg,,,,,,,,,,,,
465.09999990463257,,rt_plussign_withcolor,2441274,green,,,,50,GW/camera.jpg,GW/snail.jpg,,,,,,,,,,,,
null,,rt_thecrossant_black,2442223,black_plus_sign,,,,null,,,1,0.9176470588235294,,,,,,,,,,
null,,color_black,2442325,black_plus_sign,,,,null,,,,,,,,,,,,,,
null,,learn_phase(without_color),2444326,black_plus_sign,,,,null,GW/basket.jpg,GW/wheelchair.jpg,,,,,,,,,,,,
null,,black_cross(without_color),2444928,green,,,,null,GW/basket.jpg,GW/wheelchair.jpg,,,,,,,,,,,,
null,,rt_plussign_withcolor,2445429,green,,,,null,GW/basket.jpg,GW/wheelchair.jpg,,,,,,,,,,,,
1159.4000000953674,,rt_thecrossant_black,2446831,black_plus_sign,,,,50,,,1,0.9186046511627907,,,,,,,,,,
null,,color_black,2446934,black_plus_sign,,,,null,,,,,,,,,,,,,,
null,,learn_phase(without_color),2448937,black_plus_sign,,,,null,GW/teeth.jpg,GW/soldier.jpg,,,,,,,,,,,,
null,,black_cross(without_color),2449953,blue,,,,null,GW/teeth.jpg,GW/soldier.jpg,,,,,,,,,,,,
343.7999999523163,,rt_plussign_withcolor,2450455,blue,,,,49,GW/teeth.jpg,GW/soldier.jpg,,,,,,,,,,,,
null,,rt_thecrossant_black,2451445,black_plus_sign,,,,null,,,1,0.9195402298850575,,,,,,,,,,
null,,color_black,2451547,black_plus_sign,,,,null,,,,,,,,,,,,,,
null,,learn_phase(without_color),2453551,black_plus_sign,,,,null,GW/snail.jpg,GW/gong.jpg,,,,,,,,,,,,
null,,black_cross(without_color),2454107,green,,,,null,GW/snail.jpg,GW/gong.jpg,,,,,,,,,,,,
null,,rt_plussign_withcolor,2454608,green,,,,null,GW/snail.jpg,GW/gong.jpg,,,,,,,,,,,,
1168.6000001430511,,rt_thecrossant_black,2456057,black_plus_sign,,,,50,,,1,0.9204545454545454,,,,,,,,,,
null,,color_black,2456162,black_plus_sign,,,,null,,,,,,,,,,,,,,
null,,learn_phase(without_color),2458166,black_plus_sign,,,,null,GW/globe.jpg,GW/basket.jpg,,,,,,,,,,,,
null,,black_cross(without_color),2459050,green,,,,null,GW/globe.jpg,GW/basket.jpg,,,,,,,,,,,,
null,,rt_plussign_withcolor,2459552,green,,,,null,GW/globe.jpg,GW/basket.jpg,,,,,,,,,,,,
687.2999999523163,,rt_thecrossant_black,2460683,black_plus_sign,,,,50,,,1,0.9213483146067416,,,,,,,,,,
null,,color_black,2460795,black_plus_sign,,,,null,,,,,,,,,,,,,,
null,,learn_phase(without_color),2462798,black_plus_sign,,,,null,GW/jukebox.jpg,GW/camera.jpg,,,,,,,,,,,,
null,,black_cross(without_color),2463606,green,,,,null,GW/jukebox.jpg,GW/camera.jpg,,,,,,,,,,,,
399.2000000476837,,rt_plussign_withcolor,2464118,green,,,,50,GW/jukebox.jpg,GW/camera.jpg,,,,,,,,,,,,
null,,rt_thecrossant_black,2465315,black_plus_sign,,,,null,,,1,0.9222222222222223,,,,,,,,,,
null,,color_black,2465418,black_plus_sign,,,,null,,,,,,,,,,,,,,
null,,learn_phase(without_color),2467420,black_plus_sign,,,,null,GW/gong.jpg,GW/basket.jpg,,,,,,,,,,,,
null,,black_cross(without_color),2468095,blue,,,,null,GW/gong.jpg,GW/basket.jpg,,,,,,,,,,,,
439.5,,rt_plussign_withcolor,2468596,blue,,,,49,GW/gong.jpg,GW/basket.jpg,,,,,,,,,,,,
null,,rt_thecrossant_black,2469926,black_plus_sign,,,,null,,,1,0.9230769230769231,,,,,,,,,,
null,,color_black,2470028,black_plus_sign,,,,null,,,,,,,,,,,,,,
null,,learn_phase(without_color),2472030,black_plus_sign,,,,null,GW/snail.jpg,GW/gong.jpg,,,,,,,,,,,,
null,,black_cross(without_color),2473009,green,,,,null,GW/snail.jpg,GW/gong.jpg,,,,,,,,,,,,
null,,rt_plussign_withcolor,2473510,green,,,,null,GW/snail.jpg,GW/gong.jpg,,,,,,,,,,,,
902.8999998569489,,rt_thecrossant_black,2474535,black_plus_sign,,,,50,,,1,0.9239130434782609,,,,,,,,,,
null,,color_black,2474638,black_plus_sign,,,,null,,,,,,,,,,,,,,
null,,learn_phase(without_color),2476644,black_plus_sign,,,,null,GW/paint.jpg,GW/jukebox.jpg,,,,,,,,,,,,
null,,black_cross(without_color),2477712,green,,,,null,GW/paint.jpg,GW/jukebox.jpg,,,,,,,,,,,,
399.59999990463257,,rt_plussign_withcolor,2478214,green,,,,50,GW/paint.jpg,GW/jukebox.jpg,,,,,,,,,,,,
null,,rt_thecrossant_black,2479150,black_plus_sign,,,,null,,,1,0.9247311827956989,,,,,,,,,,
null,,color_black,2479252,black_plus_sign,,,,null,,,,,,,,,,,,,,
null,,learn_phase(without_color),2481254,black_plus_sign,,,,null,GW/gong.jpg,GW/globe.jpg,,,,,,,,,,,,
null,,black_cross(without_color),2482123,blue,,,,null,GW/gong.jpg,GW/globe.jpg,,,,,,,,,,,,
324.59999990463257,,rt_plussign_withcolor,2482625,blue,,,,49,GW/gong.jpg,GW/globe.jpg,,,,,,,,,,,,
null,,rt_thecrossant_black,2483760,black_plus_sign,,,,null,,,1,0.925531914893617,,,,,,,,,,
null,,color_black,2483867,black_plus_sign,,,,null,,,,,,,,,,,,,,
null,,learn_phase(without_color),2485870,black_plus_sign,,,,null,GW/snail.jpg,GW/basket.jpg,,,,,,,,,,,,
null,,black_cross(without_color),2486959,blue,,,,null,GW/snail.jpg,GW/basket.jpg,,,,,,,,,,,,
482.7999999523163,,rt_plussign_withcolor,2487460,blue,,,,49,GW/snail.jpg,GW/basket.jpg,,,,,,,,,,,,
null,,rt_thecrossant_black,2488390,black_plus_sign,,,,null,,,1,0.9263157894736842,,,,,,,,,,
null,,color_black,2488493,black_plus_sign,,,,null,,,,,,,,,,,,,,
null,,learn_phase(without_color),2490495,black_plus_sign,,,,null,GW/jukebox.jpg,GW/teeth.jpg,,,,,,,,,,,,
null,,black_cross(without_color),2491345,blue,,,,null,GW/jukebox.jpg,GW/teeth.jpg,,,,,,,,,,,,
478,,rt_plussign_withcolor,2491846,blue,,,,49,GW/jukebox.jpg,GW/teeth.jpg,,,,,,,,,,,,
null,,rt_thecrossant_black,2493001,black_plus_sign,,,,null,,,1,0.9270833333333334,,,,,,,,,,
null,,color_black,2493103,black_plus_sign,,,,null,,,,,,,,,,,,,,
null,,learn_phase(without_color),2495105,black_plus_sign,,,,null,GW/wheelchair.jpg,GW/soldier.jpg,,,,,,,,,,,,
null,,black_cross(without_color),2495585,blue,,,,null,GW/wheelchair.jpg,GW/soldier.jpg,,,,,,,,,,,,
402,,rt_plussign_withcolor,2496088,blue,,,,49,GW/wheelchair.jpg,GW/soldier.jpg,,,,,,,,,,,,
null,,rt_thecrossant_black,2497611,black_plus_sign,,,,null,,,1,0.9278350515463918,,,,,,,,,,
null,,color_black,2497714,black_plus_sign,,,,null,,,,,,,,,,,,,,
null,,learn_phase(without_color),2499716,black_plus_sign,,,,null,GW/camera.jpg,GW/snail.jpg,,,,,,,,,,,,
null,,black_cross(without_color),2500377,blue,,,,null,GW/camera.jpg,GW/snail.jpg,,,,,,,,,,,,
393.60000014305115,,rt_plussign_withcolor,2500879,blue,,,,49,GW/camera.jpg,GW/snail.jpg,,,,,,,,,,,,
null,,rt_thecrossant_black,2502222,black_plus_sign,,,,null,,,1,0.9285714285714286,,,,,,,,,,
null,,color_black,2502339,black_plus_sign,,,,null,,,,,,,,,,,,,,
null,,learn_phase(without_color),2504341,black_plus_sign,,,,null,GW/jukebox.jpg,GW/teeth.jpg,,,,,,,,,,,,
null,,black_cross(without_color),2505245,blue,,,,null,GW/jukebox.jpg,GW/teeth.jpg,,,,,,,,,,,,
362.69999980926514,,rt_plussign_withcolor,2505747,blue,,,,49,GW/jukebox.jpg,GW/teeth.jpg,,,,,,,,,,,,
null,,rt_thecrossant_black,2506870,black_plus_sign,,,,null,,,1,0.9292929292929293,,,,,,,,,,
null,,color_black,2506972,black_plus_sign,,,,null,,,,,,,,,,,,,,
null,,learn_phase(without_color),2508977,black_plus_sign,,,,null,GW/basket.jpg,GW/wheelchair.jpg,,,,,,,,,,,,
null,,black_cross(without_color),2510038,green,,,,null,GW/basket.jpg,GW/wheelchair.jpg,,,,,,,,,,,,
null,,rt_plussign_withcolor,2510540,green,,,,null,GW/basket.jpg,GW/wheelchair.jpg,,,,,,,,,,,,
1000.9000000953674,,rt_thecrossant_black,2511482,black_plus_sign,,,,50,,,1,0.93,,,,,,,,,,
null,,color_black,2511585,black_plus_sign,,,,null,,,,,,,,,,,,,,
null,,learn_phase(without_color),2513589,black_plus_sign,,,,null,GW/teeth.jpg,GW/dustpan.jpg,,,,,,,,,,,,
null,,black_cross(without_color),2514085,blue,,,,null,GW/teeth.jpg,GW/dustpan.jpg,,,,,,,,,,,,
null,,rt_plussign_withcolor,2514602,blue,,,,null,GW/teeth.jpg,GW/dustpan.jpg,,,,,,,,,,,,
1271.8000001907349,,rt_thecrossant_black,2516111,black_plus_sign,,,,49,,,1,0.9306930693069307,,,,,,,,,,
null,,color_black,2516214,black_plus_sign,,,,null,,,,,,,,,,,,,,
null,,learn_phase(without_color),2518216,black_plus_sign,,,,null,GW/teeth.jpg,GW/soldier.jpg,,,,,,,,,,,,
null,,black_cross(without_color),2519076,blue,,,,null,GW/teeth.jpg,GW/soldier.jpg,,,,,,,,,,,,
460.89999985694885,,rt_plussign_withcolor,2519578,blue,,,,49,GW/teeth.jpg,GW/soldier.jpg,,,,,,,,,,,,
null,,rt_thecrossant_black,2520724,black_plus_sign,,,,null,,,1,0.9313725490196079,,,,,,,,,,
null,,color_black,2520826,black_plus_sign,,,,null,,,,,,,,,,,,,,
null,,learn_phase(without_color),2522830,black_plus_sign,,,,null,GW/globe.jpg,GW/barrel.jpg,,,,,,,,,,,,
null,,black_cross(without_color),2523431,green,,,,null,GW/globe.jpg,GW/barrel.jpg,,,,,,,,,,,,
null,,rt_plussign_withcolor,2523933,green,,,,null,GW/globe.jpg,GW/barrel.jpg,,,,,,,,,,,,
1015.6000001430511,,rt_thecrossant_black,2525336,black_plus_sign,,,,50,,,1,0.9320388349514563,,,,,,,,,,
null,,color_black,2525438,black_plus_sign,,,,null,,,,,,,,,,,,,,
null,,learn_phase(without_color),2527441,black_plus_sign,,,,null,GW/paint.jpg,GW/jukebox.jpg,,,,,,,,,,,,
null,,black_cross(without_color),2527915,green,,,,null,GW/paint.jpg,GW/jukebox.jpg,,,,,,,,,,,,
null,,rt_plussign_withcolor,2528417,green,,,,null,GW/paint.jpg,GW/jukebox.jpg,,,,,,,,,,,,
827,,rt_thecrossant_black,2529948,black_plus_sign,,,,49,,,0,0.9230769230769231,,,,,,,,,,
null,,color_black,2530050,black_plus_sign,,,,null,,,,,,,,,,,,,,
null,,learn_phase(without_color),2532056,black_plus_sign,,,,null,GW/gong.jpg,GW/globe.jpg,,,,,,,,,,,,
null,,black_cross(without_color),2532548,green,,,,null,GW/gong.jpg,GW/globe.jpg,,,,,,,,,,,,
397.7000000476837,,rt_plussign_withcolor,2533049,green,,,,50,GW/gong.jpg,GW/globe.jpg,,,,,,,,,,,,
null,,rt_thecrossant_black,2534561,black_plus_sign,,,,null,,,1,0.9238095238095239,,,,,,,,,,
null,,color_black,2534664,black_plus_sign,,,,null,,,,,,,,,,,,,,
null,,learn_phase(without_color),2536668,black_plus_sign,,,,null,GW/teeth.jpg,GW/dustpan.jpg,,,,,,,,,,,,
null,,black_cross(without_color),2537422,blue,,,,null,GW/teeth.jpg,GW/dustpan.jpg,,,,,,,,,,,,
460.5,,rt_plussign_withcolor,2537923,blue,,,,49,GW/teeth.jpg,GW/dustpan.jpg,,,,,,,,,,,,
null,,rt_thecrossant_black,2539173,black_plus_sign,,,,null,,,1,0.9245283018867925,,,,,,,,,,
null,,color_black,2539274,black_plus_sign,,,,null,,,,,,,,,,,,,,
null,,learn_phase(without_color),2541278,black_plus_sign,,,,null,GW/snail.jpg,GW/gong.jpg,,,,,,,,,,,,
null,,black_cross(without_color),2542022,green,,,,null,GW/snail.jpg,GW/gong.jpg,,,,,,,,,,,,
null,,rt_plussign_withcolor,2542524,green,,,,null,GW/snail.jpg,GW/gong.jpg,,,,,,,,,,,,
942.2999999523163,,rt_thecrossant_black,2543785,black_plus_sign,,,,50,,,1,0.9252336448598131,,,,,,,,,,
null,,color_black,2543888,black_plus_sign,,,,null,,,,,,,,,,,,,,
null,,learn_phase(without_color),2545890,black_plus_sign,,,,null,GW/camera.jpg,GW/wheelchair.jpg,,,,,,,,,,,,
null,,black_cross(without_color),2546366,blue,,,,null,GW/camera.jpg,GW/wheelchair.jpg,,,,,,,,,,,,
375.39999985694885,,rt_plussign_withcolor,2546871,blue,,,,49,GW/camera.jpg,GW/wheelchair.jpg,,,,,,,,,,,,
null,,rt_thecrossant_black,2548399,black_plus_sign,,,,null,,,1,0.9259259259259259,,,,,,,,,,
null,,color_black,2548502,black_plus_sign,,,,null,,,,,,,,,,,,,,
null,,learn_phase(without_color),2550504,black_plus_sign,,,,null,GW/globe.jpg,GW/basket.jpg,,,,,,,,,,,,
null,,black_cross(without_color),2551133,blue,,,,null,GW/globe.jpg,GW/basket.jpg,,,,,,,,,,,,
329.89999985694885,,rt_plussign_withcolor,2551635,blue,,,,49,GW/globe.jpg,GW/basket.jpg,,,,,,,,,,,,
null,,rt_thecrossant_black,2553012,black_plus_sign,,,,null,,,1,0.926605504587156,,,,,,,,,,
null,,color_black,2553115,black_plus_sign,,,,null,,,,,,,,,,,,,,
null,,learn_phase(without_color),2555118,black_plus_sign,,,,null,GW/camera.jpg,GW/wheelchair.jpg,,,,,,,,,,,,
null,,black_cross(without_color),2555664,blue,,,,null,GW/camera.jpg,GW/wheelchair.jpg,,,,,,,,,,,,
377.39999985694885,,rt_plussign_withcolor,2556174,blue,,,,49,GW/camera.jpg,GW/wheelchair.jpg,,,,,,,,,,,,
null,,rt_thecrossant_black,2557634,black_plus_sign,,,,null,,,1,0.9272727272727272,,,,,,,,,,
null,,color_black,2557738,black_plus_sign,,,,null,,,,,,,,,,,,,,
null,,learn_phase(without_color),2559741,black_plus_sign,,,,null,GW/snail.jpg,GW/gong.jpg,,,,,,,,,,,,
null,,black_cross(without_color),2560410,blue,,,,null,GW/snail.jpg,GW/gong.jpg,,,,,,,,,,,,
373.39999985694885,,rt_plussign_withcolor,2560912,blue,,,,49,GW/snail.jpg,GW/gong.jpg,,,,,,,,,,,,
null,,rt_thecrossant_black,2562246,black_plus_sign,,,,null,,,1,0.9279279279279279,,,,,,,,,,
null,,color_black,2562348,black_plus_sign,,,,null,,,,,,,,,,,,,,
null,,learn_phase(without_color),2564350,black_plus_sign,,,,null,GW/gong.jpg,GW/hat.jpg,,,,,,,,,,,,
null,,black_cross(without_color),2564979,green,,,,null,GW/gong.jpg,GW/hat.jpg,,,,,,,,,,,,
425.89999985694885,,rt_plussign_withcolor,2565481,green,,,,50,GW/gong.jpg,GW/hat.jpg,,,,,,,,,,,,
null,,rt_thecrossant_black,2566856,black_plus_sign,,,,null,,,1,0.9285714285714286,,,,,,,,,,
null,,color_black,2566959,black_plus_sign,,,,null,,,,,,,,,,,,,,
null,,learn_phase(without_color),2568963,black_plus_sign,,,,null,GW/jukebox.jpg,GW/camera.jpg,,,,,,,,,,,,
null,,black_cross(without_color),2569783,green,,,,null,GW/jukebox.jpg,GW/camera.jpg,,,,,,,,,,,,
null,,rt_plussign_withcolor,2570285,green,,,,null,GW/jukebox.jpg,GW/camera.jpg,,,,,,,,,,,,
815.7999999523163,,rt_thecrossant_black,2571469,black_plus_sign,,,,50,,,1,0.9292035398230089,,,,,,,,,,
null,,color_black,2571571,black_plus_sign,,,,null,,,,,,,,,,,,,,
null,,learn_phase(without_color),2573573,black_plus_sign,,,,null,GW/jukebox.jpg,GW/teeth.jpg,,,,,,,,,,,,
null,,black_cross(without_color),2574034,blue,,,,null,GW/jukebox.jpg,GW/teeth.jpg,,,,,,,,,,,,
null,,rt_plussign_withcolor,2574535,blue,,,,null,GW/jukebox.jpg,GW/teeth.jpg,,,,,,,,,,,,
965.9000000953674,,rt_thecrossant_black,2576080,black_plus_sign,,,,49,,,1,0.9298245614035088,,,,,,,,,,
null,,color_black,2576182,black_plus_sign,,,,null,,,,,,,,,,,,,,
null,,learn_phase(without_color),2578184,black_plus_sign,,,,null,GW/snail.jpg,GW/gong.jpg,,,,,,,,,,,,
null,,black_cross(without_color),2578607,green,,,,null,GW/snail.jpg,GW/gong.jpg,,,,,,,,,,,,
null,,rt_plussign_withcolor,2579109,green,,,,null,GW/snail.jpg,GW/gong.jpg,,,,,,,,,,,,
797.7000000476837,,rt_thecrossant_black,2580691,black_plus_sign,,,,50,,,1,0.9304347826086956,,,,,,,,,,
null,,color_black,2580794,black_plus_sign,,,,null,,,,,,,,,,,,,,
null,,learn_phase(without_color),2582801,black_plus_sign,,,,null,GW/gong.jpg,GW/hat.jpg,,,,,,,,,,,,
null,,black_cross(without_color),2583516,green,,,,null,GW/gong.jpg,GW/hat.jpg,,,,,,,,,,,,
null,,rt_plussign_withcolor,2584019,green,,,,null,GW/gong.jpg,GW/hat.jpg,,,,,,,,,,,,
560.5,,rt_thecrossant_black,2585308,black_plus_sign,,,,50,,,1,0.9310344827586207,,,,,,,,,,
null,,color_black,2585409,black_plus_sign,,,,null,,,,,,,,,,,,,,
null,,learn_phase(without_color),2587412,black_plus_sign,,,,null,GW/gong.jpg,GW/basket.jpg,,,,,,,,,,,,
null,,black_cross(without_color),2588320,green,,,,null,GW/gong.jpg,GW/basket.jpg,,,,,,,,,,,,
392,,rt_plussign_withcolor,2588823,green,,,,50,GW/gong.jpg,GW/basket.jpg,,,,,,,,,,,,
null,,rt_thecrossant_black,2589919,black_plus_sign,,,,null,,,1,0.9316239316239316,,,,,,,,,,
null,,color_black,2590021,black_plus_sign,,,,null,,,,,,,,,,,,,,
null,,learn_phase(without_color),2592023,black_plus_sign,,,,null,GW/globe.jpg,GW/barrel.jpg,,,,,,,,,,,,
null,,black_cross(without_color),2593093,green,,,,null,GW/globe.jpg,GW/barrel.jpg,,,,,,,,,,,,
null,,rt_plussign_withcolor,2593595,green,,,,null,GW/globe.jpg,GW/barrel.jpg,,,,,,,,,,,,
1019.7000000476837,,rt_thecrossant_black,2594528,black_plus_sign,,,,50,,,1,0.9322033898305084,,,,,,,,,,
null,,color_black,2594630,black_plus_sign,,,,null,,,,,,,,,,,,,,
null,,learn_phase(without_color),2596633,black_plus_sign,,,,null,GW/camera.jpg,GW/wheelchair.jpg,,,,,,,,,,,,
null,,black_cross(without_color),2597155,blue,,,,null,GW/camera.jpg,GW/wheelchair.jpg,,,,,,,,,,,,
null,,rt_plussign_withcolor,2597657,blue,,,,null,GW/camera.jpg,GW/wheelchair.jpg,,,,,,,,,,,,
1199.7000000476837,,rt_thecrossant_black,2599153,black_plus_sign,,,,49,,,1,0.9327731092436975,,,,,,,,,,
null,,color_black,2599256,black_plus_sign,,,,null,,,,,,,,,,,,,,
null,,learn_phase(without_color),2601258,black_plus_sign,,,,null,GW/globe.jpg,GW/basket.jpg,,,,,,,,,,,,
null,,black_cross(without_color),2602072,green,,,,null,GW/globe.jpg,GW/basket.jpg,,,,,,,,,,,,
396.90000009536743,,rt_plussign_withcolor,2602574,green,,,,50,GW/globe.jpg,GW/basket.jpg,,,,,,,,,,,,
null,,rt_thecrossant_black,2603765,black_plus_sign,,,,null,,,1,0.9333333333333333,,,,,,,,,,
null,,color_black,2603868,black_plus_sign,,,,null,,,,,,,,,,,,,,
null,,learn_phase(without_color),2605871,black_plus_sign,,,,null,GW/jukebox.jpg,GW/teeth.jpg,,,,,,,,,,,,
null,,black_cross(without_color),2606777,green,,,,null,GW/jukebox.jpg,GW/teeth.jpg,,,,,,,,,,,,
469.59999990463257,,rt_plussign_withcolor,2607279,green,,,,50,GW/jukebox.jpg,GW/teeth.jpg,,,,,,,,,,,,
null,,rt_thecrossant_black,2608378,black_plus_sign,,,,null,,,1,0.9338842975206612,,,,,,,,,,
null,,color_black,2608481,black_plus_sign,,,,null,,,,,,,,,,,,,,
null,,learn_phase(without_color),2610484,black_plus_sign,,,,null,GW/globe.jpg,GW/barrel.jpg,,,,,,,,,,,,
null,,black_cross(without_color),2610915,blue,,,,null,GW/globe.jpg,GW/barrel.jpg,,,,,,,,,,,,
480.89999985694885,,rt_plussign_withcolor,2611417,blue,,,,49,GW/globe.jpg,GW/barrel.jpg,,,,,,,,,,,,
null,,rt_thecrossant_black,2612990,black_plus_sign,,,,null,,,1,0.9344262295081968,,,,,,,,,,
null,,color_black,2613093,black_plus_sign,,,,null,,,,,,,,,,,,,,
null,,learn_phase(without_color),2615096,black_plus_sign,,,,null,GW/globe.jpg,GW/basket.jpg,,,,,,,,,,,,
null,,black_cross(without_color),2615857,green,,,,null,GW/globe.jpg,GW/basket.jpg,,,,,,,,,,,,
352.7999999523163,,rt_plussign_withcolor,2616364,green,,,,50,GW/globe.jpg,GW/basket.jpg,,,,,,,,,,,,
null,,rt_thecrossant_black,2617609,black_plus_sign,,,,null,,,1,0.9349593495934959,,,,,,,,,,
null,,color_black,2617712,black_plus_sign,,,,null,,,,,,,,,,,,,,
null,,learn_phase(without_color),2619715,black_plus_sign,,,,null,GW/teeth.jpg,GW/dustpan.jpg,,,,,,,,,,,,
null,,black_cross(without_color),2620406,green,,,,null,GW/teeth.jpg,GW/dustpan.jpg,,,,,,,,,,,,
340.89999985694885,,rt_plussign_withcolor,2620908,green,,,,50,GW/teeth.jpg,GW/dustpan.jpg,,,,,,,,,,,,
null,,rt_thecrossant_black,2622221,black_plus_sign,,,,null,,,1,0.9354838709677419,,,,,,,,,,
null,,color_black,2622324,black_plus_sign,,,,null,,,,,,,,,,,,,,
null,,learn_phase(without_color),2624327,black_plus_sign,,,,null,GW/basket.jpg,GW/wheelchair.jpg,,,,,,,,,,,,
null,,black_cross(without_color),2625282,blue,,,,null,GW/basket.jpg,GW/wheelchair.jpg,,,,,,,,,,,,
365.90000009536743,,rt_plussign_withcolor,2625784,blue,,,,49,GW/basket.jpg,GW/wheelchair.jpg,,,,,,,,,,,,
null,,rt_thecrossant_black,2626835,black_plus_sign,,,,null,,,1,0.936,,,,,,,,,,
null,,color_black,2626937,black_plus_sign,,,,null,,,,,,,,,,,,,,
null,,learn_phase(without_color),2628941,black_plus_sign,,,,null,GW/paint.jpg,GW/jukebox.jpg,,,,,,,,,,,,
null,,black_cross(without_color),2629975,green,,,,null,GW/paint.jpg,GW/jukebox.jpg,,,,,,,,,,,,
335.60000014305115,,rt_plussign_withcolor,2630478,green,,,,50,GW/paint.jpg,GW/jukebox.jpg,,,,,,,,,,,,
null,,rt_thecrossant_black,2631448,black_plus_sign,,,,null,,,1,0.9365079365079365,,,,,,,,,,
null,,color_black,2631550,black_plus_sign,,,,null,,,,,,,,,,,,,,
null,,learn_phase(without_color),2633553,black_plus_sign,,,,null,GW/globe.jpg,GW/barrel.jpg,,,,,,,,,,,,
null,,black_cross(without_color),2634220,green,,,,null,GW/globe.jpg,GW/barrel.jpg,,,,,,,,,,,,
434.39999985694885,,rt_plussign_withcolor,2634722,green,,,,50,GW/globe.jpg,GW/barrel.jpg,,,,,,,,,,,,
null,,rt_thecrossant_black,2636059,black_plus_sign,,,,null,,,1,0.937007874015748,,,,,,,,,,
null,,color_black,2636161,black_plus_sign,,,,null,,,,,,,,,,,,,,
null,,learn_phase(without_color),2638164,black_plus_sign,,,,null,GW/gong.jpg,GW/globe.jpg,,,,,,,,,,,,
null,,black_cross(without_color),2639150,blue,,,,null,GW/gong.jpg,GW/globe.jpg,,,,,,,,,,,,
null,,rt_plussign_withcolor,2639653,blue,,,,null,GW/gong.jpg,GW/globe.jpg,,,,,,,,,,,,
820.2000000476837,,rt_thecrossant_black,2640673,black_plus_sign,,,,49,,,1,0.9375,,,,,,,,,,
null,,color_black,2640776,black_plus_sign,,,,null,,,,,,,,,,,,,,
10106.200000047684,,intro_1,2650886,instruct,,0,Start,,,,,,,,,,,,,,,
null,,directmemory_phase,2657389,GW/snail.jpg,,,,null,,,0,0,GW/gong.jpg,GW/soldier.jpg,GW/globe.jpg,GW/gong.jpg,GW/globe.jpg,GW/soldier.jpg,0,,,
null,,html-keyboard-response,2658392,<p></p>,,,,null,,,,,,,,,,,,,,
2570.800000190735,,directmemory_phase,2660964,GW/jukebox.jpg,,,,51,,,1,0.5,GW/gong.jpg,GW/wheelchair.jpg,GW/teeth.jpg,GW/teeth.jpg,GW/wheelchair.jpg,GW/gong.jpg,1,,,
null,,html-keyboard-response,2661968,<p></p>,,,,null,,,,,,,,,,,,,,
2739.5,,directmemory_phase,2664709,GW/barrel.jpg,,,,51,,,1,0.6666666666666666,GW/soldier.jpg,GW/gong.jpg,GW/globe.jpg,GW/globe.jpg,GW/gong.jpg,GW/soldier.jpg,1,,,
null,,html-keyboard-response,2665712,<p></p>,,,,null,,,,,,,,,,,,,,
3430.7000000476837,,directmemory_phase,2669144,GW/snail.jpg,,,,49,,,1,0.75,GW/basket.jpg,GW/paint.jpg,GW/wheelchair.jpg,GW/basket.jpg,GW/wheelchair.jpg,GW/paint.jpg,1,,,
null,,html-keyboard-response,2670148,<p></p>,,,,null,,,,,,,,,,,,,,
2177.899999856949,,directmemory_phase,2672327,GW/gong.jpg,,,,50,,,1,0.8,GW/barrel.jpg,GW/globe.jpg,GW/paint.jpg,GW/globe.jpg,GW/barrel.jpg,GW/paint.jpg,1,,,
null,,html-keyboard-response,2673329,<p></p>,,,,null,,,,,,,,,,,,,,
1561.7000000476837,,directmemory_phase,2674892,GW/dustpan.jpg,,,,51,,,1,0.8333333333333334,GW/camera.jpg,GW/jukebox.jpg,GW/teeth.jpg,GW/teeth.jpg,GW/jukebox.jpg,GW/camera.jpg,1,,,
null,,html-keyboard-response,2675895,<p></p>,,,,null,,,,,,,,,,,,,,
2676.699999809265,,directmemory_phase,2678573,GW/basket.jpg,,,,51,,,1,0.8571428571428571,GW/dustpan.jpg,GW/barrel.jpg,GW/globe.jpg,GW/globe.jpg,GW/barrel.jpg,GW/dustpan.jpg,1,,,
null,,html-keyboard-response,2679576,<p></p>,,,,null,,,,,,,,,,,,,,
1416.7999999523163,,directmemory_phase,2680995,GW/paint.jpg,,,,51,,,1,0.875,GW/dustpan.jpg,GW/teeth.jpg,GW/jukebox.jpg,GW/jukebox.jpg,GW/teeth.jpg,GW/dustpan.jpg,1,,,
null,,html-keyboard-response,2681998,<p></p>,,,,null,,,,,,,,,,,,,,
3330.100000143051,,directmemory_phase,2685329,GW/gong.jpg,,,,49,,,1,0.8888888888888888,GW/basket.jpg,GW/teeth.jpg,GW/barrel.jpg,GW/basket.jpg,GW/barrel.jpg,GW/teeth.jpg,1,,,
null,,html-keyboard-response,2686340,<p></p>,,,,null,,,,,,,,,,,,,,
2529.2000000476837,,directmemory_phase,2688872,GW/globe.jpg,,,,51,,,1,0.9,GW/jukebox.jpg,GW/snail.jpg,GW/barrel.jpg,GW/barrel.jpg,GW/snail.jpg,GW/jukebox.jpg,1,,,
null,,html-keyboard-response,2689876,<p></p>,,,,null,,,,,,,,,,,,,,
3205.9000000953674,,directmemory_phase,2693084,GW/basket.jpg,,,,49,,,1,0.9090909090909091,GW/gong.jpg,GW/dustpan.jpg,GW/barrel.jpg,GW/gong.jpg,GW/barrel.jpg,GW/dustpan.jpg,1,,,
null,,html-keyboard-response,2694086,<p></p>,,,,null,,,,,,,,,,,,,,
2017.8000001907349,,directmemory_phase,2696105,GW/wheelchair.jpg,,,,50,,,1,0.9166666666666666,GW/gong.jpg,GW/soldier.jpg,GW/paint.jpg,GW/soldier.jpg,GW/gong.jpg,GW/paint.jpg,1,,,
null,,html-keyboard-response,2697108,<p></p>,,,,null,,,,,,,,,,,,,,
2412.2000000476837,,directmemory_phase,2699522,GW/globe.jpg,,,,51,,,1,0.9230769230769231,GW/camera.jpg,GW/wheelchair.jpg,GW/basket.jpg,GW/basket.jpg,GW/wheelchair.jpg,GW/camera.jpg,1,,,
null,,html-keyboard-response,2700525,<p></p>,,,,null,,,,,,,,,,,,,,
2985.100000143051,,directmemory_phase,2703512,GW/snail.jpg,,,,50,,,0,0.8571428571428571,GW/camera.jpg,GW/barrel.jpg,GW/jukebox.jpg,GW/camera.jpg,GW/jukebox.jpg,GW/barrel.jpg,0.5,closer,,
null,,html-keyboard-response,2704514,<p></p>,,,,null,,,,,,,,,,,,,,
2319.9000000953674,,directmemory_phase,2706836,GW/globe.jpg,,,,49,,,1,0.8666666666666667,GW/gong.jpg,GW/teeth.jpg,GW/wheelchair.jpg,GW/gong.jpg,GW/wheelchair.jpg,GW/teeth.jpg,1,,,
null,,html-keyboard-response,2707838,<p></p>,,,,null,,,,,,,,,,,,,,
2539.0999999046326,,directmemory_phase,2710379,GW/wheelchair.jpg,,,,51,,,1,0.875,GW/paint.jpg,GW/gong.jpg,GW/camera.jpg,GW/camera.jpg,GW/gong.jpg,GW/paint.jpg,1,,,
null,,html-keyboard-response,2711381,<p></p>,,,,null,,,,,,,,,,,,,,
1992.6999998092651,,directmemory_phase,2713375,GW/teeth.jpg,,,,51,,,1,0.8823529411764706,GW/gong.jpg,GW/camera.jpg,GW/jukebox.jpg,GW/jukebox.jpg,GW/camera.jpg,GW/gong.jpg,1,,,
null,,html-keyboard-response,2714377,<p></p>,,,,null,,,,,,,,,,,,,,
1586,,directmemory_phase,2715965,GW/basket.jpg,,,,49,,,1,0.8888888888888888,GW/snail.jpg,GW/jukebox.jpg,GW/soldier.jpg,GW/snail.jpg,GW/soldier.jpg,GW/jukebox.jpg,1,,,
null,,html-keyboard-response,2716968,<p></p>,,,,null,,,,,,,,,,,,,,
2805.0999999046326,,directmemory_phase,2719774,GW/jukebox.jpg,,,,51,,,0,0.8421052631578947,GW/snail.jpg,GW/camera.jpg,GW/basket.jpg,GW/camera.jpg,GW/snail.jpg,GW/basket.jpg,0.5,closer,,
null,,html-keyboard-response,2720777,<p></p>,,,,null,,,,,,,,,,,,,,
1417.1000001430511,,directmemory_phase,2722196,GW/teeth.jpg,,,,51,,,1,0.85,GW/basket.jpg,GW/wheelchair.jpg,GW/dustpan.jpg,GW/dustpan.jpg,GW/wheelchair.jpg,GW/basket.jpg,1,,,
null,,html-keyboard-response,2723199,<p></p>,,,,null,,,,,,,,,,,,,,
1779.4000000953674,,directmemory_phase,2724980,GW/camera.jpg,,,,49,,,1,0.8571428571428571,GW/wheelchair.jpg,GW/barrel.jpg,GW/paint.jpg,GW/wheelchair.jpg,GW/paint.jpg,GW/barrel.jpg,1,,,
null,,html-keyboard-response,2725983,<p></p>,,,,null,,,,,,,,,,,,,,
2021.7999999523163,,directmemory_phase,2728006,GW/hat.jpg,,,,51,,,1,0.8636363636363636,GW/wheelchair.jpg,GW/basket.jpg,GW/gong.jpg,GW/gong.jpg,GW/basket.jpg,GW/wheelchair.jpg,1,,,
null,,html-keyboard-response,2729009,<p></p>,,,,null,,,,,,,,,,,,,,
2171.9000000953674,,directmemory_phase,2731183,GW/soldier.jpg,,,,50,,,1,0.8695652173913043,GW/jukebox.jpg,GW/teeth.jpg,GW/snail.jpg,GW/teeth.jpg,GW/jukebox.jpg,GW/snail.jpg,1,,,
null,,html-keyboard-response,2732187,<p></p>,,,,null,,,,,,,,,,,,,,
2355,,directmemory_phase,2734544,GW/camera.jpg,,,,50,,,1,0.875,GW/paint.jpg,GW/jukebox.jpg,GW/dustpan.jpg,GW/jukebox.jpg,GW/paint.jpg,GW/dustpan.jpg,1,,,
null,,html-keyboard-response,2735546,<p></p>,,,,null,,,,,,,,,,,,,,
2866.2000000476837,,directmemory_phase,2738414,GW/soldier.jpg,,,,51,,,1,0.88,GW/globe.jpg,GW/basket.jpg,GW/wheelchair.jpg,GW/wheelchair.jpg,GW/basket.jpg,GW/globe.jpg,1,,,
null,,html-keyboard-response,2739417,<p></p>,,,,null,,,,,,,,,,,,,,
1653,,directmemory_phase,2741071,GW/jukebox.jpg,,,,49,,,1,0.8846153846153846,GW/paint.jpg,GW/hat.jpg,GW/wheelchair.jpg,GW/paint.jpg,GW/wheelchair.jpg,GW/hat.jpg,1,,,
null,,html-keyboard-response,2742076,<p></p>,,,,null,,,,,,,,,,,,,,
2284.9000000953674,,directmemory_phase,2744362,GW/camera.jpg,,,,51,,,1,0.8888888888888888,GW/dustpan.jpg,GW/paint.jpg,GW/snail.jpg,GW/snail.jpg,GW/paint.jpg,GW/dustpan.jpg,1,,,
null,,html-keyboard-response,2745365,<p></p>,,,,null,,,,,,,,,,,,,,
1602.7999999523163,,directmemory_phase,2746969,GW/wheelchair.jpg,,,,49,,,1,0.8928571428571429,GW/basket.jpg,GW/dustpan.jpg,GW/snail.jpg,GW/basket.jpg,GW/snail.jpg,GW/dustpan.jpg,1,,,
null,,html-keyboard-response,2747973,<p></p>,,,,null,,,,,,,,,,,,,,
2022.2000000476837,,directmemory_phase,2749997,GW/gong.jpg,,,,51,,,1,0.896551724137931,GW/paint.jpg,GW/wheelchair.jpg,GW/snail.jpg,GW/snail.jpg,GW/wheelchair.jpg,GW/paint.jpg,1,,,
null,,html-keyboard-response,2751000,<p></p>,,,,null,,,,,,,,,,,,,,
2230,,directmemory_phase,2753232,GW/teeth.jpg,,,,49,,,1,0.9,GW/soldier.jpg,GW/basket.jpg,GW/camera.jpg,GW/soldier.jpg,GW/camera.jpg,GW/basket.jpg,1,,,
null,,html-keyboard-response,2754234,<p></p>,,,,null,,,,,,,,,,,,,,
2211.2999999523163,,directmemory_phase,2756447,GW/gong.jpg,,,,50,,,1,0.9032258064516129,GW/wheelchair.jpg,GW/hat.jpg,GW/teeth.jpg,GW/hat.jpg,GW/wheelchair.jpg,GW/teeth.jpg,1,,,
null,,html-keyboard-response,2757450,<p></p>,,,,null,,,,,,,,,,,,,,
1629.4000000953674,,directmemory_phase,2759081,GW/basket.jpg,,,,49,,,1,0.90625,GW/wheelchair.jpg,GW/teeth.jpg,GW/barrel.jpg,GW/wheelchair.jpg,GW/barrel.jpg,GW/teeth.jpg,1,,,
null,,html-keyboard-response,2760084,<p></p>,,,,null,,,,,,,,,,,,,,
46278.799999952316,,intro_1,2806364,instruct,,0,,,,,,,,,,,,,,,,
9923.600000143051,,intro_2,2816291,instruct,,1,Next,,,,,,,,,,,,,,,
3753.2999999523163,,intro_3,2820047,instruct,,1,Next,,,,,,,,,,,,,,,
5868.5,,intro_4,2825919,instruct,,1,Next,,,,,,,,,,,,,,,
20559.699999809265,,intro_5,2846481,instruct,,1,Next,,,,,,,,,,,,,,,
12053.100000143051,,intro_6,2858536,instruct,,1,Next,,,,,,,,,,,,,,,
132540.40000009537,,intro_7,2991082,instruct,,1,Next,,,,,,,,,,,,,,,
12542,,intro_8,3003626,instruct,,1,Next,,,,,,,,,,,,,,,
3137.5,,shortestpath_phase,3006766,GW/barrel.jpg,,,,50,GW/wheelchair.jpg,GW/jukebox.jpg,0,0,,,,GW/wheelchair.jpg,,,,,Two Edge Diff,Three Edge Five Edge
null,,html-keyboard-response,3007773,<p></p>,,,,null,,,,,,,,,,,,,,
2465,,shortestpath_phase,3010239,GW/hat.jpg,,,,50,GW/soldier.jpg,GW/globe.jpg,1,0.5,,,,GW/globe.jpg,,,,,Two Edge Diff,Two Edge Four Edge
null,,html-keyboard-response,3011242,<p></p>,,,,null,,,,,,,,,,,,,,
2762.7000000476837,,shortestpath_phase,3014006,GW/barrel.jpg,,,,49,GW/jukebox.jpg,GW/paint.jpg,1,0.6666666666666666,,,,GW/jukebox.jpg,,,,,One Edge Diff,Five Edge Six Edge
null,,html-keyboard-response,3015009,<p></p>,,,,null,,,,,,,,,,,,,,
2526,,shortestpath_phase,3017537,GW/hat.jpg,,,,49,GW/globe.jpg,GW/dustpan.jpg,1,0.75,,,,GW/globe.jpg,,,,,Four Edge Diff,Two Edge Six Edge
null,,html-keyboard-response,3018540,<p></p>,,,,null,,,,,,,,,,,,,,
3183.699999809265,,shortestpath_phase,3021725,GW/paint.jpg,,,,50,GW/barrel.jpg,GW/camera.jpg,1,0.8,,,,GW/camera.jpg,,,,,Four Edge Diff,Two Edge Six Edge
null,,html-keyboard-response,3022727,<p></p>,,,,null,,,,,,,,,,,,,,
1969.2000000476837,,shortestpath_phase,3024698,GW/globe.jpg,,,,49,GW/hat.jpg,GW/dustpan.jpg,1,0.8333333333333334,,,,GW/hat.jpg,,,,,Three Edge Diff,Three Edge Six Edge
null,,html-keyboard-response,3025700,<p></p>,,,,null,,,,,,,,,,,,,,
2807.2999999523163,,shortestpath_phase,3028509,GW/paint.jpg,,,,49,GW/globe.jpg,GW/snail.jpg,0,0.7142857142857143,,,,GW/snail.jpg,,,,,Two Edge Diff,Three Edge Five Edge
null,,html-keyboard-response,3029511,<p></p>,,,,null,,,,,,,,,,,,,,
3950.2000000476837,,shortestpath_phase,3033463,GW/hat.jpg,,,,50,GW/dustpan.jpg,GW/teeth.jpg,1,0.75,,,,GW/teeth.jpg,,,,,One Edge Diff,Five Edge Six Edge
null,,html-keyboard-response,3034466,<p></p>,,,,null,,,,,,,,,,,,,,
2516.0999999046326,,shortestpath_phase,3036984,GW/wheelchair.jpg,,,,49,GW/globe.jpg,GW/paint.jpg,1,0.7777777777777778,,,,GW/globe.jpg,,,,,One Edge Diff,Two Edge Three Edge
null,,html-keyboard-response,3037987,<p></p>,,,,null,,,,,,,,,,,,,,
3580.399999856949,,shortestpath_phase,3041569,GW/barrel.jpg,,,,49,GW/camera.jpg,GW/paint.jpg,1,0.8,,,,GW/camera.jpg,,,,,Two Edge Diff,Four Edge Six Edge
null,,html-keyboard-response,3042571,<p></p>,,,,null,,,,,,,,,,,,,,
4078.7000000476837,,shortestpath_phase,3046651,GW/globe.jpg,,,,50,GW/dustpan.jpg,GW/jukebox.jpg,1,0.8181818181818182,,,,GW/jukebox.jpg,,,,,One Edge Diff,Four Edge Five Edge
null,,html-keyboard-response,3047655,<p></p>,,,,null,,,,,,,,,,,,,,
4604.699999809265,,shortestpath_phase,3052261,GW/hat.jpg,,,,49,GW/camera.jpg,GW/teeth.jpg,1,0.8333333333333334,,,,GW/camera.jpg,,,,,Two Edge Diff,Three Edge Five Edge
null,,html-keyboard-response,3053265,<p></p>,,,,null,,,,,,,,,,,,,,
null,,shortestpath_phase,3060768,GW/teeth.jpg,,,,null,GW/gong.jpg,GW/paint.jpg,0,0.7692307692307693,,,,GW/paint.jpg,,,,,Two Edge Diff,Two Edge Four Edge
null,,html-keyboard-response,3061773,<p></p>,,,,null,,,,,,,,,,,,,,
3049.4000000953674,,shortestpath_phase,3064824,GW/barrel.jpg,,,,50,GW/dustpan.jpg,GW/soldier.jpg,1,0.7857142857142857,,,,GW/soldier.jpg,,,,,Two Edge Diff,Four Edge Six Edge
null,,html-keyboard-response,3065827,<p></p>,,,,null,,,,,,,,,,,,,,
4032.2999999523163,,shortestpath_phase,3069861,GW/snail.jpg,,,,49,GW/globe.jpg,GW/paint.jpg,1,0.8,,,,GW/globe.jpg,,,,,One Edge Diff,Two Edge Three Edge
null,,html-keyboard-response,3070864,<p></p>,,,,null,,,,,,,,,,,,,,
4972.5,,shortestpath_phase,3075838,GW/teeth.jpg,,,,49,GW/gong.jpg,GW/barrel.jpg,1,0.8125,,,,GW/gong.jpg,,,,,One Edge Diff,Four Edge Five Edge
null,,html-keyboard-response,3076842,<p></p>,,,,null,,,,,,,,,,,,,,
3845.9000000953674,,shortestpath_phase,3080689,GW/snail.jpg,,,,50,GW/jukebox.jpg,GW/barrel.jpg,0,0.7647058823529411,,,,GW/jukebox.jpg,,,,,One Edge Diff,Two Edge Three Edge
null,,html-keyboard-response,3081707,<p></p>,,,,null,,,,,,,,,,,,,,
5621.599999904633,,shortestpath_phase,3087330,GW/barrel.jpg,,,,49,GW/jukebox.jpg,GW/camera.jpg,0,0.7222222222222222,,,,GW/camera.jpg,,,,,One Edge Diff,Four Edge Five Edge
null,,html-keyboard-response,3088333,<p></p>,,,,null,,,,,,,,,,,,,,
5343.700000047684,,shortestpath_phase,3093678,GW/wheelchair.jpg,,,,50,GW/jukebox.jpg,GW/paint.jpg,0,0.6842105263157895,,,,GW/jukebox.jpg,,,,,One Edge Diff,Two Edge Three Edge
null,,html-keyboard-response,3094682,<p></p>,,,,null,,,,,,,,,,,,,,
3453.5,,shortestpath_phase,3098137,GW/barrel.jpg,,,,50,GW/soldier.jpg,GW/snail.jpg,1,0.7,,,,GW/snail.jpg,,,,,One Edge Diff,Three Edge Four Edge
null,,html-keyboard-response,3099140,<p></p>,,,,null,,,,,,,,,,,,,,
3761.2999999523163,,shortestpath_phase,3102903,GW/hat.jpg,,,,50,GW/jukebox.jpg,GW/paint.jpg,0,0.6666666666666666,,,,GW/jukebox.jpg,,,,,One Edge Diff,Four Edge Five Edge
null,,html-keyboard-response,3103906,<p></p>,,,,null,,,,,,,,,,,,,,
1929.5,,shortestpath_phase,3105838,GW/gong.jpg,,,,49,GW/camera.jpg,GW/teeth.jpg,1,0.6818181818181818,,,,GW/camera.jpg,,,,,Two Edge Diff,Two Edge Four Edge
null,,html-keyboard-response,3106841,<p></p>,,,,null,,,,,,,,,,,,,,
5069.700000047684,,shortestpath_phase,3111913,GW/paint.jpg,,,,49,GW/barrel.jpg,GW/globe.jpg,0,0.6521739130434783,,,,GW/globe.jpg,,,,,One Edge Diff,Five Edge Six Edge
null,,html-keyboard-response,3112916,<p></p>,,,,null,,,,,,,,,,,,,,
3729.7000000476837,,shortestpath_phase,3116648,GW/gong.jpg,,,,49,GW/soldier.jpg,GW/teeth.jpg,1,0.6666666666666666,,,,GW/soldier.jpg,,,,,One Edge Diff,Three Edge Four Edge
null,,html-keyboard-response,3117652,<p></p>,,,,null,,,,,,,,,,,,,,
4720.5,,shortestpath_phase,3122374,GW/barrel.jpg,,,,49,GW/jukebox.jpg,GW/dustpan.jpg,1,0.68,,,,GW/jukebox.jpg,,,,,One Edge Diff,Five Edge Six Edge
null,,html-keyboard-response,3123376,<p></p>,,,,null,,,,,,,,,,,,,,
6265,,shortestpath_phase,3129643,GW/dustpan.jpg,,,,50,GW/gong.jpg,GW/barrel.jpg,0,0.6538461538461539,,,,GW/gong.jpg,,,,,One Edge Diff,Five Edge Six Edge
null,,html-keyboard-response,3130645,<p></p>,,,,null,,,,,,,,,,,,,,
5093.5,,shortestpath_phase,3135740,GW/hat.jpg,,,,49,GW/soldier.jpg,GW/dustpan.jpg,1,0.6666666666666666,,,,GW/soldier.jpg,,,,,Two Edge Diff,Four Edge Six Edge
null,,html-keyboard-response,3136742,<p></p>,,,,null,,,,,,,,,,,,,,
5080.899999856949,,shortestpath_phase,3141825,GW/dustpan.jpg,,,,50,GW/barrel.jpg,GW/jukebox.jpg,1,0.6785714285714286,,,,GW/jukebox.jpg,,,,,Four Edge Diff,Two Edge Six Edge
null,,html-keyboard-response,3142828,<p></p>,,,,null,,,,,,,,,,,,,,
2279.300000190735,,shortestpath_phase,3145109,GW/hat.jpg,,,,50,GW/teeth.jpg,GW/snail.jpg,1,0.6896551724137931,,,,GW/snail.jpg,,,,,Three Edge Diff,Three Edge Six Edge
null,,html-keyboard-response,3146113,<p></p>,,,,null,,,,,,,,,,,,,,
5579.299999952316,,shortestpath_phase,3151694,GW/dustpan.jpg,,,,50,GW/globe.jpg,GW/barrel.jpg,0,0.6666666666666666,,,,GW/globe.jpg,,,,,One Edge Diff,Five Edge Six Edge
null,,html-keyboard-response,3152703,<p></p>,,,,null,,,,,,,,,,,,,,
6088.900000095367,,shortestpath_phase,3158794,GW/barrel.jpg,,,,49,GW/teeth.jpg,GW/gong.jpg,0,0.6451612903225806,,,,GW/gong.jpg,,,,,Three Edge Diff,Two Edge Five Edge
null,,html-keyboard-response,3159797,<p></p>,,,,null,,,,,,,,,,,,,,
2663.7999999523163,,shortestpath_phase,3162462,GW/dustpan.jpg,,,,50,GW/gong.jpg,GW/soldier.jpg,1,0.65625,,,,GW/soldier.jpg,,,,,Three Edge Diff,Two Edge Five Edge
null,,html-keyboard-response,3163467,<p></p>,,,,null,,,,,,,,,,,,,,
3409.5,,shortestpath_phase,3166878,GW/hat.jpg,,,,49,GW/globe.jpg,GW/teeth.jpg,1,0.6666666666666666,,,,GW/globe.jpg,,,,,Three Edge Diff,Three Edge Six Edge
null,,html-keyboard-response,3167882,<p></p>,,,,null,,,,,,,,,,,,,,
4029.5,,shortestpath_phase,3171912,GW/dustpan.jpg,,,,49,GW/barrel.jpg,GW/snail.jpg,0,0.6470588235294118,,,,GW/snail.jpg,,,,,Two Edge Diff,Four Edge Six Edge
null,,html-keyboard-response,3172916,<p></p>,,,,null,,,,,,,,,,,,,,
2472,,shortestpath_phase,3175389,GW/globe.jpg,,,,50,GW/jukebox.jpg,GW/camera.jpg,1,0.6571428571428571,,,,GW/camera.jpg,,,,,One Edge Diff,Three Edge Four Edge
null,,html-keyboard-response,3176391,<p></p>,,,,null,,,,,,,,,,,,,,
6267.399999856949,,shortestpath_phase,3182660,GW/gong.jpg,,,,50,GW/teeth.jpg,GW/jukebox.jpg,1,0.6666666666666666,,,,GW/jukebox.jpg,,,,,One Edge Diff,Three Edge Four Edge
null,,html-keyboard-response,3183664,<p></p>,,,,null,,,,,,,,,,,,,,
5776.299999952316,,shortestpath_phase,3189441,GW/dustpan.jpg,,,,49,GW/globe.jpg,GW/camera.jpg,0,0.6486486486486487,,,,GW/camera.jpg,,,,,Two Edge Diff,Three Edge Five Edge
null,,html-keyboard-response,3190444,<p></p>,,,,null,,,,,,,,,,,,,,
2253.899999856949,,shortestpath_phase,3192699,GW/teeth.jpg,,,,49,GW/paint.jpg,GW/globe.jpg,1,0.6578947368421053,,,,GW/paint.jpg,,,,,Two Edge Diff,Two Edge Four Edge
null,,html-keyboard-response,3193703,<p></p>,,,,null,,,,,,,,,,,,,,
3395.5,,shortestpath_phase,3197100,GW/hat.jpg,,,,50,GW/teeth.jpg,GW/jukebox.jpg,1,0.6666666666666666,,,,GW/jukebox.jpg,,,,,One Edge Diff,Four Edge Five Edge
null,,html-keyboard-response,3198102,<p></p>,,,,null,,,,,,,,,,,,,,
4013.0999999046326,,shortestpath_phase,3202116,GW/teeth.jpg,,,,50,GW/camera.jpg,GW/barrel.jpg,0,0.65,,,,GW/camera.jpg,,,,,Three Edge Diff,Three Edge Six Edge
null,,html-keyboard-response,3203119,<p></p>,,,,null,,,,,,,,,,,,,,
5449.700000047684,,shortestpath_phase,3208570,GW/paint.jpg,,,,49,GW/barrel.jpg,GW/basket.jpg,0,0.6341463414634146,,,,GW/basket.jpg,,,,,Two Edge Diff,Four Edge Six Edge
null,,html-keyboard-response,3209574,<p></p>,,,,null,,,,,,,,,,,,,,
2593.5,,shortestpath_phase,3212169,GW/dustpan.jpg,,,,50,GW/hat.jpg,GW/soldier.jpg,1,0.6428571428571429,,,,GW/soldier.jpg,,,,,Four Edge Diff,Two Edge Six Edge
null,,html-keyboard-response,3213172,<p></p>,,,,null,,,,,,,,,,,,,,
2527.4000000953674,,shortestpath_phase,3215701,GW/camera.jpg,,,,50,GW/barrel.jpg,GW/basket.jpg,1,0.6511627906976745,,,,GW/basket.jpg,,,,,Two Edge Diff,Two Edge Four Edge
null,,html-keyboard-response,3216705,<p></p>,,,,null,,,,,,,,,,,,,,
2957.0999999046326,,shortestpath_phase,3219663,GW/dustpan.jpg,,,,49,GW/hat.jpg,GW/globe.jpg,0,0.6363636363636364,,,,GW/globe.jpg,,,,,One Edge Diff,Five Edge Six Edge
null,,html-keyboard-response,3220667,<p></p>,,,,null,,,,,,,,,,,,,,
5291,,shortestpath_phase,3225959,GW/gong.jpg,,,,49,GW/paint.jpg,GW/dustpan.jpg,1,0.6444444444444445,,,,GW/paint.jpg,,,,,One Edge Diff,Four Edge Five Edge
null,,html-keyboard-response,3226962,<p></p>,,,,null,,,,,,,,,,,,,,
4922.200000047684,,shortestpath_phase,3231887,GW/teeth.jpg,,,,50,GW/basket.jpg,GW/wheelchair.jpg,1,0.6521739130434783,,,,GW/wheelchair.jpg,,,,,One Edge Diff,Two Edge Three Edge
null,,html-keyboard-response,3232891,<p></p>,,,,null,,,,,,,,,,,,,,
2061.5,,shortestpath_phase,3234954,GW/globe.jpg,,,,49,GW/camera.jpg,GW/teeth.jpg,1,0.6595744680851063,,,,GW/camera.jpg,,,,,One Edge Diff,Three Edge Four Edge
null,,html-keyboard-response,3235957,<p></p>,,,,null,,,,,,,,,,,,,,
6623.700000047684,,shortestpath_phase,3242583,GW/dustpan.jpg,,,,50,GW/snail.jpg,GW/hat.jpg,0,0.6458333333333334,,,,GW/snail.jpg,,,,,Two Edge Diff,Four Edge Six Edge
null,,html-keyboard-response,3243586,<p></p>,,,,null,,,,,,,,,,,,,,
3565.199999809265,,shortestpath_phase,3247153,GW/teeth.jpg,,,,50,GW/snail.jpg,GW/camera.jpg,1,0.6530612244897959,,,,GW/camera.jpg,,,,,One Edge Diff,Two Edge Three Edge
null,,html-keyboard-response,3248156,<p></p>,,,,null,,,,,,,,,,,,,,
2099.5,,shortestpath_phase,3250257,GW/globe.jpg,,,,50,GW/paint.jpg,GW/wheelchair.jpg,1,0.66,,,,GW/wheelchair.jpg,,,,,Three Edge Diff,Three Edge Six Edge
null,,html-keyboard-response,3251260,<p></p>,,,,null,,,,,,,,,,,,,,
5040.899999856949,,shortestpath_phase,3256303,GW/snail.jpg,,,,50,GW/dustpan.jpg,GW/hat.jpg,1,0.6666666666666666,,,,GW/hat.jpg,,,,,Two Edge Diff,Two Edge Four Edge
null,,html-keyboard-response,3257306,<p></p>,,,,null,,,,,,,,,,,,,,
1604.5,,shortestpath_phase,3258912,GW/jukebox.jpg,,,,50,GW/dustpan.jpg,GW/barrel.jpg,0,0.6538461538461539,,,,GW/dustpan.jpg,,,,,Three Edge Diff,Two Edge Five Edge
null,,html-keyboard-response,3259916,<p></p>,,,,null,,,,,,,,,,,,,,
5431.799999952316,,shortestpath_phase,3265349,GW/barrel.jpg,,,,50,GW/basket.jpg,GW/paint.jpg,0,0.6415094339622641,,,,GW/basket.jpg,,,,,Four Edge Diff,Two Edge Six Edge
null,,html-keyboard-response,3266352,<p></p>,,,,null,,,,,,,,,,,,,,
6362.299999952316,,shortestpath_phase,3272716,GW/soldier.jpg,,,,50,GW/gong.jpg,GW/dustpan.jpg,1,0.6481481481481481,,,,GW/dustpan.jpg,,,,,One Edge Diff,Two Edge Three Edge
null,,html-keyboard-response,3273721,<p></p>,,,,null,,,,,,,,,,,,,,
5758.700000047684,,shortestpath_phase,3279482,GW/barrel.jpg,,,,50,GW/gong.jpg,GW/paint.jpg,0,0.6363636363636364,,,,GW/gong.jpg,,,,,Four Edge Diff,Two Edge Six Edge
null,,html-keyboard-response,3280485,<p></p>,,,,null,,,,,,,,,,,,,,
6610.199999809265,,shortestpath_phase,3287096,GW/soldier.jpg,,,,50,GW/jukebox.jpg,GW/barrel.jpg,0,0.625,,,,GW/jukebox.jpg,,,,,Two Edge Diff,Two Edge Four Edge
null,,html-keyboard-response,3288100,<p></p>,,,,null,,,,,,,,,,,,,,
3149.2000000476837,,shortestpath_phase,3291251,GW/dustpan.jpg,,,,50,GW/basket.jpg,GW/barrel.jpg,0,0.6140350877192983,,,,GW/basket.jpg,,,,,Two Edge Diff,Four Edge Six Edge
null,,html-keyboard-response,3292254,<p></p>,,,,null,,,,,,,,,,,,,,
2087.800000190735,,shortestpath_phase,3294343,GW/jukebox.jpg,,,,49,GW/soldier.jpg,GW/barrel.jpg,1,0.6206896551724138,,,,GW/soldier.jpg,,,,,Three Edge Diff,Two Edge Five Edge
null,,html-keyboard-response,3295346,<p></p>,,,,null,,,,,,,,,,,,,,
4793.5,,shortestpath_phase,3300141,GW/barrel.jpg,,,,50,GW/dustpan.jpg,GW/camera.jpg,1,0.6271186440677966,,,,GW/camera.jpg,,,,,Two Edge Diff,Four Edge Six Edge
null,,html-keyboard-response,3301143,<p></p>,,,,null,,,,,,,,,,,,,,
4921.600000143051,,shortestpath_phase,3306066,GW/dustpan.jpg,,,,49,GW/soldier.jpg,GW/globe.jpg,1,0.6333333333333333,,,,GW/soldier.jpg,,,,,Three Edge Diff,Two Edge Five Edge
null,,html-keyboard-response,3307070,<p></p>,,,,null,,,,,,,,,,,,,,
4976.5,,shortestpath_phase,3312048,GW/barrel.jpg,,,,49,GW/teeth.jpg,GW/hat.jpg,0,0.6229508196721312,,,,GW/hat.jpg,,,,,Two Edge Diff,Three Edge Five Edge
null,,html-keyboard-response,3313051,<p></p>,,,,null,,,,,,,,,,,,,,
1993.8999998569489,,shortestpath_phase,3315046,GW/soldier.jpg,,,,49,GW/camera.jpg,GW/paint.jpg,1,0.6290322580645161,,,,GW/camera.jpg,,,,,One Edge Diff,Two Edge Three Edge
null,,html-keyboard-response,3316050,<p></p>,,,,null,,,,,,,,,,,,,,
3108.399999856949,,shortestpath_phase,3319160,GW/paint.jpg,,,,50,GW/teeth.jpg,GW/barrel.jpg,0,0.6190476190476191,,,,GW/teeth.jpg,,,,,Four Edge Diff,Two Edge Six Edge
null,,html-keyboard-response,3320162,<p></p>,,,,null,,,,,,,,,,,,,,
3810.5999999046326,,shortestpath_phase,3323975,GW/dustpan.jpg,,,,49,GW/soldier.jpg,GW/barrel.jpg,1,0.625,,,,GW/soldier.jpg,,,,,Four Edge Diff,Two Edge Six Edge
null,,html-keyboard-response,3324979,<p></p>,,,,null,,,,,,,,,,,,,,
4689.400000095367,,shortestpath_phase,3329670,GW/hat.jpg,,,,49,GW/dustpan.jpg,GW/paint.jpg,0,0.6153846153846154,,,,GW/paint.jpg,,,,,One Edge Diff,Five Edge Six Edge
null,,html-keyboard-response,3330674,<p></p>,,,,null,,,,,,,,,,,,,,
1808.5,,shortestpath_phase,3332485,GW/soldier.jpg,,,,50,GW/barrel.jpg,GW/basket.jpg,1,0.6212121212121212,,,,GW/basket.jpg,,,,,Two Edge Diff,Two Edge Four Edge
null,,html-keyboard-response,3333489,<p></p>,,,,null,,,,,,,,,,,,,,
4728.5,,shortestpath_phase,3338219,GW/teeth.jpg,,,,49,GW/barrel.jpg,GW/paint.jpg,0,0.6119402985074627,,,,GW/paint.jpg,,,,,Three Edge Diff,Two Edge Five Edge
null,,html-keyboard-response,3339223,<p></p>,,,,null,,,,,,,,,,,,,,
3660.699999809265,,shortestpath_phase,3342885,GW/jukebox.jpg,,,,49,GW/barrel.jpg,GW/snail.jpg,0,0.6029411764705882,,,,GW/snail.jpg,,,,,Three Edge Diff,Two Edge Five Edge
null,,html-keyboard-response,3343890,<p></p>,,,,null,,,,,,,,,,,,,,
5176.800000190735,,shortestpath_phase,3349069,GW/paint.jpg,,,,50,GW/soldier.jpg,GW/hat.jpg,0,0.5942028985507246,,,,GW/soldier.jpg,,,,,Two Edge Diff,Three Edge Five Edge
null,,html-keyboard-response,3350073,<p></p>,,,,null,,,,,,,,,,,,,,
2234.4000000953674,,shortestpath_phase,3352309,GW/camera.jpg,,,,50,GW/dustpan.jpg,GW/barrel.jpg,0,0.5857142857142857,,,,GW/dustpan.jpg,,,,,One Edge Diff,Three Edge Four Edge
null,,html-keyboard-response,3353312,<p></p>,,,,null,,,,,,,,,,,,,,
2885,,shortestpath_phase,3356199,GW/barrel.jpg,,,,49,GW/snail.jpg,GW/jukebox.jpg,1,0.5915492957746479,,,,GW/snail.jpg,,,,,Two Edge Diff,Three Edge Five Edge
null,,html-keyboard-response,3357202,<p></p>,,,,null,,,,,,,,,,,,,,
5940.100000143051,,shortestpath_phase,3363144,GW/paint.jpg,,,,49,GW/camera.jpg,GW/globe.jpg,1,0.5972222222222222,,,,GW/camera.jpg,,,,,Three Edge Diff,Two Edge Five Edge
null,,html-keyboard-response,3364147,<p></p>,,,,null,,,,,,,,,,,,,,
2921.7000000476837,,shortestpath_phase,3367070,GW/hat.jpg,,,,50,GW/dustpan.jpg,GW/basket.jpg,1,0.6027397260273972,,,,GW/basket.jpg,,,,,Four Edge Diff,Two Edge Six Edge
null,,html-keyboard-response,3368073,<p></p>,,,,null,,,,,,,,,,,,,,
2696.2000000476837,,shortestpath_phase,3370771,GW/paint.jpg,,,,49,GW/barrel.jpg,GW/gong.jpg,0,0.5945945945945946,,,,GW/gong.jpg,,,,,Two Edge Diff,Four Edge Six Edge
null,,html-keyboard-response,3371774,<p></p>,,,,null,,,,,,,,,,,,,,
1591.8999998569489,,shortestpath_phase,3373367,GW/soldier.jpg,,,,49,GW/basket.jpg,GW/gong.jpg,1,0.6,,,,GW/basket.jpg,,,,,One Edge Diff,Two Edge Three Edge
null,,html-keyboard-response,3374371,<p></p>,,,,null,,,,,,,,,,,,,,
2017,,shortestpath_phase,3376390,GW/paint.jpg,,,,50,GW/hat.jpg,GW/barrel.jpg,0,0.5921052631578947,,,,GW/hat.jpg,,,,,One Edge Diff,Five Edge Six Edge
null,,html-keyboard-response,3377393,<p></p>,,,,null,,,,,,,,,,,,,,
4148.399999856949,,shortestpath_phase,3381543,GW/barrel.jpg,,,,50,GW/teeth.jpg,GW/paint.jpg,0,0.5844155844155844,,,,GW/teeth.jpg,,,,,One Edge Diff,Five Edge Six Edge
null,,html-keyboard-response,3382546,<p></p>,,,,null,,,,,,,,,,,,,,
3976.600000143051,,shortestpath_phase,3386524,GW/soldier.jpg,,,,50,GW/paint.jpg,GW/barrel.jpg,0,0.5769230769230769,,,,GW/paint.jpg,,,,,One Edge Diff,Three Edge Four Edge
null,,html-keyboard-response,3387528,<p></p>,,,,null,,,,,,,,,,,,,,
5943.099999904633,,shortestpath_phase,3393473,GW/barrel.jpg,,,,49,GW/teeth.jpg,GW/dustpan.jpg,1,0.5822784810126582,,,,GW/teeth.jpg,,,,,One Edge Diff,Five Edge Six Edge
null,,html-keyboard-response,3394476,<p></p>,,,,null,,,,,,,,,,,,,,
4942.600000143051,,shortestpath_phase,3399420,GW/paint.jpg,,,,49,GW/globe.jpg,GW/basket.jpg,0,0.575,,,,GW/basket.jpg,,,,,One Edge Diff,Four Edge Five Edge
null,,html-keyboard-response,3400424,<p></p>,,,,null,,,,,,,,,,,,,,
5415.900000095367,,shortestpath_phase,3405842,GW/barrel.jpg,,,,49,GW/jukebox.jpg,GW/soldier.jpg,0,0.5679012345679012,,,,GW/soldier.jpg,,,,,One Edge Diff,Four Edge Five Edge
null,,html-keyboard-response,3406845,<p></p>,,,,null,,,,,,,,,,,,,,
5094.200000047684,,shortestpath_phase,3411942,GW/jukebox.jpg,,,,49,GW/snail.jpg,GW/hat.jpg,1,0.573170731707317,,,,GW/snail.jpg,,,,,Two Edge Diff,Two Edge Four Edge
null,,html-keyboard-response,3412945,<p></p>,,,,null,,,,,,,,,,,,,,
5627.400000095367,,shortestpath_phase,3418574,GW/teeth.jpg,,,,50,GW/hat.jpg,GW/camera.jpg,1,0.5783132530120482,,,,GW/camera.jpg,,,,,Three Edge Diff,Three Edge Six Edge
null,,html-keyboard-response,3419577,<p></p>,,,,null,,,,,,,,,,,,,,
4062.5999999046326,,shortestpath_phase,3423641,GW/dustpan.jpg,,,,50,GW/globe.jpg,GW/jukebox.jpg,1,0.5833333333333334,,,,GW/jukebox.jpg,,,,,Three Edge Diff,Three Edge Six Edge
null,,html-keyboard-response,3424645,<p></p>,,,,null,,,,,,,,,,,,,,
3040.5999999046326,,shortestpath_phase,3427687,GW/hat.jpg,,,,50,GW/teeth.jpg,GW/basket.jpg,1,0.5882352941176471,,,,GW/basket.jpg,,,,,Three Edge Diff,Two Edge Five Edge
null,,html-keyboard-response,3428691,<p></p>,,,,null,,,,,,,,,,,,,,
6233,,shortestpath_phase,3434926,GW/dustpan.jpg,,,,50,GW/gong.jpg,GW/snail.jpg,1,0.5930232558139535,,,,GW/snail.jpg,,,,,One Edge Diff,Four Edge Five Edge
null,,html-keyboard-response,3435929,<p></p>,,,,null,,,,,,,,,,,,,,
4560.799999952316,,shortestpath_phase,3440492,GW/gong.jpg,,,,50,GW/dustpan.jpg,GW/barrel.jpg,1,0.5977011494252874,,,,GW/barrel.jpg,,,,,Three Edge Diff,Three Edge Six Edge
null,,html-keyboard-response,3441496,<p></p>,,,,null,,,,,,,,,,,,,,
3602,,shortestpath_phase,3445100,GW/teeth.jpg,,,,50,GW/globe.jpg,GW/snail.jpg,1,0.6022727272727273,,,,GW/snail.jpg,,,,,One Edge Diff,Three Edge Four Edge
null,,html-keyboard-response,3446103,<p></p>,,,,null,,,,,,,,,,,,,,
6102.799999952316,,shortestpath_phase,3452208,GW/dustpan.jpg,,,,50,GW/gong.jpg,GW/hat.jpg,0,0.5955056179775281,,,,GW/gong.jpg,,,,,One Edge Diff,Five Edge Six Edge
null,,html-keyboard-response,3453213,<p></p>,,,,null,,,,,,,,,,,,,,
1699.4000000953674,,shortestpath_phase,3454914,GW/teeth.jpg,,,,49,GW/basket.jpg,GW/barrel.jpg,1,0.6,,,,GW/basket.jpg,,,,,Two Edge Diff,Three Edge Five Edge
null,,html-keyboard-response,3455917,<p></p>,,,,null,,,,,,,,,,,,,,
6281,,shortestpath_phase,3462200,GW/jukebox.jpg,,,,49,GW/gong.jpg,GW/hat.jpg,1,0.6043956043956044,,,,GW/gong.jpg,,,,,One Edge Diff,Three Edge Four Edge
null,,html-keyboard-response,3463203,<p></p>,,,,null,,,,,,,,,,,,,,
1581,,shortestpath_phase,3464786,GW/barrel.jpg,,,,50,GW/dustpan.jpg,GW/basket.jpg,1,0.6086956521739131,,,,GW/basket.jpg,,,,,Four Edge Diff,Two Edge Six Edge
null,,html-keyboard-response,3465788,<p></p>,,,,null,,,,,,,,,,,,,,
4531,,shortestpath_phase,3470322,GW/hat.jpg,,,,49,GW/snail.jpg,GW/dustpan.jpg,1,0.6129032258064516,,,,GW/snail.jpg,,,,,Four Edge Diff,Two Edge Six Edge
null,,html-keyboard-response,3471325,<p></p>,,,,null,,,,,,,,,,,,,,
3971.7999999523163,,shortestpath_phase,3475299,GW/jukebox.jpg,,,,49,GW/wheelchair.jpg,GW/barrel.jpg,1,0.6170212765957447,,,,GW/wheelchair.jpg,,,,,Three Edge Diff,Two Edge Five Edge
null,,html-keyboard-response,3476302,<p></p>,,,,null,,,,,,,,,,,,,,
4671.700000047684,,shortestpath_phase,3480975,GW/barrel.jpg,,,,50,GW/soldier.jpg,GW/basket.jpg,1,0.6210526315789474,,,,GW/basket.jpg,,,,,Two Edge Diff,Two Edge Four Edge
null,,html-keyboard-response,3481979,<p></p>,,,,null,,,,,,,,,,,,,,
6855.400000095367,,shortestpath_phase,3488836,GW/dustpan.jpg,,,,50,GW/wheelchair.jpg,GW/globe.jpg,0,0.6145833333333334,,,,GW/wheelchair.jpg,,,,,Two Edge Diff,Three Edge Five Edge
null,,html-keyboard-response,3489839,<p></p>,,,,null,,,,,,,,,,,,,,
4525.800000190735,,shortestpath_phase,3494367,GW/basket.jpg,,,,50,GW/paint.jpg,GW/camera.jpg,1,0.6185567010309279,,,,GW/camera.jpg,,,,,Two Edge Diff,Two Edge Four Edge
null,,html-keyboard-response,3495371,<p></p>,,,,null,,,,,,,,,,,,,,
4314.900000095367,,shortestpath_phase,3499687,GW/hat.jpg,,,,49,GW/dustpan.jpg,GW/jukebox.jpg,0,0.6122448979591837,,,,GW/jukebox.jpg,,,,,Two Edge Diff,Four Edge Six Edge
null,,html-keyboard-response,3500691,<p></p>,,,,null,,,,,,,,,,,,,,
1449.1000001430511,,shortestpath_phase,3502142,GW/gong.jpg,,,,50,GW/dustpan.jpg,GW/camera.jpg,1,0.6161616161616161,,,,GW/camera.jpg,,,,,Three Edge Diff,Three Edge Six Edge
null,,html-keyboard-response,3503146,<p></p>,,,,null,,,,,,,,,,,,,,
3438.5,,shortestpath_phase,3506587,GW/snail.jpg,,,,50,GW/dustpan.jpg,GW/soldier.jpg,1,0.62,,,,GW/soldier.jpg,,,,,One Edge Diff,Three Edge Four Edge
null,,html-keyboard-response,3507592,<p></p>,,,,null,,,,,,,,,,,,,,
6068.700000047684,,shortestpath_phase,3513663,GW/basket.jpg,,,,49,GW/jukebox.jpg,GW/paint.jpg,1,0.6237623762376238,,,,GW/jukebox.jpg,,,,,One Edge Diff,Three Edge Four Edge
null,,html-keyboard-response,3514667,<p></p>,,,,null,,,,,,,,,,,,,,
3383.7000000476837,,shortestpath_phase,3518053,GW/dustpan.jpg,,,,49,GW/soldier.jpg,GW/globe.jpg,1,0.6274509803921569,,,,GW/soldier.jpg,,,,,Three Edge Diff,Three Edge Six Edge
null,,html-keyboard-response,3519057,<p></p>,,,,null,,,,,,,,,,,,,,
3925.5,,shortestpath_phase,3522984,GW/hat.jpg,,,,50,GW/paint.jpg,GW/basket.jpg,1,0.6310679611650486,,,,GW/basket.jpg,,,,,Three Edge Diff,Two Edge Five Edge
null,,html-keyboard-response,3523988,<p></p>,,,,null,,,,,,,,,,,,,,
4734,,shortestpath_phase,3528725,GW/gong.jpg,,,,50,GW/teeth.jpg,GW/dustpan.jpg,0,0.625,,,,GW/teeth.jpg,,,,,One Edge Diff,Four Edge Five Edge
null,,html-keyboard-response,3529728,<p></p>,,,,null,,,,,,,,,,,,,,
5185.599999904633,,shortestpath_phase,3534916,GW/basket.jpg,,,,50,GW/soldier.jpg,GW/paint.jpg,0,0.6190476190476191,,,,GW/soldier.jpg,,,,,Two Edge Diff,Two Edge Four Edge
null,,html-keyboard-response,3535919,<p></p>,,,,null,,,,,,,,,,,,,,
1907.9000000953674,,shortestpath_phase,3537829,GW/globe.jpg,,,,50,GW/paint.jpg,GW/snail.jpg,1,0.6226415094339622,,,,GW/snail.jpg,,,,,Three Edge Diff,Three Edge Six Edge
null,,html-keyboard-response,3538833,<p></p>,,,,null,,,,,,,,,,,,,,
3875.2999999523163,,shortestpath_phase,3542710,GW/gong.jpg,,,,50,GW/dustpan.jpg,GW/jukebox.jpg,1,0.6261682242990654,,,,GW/jukebox.jpg,,,,,Two Edge Diff,Three Edge Five Edge
null,,html-keyboard-response,3543716,<p></p>,,,,null,,,,,,,,,,,,,,
4899,,shortestpath_phase,3548617,GW/barrel.jpg,,,,50,GW/soldier.jpg,GW/paint.jpg,0,0.6203703703703703,,,,GW/soldier.jpg,,,,,Two Edge Diff,Four Edge Six Edge
null,,html-keyboard-response,3549621,<p></p>,,,,null,,,,,,,,,,,,,,
5052.700000047684,,shortestpath_phase,3554675,GW/jukebox.jpg,,,,50,GW/gong.jpg,GW/barrel.jpg,0,0.6146788990825688,,,,GW/gong.jpg,,,,,Two Edge Diff,Three Edge Five Edge
null,,html-keyboard-response,3555679,<p></p>,,,,null,,,,,,,,,,,,,,
3836.7000000476837,,shortestpath_phase,3559518,GW/hat.jpg,,,,49,GW/soldier.jpg,GW/paint.jpg,1,0.6181818181818182,,,,GW/soldier.jpg,,,,,One Edge Diff,Four Edge Five Edge
null,,html-keyboard-response,3560520,<p></p>,,,,null,,,,,,,,,,,,,,
2982.9000000953674,,shortestpath_phase,3563505,GW/gong.jpg,,,,50,GW/barrel.jpg,GW/dustpan.jpg,0,0.6126126126126126,,,,GW/barrel.jpg,,,,,Three Edge Diff,Two Edge Five Edge
null,,html-keyboard-response,3564508,<p></p>,,,,null,,,,,,,,,,,,,,
3486.800000190735,,shortestpath_phase,3567997,GW/wheelchair.jpg,,,,50,GW/dustpan.jpg,GW/jukebox.jpg,1,0.6160714285714286,,,,GW/jukebox.jpg,,,,,One Edge Diff,Two Edge Three Edge
null,,html-keyboard-response,3569000,<p></p>,,,,null,,,,,,,,,,,,,,
3745,,shortestpath_phase,3572746,GW/snail.jpg,,,,50,GW/soldier.jpg,GW/globe.jpg,1,0.6194690265486725,,,,GW/globe.jpg,,,,,One Edge Diff,Two Edge Three Edge
null,,html-keyboard-response,3573750,<p></p>,,,,null,,,,,,,,,,,,,,
3597.7000000476837,,shortestpath_phase,3577349,GW/soldier.jpg,,,,49,GW/camera.jpg,GW/gong.jpg,1,0.6228070175438597,,,,GW/camera.jpg,,,,,One Edge Diff,Two Edge Three Edge
null,,html-keyboard-response,3578354,<p></p>,,,,null,,,,,,,,,,,,,,
4379.599999904633,,shortestpath_phase,3582735,GW/barrel.jpg,,,,50,GW/dustpan.jpg,GW/gong.jpg,1,0.6260869565217392,,,,GW/gong.jpg,,,,,Four Edge Diff,Two Edge Six Edge
null,,html-keyboard-response,3583739,<p></p>,,,,null,,,,,,,,,,,,,,
4498.299999952316,,shortestpath_phase,3588240,GW/soldier.jpg,,,,50,GW/barrel.jpg,GW/snail.jpg,1,0.6293103448275862,,,,GW/snail.jpg,,,,,One Edge Diff,Three Edge Four Edge
null,,html-keyboard-response,3589244,<p></p>,,,,null,,,,,,,,,,,,,,
4777,,shortestpath_phase,3594023,GW/dustpan.jpg,,,,49,GW/basket.jpg,GW/gong.jpg,1,0.6324786324786325,,,,GW/basket.jpg,,,,,One Edge Diff,Four Edge Five Edge
null,,html-keyboard-response,3595029,<p></p>,,,,null,,,,,,,,,,,,,,
3926.7999999523163,,shortestpath_phase,3598958,GW/barrel.jpg,,,,49,GW/teeth.jpg,GW/snail.jpg,0,0.6271186440677966,,,,GW/snail.jpg,,,,,Two Edge Diff,Three Edge Five Edge
null,,html-keyboard-response,3599961,<p></p>,,,,null,,,,,,,,,,,,,,
3997.899999856949,,shortestpath_phase,3603961,GW/dustpan.jpg,,,,50,GW/basket.jpg,GW/hat.jpg,0,0.6218487394957983,,,,GW/basket.jpg,,,,,Two Edge Diff,Four Edge Six Edge
null,,html-keyboard-response,3604964,<p></p>,,,,null,,,,,,,,,,,,,,
1736.0999999046326,,shortestpath_phase,3606702,GW/globe.jpg,,,,50,GW/dustpan.jpg,GW/wheelchair.jpg,1,0.625,,,,GW/wheelchair.jpg,,,,,Three Edge Diff,Three Edge Six Edge
null,,html-keyboard-response,3607705,<p></p>,,,,null,,,,,,,,,,,,,,
1850.2000000476837,,shortestpath_phase,3609557,GW/dustpan.jpg,,,,49,GW/jukebox.jpg,GW/hat.jpg,1,0.628099173553719,,,,GW/jukebox.jpg,,,,,Four Edge Diff,Two Edge Six Edge
null,,html-keyboard-response,3610560,<p></p>,,,,null,,,,,,,,,,,,,,
21504.89999985695,,intro_1,3632067,instruct,,0,,,,,,,,,,,,,,,,
37516.299999952316,,intro_2,3669587,instruct,,1,Next,,,,,,,,,,,,,,,
3981.2000000476837,,intro_3,3673571,instruct,,1,Next,,,,,,,,,,,,,,,
