rt,responses,trial_type,time_elapsed,stimulus,graphorder,button_pressed,response,key_press,stimulus_left,stimulus_right,cumulative_accuracy,accuracy,stimulus_down_left,stimulus_down_mid,stimulus_down_right,stimulus_correct,stimulus_short,stimulus_far,weighted_accuracy,missedtrial,condition,specific_pairs
5449.599999904633,{worker_id:65c017a404cde4687fdad22e},id_enter,5453,id_enter,GW/snail.jpg; GW/soldier.jpg; GW/wheelchair.jpg; GW/basket.jpg; GW/globe.jpg; GW/paint.jpg; GW/gong.jpg; GW/jukebox.jpg; GW/teeth.jpg; GW/barrel.jpg; GW/dustpan.jpg; GW/hat.jpg; GW/camera.jpg,,,,,,,,,,,,,,,,,
11873.099999904633,,fullscreen,17332,fullscreen,,0,,,,,,,,,,,,,,,,
11149.599999904633,,intro_1,28483,instruct,,0,,,,,,,,,,,,,,,,
10574.300000190735,,intro_2,39059,instruct,,1,Next,,,,,,,,,,,,,,,
8806.600000143051,,intro_3,47867,instruct,,1,Next,,,,,,,,,,,,,,,
null,,learn_prac_1,49869,lean_prac_1,,,,null,,,,,,,,,,,,,,
null,,html-keyboard-response,50874,<p></p>,,,,null,,,,,,,,,,,,,,
4960.299999952316,,intro_1,55835,instruct,,0,,,,,,,,,,,,,,,,
5246.799999952316,,intro_2,61083,instruct,,1,Next,,,,,,,,,,,,,,,
null,,learn_prac_2,63085,lean_prac_2,,,,null,,,,,,,,,,,,,,
null,,html-keyboard-response,64086,<p></p>,,,,null,,,,,,,,,,,,,,
9627.700000047684,,intro_1,73715,instruct,,0,,,,,,,,,,,,,,,,
5558.5,,intro_2,79275,instruct,,1,Next,,,,,,,,,,,,,,,
17222.699999809265,,intro_3,96499,instruct,,1,Next,,,,,,,,,,,,,,,
null,,prac_atten_color_black,96807,black_plus_sign,,,,null,,,,,,,,,,,,,,
968.0999999046326,,prac_atten_color,97901,prac_stop_color,,,,49,,,,,,,,,,,,,,
null,,prac_atten_color_black,99903,black_plus_sign,,,,null,,,,,,,,,,,,,,
null,,prac_atten_color_black,100214,black_plus_sign,,,,null,,,,,,,,,,,,,,
497.10000014305115,,prac_atten_color,100846,prac_stop_color,,,,50,,,,,,,,,,,,,,
null,,prac_atten_color_black,102847,black_plus_sign,,,,null,,,,,,,,,,,,,,
null,,prac_atten_color_black,103619,black_plus_sign,,,,null,,,,,,,,,,,,,,
475.89999985694885,,prac_atten_color,104158,prac_stop_color,,,,50,,,,,,,,,,,,,,
null,,prac_atten_color_black,106159,black_plus_sign,,,,null,,,,,,,,,,,,,,
null,,prac_atten_color_black,107034,black_plus_sign,,,,null,,,,,,,,,,,,,,
653.4000000953674,,prac_atten_color,107925,prac_stop_color,,,,49,,,,,,,,,,,,,,
null,,prac_atten_color_black,109926,black_plus_sign,,,,null,,,,,,,,,,,,,,
null,,prac_atten_color_black,110438,black_plus_sign,,,,null,,,,,,,,,,,,,,
617.5,,prac_atten_color,111484,prac_stop_color,,,,50,,,,,,,,,,,,,,
null,,prac_atten_color_black,113486,black_plus_sign,,,,null,,,,,,,,,,,,,,
null,,prac_atten_color_black,113844,black_plus_sign,,,,null,,,,,,,,,,,,,,
null,,prac_atten_color,114274,prac_stop_color,,,,null,,,,,,,,,,,,,,
93.5,,prac_atten_color_black,116276,black_plus_sign,,,,50,,,,,,,,,,,,,,
null,,prac_atten_color_black,117250,black_plus_sign,,,,null,,,,,,,,,,,,,,
380.60000014305115,,prac_atten_color,117945,prac_stop_color,,,,49,,,,,,,,,,,,,,
null,,prac_atten_color_black,119951,black_plus_sign,,,,null,,,,,,,,,,,,,,
null,,prac_atten_color_black,120660,black_plus_sign,,,,null,,,,,,,,,,,,,,
387.60000014305115,,prac_atten_color,121719,prac_stop_color,,,,50,,,,,,,,,,,,,,
null,,prac_atten_color_black,123721,black_plus_sign,,,,null,,,,,,,,,,,,,,
null,,prac_atten_color_black,124065,black_plus_sign,,,,null,,,,,,,,,,,,,,
438,,prac_atten_color,124692,prac_stop_color,,,,50,,,,,,,,,,,,,,
null,,prac_atten_color_black,126695,black_plus_sign,,,,null,,,,,,,,,,,,,,
8856.400000095367,,attentioncheck_help,135552,instruct,,,,32,,,,,,,,,,,,,,
null,,prac_atten_color_black,136328,black_plus_sign,,,,null,,,,,,,,,,,,,,
null,,prac_atten_color,137004,prac_stop_color,,,,null,,,,,,,,,,,,,,
42.799999952316284,,prac_atten_color_black,139006,black_plus_sign,,,,49,,,,,,,,,,,,,,
7195.299999952316,,attentioncheck_feedback,146202,cross_check_feedback,,0,,,,,,,,,,,,,,,,
18228.799999952316,,last_instruct,164432,instruct,,,,32,,,,,,,,,,,,,,
null,,learn_phase(without_color),166433,black_plus_sign,,,,null,GW/paint.jpg,GW/teeth.jpg,,,,,,,,,,,,
null,,black_cross(without_color),167254,green,,,,null,GW/paint.jpg,GW/teeth.jpg,,,,,,,,,,,,
null,,rt_plussign_withcolor,167755,green,,,,null,GW/paint.jpg,GW/teeth.jpg,,,,,,,,,,,,
null,,rt_thecrossant_black,168937,black_plus_sign,,,,null,,,NaN,,,,,,,,,,,
null,,color_black,169039,black_plus_sign,,,,null,,,,,,,,,,,,,,
null,,learn_phase(without_color),171041,black_plus_sign,,,,null,GW/gong.jpg,GW/teeth.jpg,,,,,,,,,,,,
null,,black_cross(without_color),171858,blue,,,,null,GW/gong.jpg,GW/teeth.jpg,,,,,,,,,,,,
null,,rt_plussign_withcolor,172359,blue,,,,null,GW/gong.jpg,GW/teeth.jpg,,,,,,,,,,,,
953.7000000476837,,rt_thecrossant_black,173546,black_plus_sign,,,,49,,,1,1,,,,,,,,,,
null,,color_black,173648,black_plus_sign,,,,null,,,,,,,,,,,,,,
null,,learn_phase(without_color),175649,black_plus_sign,,,,null,GW/gong.jpg,GW/camera.jpg,,,,,,,,,,,,
null,,black_cross(without_color),176406,green,,,,null,GW/gong.jpg,GW/camera.jpg,,,,,,,,,,,,
null,,rt_plussign_withcolor,176906,green,,,,null,GW/gong.jpg,GW/camera.jpg,,,,,,,,,,,,
1447.5999999046326,,rt_thecrossant_black,178152,black_plus_sign,,,,50,,,1,1,,,,,,,,,,
null,,color_black,178255,black_plus_sign,,,,null,,,,,,,,,,,,,,
null,,learn_phase(without_color),180256,black_plus_sign,,,,null,GW/paint.jpg,GW/teeth.jpg,,,,,,,,,,,,
null,,black_cross(without_color),180824,blue,,,,null,GW/paint.jpg,GW/teeth.jpg,,,,,,,,,,,,
null,,rt_plussign_withcolor,181326,blue,,,,null,GW/paint.jpg,GW/teeth.jpg,,,,,,,,,,,,
1047.8999998569489,,rt_thecrossant_black,182760,black_plus_sign,,,,50,,,0.6666666666666666,0,,,,,,,,,,
null,,color_black,182862,black_plus_sign,,,,null,,,,,,,,,,,,,,
null,,learn_phase(without_color),184864,black_plus_sign,,,,null,GW/wheelchair.jpg,GW/dustpan.jpg,,,,,,,,,,,,
null,,black_cross(without_color),185653,green,,,,null,GW/wheelchair.jpg,GW/dustpan.jpg,,,,,,,,,,,,
330,,rt_plussign_withcolor,186154,green,,,,49,GW/wheelchair.jpg,GW/dustpan.jpg,,,,,,,,,,,,
null,,rt_thecrossant_black,187369,black_plus_sign,,,,50,,,0.5,0,,,,,,,,,,
null,,warning_page,190371,warning,,,,null,,,,,,,,,,,,,,
null,,color_black,190472,black_plus_sign,,,,null,,,,,,,,,,,,,,
null,,learn_phase(without_color),192474,black_plus_sign,,,,null,GW/snail.jpg,GW/soldier.jpg,,,,,,,,,,,,
null,,black_cross(without_color),193408,blue,,,,null,GW/snail.jpg,GW/soldier.jpg,,,,,,,,,,,,
null,,rt_plussign_withcolor,193910,blue,,,,null,GW/snail.jpg,GW/soldier.jpg,,,,,,,,,,,,
1184.2000000476837,,rt_thecrossant_black,194978,black_plus_sign,,,,50,,,0.4,0,,,,,,,,,,
null,,warning_page,197980,warning,,,,null,,,,,,,,,,,,,,
null,,color_black,198081,black_plus_sign,,,,null,,,,,,,,,,,,,,
null,,learn_phase(without_color),200083,black_plus_sign,,,,null,GW/jukebox.jpg,GW/teeth.jpg,,,,,,,,,,,,
null,,black_cross(without_color),201045,blue,,,,null,GW/jukebox.jpg,GW/teeth.jpg,,,,,,,,,,,,
null,,rt_plussign_withcolor,201546,blue,,,,null,GW/jukebox.jpg,GW/teeth.jpg,,,,,,,,,,,,
1142,,rt_thecrossant_black,202586,black_plus_sign,,,,49,,,0.5,1,,,,,,,,,,
null,,color_black,202687,black_plus_sign,,,,null,,,,,,,,,,,,,,
null,,learn_phase(without_color),204690,black_plus_sign,,,,null,GW/soldier.jpg,GW/basket.jpg,,,,,,,,,,,,
null,,black_cross(without_color),205223,green,,,,null,GW/soldier.jpg,GW/basket.jpg,,,,,,,,,,,,
null,,rt_plussign_withcolor,205724,green,,,,null,GW/soldier.jpg,GW/basket.jpg,,,,,,,,,,,,
1168,,rt_thecrossant_black,207193,black_plus_sign,,,,50,,,0.5714285714285714,1,,,,,,,,,,
null,,color_black,207294,black_plus_sign,,,,null,,,,,,,,,,,,,,
null,,learn_phase(without_color),209296,black_plus_sign,,,,null,GW/jukebox.jpg,GW/barrel.jpg,,,,,,,,,,,,
null,,black_cross(without_color),210176,blue,,,,null,GW/jukebox.jpg,GW/barrel.jpg,,,,,,,,,,,,
422.5,,rt_plussign_withcolor,210678,blue,,,,49,GW/jukebox.jpg,GW/barrel.jpg,,,,,,,,,,,,
null,,rt_thecrossant_black,211800,black_plus_sign,,,,null,,,0.625,1,,,,,,,,,,
null,,color_black,211902,black_plus_sign,,,,null,,,,,,,,,,,,,,
null,,learn_phase(without_color),213904,black_plus_sign,,,,null,GW/gong.jpg,GW/jukebox.jpg,,,,,,,,,,,,
null,,black_cross(without_color),214660,blue,,,,null,GW/gong.jpg,GW/jukebox.jpg,,,,,,,,,,,,
null,,rt_plussign_withcolor,215161,blue,,,,null,GW/gong.jpg,GW/jukebox.jpg,,,,,,,,,,,,
1040.9000000953674,,rt_thecrossant_black,216408,black_plus_sign,,,,49,,,0.6666666666666666,1,,,,,,,,,,
null,,color_black,216509,black_plus_sign,,,,null,,,,,,,,,,,,,,
null,,learn_phase(without_color),218516,black_plus_sign,,,,null,GW/soldier.jpg,GW/basket.jpg,,,,,,,,,,,,
null,,black_cross(without_color),219592,green,,,,null,GW/soldier.jpg,GW/basket.jpg,,,,,,,,,,,,
390.39999985694885,,rt_plussign_withcolor,220094,green,,,,50,GW/soldier.jpg,GW/basket.jpg,,,,,,,,,,,,
null,,rt_thecrossant_black,221021,black_plus_sign,,,,null,,,0.7,1,,,,,,,,,,
null,,color_black,221122,black_plus_sign,,,,null,,,,,,,,,,,,,,
null,,learn_phase(without_color),223124,black_plus_sign,,,,null,GW/teeth.jpg,GW/dustpan.jpg,,,,,,,,,,,,
null,,black_cross(without_color),223685,green,,,,null,GW/teeth.jpg,GW/dustpan.jpg,,,,,,,,,,,,
null,,rt_plussign_withcolor,224186,green,,,,null,GW/teeth.jpg,GW/dustpan.jpg,,,,,,,,,,,,
1411.4000000953674,,rt_thecrossant_black,225629,black_plus_sign,,,,50,,,0.7272727272727273,1,,,,,,,,,,
null,,color_black,225730,black_plus_sign,,,,null,,,,,,,,,,,,,,
null,,learn_phase(without_color),227732,black_plus_sign,,,,null,GW/basket.jpg,GW/globe.jpg,,,,,,,,,,,,
null,,black_cross(without_color),228396,blue,,,,null,GW/basket.jpg,GW/globe.jpg,,,,,,,,,,,,
null,,rt_plussign_withcolor,228897,blue,,,,null,GW/basket.jpg,GW/globe.jpg,,,,,,,,,,,,
672.4000000953674,,rt_thecrossant_black,230236,black_plus_sign,,,,49,,,0.75,1,,,,,,,,,,
null,,color_black,230337,black_plus_sign,,,,null,,,,,,,,,,,,,,
null,,learn_phase(without_color),232340,black_plus_sign,,,,null,GW/paint.jpg,GW/teeth.jpg,,,,,,,,,,,,
null,,black_cross(without_color),233093,green,,,,null,GW/paint.jpg,GW/teeth.jpg,,,,,,,,,,,,
null,,rt_plussign_withcolor,233595,green,,,,null,GW/paint.jpg,GW/teeth.jpg,,,,,,,,,,,,
823,,rt_thecrossant_black,234846,black_plus_sign,,,,50,,,0.7692307692307693,1,,,,,,,,,,
null,,color_black,234947,black_plus_sign,,,,null,,,,,,,,,,,,,,
null,,learn_phase(without_color),236948,black_plus_sign,,,,null,GW/jukebox.jpg,GW/teeth.jpg,,,,,,,,,,,,
null,,black_cross(without_color),237775,green,,,,null,GW/jukebox.jpg,GW/teeth.jpg,,,,,,,,,,,,
447.60000014305115,,rt_plussign_withcolor,238276,green,,,,50,GW/jukebox.jpg,GW/teeth.jpg,,,,,,,,,,,,
null,,rt_thecrossant_black,239453,black_plus_sign,,,,null,,,0.7857142857142857,1,,,,,,,,,,
null,,color_black,239554,black_plus_sign,,,,null,,,,,,,,,,,,,,
null,,learn_phase(without_color),241556,black_plus_sign,,,,null,GW/gong.jpg,GW/teeth.jpg,,,,,,,,,,,,
null,,black_cross(without_color),242179,blue,,,,null,GW/gong.jpg,GW/teeth.jpg,,,,,,,,,,,,
435.90000009536743,,rt_plussign_withcolor,242680,blue,,,,49,GW/gong.jpg,GW/teeth.jpg,,,,,,,,,,,,
null,,rt_thecrossant_black,244060,black_plus_sign,,,,null,,,0.8,1,,,,,,,,,,
null,,color_black,244162,black_plus_sign,,,,null,,,,,,,,,,,,,,
null,,learn_phase(without_color),246164,black_plus_sign,,,,null,GW/paint.jpg,GW/teeth.jpg,,,,,,,,,,,,
null,,black_cross(without_color),247235,blue,,,,null,GW/paint.jpg,GW/teeth.jpg,,,,,,,,,,,,
443.5,,rt_plussign_withcolor,247737,blue,,,,50,GW/paint.jpg,GW/teeth.jpg,,,,,,,,,,,,
null,,rt_thecrossant_black,248668,black_plus_sign,,,,null,,,0.75,0,,,,,,,,,,
null,,color_black,248770,black_plus_sign,,,,null,,,,,,,,,,,,,,
null,,learn_phase(without_color),250771,black_plus_sign,,,,null,GW/soldier.jpg,GW/wheelchair.jpg,,,,,,,,,,,,
null,,black_cross(without_color),251625,green,,,,null,GW/soldier.jpg,GW/wheelchair.jpg,,,,,,,,,,,,
null,,rt_plussign_withcolor,252127,green,,,,null,GW/soldier.jpg,GW/wheelchair.jpg,,,,,,,,,,,,
1201.2999999523163,,rt_thecrossant_black,253276,black_plus_sign,,,,50,,,0.7647058823529411,1,,,,,,,,,,
null,,color_black,253377,black_plus_sign,,,,null,,,,,,,,,,,,,,
null,,learn_phase(without_color),255379,black_plus_sign,,,,null,GW/wheelchair.jpg,GW/dustpan.jpg,,,,,,,,,,,,
null,,black_cross(without_color),256368,blue,,,,null,GW/wheelchair.jpg,GW/dustpan.jpg,,,,,,,,,,,,
null,,rt_plussign_withcolor,256869,blue,,,,null,GW/wheelchair.jpg,GW/dustpan.jpg,,,,,,,,,,,,
1002.7000000476837,,rt_thecrossant_black,257883,black_plus_sign,,,,49,,,0.7777777777777778,1,,,,,,,,,,
null,,color_black,257984,black_plus_sign,,,,null,,,,,,,,,,,,,,
null,,learn_phase(without_color),259986,black_plus_sign,,,,null,GW/soldier.jpg,GW/wheelchair.jpg,,,,,,,,,,,,
null,,black_cross(without_color),261046,green,,,,null,GW/soldier.jpg,GW/wheelchair.jpg,,,,,,,,,,,,
null,,rt_plussign_withcolor,261548,green,,,,null,GW/soldier.jpg,GW/wheelchair.jpg,,,,,,,,,,,,
1105.7000000476837,,rt_thecrossant_black,262490,black_plus_sign,,,,50,,,0.7894736842105263,1,,,,,,,,,,
null,,color_black,262592,black_plus_sign,,,,null,,,,,,,,,,,,,,
null,,learn_phase(without_color),264594,black_plus_sign,,,,null,GW/jukebox.jpg,GW/barrel.jpg,,,,,,,,,,,,
null,,black_cross(without_color),265659,blue,,,,null,GW/jukebox.jpg,GW/barrel.jpg,,,,,,,,,,,,
null,,rt_plussign_withcolor,266161,blue,,,,null,GW/jukebox.jpg,GW/barrel.jpg,,,,,,,,,,,,
1268.0999999046326,,rt_thecrossant_black,267100,black_plus_sign,,,,49,,,0.8,1,,,,,,,,,,
null,,color_black,267201,black_plus_sign,,,,null,,,,,,,,,,,,,,
null,,learn_phase(without_color),269203,black_plus_sign,,,,null,GW/basket.jpg,GW/hat.jpg,,,,,,,,,,,,
null,,black_cross(without_color),269936,green,,,,null,GW/basket.jpg,GW/hat.jpg,,,,,,,,,,,,
null,,rt_plussign_withcolor,270437,green,,,,null,GW/basket.jpg,GW/hat.jpg,,,,,,,,,,,,
1220.7999999523163,,rt_thecrossant_black,271707,black_plus_sign,,,,50,,,0.8095238095238095,1,,,,,,,,,,
null,,color_black,271808,black_plus_sign,,,,null,,,,,,,,,,,,,,
null,,learn_phase(without_color),273810,black_plus_sign,,,,null,GW/soldier.jpg,GW/wheelchair.jpg,,,,,,,,,,,,
null,,black_cross(without_color),274224,green,,,,null,GW/soldier.jpg,GW/wheelchair.jpg,,,,,,,,,,,,
null,,rt_plussign_withcolor,274725,green,,,,null,GW/soldier.jpg,GW/wheelchair.jpg,,,,,,,,,,,,
945.2999999523163,,rt_thecrossant_black,276317,black_plus_sign,,,,50,,,0.8181818181818182,1,,,,,,,,,,
null,,color_black,276419,black_plus_sign,,,,null,,,,,,,,,,,,,,
null,,learn_phase(without_color),278420,black_plus_sign,,,,null,GW/basket.jpg,GW/globe.jpg,,,,,,,,,,,,
null,,black_cross(without_color),279519,blue,,,,null,GW/basket.jpg,GW/globe.jpg,,,,,,,,,,,,
479.7999999523163,,rt_plussign_withcolor,280020,blue,,,,49,GW/basket.jpg,GW/globe.jpg,,,,,,,,,,,,
null,,rt_thecrossant_black,280925,black_plus_sign,,,,null,,,0.8260869565217391,1,,,,,,,,,,
null,,color_black,281026,black_plus_sign,,,,null,,,,,,,,,,,,,,
null,,learn_phase(without_color),283027,black_plus_sign,,,,null,GW/soldier.jpg,GW/wheelchair.jpg,,,,,,,,,,,,
null,,black_cross(without_color),283667,blue,,,,null,GW/soldier.jpg,GW/wheelchair.jpg,,,,,,,,,,,,
null,,rt_plussign_withcolor,284168,blue,,,,null,GW/soldier.jpg,GW/wheelchair.jpg,,,,,,,,,,,,
1202.7000000476837,,rt_thecrossant_black,285531,black_plus_sign,,,,49,,,0.8333333333333334,1,,,,,,,,,,
null,,color_black,285633,black_plus_sign,,,,null,,,,,,,,,,,,,,
null,,learn_phase(without_color),287635,black_plus_sign,,,,null,GW/paint.jpg,GW/gong.jpg,,,,,,,,,,,,
null,,black_cross(without_color),288709,blue,,,,null,GW/paint.jpg,GW/gong.jpg,,,,,,,,,,,,
null,,rt_plussign_withcolor,289210,blue,,,,null,GW/paint.jpg,GW/gong.jpg,,,,,,,,,,,,
926.3999998569489,,rt_thecrossant_black,290138,black_plus_sign,,,,49,,,0.84,1,,,,,,,,,,
null,,color_black,290239,black_plus_sign,,,,null,,,,,,,,,,,,,,
null,,learn_phase(without_color),292241,black_plus_sign,,,,null,GW/soldier.jpg,GW/wheelchair.jpg,,,,,,,,,,,,
null,,black_cross(without_color),293051,blue,,,,null,GW/soldier.jpg,GW/wheelchair.jpg,,,,,,,,,,,,
null,,rt_plussign_withcolor,293552,blue,,,,null,GW/soldier.jpg,GW/wheelchair.jpg,,,,,,,,,,,,
1274.6000001430511,,rt_thecrossant_black,294745,black_plus_sign,,,,49,,,0.8461538461538461,1,,,,,,,,,,
null,,color_black,294847,black_plus_sign,,,,null,,,,,,,,,,,,,,
null,,learn_phase(without_color),296848,black_plus_sign,,,,null,GW/teeth.jpg,GW/dustpan.jpg,,,,,,,,,,,,
null,,black_cross(without_color),297774,blue,,,,null,GW/teeth.jpg,GW/dustpan.jpg,,,,,,,,,,,,
null,,rt_plussign_withcolor,298275,blue,,,,null,GW/teeth.jpg,GW/dustpan.jpg,,,,,,,,,,,,
959.6000001430511,,rt_thecrossant_black,299367,black_plus_sign,,,,49,,,0.8518518518518519,1,,,,,,,,,,
null,,color_black,299469,black_plus_sign,,,,null,,,,,,,,,,,,,,
null,,learn_phase(without_color),301470,black_plus_sign,,,,null,GW/wheelchair.jpg,GW/paint.jpg,,,,,,,,,,,,
null,,black_cross(without_color),302211,green,,,,null,GW/wheelchair.jpg,GW/paint.jpg,,,,,,,,,,,,
null,,rt_plussign_withcolor,302712,green,,,,null,GW/wheelchair.jpg,GW/paint.jpg,,,,,,,,,,,,
1047.2999999523163,,rt_thecrossant_black,303975,black_plus_sign,,,,50,,,0.8571428571428571,1,,,,,,,,,,
null,,color_black,304077,black_plus_sign,,,,null,,,,,,,,,,,,,,
null,,learn_phase(without_color),306078,black_plus_sign,,,,null,GW/jukebox.jpg,GW/teeth.jpg,,,,,,,,,,,,
null,,black_cross(without_color),306554,blue,,,,null,GW/jukebox.jpg,GW/teeth.jpg,,,,,,,,,,,,
null,,rt_plussign_withcolor,307057,blue,,,,null,GW/jukebox.jpg,GW/teeth.jpg,,,,,,,,,,,,
1039.2000000476837,,rt_thecrossant_black,308583,black_plus_sign,,,,49,,,0.8620689655172413,1,,,,,,,,,,
null,,color_black,308685,black_plus_sign,,,,null,,,,,,,,,,,,,,
null,,learn_phase(without_color),310686,black_plus_sign,,,,null,GW/gong.jpg,GW/jukebox.jpg,,,,,,,,,,,,
null,,black_cross(without_color),311377,blue,,,,null,GW/gong.jpg,GW/jukebox.jpg,,,,,,,,,,,,
null,,rt_plussign_withcolor,311878,blue,,,,null,GW/gong.jpg,GW/jukebox.jpg,,,,,,,,,,,,
887.1000001430511,,rt_thecrossant_black,313191,black_plus_sign,,,,49,,,0.8666666666666667,1,,,,,,,,,,
null,,color_black,313292,black_plus_sign,,,,null,,,,,,,,,,,,,,
null,,learn_phase(without_color),315294,black_plus_sign,,,,null,GW/jukebox.jpg,GW/barrel.jpg,,,,,,,,,,,,
null,,black_cross(without_color),315813,blue,,,,null,GW/jukebox.jpg,GW/barrel.jpg,,,,,,,,,,,,
null,,rt_plussign_withcolor,316314,blue,,,,null,GW/jukebox.jpg,GW/barrel.jpg,,,,,,,,,,,,
904.3999998569489,,rt_thecrossant_black,317798,black_plus_sign,,,,49,,,0.8709677419354839,1,,,,,,,,,,
null,,color_black,317899,black_plus_sign,,,,null,,,,,,,,,,,,,,
null,,learn_phase(without_color),319901,black_plus_sign,,,,null,GW/basket.jpg,GW/hat.jpg,,,,,,,,,,,,
null,,black_cross(without_color),320436,blue,,,,null,GW/basket.jpg,GW/hat.jpg,,,,,,,,,,,,
457.7999999523163,,rt_plussign_withcolor,320937,blue,,,,49,GW/basket.jpg,GW/hat.jpg,,,,,,,,,,,,
null,,rt_thecrossant_black,322405,black_plus_sign,,,,null,,,0.875,1,,,,,,,,,,
null,,color_black,322506,black_plus_sign,,,,null,,,,,,,,,,,,,,
null,,learn_phase(without_color),324507,black_plus_sign,,,,null,GW/dustpan.jpg,GW/hat.jpg,,,,,,,,,,,,
null,,black_cross(without_color),325042,blue,,,,null,GW/dustpan.jpg,GW/hat.jpg,,,,,,,,,,,,
null,,rt_plussign_withcolor,325543,blue,,,,null,GW/dustpan.jpg,GW/hat.jpg,,,,,,,,,,,,
680.5,,rt_thecrossant_black,327012,black_plus_sign,,,,49,,,0.8787878787878788,1,,,,,,,,,,
null,,color_black,327114,black_plus_sign,,,,null,,,,,,,,,,,,,,
null,,learn_phase(without_color),329116,black_plus_sign,,,,null,GW/basket.jpg,GW/hat.jpg,,,,,,,,,,,,
null,,black_cross(without_color),329922,green,,,,null,GW/basket.jpg,GW/hat.jpg,,,,,,,,,,,,
null,,rt_plussign_withcolor,330423,green,,,,null,GW/basket.jpg,GW/hat.jpg,,,,,,,,,,,,
655.5,,rt_thecrossant_black,331619,black_plus_sign,,,,50,,,0.8823529411764706,1,,,,,,,,,,
null,,color_black,331720,black_plus_sign,,,,null,,,,,,,,,,,,,,
null,,learn_phase(without_color),333723,black_plus_sign,,,,null,GW/paint.jpg,GW/gong.jpg,,,,,,,,,,,,
null,,black_cross(without_color),334265,blue,,,,null,GW/paint.jpg,GW/gong.jpg,,,,,,,,,,,,
420.89999985694885,,rt_plussign_withcolor,334766,blue,,,,49,GW/paint.jpg,GW/gong.jpg,,,,,,,,,,,,
null,,rt_thecrossant_black,336227,black_plus_sign,,,,null,,,0.8857142857142857,1,,,,,,,,,,
null,,color_black,336329,black_plus_sign,,,,null,,,,,,,,,,,,,,
null,,learn_phase(without_color),338331,black_plus_sign,,,,null,GW/dustpan.jpg,GW/hat.jpg,,,,,,,,,,,,
null,,black_cross(without_color),339008,green,,,,null,GW/dustpan.jpg,GW/hat.jpg,,,,,,,,,,,,
null,,rt_plussign_withcolor,339510,green,,,,null,GW/dustpan.jpg,GW/hat.jpg,,,,,,,,,,,,
864.5,,rt_thecrossant_black,340836,black_plus_sign,,,,50,,,0.8888888888888888,1,,,,,,,,,,
null,,color_black,340937,black_plus_sign,,,,null,,,,,,,,,,,,,,
null,,learn_phase(without_color),342938,black_plus_sign,,,,null,GW/basket.jpg,GW/hat.jpg,,,,,,,,,,,,
null,,black_cross(without_color),343787,green,,,,null,GW/basket.jpg,GW/hat.jpg,,,,,,,,,,,,
null,,rt_plussign_withcolor,344288,green,,,,null,GW/basket.jpg,GW/hat.jpg,,,,,,,,,,,,
918.2999999523163,,rt_thecrossant_black,345442,black_plus_sign,,,,50,,,0.8918918918918919,1,,,,,,,,,,
null,,color_black,345543,black_plus_sign,,,,null,,,,,,,,,,,,,,
null,,learn_phase(without_color),347545,black_plus_sign,,,,null,GW/teeth.jpg,GW/dustpan.jpg,,,,,,,,,,,,
null,,black_cross(without_color),348612,green,,,,null,GW/teeth.jpg,GW/dustpan.jpg,,,,,,,,,,,,
null,,rt_plussign_withcolor,349113,green,,,,null,GW/teeth.jpg,GW/dustpan.jpg,,,,,,,,,,,,
960.7000000476837,,rt_thecrossant_black,350049,black_plus_sign,,,,50,,,0.8947368421052632,1,,,,,,,,,,
null,,color_black,350150,black_plus_sign,,,,null,,,,,,,,,,,,,,
null,,learn_phase(without_color),352152,black_plus_sign,,,,null,GW/snail.jpg,GW/soldier.jpg,,,,,,,,,,,,
null,,black_cross(without_color),352745,green,,,,null,GW/snail.jpg,GW/soldier.jpg,,,,,,,,,,,,
null,,rt_plussign_withcolor,353246,green,,,,null,GW/snail.jpg,GW/soldier.jpg,,,,,,,,,,,,
1293.4000000953674,,rt_thecrossant_black,354656,black_plus_sign,,,,50,,,0.8974358974358975,1,,,,,,,,,,
null,,color_black,354758,black_plus_sign,,,,null,,,,,,,,,,,,,,
null,,learn_phase(without_color),356759,black_plus_sign,,,,null,GW/jukebox.jpg,GW/barrel.jpg,,,,,,,,,,,,
null,,black_cross(without_color),357728,green,,,,null,GW/jukebox.jpg,GW/barrel.jpg,,,,,,,,,,,,
null,,rt_plussign_withcolor,358229,green,,,,null,GW/jukebox.jpg,GW/barrel.jpg,,,,,,,,,,,,
819.5999999046326,,rt_thecrossant_black,359263,black_plus_sign,,,,50,,,0.9,1,,,,,,,,,,
null,,color_black,359364,black_plus_sign,,,,null,,,,,,,,,,,,,,
null,,learn_phase(without_color),361366,black_plus_sign,,,,null,GW/soldier.jpg,GW/basket.jpg,,,,,,,,,,,,
null,,black_cross(without_color),362403,green,,,,null,GW/soldier.jpg,GW/basket.jpg,,,,,,,,,,,,
null,,rt_plussign_withcolor,362905,green,,,,null,GW/soldier.jpg,GW/basket.jpg,,,,,,,,,,,,
1079.7999999523163,,rt_thecrossant_black,363872,black_plus_sign,,,,50,,,0.9024390243902439,1,,,,,,,,,,
null,,color_black,363974,black_plus_sign,,,,null,,,,,,,,,,,,,,
null,,learn_phase(without_color),365975,black_plus_sign,,,,null,GW/wheelchair.jpg,GW/paint.jpg,,,,,,,,,,,,
null,,black_cross(without_color),366989,blue,,,,null,GW/wheelchair.jpg,GW/paint.jpg,,,,,,,,,,,,
null,,rt_plussign_withcolor,367490,blue,,,,null,GW/wheelchair.jpg,GW/paint.jpg,,,,,,,,,,,,
1226.4000000953674,,rt_thecrossant_black,368480,black_plus_sign,,,,49,,,0.9047619047619048,1,,,,,,,,,,
null,,color_black,368581,black_plus_sign,,,,null,,,,,,,,,,,,,,
null,,learn_phase(without_color),370583,black_plus_sign,,,,null,GW/paint.jpg,GW/teeth.jpg,,,,,,,,,,,,
null,,black_cross(without_color),371436,green,,,,null,GW/paint.jpg,GW/teeth.jpg,,,,,,,,,,,,
489.5,,rt_plussign_withcolor,371937,green,,,,50,GW/paint.jpg,GW/teeth.jpg,,,,,,,,,,,,
null,,rt_thecrossant_black,373087,black_plus_sign,,,,null,,,0.9069767441860465,1,,,,,,,,,,
null,,color_black,373189,black_plus_sign,,,,null,,,,,,,,,,,,,,
null,,learn_phase(without_color),375191,black_plus_sign,,,,null,GW/wheelchair.jpg,GW/dustpan.jpg,,,,,,,,,,,,
null,,black_cross(without_color),375951,blue,,,,null,GW/wheelchair.jpg,GW/dustpan.jpg,,,,,,,,,,,,
null,,rt_plussign_withcolor,376453,blue,,,,null,GW/wheelchair.jpg,GW/dustpan.jpg,,,,,,,,,,,,
992.7000000476837,,rt_thecrossant_black,377695,black_plus_sign,,,,49,,,0.9090909090909091,1,,,,,,,,,,
null,,color_black,377796,black_plus_sign,,,,null,,,,,,,,,,,,,,
null,,learn_phase(without_color),379798,black_plus_sign,,,,null,GW/dustpan.jpg,GW/hat.jpg,,,,,,,,,,,,
null,,black_cross(without_color),380346,green,,,,null,GW/dustpan.jpg,GW/hat.jpg,,,,,,,,,,,,
435.5,,rt_plussign_withcolor,380848,green,,,,50,GW/dustpan.jpg,GW/hat.jpg,,,,,,,,,,,,
null,,rt_thecrossant_black,382302,black_plus_sign,,,,null,,,0.9111111111111111,1,,,,,,,,,,
null,,color_black,382404,black_plus_sign,,,,null,,,,,,,,,,,,,,
null,,learn_phase(without_color),384406,black_plus_sign,,,,null,GW/gong.jpg,GW/jukebox.jpg,,,,,,,,,,,,
null,,black_cross(without_color),384941,blue,,,,null,GW/gong.jpg,GW/jukebox.jpg,,,,,,,,,,,,
null,,rt_plussign_withcolor,385442,blue,,,,null,GW/gong.jpg,GW/jukebox.jpg,,,,,,,,,,,,
787,,rt_thecrossant_black,386910,black_plus_sign,,,,49,,,0.9130434782608695,1,,,,,,,,,,
null,,color_black,387011,black_plus_sign,,,,null,,,,,,,,,,,,,,
null,,learn_phase(without_color),389014,black_plus_sign,,,,null,GW/teeth.jpg,GW/dustpan.jpg,,,,,,,,,,,,
null,,black_cross(without_color),389572,blue,,,,null,GW/teeth.jpg,GW/dustpan.jpg,,,,,,,,,,,,
null,,rt_plussign_withcolor,390073,blue,,,,null,GW/teeth.jpg,GW/dustpan.jpg,,,,,,,,,,,,
701,,rt_thecrossant_black,391518,black_plus_sign,,,,49,,,0.9148936170212766,1,,,,,,,,,,
null,,color_black,391620,black_plus_sign,,,,null,,,,,,,,,,,,,,
null,,learn_phase(without_color),393622,black_plus_sign,,,,null,GW/dustpan.jpg,GW/hat.jpg,,,,,,,,,,,,
null,,black_cross(without_color),394055,blue,,,,null,GW/dustpan.jpg,GW/hat.jpg,,,,,,,,,,,,
null,,rt_plussign_withcolor,394556,blue,,,,null,GW/dustpan.jpg,GW/hat.jpg,,,,,,,,,,,,
665.3999998569489,,rt_thecrossant_black,396127,black_plus_sign,,,,49,,,0.9166666666666666,1,,,,,,,,,,
null,,color_black,396228,black_plus_sign,,,,null,,,,,,,,,,,,,,
null,,learn_phase(without_color),398231,black_plus_sign,,,,null,GW/teeth.jpg,GW/dustpan.jpg,,,,,,,,,,,,
null,,black_cross(without_color),398994,blue,,,,null,GW/teeth.jpg,GW/dustpan.jpg,,,,,,,,,,,,
null,,rt_plussign_withcolor,399495,blue,,,,null,GW/teeth.jpg,GW/dustpan.jpg,,,,,,,,,,,,
625.2999999523163,,rt_thecrossant_black,400735,black_plus_sign,,,,49,,,0.9183673469387755,1,,,,,,,,,,
null,,color_black,400837,black_plus_sign,,,,null,,,,,,,,,,,,,,
null,,learn_phase(without_color),402839,black_plus_sign,,,,null,GW/wheelchair.jpg,GW/paint.jpg,,,,,,,,,,,,
null,,black_cross(without_color),403545,green,,,,null,GW/wheelchair.jpg,GW/paint.jpg,,,,,,,,,,,,
436.7000000476837,,rt_plussign_withcolor,404046,green,,,,50,GW/wheelchair.jpg,GW/paint.jpg,,,,,,,,,,,,
null,,rt_thecrossant_black,405351,black_plus_sign,,,,null,,,0.92,1,,,,,,,,,,
null,,color_black,405452,black_plus_sign,,,,null,,,,,,,,,,,,,,
null,,learn_phase(without_color),407453,black_plus_sign,,,,null,GW/paint.jpg,GW/gong.jpg,,,,,,,,,,,,
null,,black_cross(without_color),407912,blue,,,,null,GW/paint.jpg,GW/gong.jpg,,,,,,,,,,,,
429.69999980926514,,rt_plussign_withcolor,408414,blue,,,,49,GW/paint.jpg,GW/gong.jpg,,,,,,,,,,,,
null,,rt_thecrossant_black,409958,black_plus_sign,,,,null,,,0.9215686274509803,1,,,,,,,,,,
null,,color_black,410060,black_plus_sign,,,,null,,,,,,,,,,,,,,
null,,learn_phase(without_color),412061,black_plus_sign,,,,null,GW/paint.jpg,GW/teeth.jpg,,,,,,,,,,,,
null,,black_cross(without_color),413022,blue,,,,null,GW/paint.jpg,GW/teeth.jpg,,,,,,,,,,,,
null,,rt_plussign_withcolor,413523,blue,,,,null,GW/paint.jpg,GW/teeth.jpg,,,,,,,,,,,,
575.2000000476837,,rt_thecrossant_black,414565,black_plus_sign,,,,49,,,0.9230769230769231,1,,,,,,,,,,
null,,color_black,414666,black_plus_sign,,,,null,,,,,,,,,,,,,,
null,,learn_phase(without_color),416668,black_plus_sign,,,,null,GW/gong.jpg,GW/camera.jpg,,,,,,,,,,,,
null,,black_cross(without_color),417471,green,,,,null,GW/gong.jpg,GW/camera.jpg,,,,,,,,,,,,
350.2000000476837,,rt_plussign_withcolor,417972,green,,,,50,GW/gong.jpg,GW/camera.jpg,,,,,,,,,,,,
null,,rt_thecrossant_black,419172,black_plus_sign,,,,null,,,0.9245283018867925,1,,,,,,,,,,
null,,color_black,419274,black_plus_sign,,,,null,,,,,,,,,,,,,,
null,,learn_phase(without_color),421276,black_plus_sign,,,,null,GW/gong.jpg,GW/jukebox.jpg,,,,,,,,,,,,
null,,black_cross(without_color),422160,blue,,,,null,GW/gong.jpg,GW/jukebox.jpg,,,,,,,,,,,,
null,,rt_plussign_withcolor,422661,blue,,,,null,GW/gong.jpg,GW/jukebox.jpg,,,,,,,,,,,,
1077.5,,rt_thecrossant_black,423781,black_plus_sign,,,,49,,,0.9259259259259259,1,,,,,,,,,,
null,,color_black,423882,black_plus_sign,,,,null,,,,,,,,,,,,,,
null,,learn_phase(without_color),425885,black_plus_sign,,,,null,GW/paint.jpg,GW/gong.jpg,,,,,,,,,,,,
null,,black_cross(without_color),426941,blue,,,,null,GW/paint.jpg,GW/gong.jpg,,,,,,,,,,,,
416.7999999523163,,rt_plussign_withcolor,427441,blue,,,,49,GW/paint.jpg,GW/gong.jpg,,,,,,,,,,,,
null,,rt_thecrossant_black,428388,black_plus_sign,,,,null,,,0.9272727272727272,1,,,,,,,,,,
null,,color_black,428489,black_plus_sign,,,,null,,,,,,,,,,,,,,
null,,learn_phase(without_color),430491,black_plus_sign,,,,null,GW/soldier.jpg,GW/wheelchair.jpg,,,,,,,,,,,,
null,,black_cross(without_color),431289,blue,,,,null,GW/soldier.jpg,GW/wheelchair.jpg,,,,,,,,,,,,
null,,rt_plussign_withcolor,431791,blue,,,,null,GW/soldier.jpg,GW/wheelchair.jpg,,,,,,,,,,,,
1305.3999998569489,,rt_thecrossant_black,432996,black_plus_sign,,,,49,,,0.9285714285714286,1,,,,,,,,,,
null,,color_black,433097,black_plus_sign,,,,null,,,,,,,,,,,,,,
null,,learn_phase(without_color),435099,black_plus_sign,,,,null,GW/dustpan.jpg,GW/hat.jpg,,,,,,,,,,,,
null,,black_cross(without_color),435671,green,,,,null,GW/dustpan.jpg,GW/hat.jpg,,,,,,,,,,,,
358.2000000476837,,rt_plussign_withcolor,436172,green,,,,50,GW/dustpan.jpg,GW/hat.jpg,,,,,,,,,,,,
null,,rt_thecrossant_black,437603,black_plus_sign,,,,null,,,0.9298245614035088,1,,,,,,,,,,
null,,color_black,437704,black_plus_sign,,,,null,,,,,,,,,,,,,,
null,,learn_phase(without_color),439706,black_plus_sign,,,,null,GW/jukebox.jpg,GW/barrel.jpg,,,,,,,,,,,,
null,,black_cross(without_color),440540,blue,,,,null,GW/jukebox.jpg,GW/barrel.jpg,,,,,,,,,,,,
472.90000009536743,,rt_plussign_withcolor,441042,blue,,,,49,GW/jukebox.jpg,GW/barrel.jpg,,,,,,,,,,,,
null,,rt_thecrossant_black,442210,black_plus_sign,,,,null,,,0.9310344827586207,1,,,,,,,,,,
null,,color_black,442312,black_plus_sign,,,,null,,,,,,,,,,,,,,
null,,learn_phase(without_color),444315,black_plus_sign,,,,null,GW/gong.jpg,GW/camera.jpg,,,,,,,,,,,,
null,,black_cross(without_color),444972,blue,,,,null,GW/gong.jpg,GW/camera.jpg,,,,,,,,,,,,
417,,rt_plussign_withcolor,445473,blue,,,,49,GW/gong.jpg,GW/camera.jpg,,,,,,,,,,,,
null,,rt_thecrossant_black,446818,black_plus_sign,,,,null,,,0.9322033898305084,1,,,,,,,,,,
null,,color_black,446919,black_plus_sign,,,,null,,,,,,,,,,,,,,
null,,learn_phase(without_color),448922,black_plus_sign,,,,null,GW/gong.jpg,GW/jukebox.jpg,,,,,,,,,,,,
null,,black_cross(without_color),449984,blue,,,,null,GW/gong.jpg,GW/jukebox.jpg,,,,,,,,,,,,
null,,rt_plussign_withcolor,450485,blue,,,,null,GW/gong.jpg,GW/jukebox.jpg,,,,,,,,,,,,
891.2999999523163,,rt_thecrossant_black,451426,black_plus_sign,,,,49,,,0.9333333333333333,1,,,,,,,,,,
null,,color_black,451527,black_plus_sign,,,,null,,,,,,,,,,,,,,
null,,learn_phase(without_color),453529,black_plus_sign,,,,null,GW/jukebox.jpg,GW/teeth.jpg,,,,,,,,,,,,
null,,black_cross(without_color),454385,green,,,,null,GW/jukebox.jpg,GW/teeth.jpg,,,,,,,,,,,,
null,,rt_plussign_withcolor,454886,green,,,,null,GW/jukebox.jpg,GW/teeth.jpg,,,,,,,,,,,,
1191.6000001430511,,rt_thecrossant_black,456033,black_plus_sign,,,,50,,,0.9344262295081968,1,,,,,,,,,,
null,,color_black,456135,black_plus_sign,,,,null,,,,,,,,,,,,,,
null,,learn_phase(without_color),458137,black_plus_sign,,,,null,GW/soldier.jpg,GW/basket.jpg,,,,,,,,,,,,
null,,black_cross(without_color),458613,blue,,,,null,GW/soldier.jpg,GW/basket.jpg,,,,,,,,,,,,
null,,rt_plussign_withcolor,459116,blue,,,,null,GW/soldier.jpg,GW/basket.jpg,,,,,,,,,,,,
980.1000001430511,,rt_thecrossant_black,460642,black_plus_sign,,,,49,,,0.9354838709677419,1,,,,,,,,,,
null,,color_black,460744,black_plus_sign,,,,null,,,,,,,,,,,,,,
null,,learn_phase(without_color),462746,black_plus_sign,,,,null,GW/wheelchair.jpg,GW/dustpan.jpg,,,,,,,,,,,,
null,,black_cross(without_color),463150,green,,,,null,GW/wheelchair.jpg,GW/dustpan.jpg,,,,,,,,,,,,
null,,rt_plussign_withcolor,463651,green,,,,null,GW/wheelchair.jpg,GW/dustpan.jpg,,,,,,,,,,,,
768.6999998092651,,rt_thecrossant_black,465251,black_plus_sign,,,,50,,,0.9365079365079365,1,,,,,,,,,,
null,,color_black,465352,black_plus_sign,,,,null,,,,,,,,,,,,,,
null,,learn_phase(without_color),467353,black_plus_sign,,,,null,GW/jukebox.jpg,GW/teeth.jpg,,,,,,,,,,,,
null,,black_cross(without_color),468202,green,,,,null,GW/jukebox.jpg,GW/teeth.jpg,,,,,,,,,,,,
466.7999999523163,,rt_plussign_withcolor,468703,green,,,,50,GW/jukebox.jpg,GW/teeth.jpg,,,,,,,,,,,,
null,,rt_thecrossant_black,469857,black_plus_sign,,,,null,,,0.9375,1,,,,,,,,,,
null,,color_black,469958,black_plus_sign,,,,null,,,,,,,,,,,,,,
null,,learn_phase(without_color),471960,black_plus_sign,,,,null,GW/basket.jpg,GW/globe.jpg,,,,,,,,,,,,
null,,black_cross(without_color),472472,blue,,,,null,GW/basket.jpg,GW/globe.jpg,,,,,,,,,,,,
436.7999999523163,,rt_plussign_withcolor,472973,blue,,,,49,GW/basket.jpg,GW/globe.jpg,,,,,,,,,,,,
null,,rt_thecrossant_black,474464,black_plus_sign,,,,null,,,0.9384615384615385,1,,,,,,,,,,
null,,color_black,474566,black_plus_sign,,,,null,,,,,,,,,,,,,,
null,,learn_phase(without_color),476568,black_plus_sign,,,,null,GW/teeth.jpg,GW/dustpan.jpg,,,,,,,,,,,,
null,,black_cross(without_color),477432,green,,,,null,GW/teeth.jpg,GW/dustpan.jpg,,,,,,,,,,,,
null,,rt_plussign_withcolor,477933,green,,,,null,GW/teeth.jpg,GW/dustpan.jpg,,,,,,,,,,,,
977.7999999523163,,rt_thecrossant_black,479071,black_plus_sign,,,,50,,,0.9393939393939394,1,,,,,,,,,,
null,,color_black,479174,black_plus_sign,,,,null,,,,,,,,,,,,,,
null,,learn_phase(without_color),481176,black_plus_sign,,,,null,GW/gong.jpg,GW/camera.jpg,,,,,,,,,,,,
null,,black_cross(without_color),481581,blue,,,,null,GW/gong.jpg,GW/camera.jpg,,,,,,,,,,,,
null,,rt_plussign_withcolor,482082,blue,,,,null,GW/gong.jpg,GW/camera.jpg,,,,,,,,,,,,
1077.5,,rt_thecrossant_black,483680,black_plus_sign,,,,49,,,0.9402985074626866,1,,,,,,,,,,
null,,color_black,483782,black_plus_sign,,,,null,,,,,,,,,,,,,,
null,,learn_phase(without_color),485785,black_plus_sign,,,,null,GW/basket.jpg,GW/globe.jpg,,,,,,,,,,,,
null,,black_cross(without_color),486300,green,,,,null,GW/basket.jpg,GW/globe.jpg,,,,,,,,,,,,
456.5,,rt_plussign_withcolor,486802,green,,,,50,GW/basket.jpg,GW/globe.jpg,,,,,,,,,,,,
null,,rt_thecrossant_black,488289,black_plus_sign,,,,null,,,0.9411764705882353,1,,,,,,,,,,
null,,color_black,488391,black_plus_sign,,,,null,,,,,,,,,,,,,,
null,,learn_phase(without_color),490392,black_plus_sign,,,,null,GW/gong.jpg,GW/jukebox.jpg,,,,,,,,,,,,
null,,black_cross(without_color),490874,blue,,,,null,GW/gong.jpg,GW/jukebox.jpg,,,,,,,,,,,,
null,,rt_plussign_withcolor,491375,blue,,,,null,GW/gong.jpg,GW/jukebox.jpg,,,,,,,,,,,,
715.9000000953674,,rt_thecrossant_black,492896,black_plus_sign,,,,49,,,0.9420289855072463,1,,,,,,,,,,
null,,color_black,492998,black_plus_sign,,,,null,,,,,,,,,,,,,,
null,,learn_phase(without_color),495000,black_plus_sign,,,,null,GW/wheelchair.jpg,GW/paint.jpg,,,,,,,,,,,,
null,,black_cross(without_color),495446,green,,,,null,GW/wheelchair.jpg,GW/paint.jpg,,,,,,,,,,,,
null,,rt_plussign_withcolor,495947,green,,,,null,GW/wheelchair.jpg,GW/paint.jpg,,,,,,,,,,,,
733.7000000476837,,rt_thecrossant_black,497503,black_plus_sign,,,,50,,,0.9428571428571428,1,,,,,,,,,,
null,,color_black,497605,black_plus_sign,,,,null,,,,,,,,,,,,,,
null,,learn_phase(without_color),499606,black_plus_sign,,,,null,GW/jukebox.jpg,GW/barrel.jpg,,,,,,,,,,,,
null,,black_cross(without_color),500486,blue,,,,null,GW/jukebox.jpg,GW/barrel.jpg,,,,,,,,,,,,
470.2999999523163,,rt_plussign_withcolor,500988,blue,,,,49,GW/jukebox.jpg,GW/barrel.jpg,,,,,,,,,,,,
null,,rt_thecrossant_black,502111,black_plus_sign,,,,null,,,0.9436619718309859,1,,,,,,,,,,
null,,color_black,502212,black_plus_sign,,,,null,,,,,,,,,,,,,,
null,,learn_phase(without_color),504213,black_plus_sign,,,,null,GW/basket.jpg,GW/globe.jpg,,,,,,,,,,,,
null,,black_cross(without_color),504951,blue,,,,null,GW/basket.jpg,GW/globe.jpg,,,,,,,,,,,,
null,,rt_plussign_withcolor,505452,blue,,,,null,GW/basket.jpg,GW/globe.jpg,,,,,,,,,,,,
1203.2000000476837,,rt_thecrossant_black,506717,black_plus_sign,,,,49,,,0.9444444444444444,1,,,,,,,,,,
null,,color_black,506818,black_plus_sign,,,,null,,,,,,,,,,,,,,
null,,learn_phase(without_color),508820,black_plus_sign,,,,null,GW/snail.jpg,GW/soldier.jpg,,,,,,,,,,,,
null,,black_cross(without_color),509320,blue,,,,null,GW/snail.jpg,GW/soldier.jpg,,,,,,,,,,,,
null,,rt_plussign_withcolor,509823,blue,,,,null,GW/snail.jpg,GW/soldier.jpg,,,,,,,,,,,,
929.4000000953674,,rt_thecrossant_black,511326,black_plus_sign,,,,49,,,0.9452054794520548,1,,,,,,,,,,
null,,color_black,511427,black_plus_sign,,,,null,,,,,,,,,,,,,,
null,,learn_phase(without_color),513429,black_plus_sign,,,,null,GW/jukebox.jpg,GW/barrel.jpg,,,,,,,,,,,,
null,,black_cross(without_color),514331,blue,,,,null,GW/jukebox.jpg,GW/barrel.jpg,,,,,,,,,,,,
null,,rt_plussign_withcolor,514832,blue,,,,null,GW/jukebox.jpg,GW/barrel.jpg,,,,,,,,,,,,
611.5999999046326,,rt_thecrossant_black,515933,black_plus_sign,,,,49,,,0.9459459459459459,1,,,,,,,,,,
null,,color_black,516035,black_plus_sign,,,,null,,,,,,,,,,,,,,
null,,learn_phase(without_color),518037,black_plus_sign,,,,null,GW/jukebox.jpg,GW/teeth.jpg,,,,,,,,,,,,
null,,black_cross(without_color),518645,blue,,,,null,GW/jukebox.jpg,GW/teeth.jpg,,,,,,,,,,,,
463.7000000476837,,rt_plussign_withcolor,519146,blue,,,,49,GW/jukebox.jpg,GW/teeth.jpg,,,,,,,,,,,,
null,,rt_thecrossant_black,520550,black_plus_sign,,,,null,,,0.9466666666666667,1,,,,,,,,,,
null,,color_black,520652,black_plus_sign,,,,null,,,,,,,,,,,,,,
null,,learn_phase(without_color),522654,black_plus_sign,,,,null,GW/snail.jpg,GW/soldier.jpg,,,,,,,,,,,,
null,,black_cross(without_color),523570,blue,,,,null,GW/snail.jpg,GW/soldier.jpg,,,,,,,,,,,,
null,,rt_plussign_withcolor,524071,blue,,,,null,GW/snail.jpg,GW/soldier.jpg,,,,,,,,,,,,
775.2999999523163,,rt_thecrossant_black,525158,black_plus_sign,,,,49,,,0.9473684210526315,1,,,,,,,,,,
null,,color_black,525260,black_plus_sign,,,,null,,,,,,,,,,,,,,
null,,learn_phase(without_color),527261,black_plus_sign,,,,null,GW/teeth.jpg,GW/dustpan.jpg,,,,,,,,,,,,
null,,black_cross(without_color),528168,green,,,,null,GW/teeth.jpg,GW/dustpan.jpg,,,,,,,,,,,,
null,,rt_plussign_withcolor,528670,green,,,,null,GW/teeth.jpg,GW/dustpan.jpg,,,,,,,,,,,,
1116.2999999523163,,rt_thecrossant_black,529766,black_plus_sign,,,,50,,,0.948051948051948,1,,,,,,,,,,
null,,color_black,529867,black_plus_sign,,,,null,,,,,,,,,,,,,,
null,,learn_phase(without_color),531870,black_plus_sign,,,,null,GW/basket.jpg,GW/globe.jpg,,,,,,,,,,,,
null,,black_cross(without_color),532590,green,,,,null,GW/basket.jpg,GW/globe.jpg,,,,,,,,,,,,
470.09999990463257,,rt_plussign_withcolor,533092,green,,,,50,GW/basket.jpg,GW/globe.jpg,,,,,,,,,,,,
null,,rt_thecrossant_black,534374,black_plus_sign,,,,null,,,0.9487179487179487,1,,,,,,,,,,
null,,color_black,534475,black_plus_sign,,,,null,,,,,,,,,,,,,,
null,,learn_phase(without_color),536477,black_plus_sign,,,,null,GW/gong.jpg,GW/teeth.jpg,,,,,,,,,,,,
null,,black_cross(without_color),537403,green,,,,null,GW/gong.jpg,GW/teeth.jpg,,,,,,,,,,,,
null,,rt_plussign_withcolor,537905,green,,,,null,GW/gong.jpg,GW/teeth.jpg,,,,,,,,,,,,
879.5,,rt_thecrossant_black,538983,black_plus_sign,,,,50,,,0.9493670886075949,1,,,,,,,,,,
null,,color_black,539085,black_plus_sign,,,,null,,,,,,,,,,,,,,
null,,learn_phase(without_color),541086,black_plus_sign,,,,null,GW/snail.jpg,GW/soldier.jpg,,,,,,,,,,,,
null,,black_cross(without_color),541625,green,,,,null,GW/snail.jpg,GW/soldier.jpg,,,,,,,,,,,,
null,,rt_plussign_withcolor,542126,green,,,,null,GW/snail.jpg,GW/soldier.jpg,,,,,,,,,,,,
1086.0999999046326,,rt_thecrossant_black,543591,black_plus_sign,,,,50,,,0.95,1,,,,,,,,,,
null,,color_black,543692,black_plus_sign,,,,null,,,,,,,,,,,,,,
null,,learn_phase(without_color),545695,black_plus_sign,,,,null,GW/paint.jpg,GW/teeth.jpg,,,,,,,,,,,,
null,,black_cross(without_color),546413,blue,,,,null,GW/paint.jpg,GW/teeth.jpg,,,,,,,,,,,,
399.2999999523163,,rt_plussign_withcolor,546915,blue,,,,49,GW/paint.jpg,GW/teeth.jpg,,,,,,,,,,,,
null,,rt_thecrossant_black,548199,black_plus_sign,,,,null,,,0.9506172839506173,1,,,,,,,,,,
null,,color_black,548301,black_plus_sign,,,,null,,,,,,,,,,,,,,
null,,learn_phase(without_color),550303,black_plus_sign,,,,null,GW/gong.jpg,GW/teeth.jpg,,,,,,,,,,,,
null,,black_cross(without_color),550719,blue,,,,null,GW/gong.jpg,GW/teeth.jpg,,,,,,,,,,,,
445.2999999523163,,rt_plussign_withcolor,551220,blue,,,,49,GW/gong.jpg,GW/teeth.jpg,,,,,,,,,,,,
null,,rt_thecrossant_black,552807,black_plus_sign,,,,null,,,0.9512195121951219,1,,,,,,,,,,
null,,color_black,552909,black_plus_sign,,,,null,,,,,,,,,,,,,,
null,,learn_phase(without_color),554910,black_plus_sign,,,,null,GW/dustpan.jpg,GW/hat.jpg,,,,,,,,,,,,
null,,black_cross(without_color),555453,blue,,,,null,GW/dustpan.jpg,GW/hat.jpg,,,,,,,,,,,,
null,,rt_plussign_withcolor,555955,blue,,,,null,GW/dustpan.jpg,GW/hat.jpg,,,,,,,,,,,,
531.9000000953674,,rt_thecrossant_black,557416,black_plus_sign,,,,49,,,0.9518072289156626,1,,,,,,,,,,
null,,color_black,557517,black_plus_sign,,,,null,,,,,,,,,,,,,,
null,,learn_phase(without_color),559519,black_plus_sign,,,,null,GW/soldier.jpg,GW/basket.jpg,,,,,,,,,,,,
null,,black_cross(without_color),560165,blue,,,,null,GW/soldier.jpg,GW/basket.jpg,,,,,,,,,,,,
null,,rt_plussign_withcolor,560666,blue,,,,null,GW/soldier.jpg,GW/basket.jpg,,,,,,,,,,,,
683.3000001907349,,rt_thecrossant_black,562023,black_plus_sign,,,,49,,,0.9523809523809523,1,,,,,,,,,,
null,,color_black,562125,black_plus_sign,,,,null,,,,,,,,,,,,,,
null,,learn_phase(without_color),564127,black_plus_sign,,,,null,GW/paint.jpg,GW/gong.jpg,,,,,,,,,,,,
null,,black_cross(without_color),564856,green,,,,null,GW/paint.jpg,GW/gong.jpg,,,,,,,,,,,,
null,,rt_plussign_withcolor,565357,green,,,,null,GW/paint.jpg,GW/gong.jpg,,,,,,,,,,,,
943,,rt_thecrossant_black,566632,black_plus_sign,,,,50,,,0.9529411764705882,1,,,,,,,,,,
null,,color_black,566734,black_plus_sign,,,,null,,,,,,,,,,,,,,
null,,learn_phase(without_color),568736,black_plus_sign,,,,null,GW/dustpan.jpg,GW/hat.jpg,,,,,,,,,,,,
null,,black_cross(without_color),569551,green,,,,null,GW/dustpan.jpg,GW/hat.jpg,,,,,,,,,,,,
null,,rt_plussign_withcolor,570052,green,,,,null,GW/dustpan.jpg,GW/hat.jpg,,,,,,,,,,,,
859.1000001430511,,rt_thecrossant_black,571240,black_plus_sign,,,,50,,,0.9534883720930233,1,,,,,,,,,,
null,,color_black,571342,black_plus_sign,,,,null,,,,,,,,,,,,,,
null,,learn_phase(without_color),573345,black_plus_sign,,,,null,GW/jukebox.jpg,GW/barrel.jpg,,,,,,,,,,,,
null,,black_cross(without_color),574307,green,,,,null,GW/jukebox.jpg,GW/barrel.jpg,,,,,,,,,,,,
456.7000000476837,,rt_plussign_withcolor,574809,green,,,,50,GW/jukebox.jpg,GW/barrel.jpg,,,,,,,,,,,,
null,,rt_thecrossant_black,575850,black_plus_sign,,,,null,,,0.9540229885057471,1,,,,,,,,,,
null,,color_black,575952,black_plus_sign,,,,null,,,,,,,,,,,,,,
null,,learn_phase(without_color),577955,black_plus_sign,,,,null,GW/jukebox.jpg,GW/teeth.jpg,,,,,,,,,,,,
null,,black_cross(without_color),578546,green,,,,null,GW/jukebox.jpg,GW/teeth.jpg,,,,,,,,,,,,
370.60000014305115,,rt_plussign_withcolor,579047,green,,,,50,GW/jukebox.jpg,GW/teeth.jpg,,,,,,,,,,,,
null,,rt_thecrossant_black,580459,black_plus_sign,,,,null,,,0.9545454545454546,1,,,,,,,,,,
null,,color_black,580561,black_plus_sign,,,,null,,,,,,,,,,,,,,
null,,learn_phase(without_color),582563,black_plus_sign,,,,null,GW/gong.jpg,GW/camera.jpg,,,,,,,,,,,,
null,,black_cross(without_color),583273,blue,,,,null,GW/gong.jpg,GW/camera.jpg,,,,,,,,,,,,
427.2000000476837,,rt_plussign_withcolor,583775,blue,,,,49,GW/gong.jpg,GW/camera.jpg,,,,,,,,,,,,
null,,rt_thecrossant_black,585068,black_plus_sign,,,,null,,,0.9550561797752809,1,,,,,,,,,,
null,,color_black,585169,black_plus_sign,,,,null,,,,,,,,,,,,,,
null,,learn_phase(without_color),587171,black_plus_sign,,,,null,GW/basket.jpg,GW/hat.jpg,,,,,,,,,,,,
null,,black_cross(without_color),587648,blue,,,,null,GW/basket.jpg,GW/hat.jpg,,,,,,,,,,,,
436.39999985694885,,rt_plussign_withcolor,588149,blue,,,,49,GW/basket.jpg,GW/hat.jpg,,,,,,,,,,,,
null,,rt_thecrossant_black,589676,black_plus_sign,,,,null,,,0.9555555555555556,1,,,,,,,,,,
null,,color_black,589777,black_plus_sign,,,,null,,,,,,,,,,,,,,
null,,learn_phase(without_color),591779,black_plus_sign,,,,null,GW/wheelchair.jpg,GW/paint.jpg,,,,,,,,,,,,
null,,black_cross(without_color),592196,blue,,,,null,GW/wheelchair.jpg,GW/paint.jpg,,,,,,,,,,,,
447.90000009536743,,rt_plussign_withcolor,592697,blue,,,,49,GW/wheelchair.jpg,GW/paint.jpg,,,,,,,,,,,,
null,,rt_thecrossant_black,594283,black_plus_sign,,,,null,,,0.9560439560439561,1,,,,,,,,,,
null,,color_black,594385,black_plus_sign,,,,null,,,,,,,,,,,,,,
null,,learn_phase(without_color),596387,black_plus_sign,,,,null,GW/basket.jpg,GW/hat.jpg,,,,,,,,,,,,
null,,black_cross(without_color),596917,blue,,,,null,GW/basket.jpg,GW/hat.jpg,,,,,,,,,,,,
null,,rt_plussign_withcolor,597418,blue,,,,null,GW/basket.jpg,GW/hat.jpg,,,,,,,,,,,,
526.1000001430511,,rt_thecrossant_black,598891,black_plus_sign,,,,49,,,0.9565217391304348,1,,,,,,,,,,
null,,color_black,598992,black_plus_sign,,,,null,,,,,,,,,,,,,,
null,,learn_phase(without_color),600994,black_plus_sign,,,,null,GW/gong.jpg,GW/camera.jpg,,,,,,,,,,,,
null,,black_cross(without_color),601562,blue,,,,null,GW/gong.jpg,GW/camera.jpg,,,,,,,,,,,,
null,,rt_plussign_withcolor,602064,blue,,,,null,GW/gong.jpg,GW/camera.jpg,,,,,,,,,,,,
648.1999998092651,,rt_thecrossant_black,603498,black_plus_sign,,,,49,,,0.956989247311828,1,,,,,,,,,,
null,,color_black,603599,black_plus_sign,,,,null,,,,,,,,,,,,,,
null,,learn_phase(without_color),605602,black_plus_sign,,,,null,GW/wheelchair.jpg,GW/dustpan.jpg,,,,,,,,,,,,
null,,black_cross(without_color),606547,blue,,,,null,GW/wheelchair.jpg,GW/dustpan.jpg,,,,,,,,,,,,
null,,rt_plussign_withcolor,607048,blue,,,,null,GW/wheelchair.jpg,GW/dustpan.jpg,,,,,,,,,,,,
766.4000000953674,,rt_thecrossant_black,608106,black_plus_sign,,,,49,,,0.9574468085106383,1,,,,,,,,,,
null,,color_black,608208,black_plus_sign,,,,null,,,,,,,,,,,,,,
null,,learn_phase(without_color),610210,black_plus_sign,,,,null,GW/paint.jpg,GW/teeth.jpg,,,,,,,,,,,,
null,,black_cross(without_color),610616,green,,,,null,GW/paint.jpg,GW/teeth.jpg,,,,,,,,,,,,
null,,rt_plussign_withcolor,611118,green,,,,null,GW/paint.jpg,GW/teeth.jpg,,,,,,,,,,,,
1217.9000000953674,,rt_thecrossant_black,612715,black_plus_sign,,,,50,,,0.9578947368421052,1,,,,,,,,,,
null,,color_black,612817,black_plus_sign,,,,null,,,,,,,,,,,,,,
null,,learn_phase(without_color),614819,black_plus_sign,,,,null,GW/jukebox.jpg,GW/teeth.jpg,,,,,,,,,,,,
null,,black_cross(without_color),615630,blue,,,,null,GW/jukebox.jpg,GW/teeth.jpg,,,,,,,,,,,,
405.40000009536743,,rt_plussign_withcolor,616132,blue,,,,49,GW/jukebox.jpg,GW/teeth.jpg,,,,,,,,,,,,
null,,rt_thecrossant_black,617323,black_plus_sign,,,,null,,,0.9583333333333334,1,,,,,,,,,,
null,,color_black,617425,black_plus_sign,,,,null,,,,,,,,,,,,,,
null,,learn_phase(without_color),619427,black_plus_sign,,,,null,GW/soldier.jpg,GW/basket.jpg,,,,,,,,,,,,
null,,black_cross(without_color),620362,green,,,,null,GW/soldier.jpg,GW/basket.jpg,,,,,,,,,,,,
null,,rt_plussign_withcolor,620863,green,,,,null,GW/soldier.jpg,GW/basket.jpg,,,,,,,,,,,,
1138.5999999046326,,rt_thecrossant_black,621931,black_plus_sign,,,,50,,,0.9587628865979382,1,,,,,,,,,,
null,,color_black,622033,black_plus_sign,,,,null,,,,,,,,,,,,,,
null,,learn_phase(without_color),624035,black_plus_sign,,,,null,GW/wheelchair.jpg,GW/paint.jpg,,,,,,,,,,,,
null,,black_cross(without_color),624525,blue,,,,null,GW/wheelchair.jpg,GW/paint.jpg,,,,,,,,,,,,
null,,rt_plussign_withcolor,625026,blue,,,,null,GW/wheelchair.jpg,GW/paint.jpg,,,,,,,,,,,,
1059.5,,rt_thecrossant_black,626541,black_plus_sign,,,,49,,,0.9591836734693877,1,,,,,,,,,,
null,,color_black,626642,black_plus_sign,,,,null,,,,,,,,,,,,,,
null,,learn_phase(without_color),628645,black_plus_sign,,,,null,GW/gong.jpg,GW/camera.jpg,,,,,,,,,,,,
null,,black_cross(without_color),629536,blue,,,,null,GW/gong.jpg,GW/camera.jpg,,,,,,,,,,,,
467.59999990463257,,rt_plussign_withcolor,630038,blue,,,,49,GW/gong.jpg,GW/camera.jpg,,,,,,,,,,,,
null,,rt_thecrossant_black,631150,black_plus_sign,,,,null,,,0.9595959595959596,1,,,,,,,,,,
null,,color_black,631252,black_plus_sign,,,,null,,,,,,,,,,,,,,
null,,learn_phase(without_color),633253,black_plus_sign,,,,null,GW/soldier.jpg,GW/wheelchair.jpg,,,,,,,,,,,,
null,,black_cross(without_color),634312,green,,,,null,GW/soldier.jpg,GW/wheelchair.jpg,,,,,,,,,,,,
null,,rt_plussign_withcolor,634813,green,,,,null,GW/soldier.jpg,GW/wheelchair.jpg,,,,,,,,,,,,
1028.2999999523163,,rt_thecrossant_black,635758,black_plus_sign,,,,50,,,0.96,1,,,,,,,,,,
null,,color_black,635860,black_plus_sign,,,,null,,,,,,,,,,,,,,
null,,learn_phase(without_color),637862,black_plus_sign,,,,null,GW/wheelchair.jpg,GW/paint.jpg,,,,,,,,,,,,
null,,black_cross(without_color),638578,blue,,,,null,GW/wheelchair.jpg,GW/paint.jpg,,,,,,,,,,,,
null,,rt_plussign_withcolor,639079,blue,,,,null,GW/wheelchair.jpg,GW/paint.jpg,,,,,,,,,,,,
1177.2000000476837,,rt_thecrossant_black,640366,black_plus_sign,,,,49,,,0.9603960396039604,1,,,,,,,,,,
null,,color_black,640467,black_plus_sign,,,,null,,,,,,,,,,,,,,
null,,learn_phase(without_color),642469,black_plus_sign,,,,null,GW/paint.jpg,GW/gong.jpg,,,,,,,,,,,,
null,,black_cross(without_color),642928,blue,,,,null,GW/paint.jpg,GW/gong.jpg,,,,,,,,,,,,
null,,rt_plussign_withcolor,643429,blue,,,,null,GW/paint.jpg,GW/gong.jpg,,,,,,,,,,,,
909,,rt_thecrossant_black,644975,black_plus_sign,,,,49,,,0.9607843137254902,1,,,,,,,,,,
null,,color_black,645076,black_plus_sign,,,,null,,,,,,,,,,,,,,
null,,learn_phase(without_color),647078,black_plus_sign,,,,null,GW/gong.jpg,GW/jukebox.jpg,,,,,,,,,,,,
null,,black_cross(without_color),647894,blue,,,,null,GW/gong.jpg,GW/jukebox.jpg,,,,,,,,,,,,
421.60000014305115,,rt_plussign_withcolor,648395,blue,,,,49,GW/gong.jpg,GW/jukebox.jpg,,,,,,,,,,,,
null,,rt_thecrossant_black,649582,black_plus_sign,,,,null,,,0.9611650485436893,1,,,,,,,,,,
null,,color_black,649683,black_plus_sign,,,,null,,,,,,,,,,,,,,
null,,learn_phase(without_color),651685,black_plus_sign,,,,null,GW/soldier.jpg,GW/wheelchair.jpg,,,,,,,,,,,,
null,,black_cross(without_color),652615,green,,,,null,GW/soldier.jpg,GW/wheelchair.jpg,,,,,,,,,,,,
452.69999980926514,,rt_plussign_withcolor,653117,green,,,,50,GW/soldier.jpg,GW/wheelchair.jpg,,,,,,,,,,,,
null,,rt_thecrossant_black,654190,black_plus_sign,,,,null,,,0.9615384615384616,1,,,,,,,,,,
null,,color_black,654293,black_plus_sign,,,,null,,,,,,,,,,,,,,
null,,learn_phase(without_color),656295,black_plus_sign,,,,null,GW/basket.jpg,GW/hat.jpg,,,,,,,,,,,,
null,,black_cross(without_color),656944,blue,,,,null,GW/basket.jpg,GW/hat.jpg,,,,,,,,,,,,
427.2999999523163,,rt_plussign_withcolor,657446,blue,,,,49,GW/basket.jpg,GW/hat.jpg,,,,,,,,,,,,
null,,rt_thecrossant_black,658801,black_plus_sign,,,,null,,,0.9619047619047619,1,,,,,,,,,,
null,,color_black,658903,black_plus_sign,,,,null,,,,,,,,,,,,,,
null,,learn_phase(without_color),660904,black_plus_sign,,,,null,GW/soldier.jpg,GW/basket.jpg,,,,,,,,,,,,
null,,black_cross(without_color),661797,blue,,,,null,GW/soldier.jpg,GW/basket.jpg,,,,,,,,,,,,
390.7000000476837,,rt_plussign_withcolor,662299,blue,,,,49,GW/soldier.jpg,GW/basket.jpg,,,,,,,,,,,,
null,,rt_thecrossant_black,663410,black_plus_sign,,,,null,,,0.9622641509433962,1,,,,,,,,,,
null,,color_black,663511,black_plus_sign,,,,null,,,,,,,,,,,,,,
null,,learn_phase(without_color),665513,black_plus_sign,,,,null,GW/snail.jpg,GW/soldier.jpg,,,,,,,,,,,,
null,,black_cross(without_color),665926,blue,,,,null,GW/snail.jpg,GW/soldier.jpg,,,,,,,,,,,,
null,,rt_plussign_withcolor,666427,blue,,,,null,GW/snail.jpg,GW/soldier.jpg,,,,,,,,,,,,
1071.3999998569489,,rt_thecrossant_black,668018,black_plus_sign,,,,49,,,0.9626168224299065,1,,,,,,,,,,
null,,color_black,668119,black_plus_sign,,,,null,,,,,,,,,,,,,,
null,,learn_phase(without_color),670121,black_plus_sign,,,,null,GW/gong.jpg,GW/teeth.jpg,,,,,,,,,,,,
null,,black_cross(without_color),670660,green,,,,null,GW/gong.jpg,GW/teeth.jpg,,,,,,,,,,,,
null,,rt_plussign_withcolor,671161,green,,,,null,GW/gong.jpg,GW/teeth.jpg,,,,,,,,,,,,
521.4000000953674,,rt_thecrossant_black,672626,black_plus_sign,,,,50,,,0.9629629629629629,1,,,,,,,,,,
null,,color_black,672727,black_plus_sign,,,,null,,,,,,,,,,,,,,
null,,learn_phase(without_color),674728,black_plus_sign,,,,null,GW/wheelchair.jpg,GW/dustpan.jpg,,,,,,,,,,,,
null,,black_cross(without_color),675636,blue,,,,null,GW/wheelchair.jpg,GW/dustpan.jpg,,,,,,,,,,,,
351.90000009536743,,rt_plussign_withcolor,676137,blue,,,,49,GW/wheelchair.jpg,GW/dustpan.jpg,,,,,,,,,,,,
null,,rt_thecrossant_black,677233,black_plus_sign,,,,null,,,0.963302752293578,1,,,,,,,,,,
null,,color_black,677348,black_plus_sign,,,,null,,,,,,,,,,,,,,
null,,learn_phase(without_color),679350,black_plus_sign,,,,null,GW/paint.jpg,GW/gong.jpg,,,,,,,,,,,,
null,,black_cross(without_color),679772,green,,,,null,GW/paint.jpg,GW/gong.jpg,,,,,,,,,,,,
367.2000000476837,,rt_plussign_withcolor,680273,green,,,,50,GW/paint.jpg,GW/gong.jpg,,,,,,,,,,,,
null,,rt_thecrossant_black,681855,black_plus_sign,,,,null,,,0.9636363636363636,1,,,,,,,,,,
null,,color_black,681957,black_plus_sign,,,,null,,,,,,,,,,,,,,
null,,learn_phase(without_color),683958,black_plus_sign,,,,null,GW/wheelchair.jpg,GW/paint.jpg,,,,,,,,,,,,
null,,black_cross(without_color),684432,blue,,,,null,GW/wheelchair.jpg,GW/paint.jpg,,,,,,,,,,,,
null,,rt_plussign_withcolor,684935,blue,,,,null,GW/wheelchair.jpg,GW/paint.jpg,,,,,,,,,,,,
572.2000000476837,,rt_thecrossant_black,686465,black_plus_sign,,,,49,,,0.963963963963964,1,,,,,,,,,,
null,,color_black,686566,black_plus_sign,,,,null,,,,,,,,,,,,,,
null,,learn_phase(without_color),688568,black_plus_sign,,,,null,GW/basket.jpg,GW/globe.jpg,,,,,,,,,,,,
null,,black_cross(without_color),689153,blue,,,,null,GW/basket.jpg,GW/globe.jpg,,,,,,,,,,,,
354.2999999523163,,rt_plussign_withcolor,689655,blue,,,,49,GW/basket.jpg,GW/globe.jpg,,,,,,,,,,,,
null,,rt_thecrossant_black,691073,black_plus_sign,,,,null,,,0.9642857142857143,1,,,,,,,,,,
null,,color_black,691175,black_plus_sign,,,,null,,,,,,,,,,,,,,
null,,learn_phase(without_color),693178,black_plus_sign,,,,null,GW/basket.jpg,GW/hat.jpg,,,,,,,,,,,,
null,,black_cross(without_color),694090,green,,,,null,GW/basket.jpg,GW/hat.jpg,,,,,,,,,,,,
409.7000000476837,,rt_plussign_withcolor,694591,green,,,,50,GW/basket.jpg,GW/hat.jpg,,,,,,,,,,,,
null,,rt_thecrossant_black,695683,black_plus_sign,,,,null,,,0.9646017699115044,1,,,,,,,,,,
null,,color_black,695784,black_plus_sign,,,,null,,,,,,,,,,,,,,
null,,learn_phase(without_color),697786,black_plus_sign,,,,null,GW/gong.jpg,GW/teeth.jpg,,,,,,,,,,,,
null,,black_cross(without_color),698308,green,,,,null,GW/gong.jpg,GW/teeth.jpg,,,,,,,,,,,,
374.7999999523163,,rt_plussign_withcolor,698810,green,,,,49,GW/gong.jpg,GW/teeth.jpg,,,,,,,,,,,,
null,,rt_thecrossant_black,700290,black_plus_sign,,,,null,,,0.956140350877193,0,,,,,,,,,,
null,,color_black,700391,black_plus_sign,,,,null,,,,,,,,,,,,,,
null,,learn_phase(without_color),702394,black_plus_sign,,,,null,GW/dustpan.jpg,GW/hat.jpg,,,,,,,,,,,,
null,,black_cross(without_color),703019,green,,,,null,GW/dustpan.jpg,GW/hat.jpg,,,,,,,,,,,,
null,,rt_plussign_withcolor,703521,green,,,,null,GW/dustpan.jpg,GW/hat.jpg,,,,,,,,,,,,
695.4000000953674,,rt_thecrossant_black,704898,black_plus_sign,,,,50,,,0.9565217391304348,1,,,,,,,,,,
null,,color_black,704999,black_plus_sign,,,,null,,,,,,,,,,,,,,
null,,learn_phase(without_color),707001,black_plus_sign,,,,null,GW/gong.jpg,GW/teeth.jpg,,,,,,,,,,,,
null,,black_cross(without_color),707926,green,,,,null,GW/gong.jpg,GW/teeth.jpg,,,,,,,,,,,,
null,,rt_plussign_withcolor,708428,green,,,,null,GW/gong.jpg,GW/teeth.jpg,,,,,,,,,,,,
771.1000001430511,,rt_thecrossant_black,709506,black_plus_sign,,,,50,,,0.9568965517241379,1,,,,,,,,,,
null,,color_black,709609,black_plus_sign,,,,null,,,,,,,,,,,,,,
null,,learn_phase(without_color),711610,black_plus_sign,,,,null,GW/gong.jpg,GW/camera.jpg,,,,,,,,,,,,
null,,black_cross(without_color),712255,blue,,,,null,GW/gong.jpg,GW/camera.jpg,,,,,,,,,,,,
null,,rt_plussign_withcolor,712757,blue,,,,null,GW/gong.jpg,GW/camera.jpg,,,,,,,,,,,,
1325,,rt_thecrossant_black,714116,black_plus_sign,,,,49,,,0.9572649572649573,1,,,,,,,,,,
null,,color_black,714218,black_plus_sign,,,,null,,,,,,,,,,,,,,
null,,learn_phase(without_color),716221,black_plus_sign,,,,null,GW/paint.jpg,GW/gong.jpg,,,,,,,,,,,,
null,,black_cross(without_color),717009,green,,,,null,GW/paint.jpg,GW/gong.jpg,,,,,,,,,,,,
null,,rt_plussign_withcolor,717515,green,,,,null,GW/paint.jpg,GW/gong.jpg,,,,,,,,,,,,
1086.8999998569489,,rt_thecrossant_black,718730,black_plus_sign,,,,50,,,0.9576271186440678,1,,,,,,,,,,
null,,color_black,718831,black_plus_sign,,,,null,,,,,,,,,,,,,,
null,,learn_phase(without_color),720833,black_plus_sign,,,,null,GW/basket.jpg,GW/globe.jpg,,,,,,,,,,,,
null,,black_cross(without_color),721247,green,,,,null,GW/basket.jpg,GW/globe.jpg,,,,,,,,,,,,
null,,rt_plussign_withcolor,721748,green,,,,null,GW/basket.jpg,GW/globe.jpg,,,,,,,,,,,,
909.7999999523163,,rt_thecrossant_black,723336,black_plus_sign,,,,50,,,0.957983193277311,1,,,,,,,,,,
null,,color_black,723438,black_plus_sign,,,,null,,,,,,,,,,,,,,
null,,learn_phase(without_color),725440,black_plus_sign,,,,null,GW/snail.jpg,GW/soldier.jpg,,,,,,,,,,,,
null,,black_cross(without_color),726391,green,,,,null,GW/snail.jpg,GW/soldier.jpg,,,,,,,,,,,,
null,,rt_plussign_withcolor,726892,green,,,,null,GW/snail.jpg,GW/soldier.jpg,,,,,,,,,,,,
599.9000000953674,,rt_thecrossant_black,727943,black_plus_sign,,,,50,,,0.9583333333333334,1,,,,,,,,,,
null,,color_black,728045,black_plus_sign,,,,null,,,,,,,,,,,,,,
null,,learn_phase(without_color),730047,black_plus_sign,,,,null,GW/teeth.jpg,GW/dustpan.jpg,,,,,,,,,,,,
null,,black_cross(without_color),730595,green,,,,null,GW/teeth.jpg,GW/dustpan.jpg,,,,,,,,,,,,
null,,rt_plussign_withcolor,731096,green,,,,null,GW/teeth.jpg,GW/dustpan.jpg,,,,,,,,,,,,
1092.9000000953674,,rt_thecrossant_black,732556,black_plus_sign,,,,50,,,0.9586776859504132,1,,,,,,,,,,
null,,color_black,732658,black_plus_sign,,,,null,,,,,,,,,,,,,,
null,,learn_phase(without_color),734660,black_plus_sign,,,,null,GW/wheelchair.jpg,GW/dustpan.jpg,,,,,,,,,,,,
null,,black_cross(without_color),735507,blue,,,,null,GW/wheelchair.jpg,GW/dustpan.jpg,,,,,,,,,,,,
415.89999985694885,,rt_plussign_withcolor,736009,blue,,,,49,GW/wheelchair.jpg,GW/dustpan.jpg,,,,,,,,,,,,
null,,rt_thecrossant_black,737167,black_plus_sign,,,,null,,,0.9590163934426229,1,,,,,,,,,,
null,,color_black,737269,black_plus_sign,,,,null,,,,,,,,,,,,,,
null,,learn_phase(without_color),739271,black_plus_sign,,,,null,GW/snail.jpg,GW/soldier.jpg,,,,,,,,,,,,
null,,black_cross(without_color),739921,green,,,,null,GW/snail.jpg,GW/soldier.jpg,,,,,,,,,,,,
null,,rt_plussign_withcolor,740423,green,,,,null,GW/snail.jpg,GW/soldier.jpg,,,,,,,,,,,,
1020.4000000953674,,rt_thecrossant_black,741777,black_plus_sign,,,,50,,,0.959349593495935,1,,,,,,,,,,
null,,color_black,741878,black_plus_sign,,,,null,,,,,,,,,,,,,,
null,,learn_phase(without_color),743880,black_plus_sign,,,,null,GW/gong.jpg,GW/teeth.jpg,,,,,,,,,,,,
null,,black_cross(without_color),744431,green,,,,null,GW/gong.jpg,GW/teeth.jpg,,,,,,,,,,,,
428.09999990463257,,rt_plussign_withcolor,744932,green,,,,50,GW/gong.jpg,GW/teeth.jpg,,,,,,,,,,,,
null,,rt_thecrossant_black,746385,black_plus_sign,,,,null,,,0.9596774193548387,1,,,,,,,,,,
null,,color_black,746487,black_plus_sign,,,,null,,,,,,,,,,,,,,
null,,learn_phase(without_color),748488,black_plus_sign,,,,null,GW/wheelchair.jpg,GW/dustpan.jpg,,,,,,,,,,,,
null,,black_cross(without_color),748965,blue,,,,null,GW/wheelchair.jpg,GW/dustpan.jpg,,,,,,,,,,,,
null,,rt_plussign_withcolor,749468,blue,,,,null,GW/wheelchair.jpg,GW/dustpan.jpg,,,,,,,,,,,,
904.1000001430511,,rt_thecrossant_black,750995,black_plus_sign,,,,49,,,0.96,1,,,,,,,,,,
null,,color_black,751097,black_plus_sign,,,,null,,,,,,,,,,,,,,
null,,learn_phase(without_color),753099,black_plus_sign,,,,null,GW/soldier.jpg,GW/basket.jpg,,,,,,,,,,,,
null,,black_cross(without_color),753609,green,,,,null,GW/soldier.jpg,GW/basket.jpg,,,,,,,,,,,,
null,,rt_plussign_withcolor,754111,green,,,,null,GW/soldier.jpg,GW/basket.jpg,,,,,,,,,,,,
858.6000001430511,,rt_thecrossant_black,755605,black_plus_sign,,,,50,,,0.9603174603174603,1,,,,,,,,,,
null,,color_black,755706,black_plus_sign,,,,null,,,,,,,,,,,,,,
null,,learn_phase(without_color),757708,black_plus_sign,,,,null,GW/gong.jpg,GW/jukebox.jpg,,,,,,,,,,,,
null,,black_cross(without_color),758551,blue,,,,null,GW/gong.jpg,GW/jukebox.jpg,,,,,,,,,,,,
null,,rt_plussign_withcolor,759052,blue,,,,null,GW/gong.jpg,GW/jukebox.jpg,,,,,,,,,,,,
759.2999999523163,,rt_thecrossant_black,760213,black_plus_sign,,,,49,,,0.9606299212598425,1,,,,,,,,,,
null,,color_black,760315,black_plus_sign,,,,null,,,,,,,,,,,,,,
33217.40000009537,,intro_1,793534,instruct,,0,Start,,,,,,,,,,,,,,,
null,,directmemory_phase,800036,GW/basket.jpg,,,,null,,,0,0,GW/globe.jpg,GW/gong.jpg,GW/dustpan.jpg,GW/globe.jpg,GW/dustpan.jpg,GW/gong.jpg,0,,,
null,,html-keyboard-response,801038,<p></p>,,,,null,,,,,,,,,,,,,,
5715.799999952316,,directmemory_phase,806755,GW/soldier.jpg,,,,51,,,0.5,1,GW/camera.jpg,GW/paint.jpg,GW/snail.jpg,GW/snail.jpg,GW/paint.jpg,GW/camera.jpg,1,,,
null,,html-keyboard-response,807757,<p></p>,,,,null,,,,,,,,,,,,,,
4780.900000095367,,directmemory_phase,812539,GW/paint.jpg,,,,50,,,0.6666666666666666,1,GW/jukebox.jpg,GW/teeth.jpg,GW/hat.jpg,GW/teeth.jpg,GW/jukebox.jpg,GW/hat.jpg,1,,,
null,,html-keyboard-response,813541,<p></p>,,,,null,,,,,,,,,,,,,,
3285.7000000476837,,directmemory_phase,816827,GW/basket.jpg,,,,49,,,0.75,1,GW/hat.jpg,GW/paint.jpg,GW/snail.jpg,GW/hat.jpg,GW/snail.jpg,GW/paint.jpg,1,,,
null,,html-keyboard-response,817829,<p></p>,,,,null,,,,,,,,,,,,,,
2509.300000190735,,directmemory_phase,820339,GW/dustpan.jpg,,,,50,,,0.8,1,GW/gong.jpg,GW/wheelchair.jpg,GW/snail.jpg,GW/wheelchair.jpg,GW/gong.jpg,GW/snail.jpg,1,,,
null,,html-keyboard-response,821341,<p></p>,,,,null,,,,,,,,,,,,,,
4237.599999904633,,directmemory_phase,825579,GW/basket.jpg,,,,51,,,0.8333333333333334,1,GW/gong.jpg,GW/dustpan.jpg,GW/soldier.jpg,GW/soldier.jpg,GW/dustpan.jpg,GW/gong.jpg,1,,,
null,,html-keyboard-response,826581,<p></p>,,,,null,,,,,,,,,,,,,,
1437.5,,directmemory_phase,828019,GW/wheelchair.jpg,,,,49,,,0.8571428571428571,1,GW/dustpan.jpg,GW/barrel.jpg,GW/teeth.jpg,GW/dustpan.jpg,GW/teeth.jpg,GW/barrel.jpg,1,,,
null,,html-keyboard-response,829021,<p></p>,,,,null,,,,,,,,,,,,,,
3300.9000000953674,,directmemory_phase,832323,GW/globe.jpg,,,,49,,,0.875,1,GW/basket.jpg,GW/dustpan.jpg,GW/hat.jpg,GW/basket.jpg,GW/hat.jpg,GW/dustpan.jpg,1,,,
null,,html-keyboard-response,833326,<p></p>,,,,null,,,,,,,,,,,,,,
4220,,directmemory_phase,837547,GW/wheelchair.jpg,,,,51,,,0.8888888888888888,1,GW/jukebox.jpg,GW/basket.jpg,GW/soldier.jpg,GW/soldier.jpg,GW/basket.jpg,GW/jukebox.jpg,1,,,
null,,html-keyboard-response,838548,<p></p>,,,,null,,,,,,,,,,,,,,
4405.800000190735,,directmemory_phase,842955,GW/dustpan.jpg,,,,49,,,0.9,1,GW/hat.jpg,GW/barrel.jpg,GW/soldier.jpg,GW/hat.jpg,GW/soldier.jpg,GW/barrel.jpg,1,,,
null,,html-keyboard-response,843957,<p></p>,,,,null,,,,,,,,,,,,,,
2509.2000000476837,,directmemory_phase,846467,GW/wheelchair.jpg,,,,49,,,0.8181818181818182,0,GW/gong.jpg,GW/paint.jpg,GW/camera.jpg,GW/paint.jpg,GW/gong.jpg,GW/camera.jpg,0.5,closer,,
null,,html-keyboard-response,847469,<p></p>,,,,null,,,,,,,,,,,,,,
4157.099999904633,,directmemory_phase,851627,GW/jukebox.jpg,,,,51,,,0.75,0,GW/teeth.jpg,GW/basket.jpg,GW/paint.jpg,GW/teeth.jpg,GW/paint.jpg,GW/basket.jpg,0.5,closer,,
null,,html-keyboard-response,852629,<p></p>,,,,null,,,,,,,,,,,,,,
2021.5,,directmemory_phase,854651,GW/gong.jpg,,,,49,,,0.7692307692307693,1,GW/camera.jpg,GW/basket.jpg,GW/barrel.jpg,GW/camera.jpg,GW/barrel.jpg,GW/basket.jpg,1,,,
null,,html-keyboard-response,855653,<p></p>,,,,null,,,,,,,,,,,,,,
2932.5999999046326,,directmemory_phase,858587,GW/teeth.jpg,,,,49,,,0.7142857142857143,0,GW/snail.jpg,GW/hat.jpg,GW/jukebox.jpg,GW/jukebox.jpg,GW/hat.jpg,GW/snail.jpg,0.5,closer,,
null,,html-keyboard-response,859588,<p></p>,,,,null,,,,,,,,,,,,,,
3541.2000000476837,,directmemory_phase,863131,GW/hat.jpg,,,,51,,,0.7333333333333333,1,GW/jukebox.jpg,GW/globe.jpg,GW/basket.jpg,GW/basket.jpg,GW/globe.jpg,GW/jukebox.jpg,1,,,
null,,html-keyboard-response,864132,<p></p>,,,,null,,,,,,,,,,,,,,
3061.5,,directmemory_phase,867195,GW/teeth.jpg,,,,49,,,0.75,1,GW/paint.jpg,GW/basket.jpg,GW/wheelchair.jpg,GW/paint.jpg,GW/wheelchair.jpg,GW/basket.jpg,1,,,
null,,html-keyboard-response,868196,<p></p>,,,,null,,,,,,,,,,,,,,
3157.2999999523163,,directmemory_phase,871355,GW/soldier.jpg,,,,49,,,0.7647058823529411,1,GW/basket.jpg,GW/jukebox.jpg,GW/dustpan.jpg,GW/basket.jpg,GW/dustpan.jpg,GW/jukebox.jpg,1,,,
null,,html-keyboard-response,872357,<p></p>,,,,null,,,,,,,,,,,,,,
4388.600000143051,,directmemory_phase,876747,GW/teeth.jpg,,,,49,,,0.7222222222222222,0,GW/globe.jpg,GW/wheelchair.jpg,GW/gong.jpg,GW/gong.jpg,GW/wheelchair.jpg,GW/globe.jpg,0.5,closer,,
null,,html-keyboard-response,877748,<p></p>,,,,null,,,,,,,,,,,,,,
2645.600000143051,,directmemory_phase,880395,GW/hat.jpg,,,,49,,,0.6842105263157895,0,GW/gong.jpg,GW/globe.jpg,GW/dustpan.jpg,GW/dustpan.jpg,GW/globe.jpg,GW/gong.jpg,0.5,closer,,
null,,html-keyboard-response,881397,<p></p>,,,,null,,,,,,,,,,,,,,
4188.600000143051,,directmemory_phase,885587,GW/jukebox.jpg,,,,49,,,0.7,1,GW/gong.jpg,GW/hat.jpg,GW/camera.jpg,GW/gong.jpg,GW/camera.jpg,GW/hat.jpg,1,,,
null,,html-keyboard-response,886589,<p></p>,,,,null,,,,,,,,,,,,,,
3452.5,,directmemory_phase,890043,GW/teeth.jpg,,,,51,,,0.7142857142857143,1,GW/snail.jpg,GW/camera.jpg,GW/dustpan.jpg,GW/dustpan.jpg,GW/camera.jpg,GW/snail.jpg,1,,,
null,,html-keyboard-response,891044,<p></p>,,,,null,,,,,,,,,,,,,,
1653.2999999523163,,directmemory_phase,892699,GW/camera.jpg,,,,51,,,0.7272727272727273,1,GW/soldier.jpg,GW/jukebox.jpg,GW/gong.jpg,GW/gong.jpg,GW/jukebox.jpg,GW/soldier.jpg,1,,,
null,,html-keyboard-response,893701,<p></p>,,,,null,,,,,,,,,,,,,,
3932.7000000476837,,directmemory_phase,897634,GW/dustpan.jpg,,,,50,,,0.6956521739130435,0,GW/barrel.jpg,GW/jukebox.jpg,GW/teeth.jpg,GW/teeth.jpg,GW/jukebox.jpg,GW/barrel.jpg,0.5,closer,,
null,,html-keyboard-response,898636,<p></p>,,,,null,,,,,,,,,,,,,,
3949.2999999523163,,directmemory_phase,902586,GW/paint.jpg,,,,49,,,0.6666666666666666,0,GW/barrel.jpg,GW/dustpan.jpg,GW/gong.jpg,GW/gong.jpg,GW/dustpan.jpg,GW/barrel.jpg,0.5,closer,,
null,,html-keyboard-response,903588,<p></p>,,,,null,,,,,,,,,,,,,,
5173.700000047684,,directmemory_phase,908763,GW/jukebox.jpg,,,,51,,,0.64,0,GW/barrel.jpg,GW/basket.jpg,GW/paint.jpg,GW/barrel.jpg,GW/paint.jpg,GW/basket.jpg,0.5,closer,,
null,,html-keyboard-response,909765,<p></p>,,,,null,,,,,,,,,,,,,,
2428.5999999046326,,directmemory_phase,912194,GW/gong.jpg,,,,49,,,0.6153846153846154,0,GW/soldier.jpg,GW/wheelchair.jpg,GW/teeth.jpg,GW/teeth.jpg,GW/wheelchair.jpg,GW/soldier.jpg,0.5,closer,,
null,,html-keyboard-response,913196,<p></p>,,,,null,,,,,,,,,,,,,,
4325,,directmemory_phase,917522,GW/barrel.jpg,,,,49,,,0.5925925925925926,0,GW/dustpan.jpg,GW/gong.jpg,GW/jukebox.jpg,GW/jukebox.jpg,GW/gong.jpg,GW/dustpan.jpg,0.5,closer,,
null,,html-keyboard-response,918525,<p></p>,,,,null,,,,,,,,,,,,,,
3700.300000190735,,directmemory_phase,922227,GW/paint.jpg,,,,49,,,0.5714285714285714,0,GW/jukebox.jpg,GW/wheelchair.jpg,GW/globe.jpg,GW/wheelchair.jpg,GW/jukebox.jpg,GW/globe.jpg,0.5,closer,,
null,,html-keyboard-response,923229,<p></p>,,,,null,,,,,,,,,,,,,,
3828.7999999523163,,directmemory_phase,927058,GW/gong.jpg,,,,50,,,0.5517241379310345,0,GW/jukebox.jpg,GW/soldier.jpg,GW/wheelchair.jpg,GW/jukebox.jpg,GW/wheelchair.jpg,GW/soldier.jpg,0.5,closer,,
null,,html-keyboard-response,928060,<p></p>,,,,null,,,,,,,,,,,,,,
3517.399999856949,,directmemory_phase,931578,GW/snail.jpg,,,,51,,,0.5333333333333333,0,GW/basket.jpg,GW/soldier.jpg,GW/dustpan.jpg,GW/soldier.jpg,GW/basket.jpg,GW/dustpan.jpg,0.5,closer,,
null,,html-keyboard-response,932581,<p></p>,,,,null,,,,,,,,,,,,,,
3571.7999999523163,,directmemory_phase,936154,GW/gong.jpg,,,,50,,,0.5161290322580645,0,GW/paint.jpg,GW/soldier.jpg,GW/barrel.jpg,GW/paint.jpg,GW/barrel.jpg,GW/soldier.jpg,0.5,closer,,
null,,html-keyboard-response,937156,<p></p>,,,,null,,,,,,,,,,,,,,
4797.200000047684,,directmemory_phase,941954,GW/soldier.jpg,,,,51,,,0.5,0,GW/wheelchair.jpg,GW/jukebox.jpg,GW/dustpan.jpg,GW/wheelchair.jpg,GW/dustpan.jpg,GW/jukebox.jpg,0.5,closer,,
null,,html-keyboard-response,942956,<p></p>,,,,null,,,,,,,,,,,,,,
15063.200000047684,,intro_1,958020,instruct,,0,,,,,,,,,,,,,,,,
17830.5,,intro_2,975852,instruct,,1,Next,,,,,,,,,,,,,,,
6102.5,,intro_3,981956,instruct,,1,Next,,,,,,,,,,,,,,,
13006.400000095367,,intro_4,994964,instruct,,1,Next,,,,,,,,,,,,,,,
12062.399999856949,,intro_5,1007028,instruct,,1,Next,,,,,,,,,,,,,,,
12270.5,,intro_6,1019300,instruct,,1,Next,,,,,,,,,,,,,,,
21710.300000190735,,intro_7,1041012,instruct,,1,Next,,,,,,,,,,,,,,,
10230.5,,intro_8,1051244,instruct,,1,Next,,,,,,,,,,,,,,,
4228.199999809265,,shortestpath_phase,1055473,GW/teeth.jpg,,,,50,GW/globe.jpg,GW/wheelchair.jpg,1,1,,,,GW/wheelchair.jpg,,,,,Two Edge Diff,Two Edge Four Edge
null,,html-keyboard-response,1056476,<p></p>,,,,null,,,,,,,,,,,,,,
3292.2999999523163,,shortestpath_phase,1059769,GW/globe.jpg,,,,49,GW/barrel.jpg,GW/hat.jpg,0.5,0,,,,GW/hat.jpg,,,,,Four Edge Diff,Two Edge Six Edge
null,,html-keyboard-response,1060771,<p></p>,,,,null,,,,,,,,,,,,,,
1901.2000000476837,,shortestpath_phase,1062673,GW/jukebox.jpg,,,,50,GW/globe.jpg,GW/camera.jpg,0.6666666666666666,1,,,,GW/camera.jpg,,,,,Three Edge Diff,Two Edge Five Edge
null,,html-keyboard-response,1063676,<p></p>,,,,null,,,,,,,,,,,,,,
4172.5,,shortestpath_phase,1067849,GW/globe.jpg,,,,50,GW/dustpan.jpg,GW/teeth.jpg,0.5,0,,,,GW/dustpan.jpg,,,,,One Edge Diff,Three Edge Four Edge
null,,html-keyboard-response,1068851,<p></p>,,,,null,,,,,,,,,,,,,,
2405.5,,shortestpath_phase,1071257,GW/teeth.jpg,,,,50,GW/barrel.jpg,GW/snail.jpg,0.4,0,,,,GW/barrel.jpg,,,,,Two Edge Diff,Two Edge Four Edge
null,,html-keyboard-response,1072259,<p></p>,,,,null,,,,,,,,,,,,,,
2189.2999999523163,,shortestpath_phase,1074449,GW/camera.jpg,,,,49,GW/globe.jpg,GW/snail.jpg,0.3333333333333333,0,,,,GW/snail.jpg,,,,,One Edge Diff,Five Edge Six Edge
null,,html-keyboard-response,1075451,<p></p>,,,,null,,,,,,,,,,,,,,
2564.600000143051,,shortestpath_phase,1078017,GW/barrel.jpg,,,,49,GW/snail.jpg,GW/hat.jpg,0.2857142857142857,0,,,,GW/hat.jpg,,,,,Two Edge Diff,Four Edge Six Edge
null,,html-keyboard-response,1079019,<p></p>,,,,null,,,,,,,,,,,,,,
2901.100000143051,,shortestpath_phase,1081921,GW/snail.jpg,,,,50,GW/hat.jpg,GW/wheelchair.jpg,0.375,1,,,,GW/wheelchair.jpg,,,,,One Edge Diff,Two Edge Three Edge
null,,html-keyboard-response,1082922,<p></p>,,,,null,,,,,,,,,,,,,,
1877.7999999523163,,shortestpath_phase,1084801,GW/globe.jpg,,,,49,GW/barrel.jpg,GW/jukebox.jpg,0.3333333333333333,0,,,,GW/jukebox.jpg,,,,,One Edge Diff,Five Edge Six Edge
null,,html-keyboard-response,1085803,<p></p>,,,,null,,,,,,,,,,,,,,
1813,,shortestpath_phase,1087617,GW/gong.jpg,,,,49,GW/snail.jpg,GW/hat.jpg,0.3,0,,,,GW/hat.jpg,,,,,One Edge Diff,Three Edge Four Edge
null,,html-keyboard-response,1088620,<p></p>,,,,null,,,,,,,,,,,,,,
2060.2000000476837,,shortestpath_phase,1090681,GW/paint.jpg,,,,50,GW/globe.jpg,GW/jukebox.jpg,0.36363636363636365,1,,,,GW/jukebox.jpg,,,,,Two Edge Diff,Two Edge Four Edge
null,,html-keyboard-response,1091683,<p></p>,,,,null,,,,,,,,,,,,,,
2533.399999856949,,shortestpath_phase,1094217,GW/hat.jpg,,,,50,GW/soldier.jpg,GW/barrel.jpg,0.3333333333333333,0,,,,GW/soldier.jpg,,,,,Two Edge Diff,Two Edge Four Edge
null,,html-keyboard-response,1095218,<p></p>,,,,null,,,,,,,,,,,,,,
2253.7000000476837,,shortestpath_phase,1097473,GW/snail.jpg,,,,49,GW/jukebox.jpg,GW/paint.jpg,0.3076923076923077,0,,,,GW/paint.jpg,,,,,Two Edge Diff,Three Edge Five Edge
null,,html-keyboard-response,1098475,<p></p>,,,,null,,,,,,,,,,,,,,
2028.5,,shortestpath_phase,1100505,GW/barrel.jpg,,,,50,GW/teeth.jpg,GW/snail.jpg,0.2857142857142857,0,,,,GW/teeth.jpg,,,,,Four Edge Diff,Two Edge Six Edge
null,,html-keyboard-response,1101507,<p></p>,,,,null,,,,,,,,,,,,,,
2501.2000000476837,,shortestpath_phase,1104009,GW/globe.jpg,,,,49,GW/barrel.jpg,GW/paint.jpg,0.26666666666666666,0,,,,GW/paint.jpg,,,,,Two Edge Diff,Four Edge Six Edge
null,,html-keyboard-response,1105010,<p></p>,,,,null,,,,,,,,,,,,,,
1965.5999999046326,,shortestpath_phase,1106977,GW/gong.jpg,,,,49,GW/basket.jpg,GW/hat.jpg,0.25,0,,,,GW/hat.jpg,,,,,One Edge Diff,Three Edge Four Edge
null,,html-keyboard-response,1107978,<p></p>,,,,null,,,,,,,,,,,,,,
3349.5999999046326,,shortestpath_phase,1111329,GW/basket.jpg,,,,50,GW/dustpan.jpg,GW/barrel.jpg,0.23529411764705882,0,,,,GW/dustpan.jpg,,,,,Three Edge Diff,Two Edge Five Edge
null,,html-keyboard-response,1112331,<p></p>,,,,null,,,,,,,,,,,,,,
1845,,shortestpath_phase,1114177,GW/camera.jpg,,,,49,GW/basket.jpg,GW/paint.jpg,0.2222222222222222,0,,,,GW/paint.jpg,,,,,Three Edge Diff,Three Edge Six Edge
null,,html-keyboard-response,1115179,<p></p>,,,,null,,,,,,,,,,,,,,
1567.6000001430511,,shortestpath_phase,1116747,GW/dustpan.jpg,,,,49,GW/gong.jpg,GW/barrel.jpg,0.2631578947368421,1,,,,GW/gong.jpg,,,,,One Edge Diff,Two Edge Three Edge
null,,html-keyboard-response,1117749,<p></p>,,,,null,,,,,,,,,,,,,,
2618.699999809265,,shortestpath_phase,1120369,GW/jukebox.jpg,,,,49,GW/globe.jpg,GW/hat.jpg,0.25,0,,,,GW/hat.jpg,,,,,Two Edge Diff,Three Edge Five Edge
null,,html-keyboard-response,1121371,<p></p>,,,,null,,,,,,,,,,,,,,
3293,,shortestpath_phase,1124665,GW/camera.jpg,,,,49,GW/snail.jpg,GW/soldier.jpg,0.23809523809523808,0,,,,GW/soldier.jpg,,,,,One Edge Diff,Four Edge Five Edge
null,,html-keyboard-response,1125667,<p></p>,,,,null,,,,,,,,,,,,,,
1556.5,,shortestpath_phase,1127225,GW/snail.jpg,,,,50,GW/hat.jpg,GW/teeth.jpg,0.22727272727272727,0,,,,GW/hat.jpg,,,,,One Edge Diff,Three Edge Four Edge
null,,html-keyboard-response,1128227,<p></p>,,,,null,,,,,,,,,,,,,,
1508.7999999523163,,shortestpath_phase,1129737,GW/barrel.jpg,,,,50,GW/basket.jpg,GW/globe.jpg,0.21739130434782608,0,,,,GW/basket.jpg,,,,,One Edge Diff,Five Edge Six Edge
null,,html-keyboard-response,1130738,<p></p>,,,,null,,,,,,,,,,,,,,
2813.5999999046326,,shortestpath_phase,1133553,GW/teeth.jpg,,,,50,GW/hat.jpg,GW/globe.jpg,0.20833333333333334,0,,,,GW/hat.jpg,,,,,Two Edge Diff,Two Edge Four Edge
null,,html-keyboard-response,1134555,<p></p>,,,,null,,,,,,,,,,,,,,
2185.2999999523163,,shortestpath_phase,1136741,GW/globe.jpg,,,,49,GW/soldier.jpg,GW/camera.jpg,0.24,1,,,,GW/soldier.jpg,,,,,Four Edge Diff,Two Edge Six Edge
null,,html-keyboard-response,1137743,<p></p>,,,,null,,,,,,,,,,,,,,
4184.599999904633,,shortestpath_phase,1141929,GW/camera.jpg,,,,49,GW/globe.jpg,GW/paint.jpg,0.23076923076923078,0,,,,GW/paint.jpg,,,,,Four Edge Diff,Two Edge Six Edge
null,,html-keyboard-response,1142930,<p></p>,,,,null,,,,,,,,,,,,,,
1789.6000001430511,,shortestpath_phase,1144721,GW/jukebox.jpg,,,,50,GW/soldier.jpg,GW/hat.jpg,0.25925925925925924,1,,,,GW/hat.jpg,,,,,One Edge Diff,Three Edge Four Edge
null,,html-keyboard-response,1145723,<p></p>,,,,null,,,,,,,,,,,,,,
2380.7000000476837,,shortestpath_phase,1148105,GW/camera.jpg,,,,49,GW/basket.jpg,GW/teeth.jpg,0.25,0,,,,GW/teeth.jpg,,,,,Three Edge Diff,Three Edge Six Edge
null,,html-keyboard-response,1149107,<p></p>,,,,null,,,,,,,,,,,,,,
1724.4000000953674,,shortestpath_phase,1150833,GW/barrel.jpg,,,,50,GW/basket.jpg,GW/paint.jpg,0.27586206896551724,1,,,,GW/paint.jpg,,,,,Two Edge Diff,Three Edge Five Edge
null,,html-keyboard-response,1151835,<p></p>,,,,null,,,,,,,,,,,,,,
2276.5999999046326,,shortestpath_phase,1154113,GW/camera.jpg,,,,49,GW/hat.jpg,GW/globe.jpg,0.3,1,,,,GW/hat.jpg,,,,,Two Edge Diff,Four Edge Six Edge
null,,html-keyboard-response,1155114,<p></p>,,,,null,,,,,,,,,,,,,,
2509.0999999046326,,shortestpath_phase,1157625,GW/barrel.jpg,,,,50,GW/wheelchair.jpg,GW/paint.jpg,0.3225806451612903,1,,,,GW/paint.jpg,,,,,One Edge Diff,Three Edge Four Edge
null,,html-keyboard-response,1158627,<p></p>,,,,null,,,,,,,,,,,,,,
2188.9000000953674,,shortestpath_phase,1160817,GW/hat.jpg,,,,50,GW/wheelchair.jpg,GW/camera.jpg,0.3125,0,,,,GW/wheelchair.jpg,,,,,Two Edge Diff,Two Edge Four Edge
null,,html-keyboard-response,1161819,<p></p>,,,,null,,,,,,,,,,,,,,
3244.5,,shortestpath_phase,1165065,GW/jukebox.jpg,,,,50,GW/globe.jpg,GW/basket.jpg,0.3333333333333333,1,,,,GW/basket.jpg,,,,,One Edge Diff,Four Edge Five Edge
null,,html-keyboard-response,1166066,<p></p>,,,,null,,,,,,,,,,,,,,
1796.9000000953674,,shortestpath_phase,1167864,GW/globe.jpg,,,,49,GW/hat.jpg,GW/camera.jpg,0.35294117647058826,1,,,,GW/hat.jpg,,,,,Four Edge Diff,Two Edge Six Edge
null,,html-keyboard-response,1168867,<p></p>,,,,null,,,,,,,,,,,,,,
3116.5999999046326,,shortestpath_phase,1171985,GW/camera.jpg,,,,49,GW/basket.jpg,GW/globe.jpg,0.37142857142857144,1,,,,GW/basket.jpg,,,,,One Edge Diff,Five Edge Six Edge
null,,html-keyboard-response,1172986,<p></p>,,,,null,,,,,,,,,,,,,,
1749.1999998092651,,shortestpath_phase,1174736,GW/hat.jpg,,,,50,GW/jukebox.jpg,GW/teeth.jpg,0.3888888888888889,1,,,,GW/teeth.jpg,,,,,One Edge Diff,Two Edge Three Edge
null,,html-keyboard-response,1175738,<p></p>,,,,null,,,,,,,,,,,,,,
2485.4000000953674,,shortestpath_phase,1178224,GW/camera.jpg,,,,50,GW/dustpan.jpg,GW/paint.jpg,0.40540540540540543,1,,,,GW/paint.jpg,,,,,One Edge Diff,Two Edge Three Edge
null,,html-keyboard-response,1179226,<p></p>,,,,null,,,,,,,,,,,,,,
3413.2999999523163,,shortestpath_phase,1182641,GW/jukebox.jpg,,,,49,GW/basket.jpg,GW/wheelchair.jpg,0.39473684210526316,0,,,,GW/wheelchair.jpg,,,,,One Edge Diff,Three Edge Four Edge
null,,html-keyboard-response,1183643,<p></p>,,,,null,,,,,,,,,,,,,,
1676.5,,shortestpath_phase,1185320,GW/camera.jpg,,,,50,GW/globe.jpg,GW/soldier.jpg,0.41025641025641024,1,,,,GW/soldier.jpg,,,,,Two Edge Diff,Four Edge Six Edge
null,,html-keyboard-response,1186323,<p></p>,,,,null,,,,,,,,,,,,,,
2900,,shortestpath_phase,1189224,GW/barrel.jpg,,,,50,GW/gong.jpg,GW/soldier.jpg,0.4,0,,,,GW/gong.jpg,,,,,Three Edge Diff,Two Edge Five Edge
null,,html-keyboard-response,1190226,<p></p>,,,,null,,,,,,,,,,,,,,
1733.1999998092651,,shortestpath_phase,1191960,GW/camera.jpg,,,,49,GW/snail.jpg,GW/jukebox.jpg,0.3902439024390244,0,,,,GW/jukebox.jpg,,,,,Three Edge Diff,Three Edge Six Edge
null,,html-keyboard-response,1192962,<p></p>,,,,null,,,,,,,,,,,,,,
1821.3999998569489,,shortestpath_phase,1194784,GW/barrel.jpg,,,,50,GW/wheelchair.jpg,GW/globe.jpg,0.38095238095238093,0,,,,GW/wheelchair.jpg,,,,,Two Edge Diff,Four Edge Six Edge
null,,html-keyboard-response,1195786,<p></p>,,,,null,,,,,,,,,,,,,,
3053.2999999523163,,shortestpath_phase,1198840,GW/globe.jpg,,,,49,GW/hat.jpg,GW/gong.jpg,0.3953488372093023,1,,,,GW/hat.jpg,,,,,Three Edge Diff,Two Edge Five Edge
null,,html-keyboard-response,1199842,<p></p>,,,,null,,,,,,,,,,,,,,
2045,,shortestpath_phase,1201888,GW/barrel.jpg,,,,49,GW/snail.jpg,GW/wheelchair.jpg,0.38636363636363635,0,,,,GW/wheelchair.jpg,,,,,Two Edge Diff,Four Edge Six Edge
null,,html-keyboard-response,1202890,<p></p>,,,,null,,,,,,,,,,,,,,
3061.5,,shortestpath_phase,1205952,GW/snail.jpg,,,,49,GW/barrel.jpg,GW/gong.jpg,0.37777777777777777,0,,,,GW/gong.jpg,,,,,Two Edge Diff,Four Edge Six Edge
null,,html-keyboard-response,1206955,<p></p>,,,,null,,,,,,,,,,,,,,
1812.3000001907349,,shortestpath_phase,1208768,GW/globe.jpg,,,,50,GW/gong.jpg,GW/teeth.jpg,0.391304347826087,1,,,,GW/teeth.jpg,,,,,One Edge Diff,Four Edge Five Edge
null,,html-keyboard-response,1209770,<p></p>,,,,null,,,,,,,,,,,,,,
2364.7000000476837,,shortestpath_phase,1212136,GW/wheelchair.jpg,,,,50,GW/barrel.jpg,GW/basket.jpg,0.40425531914893614,1,,,,GW/basket.jpg,,,,,Two Edge Diff,Two Edge Four Edge
null,,html-keyboard-response,1213138,<p></p>,,,,null,,,,,,,,,,,,,,
2116.7000000476837,,shortestpath_phase,1215256,GW/globe.jpg,,,,49,GW/soldier.jpg,GW/barrel.jpg,0.4166666666666667,1,,,,GW/soldier.jpg,,,,,Four Edge Diff,Two Edge Six Edge
null,,html-keyboard-response,1216258,<p></p>,,,,null,,,,,,,,,,,,,,
1469.0999999046326,,shortestpath_phase,1217728,GW/snail.jpg,,,,50,GW/barrel.jpg,GW/basket.jpg,0.42857142857142855,1,,,,GW/basket.jpg,,,,,Four Edge Diff,Two Edge Six Edge
null,,html-keyboard-response,1218746,<p></p>,,,,null,,,,,,,,,,,,,,
2037.5,,shortestpath_phase,1220784,GW/barrel.jpg,,,,49,GW/soldier.jpg,GW/snail.jpg,0.44,1,,,,GW/soldier.jpg,,,,,One Edge Diff,Five Edge Six Edge
null,,html-keyboard-response,1221786,<p></p>,,,,null,,,,,,,,,,,,,,
3924.5999999046326,,shortestpath_phase,1225712,GW/snail.jpg,,,,49,GW/jukebox.jpg,GW/wheelchair.jpg,0.43137254901960786,0,,,,GW/wheelchair.jpg,,,,,Three Edge Diff,Two Edge Five Edge
null,,html-keyboard-response,1226715,<p></p>,,,,null,,,,,,,,,,,,,,
1700.5,,shortestpath_phase,1228416,GW/globe.jpg,,,,49,GW/soldier.jpg,GW/jukebox.jpg,0.4423076923076923,1,,,,GW/soldier.jpg,,,,,Three Edge Diff,Two Edge Five Edge
null,,html-keyboard-response,1229418,<p></p>,,,,null,,,,,,,,,,,,,,
1421.1000001430511,,shortestpath_phase,1230840,GW/snail.jpg,,,,50,GW/barrel.jpg,GW/wheelchair.jpg,0.4528301886792453,1,,,,GW/wheelchair.jpg,,,,,Four Edge Diff,Two Edge Six Edge
null,,html-keyboard-response,1231842,<p></p>,,,,null,,,,,,,,,,,,,,
2637.2000000476837,,shortestpath_phase,1234480,GW/soldier.jpg,,,,49,GW/barrel.jpg,GW/paint.jpg,0.4444444444444444,0,,,,GW/paint.jpg,,,,,Three Edge Diff,Two Edge Five Edge
null,,html-keyboard-response,1235482,<p></p>,,,,null,,,,,,,,,,,,,,
2492.2999999523163,,shortestpath_phase,1237976,GW/globe.jpg,,,,50,GW/camera.jpg,GW/teeth.jpg,0.45454545454545453,1,,,,GW/teeth.jpg,,,,,Two Edge Diff,Four Edge Six Edge
null,,html-keyboard-response,1238978,<p></p>,,,,null,,,,,,,,,,,,,,
2157.300000190735,,shortestpath_phase,1241136,GW/jukebox.jpg,,,,50,GW/paint.jpg,GW/snail.jpg,0.44642857142857145,0,,,,GW/paint.jpg,,,,,Three Edge Diff,Three Edge Six Edge
null,,html-keyboard-response,1242138,<p></p>,,,,null,,,,,,,,,,,,,,
2708.699999809265,,shortestpath_phase,1244848,GW/globe.jpg,,,,50,GW/jukebox.jpg,GW/dustpan.jpg,0.45614035087719296,1,,,,GW/dustpan.jpg,,,,,Two Edge Diff,Three Edge Five Edge
null,,html-keyboard-response,1245850,<p></p>,,,,null,,,,,,,,,,,,,,
1908.7999999523163,,shortestpath_phase,1247760,GW/paint.jpg,,,,49,GW/jukebox.jpg,GW/snail.jpg,0.46551724137931033,1,,,,GW/jukebox.jpg,,,,,One Edge Diff,Two Edge Three Edge
null,,html-keyboard-response,1248762,<p></p>,,,,null,,,,,,,,,,,,,,
1821.2999999523163,,shortestpath_phase,1250584,GW/globe.jpg,,,,50,GW/soldier.jpg,GW/gong.jpg,0.4576271186440678,0,,,,GW/soldier.jpg,,,,,Three Edge Diff,Three Edge Six Edge
null,,html-keyboard-response,1251586,<p></p>,,,,null,,,,,,,,,,,,,,
1532.8999998569489,,shortestpath_phase,1253120,GW/hat.jpg,,,,50,GW/jukebox.jpg,GW/camera.jpg,0.45,0,,,,GW/jukebox.jpg,,,,,One Edge Diff,Three Edge Four Edge
null,,html-keyboard-response,1254122,<p></p>,,,,null,,,,,,,,,,,,,,
1940.7999999523163,,shortestpath_phase,1256064,GW/globe.jpg,,,,49,GW/soldier.jpg,GW/snail.jpg,0.45901639344262296,1,,,,GW/soldier.jpg,,,,,One Edge Diff,Two Edge Three Edge
null,,html-keyboard-response,1257066,<p></p>,,,,null,,,,,,,,,,,,,,
3341,,shortestpath_phase,1260408,GW/jukebox.jpg,,,,49,GW/dustpan.jpg,GW/snail.jpg,0.46774193548387094,1,,,,GW/dustpan.jpg,,,,,Three Edge Diff,Three Edge Six Edge
null,,html-keyboard-response,1261410,<p></p>,,,,null,,,,,,,,,,,,,,
4269.100000143051,,shortestpath_phase,1265680,GW/barrel.jpg,,,,50,GW/hat.jpg,GW/globe.jpg,0.4603174603174603,0,,,,GW/hat.jpg,,,,,Two Edge Diff,Four Edge Six Edge
null,,html-keyboard-response,1266682,<p></p>,,,,null,,,,,,,,,,,,,,
1628.7999999523163,,shortestpath_phase,1268312,GW/globe.jpg,,,,49,GW/jukebox.jpg,GW/camera.jpg,0.46875,1,,,,GW/jukebox.jpg,,,,,One Edge Diff,Five Edge Six Edge
null,,html-keyboard-response,1269313,<p></p>,,,,null,,,,,,,,,,,,,,
1733.6000001430511,,shortestpath_phase,1271048,GW/camera.jpg,,,,50,GW/soldier.jpg,GW/teeth.jpg,0.47692307692307695,1,,,,GW/teeth.jpg,,,,,Two Edge Diff,Two Edge Four Edge
null,,html-keyboard-response,1272050,<p></p>,,,,null,,,,,,,,,,,,,,
2412.800000190735,,shortestpath_phase,1274464,GW/jukebox.jpg,,,,50,GW/wheelchair.jpg,GW/globe.jpg,0.4696969696969697,0,,,,GW/wheelchair.jpg,,,,,Two Edge Diff,Three Edge Five Edge
null,,html-keyboard-response,1275466,<p></p>,,,,null,,,,,,,,,,,,,,
3276.5,,shortestpath_phase,1278744,GW/barrel.jpg,,,,49,GW/camera.jpg,GW/basket.jpg,0.47761194029850745,1,,,,GW/camera.jpg,,,,,Two Edge Diff,Three Edge Five Edge
null,,html-keyboard-response,1279746,<p></p>,,,,null,,,,,,,,,,,,,,
2396.7999999523163,,shortestpath_phase,1282144,GW/globe.jpg,,,,49,GW/jukebox.jpg,GW/wheelchair.jpg,0.47058823529411764,0,,,,GW/wheelchair.jpg,,,,,Two Edge Diff,Three Edge Five Edge
null,,html-keyboard-response,1283146,<p></p>,,,,null,,,,,,,,,,,,,,
1572.7000000476837,,shortestpath_phase,1284720,GW/camera.jpg,,,,50,GW/jukebox.jpg,GW/snail.jpg,0.463768115942029,0,,,,GW/jukebox.jpg,,,,,Three Edge Diff,Two Edge Five Edge
null,,html-keyboard-response,1285721,<p></p>,,,,null,,,,,,,,,,,,,,
2061.2999999523163,,shortestpath_phase,1287784,GW/barrel.jpg,,,,50,GW/gong.jpg,GW/basket.jpg,0.45714285714285713,0,,,,GW/gong.jpg,,,,,Three Edge Diff,Three Edge Six Edge
null,,html-keyboard-response,1288786,<p></p>,,,,null,,,,,,,,,,,,,,
2004.9000000953674,,shortestpath_phase,1290792,GW/hat.jpg,,,,49,GW/globe.jpg,GW/jukebox.jpg,0.4647887323943662,1,,,,GW/globe.jpg,,,,,One Edge Diff,Two Edge Three Edge
null,,html-keyboard-response,1291793,<p></p>,,,,null,,,,,,,,,,,,,,
2653.399999856949,,shortestpath_phase,1294448,GW/gong.jpg,,,,50,GW/globe.jpg,GW/snail.jpg,0.4722222222222222,1,,,,GW/snail.jpg,,,,,One Edge Diff,Four Edge Five Edge
null,,html-keyboard-response,1295450,<p></p>,,,,null,,,,,,,,,,,,,,
2308.2000000476837,,shortestpath_phase,1297760,GW/jukebox.jpg,,,,49,GW/wheelchair.jpg,GW/snail.jpg,0.4794520547945205,1,,,,GW/wheelchair.jpg,,,,,Two Edge Diff,Three Edge Five Edge
null,,html-keyboard-response,1298761,<p></p>,,,,null,,,,,,,,,,,,,,
1796.9000000953674,,shortestpath_phase,1300560,GW/snail.jpg,,,,50,GW/barrel.jpg,GW/camera.jpg,0.4864864864864865,1,,,,GW/camera.jpg,,,,,One Edge Diff,Five Edge Six Edge
null,,html-keyboard-response,1301561,<p></p>,,,,null,,,,,,,,,,,,,,
3117.0999999046326,,shortestpath_phase,1304680,GW/basket.jpg,,,,49,GW/camera.jpg,GW/gong.jpg,0.48,0,,,,GW/gong.jpg,,,,,One Edge Diff,Four Edge Five Edge
null,,html-keyboard-response,1305682,<p></p>,,,,null,,,,,,,,,,,,,,
1540.7999999523163,,shortestpath_phase,1307223,GW/hat.jpg,,,,50,GW/soldier.jpg,GW/gong.jpg,0.47368421052631576,0,,,,GW/soldier.jpg,,,,,One Edge Diff,Two Edge Three Edge
null,,html-keyboard-response,1308226,<p></p>,,,,null,,,,,,,,,,,,,,
2284.5,,shortestpath_phase,1310512,GW/basket.jpg,,,,50,GW/snail.jpg,GW/barrel.jpg,0.4675324675324675,0,,,,GW/snail.jpg,,,,,Three Edge Diff,Two Edge Five Edge
null,,html-keyboard-response,1311515,<p></p>,,,,null,,,,,,,,,,,,,,
1859.6000001430511,,shortestpath_phase,1313375,GW/hat.jpg,,,,49,GW/barrel.jpg,GW/paint.jpg,0.46153846153846156,0,,,,GW/paint.jpg,,,,,One Edge Diff,Three Edge Four Edge
null,,html-keyboard-response,1314378,<p></p>,,,,null,,,,,,,,,,,,,,
1452.7999999523163,,shortestpath_phase,1315832,GW/snail.jpg,,,,50,GW/wheelchair.jpg,GW/camera.jpg,0.45569620253164556,0,,,,GW/wheelchair.jpg,,,,,Three Edge Diff,Three Edge Six Edge
null,,html-keyboard-response,1316834,<p></p>,,,,null,,,,,,,,,,,,,,
2452,,shortestpath_phase,1319287,GW/globe.jpg,,,,50,GW/gong.jpg,GW/barrel.jpg,0.45,0,,,,GW/gong.jpg,,,,,One Edge Diff,Five Edge Six Edge
null,,html-keyboard-response,1320289,<p></p>,,,,null,,,,,,,,,,,,,,
1317.2999999523163,,shortestpath_phase,1321607,GW/barrel.jpg,,,,49,GW/basket.jpg,GW/wheelchair.jpg,0.4444444444444444,0,,,,GW/wheelchair.jpg,,,,,One Edge Diff,Four Edge Five Edge
null,,html-keyboard-response,1322610,<p></p>,,,,null,,,,,,,,,,,,,,
2836.2000000476837,,shortestpath_phase,1325447,GW/dustpan.jpg,,,,50,GW/gong.jpg,GW/snail.jpg,0.43902439024390244,0,,,,GW/gong.jpg,,,,,One Edge Diff,Two Edge Three Edge
null,,html-keyboard-response,1326450,<p></p>,,,,null,,,,,,,,,,,,,,
2116.7999999523163,,shortestpath_phase,1328568,GW/barrel.jpg,,,,49,GW/soldier.jpg,GW/hat.jpg,0.43373493975903615,0,,,,GW/hat.jpg,,,,,One Edge Diff,Four Edge Five Edge
null,,html-keyboard-response,1329570,<p></p>,,,,null,,,,,,,,,,,,,,
2316.2000000476837,,shortestpath_phase,1331887,GW/jukebox.jpg,,,,50,GW/globe.jpg,GW/dustpan.jpg,0.44047619047619047,1,,,,GW/dustpan.jpg,,,,,Three Edge Diff,Three Edge Six Edge
null,,html-keyboard-response,1332889,<p></p>,,,,null,,,,,,,,,,,,,,
2813.2000000476837,,shortestpath_phase,1335703,GW/barrel.jpg,,,,49,GW/snail.jpg,GW/gong.jpg,0.43529411764705883,0,,,,GW/gong.jpg,,,,,Four Edge Diff,Two Edge Six Edge
null,,html-keyboard-response,1336705,<p></p>,,,,null,,,,,,,,,,,,,,
2581.0999999046326,,shortestpath_phase,1339287,GW/dustpan.jpg,,,,50,GW/jukebox.jpg,GW/snail.jpg,0.43023255813953487,0,,,,GW/jukebox.jpg,,,,,One Edge Diff,Two Edge Three Edge
null,,html-keyboard-response,1340290,<p></p>,,,,null,,,,,,,,,,,,,,
2843.7000000476837,,shortestpath_phase,1343135,GW/camera.jpg,,,,49,GW/wheelchair.jpg,GW/hat.jpg,0.4367816091954023,1,,,,GW/wheelchair.jpg,,,,,One Edge Diff,Three Edge Four Edge
null,,html-keyboard-response,1344137,<p></p>,,,,null,,,,,,,,,,,,,,
1677.5,,shortestpath_phase,1345815,GW/globe.jpg,,,,50,GW/snail.jpg,GW/jukebox.jpg,0.4318181818181818,0,,,,GW/snail.jpg,,,,,Two Edge Diff,Three Edge Five Edge
null,,html-keyboard-response,1346817,<p></p>,,,,null,,,,,,,,,,,,,,
3573.199999809265,,shortestpath_phase,1350391,GW/jukebox.jpg,,,,49,GW/snail.jpg,GW/soldier.jpg,0.42696629213483145,0,,,,GW/soldier.jpg,,,,,One Edge Diff,Four Edge Five Edge
null,,html-keyboard-response,1351393,<p></p>,,,,null,,,,,,,,,,,,,,
1692.7000000476837,,shortestpath_phase,1353087,GW/snail.jpg,,,,49,GW/jukebox.jpg,GW/hat.jpg,0.4222222222222222,0,,,,GW/hat.jpg,,,,,Two Edge Diff,Three Edge Five Edge
null,,html-keyboard-response,1354089,<p></p>,,,,null,,,,,,,,,,,,,,
2853.2999999523163,,shortestpath_phase,1356943,GW/barrel.jpg,,,,50,GW/wheelchair.jpg,GW/gong.jpg,0.42857142857142855,1,,,,GW/gong.jpg,,,,,Two Edge Diff,Two Edge Four Edge
null,,html-keyboard-response,1357944,<p></p>,,,,null,,,,,,,,,,,,,,
3021.7000000476837,,shortestpath_phase,1360967,GW/camera.jpg,,,,49,GW/dustpan.jpg,GW/jukebox.jpg,0.42391304347826086,0,,,,GW/jukebox.jpg,,,,,One Edge Diff,Two Edge Three Edge
null,,html-keyboard-response,1361970,<p></p>,,,,null,,,,,,,,,,,,,,
1963.6000001430511,,shortestpath_phase,1363935,GW/snail.jpg,,,,49,GW/jukebox.jpg,GW/gong.jpg,0.41935483870967744,0,,,,GW/gong.jpg,,,,,One Edge Diff,Four Edge Five Edge
null,,html-keyboard-response,1364937,<p></p>,,,,null,,,,,,,,,,,,,,
1244.7000000476837,,shortestpath_phase,1366183,GW/barrel.jpg,,,,50,GW/globe.jpg,GW/soldier.jpg,0.425531914893617,1,,,,GW/soldier.jpg,,,,,One Edge Diff,Five Edge Six Edge
null,,html-keyboard-response,1367186,<p></p>,,,,null,,,,,,,,,,,,,,
1700.1999998092651,,shortestpath_phase,1368887,GW/camera.jpg,,,,49,GW/teeth.jpg,GW/globe.jpg,0.43157894736842106,1,,,,GW/teeth.jpg,,,,,Four Edge Diff,Two Edge Six Edge
null,,html-keyboard-response,1369888,<p></p>,,,,null,,,,,,,,,,,,,,
2749.5999999046326,,shortestpath_phase,1372639,GW/soldier.jpg,,,,49,GW/globe.jpg,GW/jukebox.jpg,0.4375,1,,,,GW/globe.jpg,,,,,Two Edge Diff,Two Edge Four Edge
null,,html-keyboard-response,1373641,<p></p>,,,,null,,,,,,,,,,,,,,
2101,,shortestpath_phase,1375743,GW/camera.jpg,,,,50,GW/snail.jpg,GW/paint.jpg,0.44329896907216493,1,,,,GW/paint.jpg,,,,,Three Edge Diff,Two Edge Five Edge
null,,html-keyboard-response,1376745,<p></p>,,,,null,,,,,,,,,,,,,,
1348.5,,shortestpath_phase,1378095,GW/hat.jpg,,,,50,GW/wheelchair.jpg,GW/snail.jpg,0.4387755102040816,0,,,,GW/wheelchair.jpg,,,,,One Edge Diff,Two Edge Three Edge
null,,html-keyboard-response,1379097,<p></p>,,,,null,,,,,,,,,,,,,,
1972.2999999523163,,shortestpath_phase,1381071,GW/camera.jpg,,,,50,GW/soldier.jpg,GW/basket.jpg,0.43434343434343436,0,,,,GW/soldier.jpg,,,,,One Edge Diff,Four Edge Five Edge
null,,html-keyboard-response,1382074,<p></p>,,,,null,,,,,,,,,,,,,,
3236.5,,shortestpath_phase,1385311,GW/barrel.jpg,,,,50,GW/globe.jpg,GW/teeth.jpg,0.44,1,,,,GW/teeth.jpg,,,,,Four Edge Diff,Two Edge Six Edge
null,,html-keyboard-response,1386313,<p></p>,,,,null,,,,,,,,,,,,,,
1245,,shortestpath_phase,1387559,GW/jukebox.jpg,,,,49,GW/camera.jpg,GW/globe.jpg,0.44554455445544555,1,,,,GW/camera.jpg,,,,,Three Edge Diff,Three Edge Six Edge
null,,html-keyboard-response,1388561,<p></p>,,,,null,,,,,,,,,,,,,,
1796.7999999523163,,shortestpath_phase,1390359,GW/snail.jpg,,,,49,GW/teeth.jpg,GW/barrel.jpg,0.45098039215686275,1,,,,GW/teeth.jpg,,,,,Two Edge Diff,Four Edge Six Edge
null,,html-keyboard-response,1391362,<p></p>,,,,null,,,,,,,,,,,,,,
1715.5999999046326,,shortestpath_phase,1393079,GW/globe.jpg,,,,50,GW/paint.jpg,GW/camera.jpg,0.44660194174757284,0,,,,GW/paint.jpg,,,,,Two Edge Diff,Four Edge Six Edge
null,,html-keyboard-response,1394081,<p></p>,,,,null,,,,,,,,,,,,,,
1740.7999999523163,,shortestpath_phase,1395823,GW/snail.jpg,,,,49,GW/jukebox.jpg,GW/barrel.jpg,0.4519230769230769,1,,,,GW/jukebox.jpg,,,,,One Edge Diff,Five Edge Six Edge
null,,html-keyboard-response,1396825,<p></p>,,,,null,,,,,,,,,,,,,,
2284.5,,shortestpath_phase,1399111,GW/barrel.jpg,,,,50,GW/basket.jpg,GW/snail.jpg,0.44761904761904764,0,,,,GW/basket.jpg,,,,,One Edge Diff,Five Edge Six Edge
null,,html-keyboard-response,1400112,<p></p>,,,,null,,,,,,,,,,,,,,
1421.2999999523163,,shortestpath_phase,1401535,GW/globe.jpg,,,,49,GW/dustpan.jpg,GW/gong.jpg,0.4528301886792453,1,,,,GW/dustpan.jpg,,,,,Two Edge Diff,Three Edge Five Edge
null,,html-keyboard-response,1402537,<p></p>,,,,null,,,,,,,,,,,,,,
1508.5999999046326,,shortestpath_phase,1404047,GW/basket.jpg,,,,50,GW/barrel.jpg,GW/snail.jpg,0.45794392523364486,1,,,,GW/snail.jpg,,,,,Three Edge Diff,Three Edge Six Edge
null,,html-keyboard-response,1405049,<p></p>,,,,null,,,,,,,,,,,,,,
2573.199999809265,,shortestpath_phase,1407623,GW/globe.jpg,,,,49,GW/teeth.jpg,GW/barrel.jpg,0.46296296296296297,1,,,,GW/teeth.jpg,,,,,Two Edge Diff,Four Edge Six Edge
null,,html-keyboard-response,1408625,<p></p>,,,,null,,,,,,,,,,,,,,
1644.7000000476837,,shortestpath_phase,1410271,GW/camera.jpg,,,,50,GW/hat.jpg,GW/basket.jpg,0.45871559633027525,0,,,,GW/hat.jpg,,,,,One Edge Diff,Four Edge Five Edge
null,,html-keyboard-response,1411273,<p></p>,,,,null,,,,,,,,,,,,,,
1285,,shortestpath_phase,1412559,GW/basket.jpg,,,,50,GW/teeth.jpg,GW/camera.jpg,0.45454545454545453,0,,,,GW/teeth.jpg,,,,,Two Edge Diff,Three Edge Five Edge
null,,html-keyboard-response,1413561,<p></p>,,,,null,,,,,,,,,,,,,,
2452.600000143051,,shortestpath_phase,1416015,GW/camera.jpg,,,,49,GW/soldier.jpg,GW/jukebox.jpg,0.45045045045045046,0,,,,GW/jukebox.jpg,,,,,Two Edge Diff,Two Edge Four Edge
null,,html-keyboard-response,1417017,<p></p>,,,,null,,,,,,,,,,,,,,
1693.2000000476837,,shortestpath_phase,1418711,GW/snail.jpg,,,,50,GW/wheelchair.jpg,GW/camera.jpg,0.44642857142857145,0,,,,GW/wheelchair.jpg,,,,,Three Edge Diff,Two Edge Five Edge
null,,html-keyboard-response,1419713,<p></p>,,,,null,,,,,,,,,,,,,,
2212.5,,shortestpath_phase,1421927,GW/gong.jpg,,,,49,GW/barrel.jpg,GW/globe.jpg,0.45132743362831856,1,,,,GW/barrel.jpg,,,,,Three Edge Diff,Three Edge Six Edge
null,,html-keyboard-response,1422929,<p></p>,,,,null,,,,,,,,,,,,,,
1468.7999999523163,,shortestpath_phase,1424399,GW/jukebox.jpg,,,,50,GW/wheelchair.jpg,GW/soldier.jpg,0.4473684210526316,0,,,,GW/wheelchair.jpg,,,,,One Edge Diff,Three Edge Four Edge
null,,html-keyboard-response,1425400,<p></p>,,,,null,,,,,,,,,,,,,,
1501.2999999523163,,shortestpath_phase,1426903,GW/globe.jpg,,,,49,GW/gong.jpg,GW/camera.jpg,0.45217391304347826,1,,,,GW/gong.jpg,,,,,One Edge Diff,Five Edge Six Edge
null,,html-keyboard-response,1427905,<p></p>,,,,null,,,,,,,,,,,,,,
1844.5999999046326,,shortestpath_phase,1429751,GW/teeth.jpg,,,,50,GW/soldier.jpg,GW/snail.jpg,0.4482758620689655,0,,,,GW/soldier.jpg,,,,,One Edge Diff,Three Edge Four Edge
null,,html-keyboard-response,1430752,<p></p>,,,,null,,,,,,,,,,,,,,
2820.9000000953674,,shortestpath_phase,1433575,GW/barrel.jpg,,,,49,GW/globe.jpg,GW/gong.jpg,0.4444444444444444,0,,,,GW/gong.jpg,,,,,Four Edge Diff,Two Edge Six Edge
null,,html-keyboard-response,1434577,<p></p>,,,,null,,,,,,,,,,,,,,
2172.5,,shortestpath_phase,1436751,GW/camera.jpg,,,,49,GW/jukebox.jpg,GW/globe.jpg,0.4491525423728814,1,,,,GW/jukebox.jpg,,,,,Four Edge Diff,Two Edge Six Edge
null,,html-keyboard-response,1437752,<p></p>,,,,null,,,,,,,,,,,,,,
1813,,shortestpath_phase,1439567,GW/gong.jpg,,,,50,GW/wheelchair.jpg,GW/basket.jpg,0.44537815126050423,0,,,,GW/wheelchair.jpg,,,,,Two Edge Diff,Two Edge Four Edge
null,,html-keyboard-response,1440569,<p></p>,,,,null,,,,,,,,,,,,,,
1764.5,,shortestpath_phase,1442335,GW/camera.jpg,,,,49,GW/basket.jpg,GW/paint.jpg,0.44166666666666665,0,,,,GW/paint.jpg,,,,,Three Edge Diff,Two Edge Five Edge
null,,html-keyboard-response,1443337,<p></p>,,,,null,,,,,,,,,,,,,,
null,,shortestpath_phase,1450839,,,,,null,,,0.4380165289256198,0,,,,,,,,,One Edge Diff,Four Edge Five Edge
null,,html-keyboard-response,1451841,<p></p>,,,,null,,,,,,,,,,,,,,
20030.39999985695,,intro_1,1471873,instruct,,0,,,,,,,,,,,,,,,,
14798.200000047684,,intro_2,1486672,instruct,,1,Next,,,,,,,,,,,,,,,
9462.400000095367,,intro_3,1496136,instruct,,1,Next,,,,,,,,,,,,,,,
