rt,responses,trial_type,time_elapsed,stimulus,graphorder,button_pressed,response,key_press,stimulus_left,stimulus_right,accuracy,cumulative_accuracy,stimulus_down_left,stimulus_down_mid,stimulus_down_right,stimulus_correct,stimulus_short,stimulus_far,weighted_accuracy,missedtrial,condition,specific_pairs
44618.300000071526,{worker_id:66660a053b08e2a34f9b945c},id_enter,44619,id_enter,GW/paint.jpg; GW/barrel.jpg; GW/wheelchair.jpg; GW/jukebox.jpg; GW/dustpan.jpg; GW/snail.jpg; GW/camera.jpg; GW/basket.jpg; GW/gong.jpg; GW/teeth.jpg; GW/soldier.jpg; GW/globe.jpg; GW/hat.jpg,,,,,,,,,,,,,,,,,
60877.700000047684,,fullscreen,105499,fullscreen,,0,,,,,,,,,,,,,,,,
42910.60000002384,,intro_1,148410,instruct,,0,,,,,,,,,,,,,,,,
42870.89999997616,,intro_2,191283,instruct,,1,Next,,,,,,,,,,,,,,,
7847,,intro_3,199130,instruct,,1,Next,,,,,,,,,,,,,,,
null,,learn_prac_1,201132,lean_prac_1,,,,null,,,,,,,,,,,,,,
null,,html-keyboard-response,202134,<p></p>,,,,null,,,,,,,,,,,,,,
12620.100000023842,,intro_1,214754,instruct,,0,,,,,,,,,,,,,,,,
3815.2999999523163,,intro_2,218570,instruct,,1,Next,,,,,,,,,,,,,,,
null,,learn_prac_2,220572,lean_prac_2,,,,null,,,,,,,,,,,,,,
null,,html-keyboard-response,221573,<p></p>,,,,null,,,,,,,,,,,,,,
18612.399999976158,,intro_1,240186,instruct,,0,,,,,,,,,,,,,,,,
11159.400000095367,,intro_2,251347,instruct,,1,Next,,,,,,,,,,,,,,,
94606.70000004768,,intro_3,345954,instruct,,1,Next,,,,,,,,,,,,,,,
null,,prac_atten_color_black,346807,black_plus_sign,,,,null,,,,,,,,,,,,,,
null,,prac_atten_color,347358,prac_stop_color,,,,null,,,,,,,,,,,,,,
316,,prac_atten_color_black,349359,black_plus_sign,,,,49,,,,,,,,,,,,,,
null,,prac_atten_color_black,350213,black_plus_sign,,,,null,,,,,,,,,,,,,,
588.8999999761581,,prac_atten_color,351023,prac_stop_color,,,,50,,,,,,,,,,,,,,
null,,prac_atten_color_black,353024,black_plus_sign,,,,null,,,,,,,,,,,,,,
null,,prac_atten_color_black,353617,black_plus_sign,,,,null,,,,,,,,,,,,,,
608.6000000238419,,prac_atten_color,354669,prac_stop_color,,,,50,,,,,,,,,,,,,,
null,,prac_atten_color_black,356671,black_plus_sign,,,,null,,,,,,,,,,,,,,
null,,prac_atten_color_black,357023,black_plus_sign,,,,null,,,,,,,,,,,,,,
null,,prac_atten_color,357482,prac_stop_color,,,,null,,,,,,,,,,,,,,
15.5,,prac_atten_color_black,359483,black_plus_sign,,,,49,,,,,,,,,,,,,,
null,,prac_atten_color_black,360427,black_plus_sign,,,,null,,,,,,,,,,,,,,
470.90000009536743,,prac_atten_color,361487,prac_stop_color,,,,50,,,,,,,,,,,,,,
null,,prac_atten_color_black,363490,black_plus_sign,,,,null,,,,,,,,,,,,,,
null,,prac_atten_color_black,363832,black_plus_sign,,,,null,,,,,,,,,,,,,,
682.2000000476837,,prac_atten_color,364850,prac_stop_color,,,,50,,,,,,,,,,,,,,
null,,prac_atten_color_black,366851,black_plus_sign,,,,null,,,,,,,,,,,,,,
null,,prac_atten_color_black,367236,black_plus_sign,,,,null,,,,,,,,,,,,,,
null,,prac_atten_color,367776,prac_stop_color,,,,null,,,,,,,,,,,,,,
233.39999997615814,,prac_atten_color_black,369778,black_plus_sign,,,,49,,,,,,,,,,,,,,
null,,prac_atten_color_black,370644,black_plus_sign,,,,null,,,,,,,,,,,,,,
565.8999999761581,,prac_atten_color,371236,prac_stop_color,,,,50,,,,,,,,,,,,,,
null,,prac_atten_color_black,373238,black_plus_sign,,,,null,,,,,,,,,,,,,,
null,,prac_atten_color_black,374048,black_plus_sign,,,,null,,,,,,,,,,,,,,
673.6000000238419,,prac_atten_color,375052,prac_stop_color,,,,49,,,,,,,,,,,,,,
null,,prac_atten_color_black,377054,black_plus_sign,,,,null,,,,,,,,,,,,,,
null,,prac_atten_color_black,377453,black_plus_sign,,,,null,,,,,,,,,,,,,,
653.3000000715256,,prac_atten_color,378467,prac_stop_color,,,,49,,,,,,,,,,,,,,
null,,prac_atten_color_black,380468,black_plus_sign,,,,null,,,,,,,,,,,,,,
44165.700000047684,,attentioncheck_feedback,424634,cross_check_feedback,,0,,,,,,,,,,,,,,,,
16776,,last_instruct,441411,instruct,,,,32,,,,,,,,,,,,,,
null,,learn_phase(without_color),443412,black_plus_sign,,,,null,GW/wheelchair.jpg,GW/soldier.jpg,,,,,,,,,,,,
null,,black_cross(without_color),444286,green,,,,null,GW/wheelchair.jpg,GW/soldier.jpg,,,,,,,,,,,,
null,,rt_plussign_withcolor,444788,green,,,,null,GW/wheelchair.jpg,GW/soldier.jpg,,,,,,,,,,,,
1587,,rt_thecrossant_black,445917,black_plus_sign,,,,50,,,1,1,,,,,,,,,,
null,,color_black,446018,black_plus_sign,,,,null,,,,,,,,,,,,,,
null,,learn_phase(without_color),448020,black_plus_sign,,,,null,GW/camera.jpg,GW/hat.jpg,,,,,,,,,,,,
null,,black_cross(without_color),448704,green,,,,null,GW/camera.jpg,GW/hat.jpg,,,,,,,,,,,,
null,,rt_plussign_withcolor,449205,green,,,,null,GW/camera.jpg,GW/hat.jpg,,,,,,,,,,,,
1242.5,,rt_thecrossant_black,450523,black_plus_sign,,,,50,,,1,1,,,,,,,,,,
null,,color_black,450625,black_plus_sign,,,,null,,,,,,,,,,,,,,
null,,learn_phase(without_color),452626,black_plus_sign,,,,null,GW/barrel.jpg,GW/wheelchair.jpg,,,,,,,,,,,,
null,,black_cross(without_color),453049,green,,,,null,GW/barrel.jpg,GW/wheelchair.jpg,,,,,,,,,,,,
null,,rt_plussign_withcolor,453550,green,,,,null,GW/barrel.jpg,GW/wheelchair.jpg,,,,,,,,,,,,
858.2999999523163,,rt_thecrossant_black,455131,black_plus_sign,,,,50,,,1,1,,,,,,,,,,
null,,color_black,455232,black_plus_sign,,,,null,,,,,,,,,,,,,,
null,,learn_phase(without_color),457242,black_plus_sign,,,,null,GW/wheelchair.jpg,GW/snail.jpg,,,,,,,,,,,,
null,,black_cross(without_color),458307,blue,,,,null,GW/wheelchair.jpg,GW/snail.jpg,,,,,,,,,,,,
null,,rt_plussign_withcolor,458808,blue,,,,null,GW/wheelchair.jpg,GW/snail.jpg,,,,,,,,,,,,
690.7999999523163,,rt_thecrossant_black,459759,black_plus_sign,,,,49,,,1,1,,,,,,,,,,
null,,color_black,459861,black_plus_sign,,,,null,,,,,,,,,,,,,,
null,,learn_phase(without_color),461862,black_plus_sign,,,,null,GW/paint.jpg,GW/barrel.jpg,,,,,,,,,,,,
null,,black_cross(without_color),462618,blue,,,,null,GW/paint.jpg,GW/barrel.jpg,,,,,,,,,,,,
null,,rt_plussign_withcolor,463119,blue,,,,null,GW/paint.jpg,GW/barrel.jpg,,,,,,,,,,,,
1360.2000000476837,,rt_thecrossant_black,464367,black_plus_sign,,,,49,,,1,1,,,,,,,,,,
null,,color_black,464468,black_plus_sign,,,,null,,,,,,,,,,,,,,
null,,learn_phase(without_color),466469,black_plus_sign,,,,null,GW/jukebox.jpg,GW/dustpan.jpg,,,,,,,,,,,,
null,,black_cross(without_color),467137,blue,,,,null,GW/jukebox.jpg,GW/dustpan.jpg,,,,,,,,,,,,
null,,rt_plussign_withcolor,467638,blue,,,,null,GW/jukebox.jpg,GW/dustpan.jpg,,,,,,,,,,,,
1106.1000000238419,,rt_thecrossant_black,468973,black_plus_sign,,,,49,,,1,1,,,,,,,,,,
null,,color_black,469073,black_plus_sign,,,,null,,,,,,,,,,,,,,
null,,learn_phase(without_color),471075,black_plus_sign,,,,null,GW/wheelchair.jpg,GW/snail.jpg,,,,,,,,,,,,
null,,black_cross(without_color),472154,blue,,,,null,GW/wheelchair.jpg,GW/snail.jpg,,,,,,,,,,,,
null,,rt_plussign_withcolor,472655,blue,,,,null,GW/wheelchair.jpg,GW/snail.jpg,,,,,,,,,,,,
897.2999999523163,,rt_thecrossant_black,473587,black_plus_sign,,,,49,,,1,1,,,,,,,,,,
null,,color_black,473688,black_plus_sign,,,,null,,,,,,,,,,,,,,
null,,learn_phase(without_color),475690,black_plus_sign,,,,null,GW/paint.jpg,GW/barrel.jpg,,,,,,,,,,,,
null,,black_cross(without_color),476585,blue,,,,null,GW/paint.jpg,GW/barrel.jpg,,,,,,,,,,,,
null,,rt_plussign_withcolor,477087,blue,,,,null,GW/paint.jpg,GW/barrel.jpg,,,,,,,,,,,,
1492.8999999761581,,rt_thecrossant_black,478195,black_plus_sign,,,,49,,,1,1,,,,,,,,,,
null,,color_black,478297,black_plus_sign,,,,null,,,,,,,,,,,,,,
null,,learn_phase(without_color),480298,black_plus_sign,,,,null,GW/camera.jpg,GW/basket.jpg,,,,,,,,,,,,
null,,black_cross(without_color),480871,blue,,,,null,GW/camera.jpg,GW/basket.jpg,,,,,,,,,,,,
null,,rt_plussign_withcolor,481373,blue,,,,null,GW/camera.jpg,GW/basket.jpg,,,,,,,,,,,,
1270.3999999761581,,rt_thecrossant_black,482804,black_plus_sign,,,,49,,,1,1,,,,,,,,,,
null,,color_black,482913,black_plus_sign,,,,null,,,,,,,,,,,,,,
null,,learn_phase(without_color),484914,black_plus_sign,,,,null,GW/snail.jpg,GW/gong.jpg,,,,,,,,,,,,
null,,black_cross(without_color),485785,green,,,,null,GW/snail.jpg,GW/gong.jpg,,,,,,,,,,,,
null,,rt_plussign_withcolor,486287,green,,,,null,GW/snail.jpg,GW/gong.jpg,,,,,,,,,,,,
922,,rt_thecrossant_black,487420,black_plus_sign,,,,50,,,1,1,,,,,,,,,,
null,,color_black,487522,black_plus_sign,,,,null,,,,,,,,,,,,,,
null,,learn_phase(without_color),489524,black_plus_sign,,,,null,GW/basket.jpg,GW/gong.jpg,,,,,,,,,,,,
null,,black_cross(without_color),490279,blue,,,,null,GW/basket.jpg,GW/gong.jpg,,,,,,,,,,,,
null,,rt_plussign_withcolor,490780,blue,,,,null,GW/basket.jpg,GW/gong.jpg,,,,,,,,,,,,
1294.5,,rt_thecrossant_black,492037,black_plus_sign,,,,49,,,1,1,,,,,,,,,,
null,,color_black,492139,black_plus_sign,,,,null,,,,,,,,,,,,,,
null,,learn_phase(without_color),494141,black_plus_sign,,,,null,GW/soldier.jpg,GW/globe.jpg,,,,,,,,,,,,
null,,black_cross(without_color),494595,blue,,,,null,GW/soldier.jpg,GW/globe.jpg,,,,,,,,,,,,
null,,rt_plussign_withcolor,495097,blue,,,,null,GW/soldier.jpg,GW/globe.jpg,,,,,,,,,,,,
1399.1000000238419,,rt_thecrossant_black,496647,black_plus_sign,,,,49,,,1,1,,,,,,,,,,
null,,color_black,496749,black_plus_sign,,,,null,,,,,,,,,,,,,,
null,,learn_phase(without_color),498750,black_plus_sign,,,,null,GW/jukebox.jpg,GW/globe.jpg,,,,,,,,,,,,
null,,black_cross(without_color),499576,green,,,,null,GW/jukebox.jpg,GW/globe.jpg,,,,,,,,,,,,
null,,rt_plussign_withcolor,500077,green,,,,null,GW/jukebox.jpg,GW/globe.jpg,,,,,,,,,,,,
820.6000000238419,,rt_thecrossant_black,501255,black_plus_sign,,,,50,,,1,1,,,,,,,,,,
null,,color_black,501357,black_plus_sign,,,,null,,,,,,,,,,,,,,
null,,learn_phase(without_color),503358,black_plus_sign,,,,null,GW/jukebox.jpg,GW/dustpan.jpg,,,,,,,,,,,,
null,,black_cross(without_color),504006,blue,,,,null,GW/jukebox.jpg,GW/dustpan.jpg,,,,,,,,,,,,
null,,rt_plussign_withcolor,504508,blue,,,,null,GW/jukebox.jpg,GW/dustpan.jpg,,,,,,,,,,,,
1025.5,,rt_thecrossant_black,505863,black_plus_sign,,,,49,,,1,1,,,,,,,,,,
null,,color_black,505965,black_plus_sign,,,,null,,,,,,,,,,,,,,
null,,learn_phase(without_color),507981,black_plus_sign,,,,null,GW/barrel.jpg,GW/jukebox.jpg,,,,,,,,,,,,
null,,black_cross(without_color),508729,blue,,,,null,GW/barrel.jpg,GW/jukebox.jpg,,,,,,,,,,,,
null,,rt_plussign_withcolor,509229,blue,,,,null,GW/barrel.jpg,GW/jukebox.jpg,,,,,,,,,,,,
1150.2999999523163,,rt_thecrossant_black,510486,black_plus_sign,,,,49,,,1,1,,,,,,,,,,
null,,color_black,510587,black_plus_sign,,,,null,,,,,,,,,,,,,,
null,,learn_phase(without_color),512593,black_plus_sign,,,,null,GW/wheelchair.jpg,GW/soldier.jpg,,,,,,,,,,,,
null,,black_cross(without_color),513684,blue,,,,null,GW/wheelchair.jpg,GW/soldier.jpg,,,,,,,,,,,,
null,,rt_plussign_withcolor,514186,blue,,,,null,GW/wheelchair.jpg,GW/soldier.jpg,,,,,,,,,,,,
1126.3999999761581,,rt_thecrossant_black,515098,black_plus_sign,,,,49,,,1,1,,,,,,,,,,
null,,color_black,515199,black_plus_sign,,,,null,,,,,,,,,,,,,,
null,,learn_phase(without_color),517200,black_plus_sign,,,,null,GW/jukebox.jpg,GW/globe.jpg,,,,,,,,,,,,
null,,black_cross(without_color),518194,green,,,,null,GW/jukebox.jpg,GW/globe.jpg,,,,,,,,,,,,
null,,rt_plussign_withcolor,518695,green,,,,null,GW/jukebox.jpg,GW/globe.jpg,,,,,,,,,,,,
1353.1999999284744,,rt_thecrossant_black,519703,black_plus_sign,,,,50,,,1,1,,,,,,,,,,
null,,color_black,519804,black_plus_sign,,,,null,,,,,,,,,,,,,,
null,,learn_phase(without_color),521806,black_plus_sign,,,,null,GW/wheelchair.jpg,GW/snail.jpg,,,,,,,,,,,,
null,,black_cross(without_color),522773,blue,,,,null,GW/wheelchair.jpg,GW/snail.jpg,,,,,,,,,,,,
null,,rt_plussign_withcolor,523275,blue,,,,null,GW/wheelchair.jpg,GW/snail.jpg,,,,,,,,,,,,
1195.7999999523163,,rt_thecrossant_black,524311,black_plus_sign,,,,49,,,1,1,,,,,,,,,,
null,,color_black,524412,black_plus_sign,,,,null,,,,,,,,,,,,,,
null,,learn_phase(without_color),526414,black_plus_sign,,,,null,GW/soldier.jpg,GW/globe.jpg,,,,,,,,,,,,
null,,black_cross(without_color),527113,green,,,,null,GW/soldier.jpg,GW/globe.jpg,,,,,,,,,,,,
null,,rt_plussign_withcolor,527614,green,,,,null,GW/soldier.jpg,GW/globe.jpg,,,,,,,,,,,,
1317.8999999761581,,rt_thecrossant_black,528917,black_plus_sign,,,,50,,,1,1,,,,,,,,,,
null,,color_black,529018,black_plus_sign,,,,null,,,,,,,,,,,,,,
null,,learn_phase(without_color),531020,black_plus_sign,,,,null,GW/barrel.jpg,GW/wheelchair.jpg,,,,,,,,,,,,
null,,black_cross(without_color),531810,green,,,,null,GW/barrel.jpg,GW/wheelchair.jpg,,,,,,,,,,,,
null,,rt_plussign_withcolor,532312,green,,,,null,GW/barrel.jpg,GW/wheelchair.jpg,,,,,,,,,,,,
1359.1999999284744,,rt_thecrossant_black,533523,black_plus_sign,,,,50,,,1,1,,,,,,,,,,
null,,color_black,533624,black_plus_sign,,,,null,,,,,,,,,,,,,,
null,,learn_phase(without_color),535627,black_plus_sign,,,,null,GW/wheelchair.jpg,GW/snail.jpg,,,,,,,,,,,,
null,,black_cross(without_color),536526,green,,,,null,GW/wheelchair.jpg,GW/snail.jpg,,,,,,,,,,,,
null,,rt_plussign_withcolor,537028,green,,,,null,GW/wheelchair.jpg,GW/snail.jpg,,,,,,,,,,,,
1007.8999999761581,,rt_thecrossant_black,538132,black_plus_sign,,,,50,,,1,1,,,,,,,,,,
null,,color_black,538234,black_plus_sign,,,,null,,,,,,,,,,,,,,
null,,learn_phase(without_color),540236,black_plus_sign,,,,null,GW/snail.jpg,GW/gong.jpg,,,,,,,,,,,,
null,,black_cross(without_color),540940,blue,,,,null,GW/snail.jpg,GW/gong.jpg,,,,,,,,,,,,
null,,rt_plussign_withcolor,541442,blue,,,,null,GW/snail.jpg,GW/gong.jpg,,,,,,,,,,,,
1310.2000000476837,,rt_thecrossant_black,542740,black_plus_sign,,,,49,,,1,1,,,,,,,,,,
null,,color_black,542841,black_plus_sign,,,,null,,,,,,,,,,,,,,
null,,learn_phase(without_color),544844,black_plus_sign,,,,null,GW/basket.jpg,GW/teeth.jpg,,,,,,,,,,,,
null,,black_cross(without_color),545940,blue,,,,null,GW/basket.jpg,GW/teeth.jpg,,,,,,,,,,,,
null,,rt_plussign_withcolor,546442,blue,,,,null,GW/basket.jpg,GW/teeth.jpg,,,,,,,,,,,,
1146.6000000238419,,rt_thecrossant_black,547349,black_plus_sign,,,,49,,,1,1,,,,,,,,,,
null,,color_black,547450,black_plus_sign,,,,null,,,,,,,,,,,,,,
null,,learn_phase(without_color),549452,black_plus_sign,,,,null,GW/wheelchair.jpg,GW/soldier.jpg,,,,,,,,,,,,
null,,black_cross(without_color),550077,green,,,,null,GW/wheelchair.jpg,GW/soldier.jpg,,,,,,,,,,,,
null,,rt_plussign_withcolor,550578,green,,,,null,GW/wheelchair.jpg,GW/soldier.jpg,,,,,,,,,,,,
1419,,rt_thecrossant_black,551955,black_plus_sign,,,,50,,,1,1,,,,,,,,,,
null,,color_black,552057,black_plus_sign,,,,null,,,,,,,,,,,,,,
null,,learn_phase(without_color),554058,black_plus_sign,,,,null,GW/jukebox.jpg,GW/globe.jpg,,,,,,,,,,,,
null,,black_cross(without_color),554531,blue,,,,null,GW/jukebox.jpg,GW/globe.jpg,,,,,,,,,,,,
null,,rt_plussign_withcolor,555032,blue,,,,null,GW/jukebox.jpg,GW/globe.jpg,,,,,,,,,,,,
941.7000000476837,,rt_thecrossant_black,556563,black_plus_sign,,,,49,,,1,1,,,,,,,,,,
null,,color_black,556664,black_plus_sign,,,,null,,,,,,,,,,,,,,
null,,learn_phase(without_color),558665,black_plus_sign,,,,null,GW/snail.jpg,GW/camera.jpg,,,,,,,,,,,,
null,,black_cross(without_color),559141,green,,,,null,GW/snail.jpg,GW/camera.jpg,,,,,,,,,,,,
null,,rt_plussign_withcolor,559642,green,,,,null,GW/snail.jpg,GW/camera.jpg,,,,,,,,,,,,
914.8000000715256,,rt_thecrossant_black,561170,black_plus_sign,,,,50,,,1,1,,,,,,,,,,
null,,color_black,561270,black_plus_sign,,,,null,,,,,,,,,,,,,,
null,,learn_phase(without_color),563272,black_plus_sign,,,,null,GW/barrel.jpg,GW/jukebox.jpg,,,,,,,,,,,,
null,,black_cross(without_color),563913,green,,,,null,GW/barrel.jpg,GW/jukebox.jpg,,,,,,,,,,,,
null,,rt_plussign_withcolor,564414,green,,,,null,GW/barrel.jpg,GW/jukebox.jpg,,,,,,,,,,,,
865.5,,rt_thecrossant_black,565774,black_plus_sign,,,,50,,,1,1,,,,,,,,,,
null,,color_black,565876,black_plus_sign,,,,null,,,,,,,,,,,,,,
null,,learn_phase(without_color),567877,black_plus_sign,,,,null,GW/wheelchair.jpg,GW/snail.jpg,,,,,,,,,,,,
null,,black_cross(without_color),568853,green,,,,null,GW/wheelchair.jpg,GW/snail.jpg,,,,,,,,,,,,
null,,rt_plussign_withcolor,569354,green,,,,null,GW/wheelchair.jpg,GW/snail.jpg,,,,,,,,,,,,
884.5,,rt_thecrossant_black,570382,black_plus_sign,,,,50,,,1,1,,,,,,,,,,
null,,color_black,570483,black_plus_sign,,,,null,,,,,,,,,,,,,,
null,,learn_phase(without_color),572484,black_plus_sign,,,,null,GW/camera.jpg,GW/hat.jpg,,,,,,,,,,,,
null,,black_cross(without_color),573062,blue,,,,null,GW/camera.jpg,GW/hat.jpg,,,,,,,,,,,,
null,,rt_plussign_withcolor,573563,blue,,,,null,GW/camera.jpg,GW/hat.jpg,,,,,,,,,,,,
1345.7999999523163,,rt_thecrossant_black,574988,black_plus_sign,,,,49,,,1,1,,,,,,,,,,
null,,color_black,575090,black_plus_sign,,,,null,,,,,,,,,,,,,,
null,,learn_phase(without_color),577091,black_plus_sign,,,,null,GW/snail.jpg,GW/camera.jpg,,,,,,,,,,,,
null,,black_cross(without_color),577543,blue,,,,null,GW/snail.jpg,GW/camera.jpg,,,,,,,,,,,,
null,,rt_plussign_withcolor,578057,blue,,,,null,GW/snail.jpg,GW/camera.jpg,,,,,,,,,,,,
1260.5,,rt_thecrossant_black,579608,black_plus_sign,,,,49,,,1,1,,,,,,,,,,
null,,color_black,579710,black_plus_sign,,,,null,,,,,,,,,,,,,,
null,,learn_phase(without_color),581712,black_plus_sign,,,,null,GW/barrel.jpg,GW/wheelchair.jpg,,,,,,,,,,,,
null,,black_cross(without_color),582672,blue,,,,null,GW/barrel.jpg,GW/wheelchair.jpg,,,,,,,,,,,,
null,,rt_plussign_withcolor,583173,blue,,,,null,GW/barrel.jpg,GW/wheelchair.jpg,,,,,,,,,,,,
714.5,,rt_thecrossant_black,584217,black_plus_sign,,,,49,,,1,1,,,,,,,,,,
null,,color_black,584318,black_plus_sign,,,,null,,,,,,,,,,,,,,
null,,learn_phase(without_color),586320,black_plus_sign,,,,null,GW/snail.jpg,GW/camera.jpg,,,,,,,,,,,,
null,,black_cross(without_color),587102,green,,,,null,GW/snail.jpg,GW/camera.jpg,,,,,,,,,,,,
492.2000000476837,,rt_plussign_withcolor,587604,green,,,,50,GW/snail.jpg,GW/camera.jpg,,,,,,,,,,,,
null,,rt_thecrossant_black,588823,black_plus_sign,,,,null,,,1,1,,,,,,,,,,
null,,color_black,588925,black_plus_sign,,,,null,,,,,,,,,,,,,,
null,,learn_phase(without_color),590927,black_plus_sign,,,,null,GW/jukebox.jpg,GW/globe.jpg,,,,,,,,,,,,
null,,black_cross(without_color),591856,blue,,,,null,GW/jukebox.jpg,GW/globe.jpg,,,,,,,,,,,,
null,,rt_plussign_withcolor,592358,blue,,,,null,GW/jukebox.jpg,GW/globe.jpg,,,,,,,,,,,,
1164.7999999523163,,rt_thecrossant_black,593432,black_plus_sign,,,,49,,,1,1,,,,,,,,,,
null,,color_black,593533,black_plus_sign,,,,null,,,,,,,,,,,,,,
null,,learn_phase(without_color),595535,black_plus_sign,,,,null,GW/barrel.jpg,GW/wheelchair.jpg,,,,,,,,,,,,
null,,black_cross(without_color),596531,green,,,,null,GW/barrel.jpg,GW/wheelchair.jpg,,,,,,,,,,,,
null,,rt_plussign_withcolor,597043,green,,,,null,GW/barrel.jpg,GW/wheelchair.jpg,,,,,,,,,,,,
1306.7999999523163,,rt_thecrossant_black,598050,black_plus_sign,,,,50,,,1,1,,,,,,,,,,
null,,color_black,598152,black_plus_sign,,,,null,,,,,,,,,,,,,,
null,,learn_phase(without_color),600154,black_plus_sign,,,,null,GW/snail.jpg,GW/camera.jpg,,,,,,,,,,,,
null,,black_cross(without_color),600867,green,,,,null,GW/snail.jpg,GW/camera.jpg,,,,,,,,,,,,
null,,rt_plussign_withcolor,601368,green,,,,null,GW/snail.jpg,GW/camera.jpg,,,,,,,,,,,,
1376,,rt_thecrossant_black,602659,black_plus_sign,,,,50,,,1,1,,,,,,,,,,
null,,color_black,602761,black_plus_sign,,,,null,,,,,,,,,,,,,,
null,,learn_phase(without_color),604762,black_plus_sign,,,,null,GW/basket.jpg,GW/gong.jpg,,,,,,,,,,,,
null,,black_cross(without_color),605681,green,,,,null,GW/basket.jpg,GW/gong.jpg,,,,,,,,,,,,
null,,rt_plussign_withcolor,606182,green,,,,null,GW/basket.jpg,GW/gong.jpg,,,,,,,,,,,,
1062.7000000476837,,rt_thecrossant_black,607271,black_plus_sign,,,,50,,,1,1,,,,,,,,,,
null,,color_black,607372,black_plus_sign,,,,null,,,,,,,,,,,,,,
null,,learn_phase(without_color),609374,black_plus_sign,,,,null,GW/soldier.jpg,GW/globe.jpg,,,,,,,,,,,,
null,,black_cross(without_color),610179,blue,,,,null,GW/soldier.jpg,GW/globe.jpg,,,,,,,,,,,,
null,,rt_plussign_withcolor,610680,blue,,,,null,GW/soldier.jpg,GW/globe.jpg,,,,,,,,,,,,
1242.7000000476837,,rt_thecrossant_black,611878,black_plus_sign,,,,49,,,1,1,,,,,,,,,,
null,,color_black,611979,black_plus_sign,,,,null,,,,,,,,,,,,,,
null,,learn_phase(without_color),613980,black_plus_sign,,,,null,GW/basket.jpg,GW/teeth.jpg,,,,,,,,,,,,
null,,black_cross(without_color),615053,blue,,,,null,GW/basket.jpg,GW/teeth.jpg,,,,,,,,,,,,
null,,rt_plussign_withcolor,615553,blue,,,,null,GW/basket.jpg,GW/teeth.jpg,,,,,,,,,,,,
1287.6000000238419,,rt_thecrossant_black,616483,black_plus_sign,,,,49,,,1,1,,,,,,,,,,
null,,color_black,616584,black_plus_sign,,,,null,,,,,,,,,,,,,,
null,,learn_phase(without_color),618585,black_plus_sign,,,,null,GW/snail.jpg,GW/camera.jpg,,,,,,,,,,,,
null,,black_cross(without_color),619601,green,,,,null,GW/snail.jpg,GW/camera.jpg,,,,,,,,,,,,
null,,rt_plussign_withcolor,620102,green,,,,null,GW/snail.jpg,GW/camera.jpg,,,,,,,,,,,,
1710.7000000476837,,rt_thecrossant_black,621089,black_plus_sign,,,,50,,,1,1,,,,,,,,,,
null,,color_black,621190,black_plus_sign,,,,null,,,,,,,,,,,,,,
null,,learn_phase(without_color),623191,black_plus_sign,,,,null,GW/soldier.jpg,GW/globe.jpg,,,,,,,,,,,,
null,,black_cross(without_color),624106,green,,,,null,GW/soldier.jpg,GW/globe.jpg,,,,,,,,,,,,
null,,rt_plussign_withcolor,624608,green,,,,null,GW/soldier.jpg,GW/globe.jpg,,,,,,,,,,,,
1413.3000000715256,,rt_thecrossant_black,625695,black_plus_sign,,,,50,,,1,1,,,,,,,,,,
null,,color_black,625796,black_plus_sign,,,,null,,,,,,,,,,,,,,
null,,learn_phase(without_color),627797,black_plus_sign,,,,null,GW/wheelchair.jpg,GW/snail.jpg,,,,,,,,,,,,
null,,black_cross(without_color),628766,green,,,,null,GW/wheelchair.jpg,GW/snail.jpg,,,,,,,,,,,,
null,,rt_plussign_withcolor,629268,green,,,,null,GW/wheelchair.jpg,GW/snail.jpg,,,,,,,,,,,,
1220.3000000715256,,rt_thecrossant_black,630301,black_plus_sign,,,,50,,,1,1,,,,,,,,,,
null,,color_black,630402,black_plus_sign,,,,null,,,,,,,,,,,,,,
null,,learn_phase(without_color),632403,black_plus_sign,,,,null,GW/barrel.jpg,GW/jukebox.jpg,,,,,,,,,,,,
null,,black_cross(without_color),633366,green,,,,null,GW/barrel.jpg,GW/jukebox.jpg,,,,,,,,,,,,
null,,rt_plussign_withcolor,633867,green,,,,null,GW/barrel.jpg,GW/jukebox.jpg,,,,,,,,,,,,
1587.3999999761581,,rt_thecrossant_black,634907,black_plus_sign,,,,50,,,1,1,,,,,,,,,,
null,,color_black,635008,black_plus_sign,,,,null,,,,,,,,,,,,,,
null,,learn_phase(without_color),637009,black_plus_sign,,,,null,GW/gong.jpg,GW/soldier.jpg,,,,,,,,,,,,
null,,black_cross(without_color),637478,blue,,,,null,GW/gong.jpg,GW/soldier.jpg,,,,,,,,,,,,
null,,rt_plussign_withcolor,637979,blue,,,,null,GW/gong.jpg,GW/soldier.jpg,,,,,,,,,,,,
1564.1999999284744,,rt_thecrossant_black,639514,black_plus_sign,,,,49,,,1,1,,,,,,,,,,
null,,color_black,639615,black_plus_sign,,,,null,,,,,,,,,,,,,,
null,,learn_phase(without_color),641616,black_plus_sign,,,,null,GW/basket.jpg,GW/gong.jpg,,,,,,,,,,,,
null,,black_cross(without_color),642619,blue,,,,null,GW/basket.jpg,GW/gong.jpg,,,,,,,,,,,,
null,,rt_plussign_withcolor,643121,blue,,,,null,GW/basket.jpg,GW/gong.jpg,,,,,,,,,,,,
768,,rt_thecrossant_black,644120,black_plus_sign,,,,49,,,1,1,,,,,,,,,,
null,,color_black,644222,black_plus_sign,,,,null,,,,,,,,,,,,,,
null,,learn_phase(without_color),646223,black_plus_sign,,,,null,GW/wheelchair.jpg,GW/soldier.jpg,,,,,,,,,,,,
null,,black_cross(without_color),647019,green,,,,null,GW/wheelchair.jpg,GW/soldier.jpg,,,,,,,,,,,,
null,,rt_plussign_withcolor,647521,green,,,,null,GW/wheelchair.jpg,GW/soldier.jpg,,,,,,,,,,,,
1510.7000000476837,,rt_thecrossant_black,648727,black_plus_sign,,,,50,,,1,1,,,,,,,,,,
null,,color_black,648829,black_plus_sign,,,,null,,,,,,,,,,,,,,
null,,learn_phase(without_color),650831,black_plus_sign,,,,null,GW/paint.jpg,GW/barrel.jpg,,,,,,,,,,,,
null,,black_cross(without_color),651537,blue,,,,null,GW/paint.jpg,GW/barrel.jpg,,,,,,,,,,,,
null,,rt_plussign_withcolor,652038,blue,,,,null,GW/paint.jpg,GW/barrel.jpg,,,,,,,,,,,,
1114.3999999761581,,rt_thecrossant_black,653334,black_plus_sign,,,,49,,,1,1,,,,,,,,,,
null,,color_black,653435,black_plus_sign,,,,null,,,,,,,,,,,,,,
null,,learn_phase(without_color),655437,black_plus_sign,,,,null,GW/wheelchair.jpg,GW/soldier.jpg,,,,,,,,,,,,
null,,black_cross(without_color),656213,green,,,,null,GW/wheelchair.jpg,GW/soldier.jpg,,,,,,,,,,,,
null,,rt_plussign_withcolor,656714,green,,,,null,GW/wheelchair.jpg,GW/soldier.jpg,,,,,,,,,,,,
956.5,,rt_thecrossant_black,657941,black_plus_sign,,,,50,,,1,1,,,,,,,,,,
null,,color_black,658042,black_plus_sign,,,,null,,,,,,,,,,,,,,
null,,learn_phase(without_color),660044,black_plus_sign,,,,null,GW/jukebox.jpg,GW/globe.jpg,,,,,,,,,,,,
null,,black_cross(without_color),660888,blue,,,,null,GW/jukebox.jpg,GW/globe.jpg,,,,,,,,,,,,
null,,rt_plussign_withcolor,661405,blue,,,,null,GW/jukebox.jpg,GW/globe.jpg,,,,,,,,,,,,
1513.1999999284744,,rt_thecrossant_black,662564,black_plus_sign,,,,49,,,1,1,,,,,,,,,,
null,,color_black,662666,black_plus_sign,,,,null,,,,,,,,,,,,,,
null,,learn_phase(without_color),664667,black_plus_sign,,,,null,GW/paint.jpg,GW/barrel.jpg,,,,,,,,,,,,
null,,black_cross(without_color),665723,green,,,,null,GW/paint.jpg,GW/barrel.jpg,,,,,,,,,,,,
null,,rt_plussign_withcolor,666224,green,,,,null,GW/paint.jpg,GW/barrel.jpg,,,,,,,,,,,,
1199.6999999284744,,rt_thecrossant_black,667171,black_plus_sign,,,,50,,,1,1,,,,,,,,,,
null,,color_black,667273,black_plus_sign,,,,null,,,,,,,,,,,,,,
null,,learn_phase(without_color),669275,black_plus_sign,,,,null,GW/snail.jpg,GW/gong.jpg,,,,,,,,,,,,
null,,black_cross(without_color),670019,blue,,,,null,GW/snail.jpg,GW/gong.jpg,,,,,,,,,,,,
null,,rt_plussign_withcolor,670520,blue,,,,null,GW/snail.jpg,GW/gong.jpg,,,,,,,,,,,,
1365.1000000238419,,rt_thecrossant_black,671778,black_plus_sign,,,,49,,,1,1,,,,,,,,,,
null,,color_black,671880,black_plus_sign,,,,null,,,,,,,,,,,,,,
null,,learn_phase(without_color),673881,black_plus_sign,,,,null,GW/camera.jpg,GW/basket.jpg,,,,,,,,,,,,
null,,black_cross(without_color),674707,blue,,,,null,GW/camera.jpg,GW/basket.jpg,,,,,,,,,,,,
null,,rt_plussign_withcolor,675208,blue,,,,null,GW/camera.jpg,GW/basket.jpg,,,,,,,,,,,,
1188.7999999523163,,rt_thecrossant_black,676386,black_plus_sign,,,,49,,,1,1,,,,,,,,,,
null,,color_black,676488,black_plus_sign,,,,null,,,,,,,,,,,,,,
null,,learn_phase(without_color),678490,black_plus_sign,,,,null,GW/basket.jpg,GW/teeth.jpg,,,,,,,,,,,,
null,,black_cross(without_color),679088,blue,,,,null,GW/basket.jpg,GW/teeth.jpg,,,,,,,,,,,,
null,,rt_plussign_withcolor,679589,blue,,,,null,GW/basket.jpg,GW/teeth.jpg,,,,,,,,,,,,
1080.6000000238419,,rt_thecrossant_black,680994,black_plus_sign,,,,49,,,1,1,,,,,,,,,,
null,,color_black,681095,black_plus_sign,,,,null,,,,,,,,,,,,,,
null,,learn_phase(without_color),683096,black_plus_sign,,,,null,GW/snail.jpg,GW/camera.jpg,,,,,,,,,,,,
null,,black_cross(without_color),683988,blue,,,,null,GW/snail.jpg,GW/camera.jpg,,,,,,,,,,,,
null,,rt_plussign_withcolor,684490,blue,,,,null,GW/snail.jpg,GW/camera.jpg,,,,,,,,,,,,
976.3999999761581,,rt_thecrossant_black,685601,black_plus_sign,,,,49,,,1,1,,,,,,,,,,
null,,color_black,685703,black_plus_sign,,,,null,,,,,,,,,,,,,,
null,,learn_phase(without_color),687704,black_plus_sign,,,,null,GW/snail.jpg,GW/gong.jpg,,,,,,,,,,,,
null,,black_cross(without_color),688482,blue,,,,null,GW/snail.jpg,GW/gong.jpg,,,,,,,,,,,,
null,,rt_plussign_withcolor,688984,blue,,,,null,GW/snail.jpg,GW/gong.jpg,,,,,,,,,,,,
1297,,rt_thecrossant_black,690209,black_plus_sign,,,,49,,,1,1,,,,,,,,,,
null,,color_black,690309,black_plus_sign,,,,null,,,,,,,,,,,,,,
null,,learn_phase(without_color),692311,black_plus_sign,,,,null,GW/camera.jpg,GW/hat.jpg,,,,,,,,,,,,
null,,black_cross(without_color),693382,green,,,,null,GW/camera.jpg,GW/hat.jpg,,,,,,,,,,,,
null,,rt_plussign_withcolor,693884,green,,,,null,GW/camera.jpg,GW/hat.jpg,,,,,,,,,,,,
1147.1000000238419,,rt_thecrossant_black,694815,black_plus_sign,,,,50,,,1,1,,,,,,,,,,
null,,color_black,694917,black_plus_sign,,,,null,,,,,,,,,,,,,,
null,,learn_phase(without_color),696919,black_plus_sign,,,,null,GW/jukebox.jpg,GW/globe.jpg,,,,,,,,,,,,
null,,black_cross(without_color),697619,blue,,,,null,GW/jukebox.jpg,GW/globe.jpg,,,,,,,,,,,,
null,,rt_plussign_withcolor,698120,blue,,,,null,GW/jukebox.jpg,GW/globe.jpg,,,,,,,,,,,,
1340.1000000238419,,rt_thecrossant_black,699423,black_plus_sign,,,,49,,,1,1,,,,,,,,,,
null,,color_black,699526,black_plus_sign,,,,null,,,,,,,,,,,,,,
null,,learn_phase(without_color),701529,black_plus_sign,,,,null,GW/gong.jpg,GW/soldier.jpg,,,,,,,,,,,,
null,,black_cross(without_color),702579,blue,,,,null,GW/gong.jpg,GW/soldier.jpg,,,,,,,,,,,,
null,,rt_plussign_withcolor,703080,blue,,,,null,GW/gong.jpg,GW/soldier.jpg,,,,,,,,,,,,
943.3999999761581,,rt_thecrossant_black,704035,black_plus_sign,,,,49,,,1,1,,,,,,,,,,
null,,color_black,704144,black_plus_sign,,,,null,,,,,,,,,,,,,,
null,,learn_phase(without_color),706146,black_plus_sign,,,,null,GW/camera.jpg,GW/gong.jpg,,,,,,,,,,,,
null,,black_cross(without_color),706653,blue,,,,null,GW/camera.jpg,GW/gong.jpg,,,,,,,,,,,,
null,,rt_plussign_withcolor,707156,blue,,,,null,GW/camera.jpg,GW/gong.jpg,,,,,,,,,,,,
1363,,rt_thecrossant_black,708651,black_plus_sign,,,,49,,,1,1,,,,,,,,,,
null,,color_black,708753,black_plus_sign,,,,null,,,,,,,,,,,,,,
null,,learn_phase(without_color),710755,black_plus_sign,,,,null,GW/wheelchair.jpg,GW/soldier.jpg,,,,,,,,,,,,
null,,black_cross(without_color),711764,blue,,,,null,GW/wheelchair.jpg,GW/soldier.jpg,,,,,,,,,,,,
null,,rt_plussign_withcolor,712266,blue,,,,null,GW/wheelchair.jpg,GW/soldier.jpg,,,,,,,,,,,,
813.9000000953674,,rt_thecrossant_black,713260,black_plus_sign,,,,49,,,1,1,,,,,,,,,,
null,,color_black,713362,black_plus_sign,,,,null,,,,,,,,,,,,,,
null,,learn_phase(without_color),715363,black_plus_sign,,,,null,GW/gong.jpg,GW/soldier.jpg,,,,,,,,,,,,
null,,black_cross(without_color),716010,blue,,,,null,GW/gong.jpg,GW/soldier.jpg,,,,,,,,,,,,
null,,rt_plussign_withcolor,716525,blue,,,,null,GW/gong.jpg,GW/soldier.jpg,,,,,,,,,,,,
1240.9000000953674,,rt_thecrossant_black,717883,black_plus_sign,,,,49,,,1,1,,,,,,,,,,
null,,color_black,717985,black_plus_sign,,,,null,,,,,,,,,,,,,,
null,,learn_phase(without_color),719986,black_plus_sign,,,,null,GW/basket.jpg,GW/teeth.jpg,,,,,,,,,,,,
null,,black_cross(without_color),720735,green,,,,null,GW/basket.jpg,GW/teeth.jpg,,,,,,,,,,,,
443.60000002384186,,rt_plussign_withcolor,721236,green,,,,49,GW/basket.jpg,GW/teeth.jpg,,,,,,,,,,,,
null,,rt_thecrossant_black,722489,black_plus_sign,,,,null,,,0,0.9836065573770492,,,,,,,,,,
null,,color_black,722591,black_plus_sign,,,,null,,,,,,,,,,,,,,
null,,learn_phase(without_color),724593,black_plus_sign,,,,null,GW/snail.jpg,GW/camera.jpg,,,,,,,,,,,,
null,,black_cross(without_color),725419,blue,,,,null,GW/snail.jpg,GW/camera.jpg,,,,,,,,,,,,
null,,rt_plussign_withcolor,725920,blue,,,,null,GW/snail.jpg,GW/camera.jpg,,,,,,,,,,,,
1049.5999999046326,,rt_thecrossant_black,727097,black_plus_sign,,,,49,,,1,0.9838709677419355,,,,,,,,,,
null,,color_black,727199,black_plus_sign,,,,null,,,,,,,,,,,,,,
null,,learn_phase(without_color),729200,black_plus_sign,,,,null,GW/camera.jpg,GW/gong.jpg,,,,,,,,,,,,
null,,black_cross(without_color),730223,green,,,,null,GW/camera.jpg,GW/gong.jpg,,,,,,,,,,,,
null,,rt_plussign_withcolor,730724,green,,,,null,GW/camera.jpg,GW/gong.jpg,,,,,,,,,,,,
1107.0999999046326,,rt_thecrossant_black,731704,black_plus_sign,,,,50,,,1,0.9841269841269841,,,,,,,,,,
null,,color_black,731805,black_plus_sign,,,,null,,,,,,,,,,,,,,
null,,learn_phase(without_color),733807,black_plus_sign,,,,null,GW/jukebox.jpg,GW/dustpan.jpg,,,,,,,,,,,,
null,,black_cross(without_color),734583,blue,,,,null,GW/jukebox.jpg,GW/dustpan.jpg,,,,,,,,,,,,
null,,rt_plussign_withcolor,735084,blue,,,,null,GW/jukebox.jpg,GW/dustpan.jpg,,,,,,,,,,,,
1287.1000000238419,,rt_thecrossant_black,736311,black_plus_sign,,,,49,,,1,0.984375,,,,,,,,,,
null,,color_black,736412,black_plus_sign,,,,null,,,,,,,,,,,,,,
null,,learn_phase(without_color),738414,black_plus_sign,,,,null,GW/barrel.jpg,GW/jukebox.jpg,,,,,,,,,,,,
null,,black_cross(without_color),739276,green,,,,null,GW/barrel.jpg,GW/jukebox.jpg,,,,,,,,,,,,
null,,rt_plussign_withcolor,739778,green,,,,null,GW/barrel.jpg,GW/jukebox.jpg,,,,,,,,,,,,
1147,,rt_thecrossant_black,740920,black_plus_sign,,,,50,,,1,0.9846153846153847,,,,,,,,,,
null,,color_black,741021,black_plus_sign,,,,null,,,,,,,,,,,,,,
null,,learn_phase(without_color),743023,black_plus_sign,,,,null,GW/soldier.jpg,GW/globe.jpg,,,,,,,,,,,,
null,,black_cross(without_color),744007,green,,,,null,GW/soldier.jpg,GW/globe.jpg,,,,,,,,,,,,
null,,rt_plussign_withcolor,744509,green,,,,null,GW/soldier.jpg,GW/globe.jpg,,,,,,,,,,,,
1149.6000000238419,,rt_thecrossant_black,745527,black_plus_sign,,,,50,,,1,0.9848484848484849,,,,,,,,,,
null,,color_black,745628,black_plus_sign,,,,null,,,,,,,,,,,,,,
null,,learn_phase(without_color),747629,black_plus_sign,,,,null,GW/wheelchair.jpg,GW/soldier.jpg,,,,,,,,,,,,
null,,black_cross(without_color),748615,blue,,,,null,GW/wheelchair.jpg,GW/soldier.jpg,,,,,,,,,,,,
null,,rt_plussign_withcolor,749116,blue,,,,null,GW/wheelchair.jpg,GW/soldier.jpg,,,,,,,,,,,,
1209.5,,rt_thecrossant_black,750133,black_plus_sign,,,,49,,,1,0.9850746268656716,,,,,,,,,,
null,,color_black,750235,black_plus_sign,,,,null,,,,,,,,,,,,,,
null,,learn_phase(without_color),752237,black_plus_sign,,,,null,GW/barrel.jpg,GW/jukebox.jpg,,,,,,,,,,,,
null,,black_cross(without_color),753305,blue,,,,null,GW/barrel.jpg,GW/jukebox.jpg,,,,,,,,,,,,
null,,rt_plussign_withcolor,753806,blue,,,,null,GW/barrel.jpg,GW/jukebox.jpg,,,,,,,,,,,,
1528.6000000238419,,rt_thecrossant_black,754742,black_plus_sign,,,,49,,,1,0.9852941176470589,,,,,,,,,,
null,,color_black,754843,black_plus_sign,,,,null,,,,,,,,,,,,,,
null,,learn_phase(without_color),756844,black_plus_sign,,,,null,GW/soldier.jpg,GW/globe.jpg,,,,,,,,,,,,
null,,black_cross(without_color),757616,blue,,,,null,GW/soldier.jpg,GW/globe.jpg,,,,,,,,,,,,
null,,rt_plussign_withcolor,758117,blue,,,,null,GW/soldier.jpg,GW/globe.jpg,,,,,,,,,,,,
1458.3999999761581,,rt_thecrossant_black,759348,black_plus_sign,,,,49,,,1,0.9855072463768116,,,,,,,,,,
null,,color_black,759450,black_plus_sign,,,,null,,,,,,,,,,,,,,
null,,learn_phase(without_color),761452,black_plus_sign,,,,null,GW/camera.jpg,GW/gong.jpg,,,,,,,,,,,,
null,,black_cross(without_color),762211,blue,,,,null,GW/camera.jpg,GW/gong.jpg,,,,,,,,,,,,
null,,rt_plussign_withcolor,762713,blue,,,,null,GW/camera.jpg,GW/gong.jpg,,,,,,,,,,,,
1111.7999999523163,,rt_thecrossant_black,763958,black_plus_sign,,,,49,,,1,0.9857142857142858,,,,,,,,,,
null,,color_black,764060,black_plus_sign,,,,null,,,,,,,,,,,,,,
null,,learn_phase(without_color),766061,black_plus_sign,,,,null,GW/jukebox.jpg,GW/globe.jpg,,,,,,,,,,,,
null,,black_cross(without_color),767065,green,,,,null,GW/jukebox.jpg,GW/globe.jpg,,,,,,,,,,,,
null,,rt_plussign_withcolor,767567,green,,,,null,GW/jukebox.jpg,GW/globe.jpg,,,,,,,,,,,,
1028,,rt_thecrossant_black,768565,black_plus_sign,,,,50,,,1,0.9859154929577465,,,,,,,,,,
null,,color_black,768666,black_plus_sign,,,,null,,,,,,,,,,,,,,
null,,learn_phase(without_color),770667,black_plus_sign,,,,null,GW/jukebox.jpg,GW/dustpan.jpg,,,,,,,,,,,,
null,,black_cross(without_color),771687,green,,,,null,GW/jukebox.jpg,GW/dustpan.jpg,,,,,,,,,,,,
null,,rt_plussign_withcolor,772189,green,,,,null,GW/jukebox.jpg,GW/dustpan.jpg,,,,,,,,,,,,
1252.1999999284744,,rt_thecrossant_black,773172,black_plus_sign,,,,50,,,1,0.9861111111111112,,,,,,,,,,
null,,color_black,773274,black_plus_sign,,,,null,,,,,,,,,,,,,,
null,,learn_phase(without_color),775276,black_plus_sign,,,,null,GW/camera.jpg,GW/gong.jpg,,,,,,,,,,,,
null,,black_cross(without_color),776096,green,,,,null,GW/camera.jpg,GW/gong.jpg,,,,,,,,,,,,
null,,rt_plussign_withcolor,776597,green,,,,null,GW/camera.jpg,GW/gong.jpg,,,,,,,,,,,,
1402.7999999523163,,rt_thecrossant_black,777779,black_plus_sign,,,,50,,,1,0.9863013698630136,,,,,,,,,,
null,,color_black,777881,black_plus_sign,,,,null,,,,,,,,,,,,,,
null,,learn_phase(without_color),779883,black_plus_sign,,,,null,GW/snail.jpg,GW/gong.jpg,,,,,,,,,,,,
null,,black_cross(without_color),780458,blue,,,,null,GW/snail.jpg,GW/gong.jpg,,,,,,,,,,,,
null,,rt_plussign_withcolor,780958,blue,,,,null,GW/snail.jpg,GW/gong.jpg,,,,,,,,,,,,
1154.8000000715256,,rt_thecrossant_black,782386,black_plus_sign,,,,49,,,1,0.9864864864864865,,,,,,,,,,
null,,color_black,782487,black_plus_sign,,,,null,,,,,,,,,,,,,,
null,,learn_phase(without_color),784488,black_plus_sign,,,,null,GW/soldier.jpg,GW/globe.jpg,,,,,,,,,,,,
null,,black_cross(without_color),785068,green,,,,null,GW/soldier.jpg,GW/globe.jpg,,,,,,,,,,,,
null,,rt_plussign_withcolor,785569,green,,,,null,GW/soldier.jpg,GW/globe.jpg,,,,,,,,,,,,
875.2999999523163,,rt_thecrossant_black,786993,black_plus_sign,,,,50,,,1,0.9866666666666667,,,,,,,,,,
null,,color_black,787095,black_plus_sign,,,,null,,,,,,,,,,,,,,
null,,learn_phase(without_color),789096,black_plus_sign,,,,null,GW/camera.jpg,GW/gong.jpg,,,,,,,,,,,,
null,,black_cross(without_color),789696,blue,,,,null,GW/camera.jpg,GW/gong.jpg,,,,,,,,,,,,
null,,rt_plussign_withcolor,790198,blue,,,,null,GW/camera.jpg,GW/gong.jpg,,,,,,,,,,,,
954.0999999046326,,rt_thecrossant_black,791601,black_plus_sign,,,,49,,,1,0.9868421052631579,,,,,,,,,,
null,,color_black,791702,black_plus_sign,,,,null,,,,,,,,,,,,,,
null,,learn_phase(without_color),793703,black_plus_sign,,,,null,GW/snail.jpg,GW/gong.jpg,,,,,,,,,,,,
null,,black_cross(without_color),794494,green,,,,null,GW/snail.jpg,GW/gong.jpg,,,,,,,,,,,,
null,,rt_plussign_withcolor,794996,green,,,,null,GW/snail.jpg,GW/gong.jpg,,,,,,,,,,,,
936.1000000238419,,rt_thecrossant_black,796208,black_plus_sign,,,,50,,,1,0.987012987012987,,,,,,,,,,
null,,color_black,796309,black_plus_sign,,,,null,,,,,,,,,,,,,,
null,,learn_phase(without_color),798311,black_plus_sign,,,,null,GW/camera.jpg,GW/basket.jpg,,,,,,,,,,,,
null,,black_cross(without_color),798935,blue,,,,null,GW/camera.jpg,GW/basket.jpg,,,,,,,,,,,,
null,,rt_plussign_withcolor,799436,blue,,,,null,GW/camera.jpg,GW/basket.jpg,,,,,,,,,,,,
1095.9000000953674,,rt_thecrossant_black,800815,black_plus_sign,,,,49,,,1,0.9871794871794872,,,,,,,,,,
null,,color_black,800917,black_plus_sign,,,,null,,,,,,,,,,,,,,
null,,learn_phase(without_color),802918,black_plus_sign,,,,null,GW/paint.jpg,GW/barrel.jpg,,,,,,,,,,,,
null,,black_cross(without_color),803759,blue,,,,null,GW/paint.jpg,GW/barrel.jpg,,,,,,,,,,,,
null,,rt_plussign_withcolor,804260,blue,,,,null,GW/paint.jpg,GW/barrel.jpg,,,,,,,,,,,,
928,,rt_thecrossant_black,805420,black_plus_sign,,,,49,,,1,0.9873417721518988,,,,,,,,,,
null,,color_black,805522,black_plus_sign,,,,null,,,,,,,,,,,,,,
null,,learn_phase(without_color),807524,black_plus_sign,,,,null,GW/basket.jpg,GW/gong.jpg,,,,,,,,,,,,
null,,black_cross(without_color),808209,green,,,,null,GW/basket.jpg,GW/gong.jpg,,,,,,,,,,,,
null,,rt_plussign_withcolor,808710,green,,,,null,GW/basket.jpg,GW/gong.jpg,,,,,,,,,,,,
1200.5,,rt_thecrossant_black,810028,black_plus_sign,,,,50,,,1,0.9875,,,,,,,,,,
null,,color_black,810129,black_plus_sign,,,,null,,,,,,,,,,,,,,
null,,learn_phase(without_color),812131,black_plus_sign,,,,null,GW/camera.jpg,GW/hat.jpg,,,,,,,,,,,,
null,,black_cross(without_color),812541,green,,,,null,GW/camera.jpg,GW/hat.jpg,,,,,,,,,,,,
null,,rt_plussign_withcolor,813042,green,,,,null,GW/camera.jpg,GW/hat.jpg,,,,,,,,,,,,
1119.1999999284744,,rt_thecrossant_black,814634,black_plus_sign,,,,50,,,1,0.9876543209876543,,,,,,,,,,
null,,color_black,814736,black_plus_sign,,,,null,,,,,,,,,,,,,,
null,,learn_phase(without_color),816737,black_plus_sign,,,,null,GW/soldier.jpg,GW/globe.jpg,,,,,,,,,,,,
null,,black_cross(without_color),817347,green,,,,null,GW/soldier.jpg,GW/globe.jpg,,,,,,,,,,,,
null,,rt_plussign_withcolor,817849,green,,,,null,GW/soldier.jpg,GW/globe.jpg,,,,,,,,,,,,
629.7999999523163,,rt_thecrossant_black,819241,black_plus_sign,,,,50,,,1,0.9878048780487805,,,,,,,,,,
null,,color_black,819343,black_plus_sign,,,,null,,,,,,,,,,,,,,
null,,learn_phase(without_color),821344,black_plus_sign,,,,null,GW/camera.jpg,GW/basket.jpg,,,,,,,,,,,,
null,,black_cross(without_color),822324,green,,,,null,GW/camera.jpg,GW/basket.jpg,,,,,,,,,,,,
null,,rt_plussign_withcolor,822826,green,,,,null,GW/camera.jpg,GW/basket.jpg,,,,,,,,,,,,
1101.2999999523163,,rt_thecrossant_black,823848,black_plus_sign,,,,50,,,1,0.9879518072289156,,,,,,,,,,
null,,color_black,823949,black_plus_sign,,,,null,,,,,,,,,,,,,,
null,,learn_phase(without_color),825951,black_plus_sign,,,,null,GW/basket.jpg,GW/gong.jpg,,,,,,,,,,,,
null,,black_cross(without_color),826846,green,,,,null,GW/basket.jpg,GW/gong.jpg,,,,,,,,,,,,
468.10000002384186,,rt_plussign_withcolor,827347,green,,,,50,GW/basket.jpg,GW/gong.jpg,,,,,,,,,,,,
null,,rt_thecrossant_black,828463,black_plus_sign,,,,null,,,1,0.9880952380952381,,,,,,,,,,
null,,color_black,828564,black_plus_sign,,,,null,,,,,,,,,,,,,,
null,,learn_phase(without_color),830566,black_plus_sign,,,,null,GW/barrel.jpg,GW/wheelchair.jpg,,,,,,,,,,,,
null,,black_cross(without_color),831107,blue,,,,null,GW/barrel.jpg,GW/wheelchair.jpg,,,,,,,,,,,,
null,,rt_plussign_withcolor,831608,blue,,,,null,GW/barrel.jpg,GW/wheelchair.jpg,,,,,,,,,,,,
1307.8000000715256,,rt_thecrossant_black,833069,black_plus_sign,,,,49,,,1,0.9882352941176471,,,,,,,,,,
null,,color_black,833171,black_plus_sign,,,,null,,,,,,,,,,,,,,
null,,learn_phase(without_color),835172,black_plus_sign,,,,null,GW/basket.jpg,GW/teeth.jpg,,,,,,,,,,,,
null,,black_cross(without_color),835894,green,,,,null,GW/basket.jpg,GW/teeth.jpg,,,,,,,,,,,,
null,,rt_plussign_withcolor,836396,green,,,,null,GW/basket.jpg,GW/teeth.jpg,,,,,,,,,,,,
734.1000000238419,,rt_thecrossant_black,837676,black_plus_sign,,,,50,,,1,0.9883720930232558,,,,,,,,,,
null,,color_black,837778,black_plus_sign,,,,null,,,,,,,,,,,,,,
null,,learn_phase(without_color),839780,black_plus_sign,,,,null,GW/camera.jpg,GW/hat.jpg,,,,,,,,,,,,
null,,black_cross(without_color),840789,blue,,,,null,GW/camera.jpg,GW/hat.jpg,,,,,,,,,,,,
null,,rt_plussign_withcolor,841291,blue,,,,null,GW/camera.jpg,GW/hat.jpg,,,,,,,,,,,,
1124.6999999284744,,rt_thecrossant_black,842284,black_plus_sign,,,,49,,,1,0.9885057471264368,,,,,,,,,,
null,,color_black,842386,black_plus_sign,,,,null,,,,,,,,,,,,,,
null,,learn_phase(without_color),844388,black_plus_sign,,,,null,GW/snail.jpg,GW/camera.jpg,,,,,,,,,,,,
null,,black_cross(without_color),845070,green,,,,null,GW/snail.jpg,GW/camera.jpg,,,,,,,,,,,,
null,,rt_plussign_withcolor,845572,green,,,,null,GW/snail.jpg,GW/camera.jpg,,,,,,,,,,,,
1225.8999999761581,,rt_thecrossant_black,846892,black_plus_sign,,,,50,,,1,0.9886363636363636,,,,,,,,,,
null,,color_black,846994,black_plus_sign,,,,null,,,,,,,,,,,,,,
null,,learn_phase(without_color),848996,black_plus_sign,,,,null,GW/camera.jpg,GW/hat.jpg,,,,,,,,,,,,
null,,black_cross(without_color),849938,green,,,,null,GW/camera.jpg,GW/hat.jpg,,,,,,,,,,,,
null,,rt_plussign_withcolor,850439,green,,,,null,GW/camera.jpg,GW/hat.jpg,,,,,,,,,,,,
847.6999999284744,,rt_thecrossant_black,851500,black_plus_sign,,,,50,,,1,0.9887640449438202,,,,,,,,,,
null,,color_black,851600,black_plus_sign,,,,null,,,,,,,,,,,,,,
null,,learn_phase(without_color),853602,black_plus_sign,,,,null,GW/camera.jpg,GW/gong.jpg,,,,,,,,,,,,
null,,black_cross(without_color),854520,green,,,,null,GW/camera.jpg,GW/gong.jpg,,,,,,,,,,,,
null,,rt_plussign_withcolor,855022,green,,,,null,GW/camera.jpg,GW/gong.jpg,,,,,,,,,,,,
1532.7999999523163,,rt_thecrossant_black,856114,black_plus_sign,,,,50,,,1,0.9888888888888889,,,,,,,,,,
null,,color_black,856215,black_plus_sign,,,,null,,,,,,,,,,,,,,
null,,learn_phase(without_color),858216,black_plus_sign,,,,null,GW/basket.jpg,GW/gong.jpg,,,,,,,,,,,,
null,,black_cross(without_color),858687,green,,,,null,GW/basket.jpg,GW/gong.jpg,,,,,,,,,,,,
null,,rt_plussign_withcolor,859188,green,,,,null,GW/basket.jpg,GW/gong.jpg,,,,,,,,,,,,
1367,,rt_thecrossant_black,860720,black_plus_sign,,,,50,,,1,0.989010989010989,,,,,,,,,,
null,,color_black,860822,black_plus_sign,,,,null,,,,,,,,,,,,,,
null,,learn_phase(without_color),862824,black_plus_sign,,,,null,GW/camera.jpg,GW/basket.jpg,,,,,,,,,,,,
null,,black_cross(without_color),863741,green,,,,null,GW/camera.jpg,GW/basket.jpg,,,,,,,,,,,,
null,,rt_plussign_withcolor,864254,green,,,,null,GW/camera.jpg,GW/basket.jpg,,,,,,,,,,,,
822,,rt_thecrossant_black,865340,black_plus_sign,,,,50,,,1,0.9891304347826086,,,,,,,,,,
null,,color_black,865442,black_plus_sign,,,,null,,,,,,,,,,,,,,
null,,learn_phase(without_color),867444,black_plus_sign,,,,null,GW/basket.jpg,GW/teeth.jpg,,,,,,,,,,,,
null,,black_cross(without_color),867911,green,,,,null,GW/basket.jpg,GW/teeth.jpg,,,,,,,,,,,,
null,,rt_plussign_withcolor,868412,green,,,,null,GW/basket.jpg,GW/teeth.jpg,,,,,,,,,,,,
1349.3000000715256,,rt_thecrossant_black,869948,black_plus_sign,,,,50,,,1,0.989247311827957,,,,,,,,,,
null,,color_black,870050,black_plus_sign,,,,null,,,,,,,,,,,,,,
null,,learn_phase(without_color),872052,black_plus_sign,,,,null,GW/basket.jpg,GW/gong.jpg,,,,,,,,,,,,
null,,black_cross(without_color),872844,green,,,,null,GW/basket.jpg,GW/gong.jpg,,,,,,,,,,,,
null,,rt_plussign_withcolor,873346,green,,,,null,GW/basket.jpg,GW/gong.jpg,,,,,,,,,,,,
748.8999999761581,,rt_thecrossant_black,874555,black_plus_sign,,,,50,,,1,0.9893617021276596,,,,,,,,,,
null,,color_black,874665,black_plus_sign,,,,null,,,,,,,,,,,,,,
null,,learn_phase(without_color),876666,black_plus_sign,,,,null,GW/basket.jpg,GW/teeth.jpg,,,,,,,,,,,,
null,,black_cross(without_color),877233,blue,,,,null,GW/basket.jpg,GW/teeth.jpg,,,,,,,,,,,,
null,,rt_plussign_withcolor,877735,blue,,,,null,GW/basket.jpg,GW/teeth.jpg,,,,,,,,,,,,
1182.7999999523163,,rt_thecrossant_black,879171,black_plus_sign,,,,49,,,1,0.9894736842105263,,,,,,,,,,
null,,color_black,879273,black_plus_sign,,,,null,,,,,,,,,,,,,,
null,,learn_phase(without_color),881275,black_plus_sign,,,,null,GW/gong.jpg,GW/soldier.jpg,,,,,,,,,,,,
null,,black_cross(without_color),881727,blue,,,,null,GW/gong.jpg,GW/soldier.jpg,,,,,,,,,,,,
null,,rt_plussign_withcolor,882230,blue,,,,null,GW/gong.jpg,GW/soldier.jpg,,,,,,,,,,,,
973.3999999761581,,rt_thecrossant_black,883780,black_plus_sign,,,,49,,,1,0.9895833333333334,,,,,,,,,,
null,,color_black,883882,black_plus_sign,,,,null,,,,,,,,,,,,,,
null,,learn_phase(without_color),885883,black_plus_sign,,,,null,GW/basket.jpg,GW/teeth.jpg,,,,,,,,,,,,
null,,black_cross(without_color),886648,green,,,,null,GW/basket.jpg,GW/teeth.jpg,,,,,,,,,,,,
null,,rt_plussign_withcolor,887150,green,,,,null,GW/basket.jpg,GW/teeth.jpg,,,,,,,,,,,,
770.3999999761581,,rt_thecrossant_black,888389,black_plus_sign,,,,50,,,1,0.9896907216494846,,,,,,,,,,
null,,color_black,888489,black_plus_sign,,,,null,,,,,,,,,,,,,,
null,,learn_phase(without_color),890491,black_plus_sign,,,,null,GW/camera.jpg,GW/basket.jpg,,,,,,,,,,,,
null,,black_cross(without_color),891303,green,,,,null,GW/camera.jpg,GW/basket.jpg,,,,,,,,,,,,
null,,rt_plussign_withcolor,891804,green,,,,null,GW/camera.jpg,GW/basket.jpg,,,,,,,,,,,,
900.1000000238419,,rt_thecrossant_black,892997,black_plus_sign,,,,50,,,1,0.9897959183673469,,,,,,,,,,
null,,color_black,893098,black_plus_sign,,,,null,,,,,,,,,,,,,,
null,,learn_phase(without_color),895099,black_plus_sign,,,,null,GW/gong.jpg,GW/soldier.jpg,,,,,,,,,,,,
null,,black_cross(without_color),895516,blue,,,,null,GW/gong.jpg,GW/soldier.jpg,,,,,,,,,,,,
null,,rt_plussign_withcolor,896018,blue,,,,null,GW/gong.jpg,GW/soldier.jpg,,,,,,,,,,,,
1229.5,,rt_thecrossant_black,897604,black_plus_sign,,,,49,,,1,0.98989898989899,,,,,,,,,,
null,,color_black,897706,black_plus_sign,,,,null,,,,,,,,,,,,,,
null,,learn_phase(without_color),899707,black_plus_sign,,,,null,GW/camera.jpg,GW/hat.jpg,,,,,,,,,,,,
null,,black_cross(without_color),900684,blue,,,,null,GW/camera.jpg,GW/hat.jpg,,,,,,,,,,,,
null,,rt_plussign_withcolor,901185,blue,,,,null,GW/camera.jpg,GW/hat.jpg,,,,,,,,,,,,
747.7000000476837,,rt_thecrossant_black,902211,black_plus_sign,,,,49,,,1,0.99,,,,,,,,,,
null,,color_black,902313,black_plus_sign,,,,null,,,,,,,,,,,,,,
null,,learn_phase(without_color),904314,black_plus_sign,,,,null,GW/paint.jpg,GW/barrel.jpg,,,,,,,,,,,,
null,,black_cross(without_color),904923,green,,,,null,GW/paint.jpg,GW/barrel.jpg,,,,,,,,,,,,
null,,rt_plussign_withcolor,905424,green,,,,null,GW/paint.jpg,GW/barrel.jpg,,,,,,,,,,,,
1269.8999999761581,,rt_thecrossant_black,906818,black_plus_sign,,,,50,,,1,0.9900990099009901,,,,,,,,,,
null,,color_black,906920,black_plus_sign,,,,null,,,,,,,,,,,,,,
null,,learn_phase(without_color),908921,black_plus_sign,,,,null,GW/jukebox.jpg,GW/dustpan.jpg,,,,,,,,,,,,
null,,black_cross(without_color),909789,blue,,,,null,GW/jukebox.jpg,GW/dustpan.jpg,,,,,,,,,,,,
null,,rt_plussign_withcolor,910292,blue,,,,null,GW/jukebox.jpg,GW/dustpan.jpg,,,,,,,,,,,,
840.7999999523163,,rt_thecrossant_black,911427,black_plus_sign,,,,49,,,1,0.9901960784313726,,,,,,,,,,
null,,color_black,911529,black_plus_sign,,,,null,,,,,,,,,,,,,,
null,,learn_phase(without_color),913531,black_plus_sign,,,,null,GW/barrel.jpg,GW/wheelchair.jpg,,,,,,,,,,,,
null,,black_cross(without_color),914310,blue,,,,null,GW/barrel.jpg,GW/wheelchair.jpg,,,,,,,,,,,,
null,,rt_plussign_withcolor,914811,blue,,,,null,GW/barrel.jpg,GW/wheelchair.jpg,,,,,,,,,,,,
1358.5,,rt_thecrossant_black,916034,black_plus_sign,,,,49,,,1,0.9902912621359223,,,,,,,,,,
null,,color_black,916136,black_plus_sign,,,,null,,,,,,,,,,,,,,
null,,learn_phase(without_color),918138,black_plus_sign,,,,null,GW/wheelchair.jpg,GW/soldier.jpg,,,,,,,,,,,,
null,,black_cross(without_color),918911,blue,,,,null,GW/wheelchair.jpg,GW/soldier.jpg,,,,,,,,,,,,
null,,rt_plussign_withcolor,919413,blue,,,,null,GW/wheelchair.jpg,GW/soldier.jpg,,,,,,,,,,,,
1299.1000000238419,,rt_thecrossant_black,920642,black_plus_sign,,,,49,,,1,0.9903846153846154,,,,,,,,,,
null,,color_black,920743,black_plus_sign,,,,null,,,,,,,,,,,,,,
null,,learn_phase(without_color),922744,black_plus_sign,,,,null,GW/jukebox.jpg,GW/dustpan.jpg,,,,,,,,,,,,
null,,black_cross(without_color),923321,blue,,,,null,GW/jukebox.jpg,GW/dustpan.jpg,,,,,,,,,,,,
null,,rt_plussign_withcolor,923833,blue,,,,null,GW/jukebox.jpg,GW/dustpan.jpg,,,,,,,,,,,,
1536.7999999523163,,rt_thecrossant_black,925260,black_plus_sign,,,,49,,,1,0.9904761904761905,,,,,,,,,,
null,,color_black,925361,black_plus_sign,,,,null,,,,,,,,,,,,,,
null,,learn_phase(without_color),927364,black_plus_sign,,,,null,GW/gong.jpg,GW/soldier.jpg,,,,,,,,,,,,
null,,black_cross(without_color),928368,blue,,,,null,GW/gong.jpg,GW/soldier.jpg,,,,,,,,,,,,
null,,rt_plussign_withcolor,928870,blue,,,,null,GW/gong.jpg,GW/soldier.jpg,,,,,,,,,,,,
910.8999999761581,,rt_thecrossant_black,929881,black_plus_sign,,,,49,,,1,0.9905660377358491,,,,,,,,,,
null,,color_black,929982,black_plus_sign,,,,null,,,,,,,,,,,,,,
null,,learn_phase(without_color),931985,black_plus_sign,,,,null,GW/snail.jpg,GW/gong.jpg,,,,,,,,,,,,
null,,black_cross(without_color),932659,green,,,,null,GW/snail.jpg,GW/gong.jpg,,,,,,,,,,,,
null,,rt_plussign_withcolor,933161,green,,,,null,GW/snail.jpg,GW/gong.jpg,,,,,,,,,,,,
1390.3999999761581,,rt_thecrossant_black,934489,black_plus_sign,,,,50,,,1,0.9906542056074766,,,,,,,,,,
null,,color_black,934591,black_plus_sign,,,,null,,,,,,,,,,,,,,
null,,learn_phase(without_color),936593,black_plus_sign,,,,null,GW/basket.jpg,GW/gong.jpg,,,,,,,,,,,,
null,,black_cross(without_color),937150,green,,,,null,GW/basket.jpg,GW/gong.jpg,,,,,,,,,,,,
null,,rt_plussign_withcolor,937653,green,,,,null,GW/basket.jpg,GW/gong.jpg,,,,,,,,,,,,
1065.8999999761581,,rt_thecrossant_black,939102,black_plus_sign,,,,50,,,1,0.9907407407407407,,,,,,,,,,
null,,color_black,939203,black_plus_sign,,,,null,,,,,,,,,,,,,,
null,,learn_phase(without_color),941205,black_plus_sign,,,,null,GW/paint.jpg,GW/barrel.jpg,,,,,,,,,,,,
null,,black_cross(without_color),941680,green,,,,null,GW/paint.jpg,GW/barrel.jpg,,,,,,,,,,,,
null,,rt_plussign_withcolor,942194,green,,,,null,GW/paint.jpg,GW/barrel.jpg,,,,,,,,,,,,
965.1000000238419,,rt_thecrossant_black,943721,black_plus_sign,,,,50,,,1,0.9908256880733946,,,,,,,,,,
null,,color_black,943822,black_plus_sign,,,,null,,,,,,,,,,,,,,
null,,learn_phase(without_color),945832,black_plus_sign,,,,null,GW/camera.jpg,GW/hat.jpg,,,,,,,,,,,,
null,,black_cross(without_color),946904,green,,,,null,GW/camera.jpg,GW/hat.jpg,,,,,,,,,,,,
null,,rt_plussign_withcolor,947406,green,,,,null,GW/camera.jpg,GW/hat.jpg,,,,,,,,,,,,
906.1000000238419,,rt_thecrossant_black,948337,black_plus_sign,,,,50,,,1,0.990909090909091,,,,,,,,,,
null,,color_black,948438,black_plus_sign,,,,null,,,,,,,,,,,,,,
null,,learn_phase(without_color),950439,black_plus_sign,,,,null,GW/snail.jpg,GW/gong.jpg,,,,,,,,,,,,
null,,black_cross(without_color),951354,green,,,,null,GW/snail.jpg,GW/gong.jpg,,,,,,,,,,,,
null,,rt_plussign_withcolor,951856,green,,,,null,GW/snail.jpg,GW/gong.jpg,,,,,,,,,,,,
1483.8999999761581,,rt_thecrossant_black,952944,black_plus_sign,,,,50,,,1,0.990990990990991,,,,,,,,,,
null,,color_black,953058,black_plus_sign,,,,null,,,,,,,,,,,,,,
null,,learn_phase(without_color),955060,black_plus_sign,,,,null,GW/jukebox.jpg,GW/dustpan.jpg,,,,,,,,,,,,
null,,black_cross(without_color),955721,blue,,,,null,GW/jukebox.jpg,GW/dustpan.jpg,,,,,,,,,,,,
null,,rt_plussign_withcolor,956223,blue,,,,null,GW/jukebox.jpg,GW/dustpan.jpg,,,,,,,,,,,,
1743.9000000953674,,rt_thecrossant_black,957565,black_plus_sign,,,,49,,,1,0.9910714285714286,,,,,,,,,,
null,,color_black,957666,black_plus_sign,,,,null,,,,,,,,,,,,,,
null,,learn_phase(without_color),959668,black_plus_sign,,,,null,GW/jukebox.jpg,GW/globe.jpg,,,,,,,,,,,,
null,,black_cross(without_color),960539,green,,,,null,GW/jukebox.jpg,GW/globe.jpg,,,,,,,,,,,,
null,,rt_plussign_withcolor,961040,green,,,,null,GW/jukebox.jpg,GW/globe.jpg,,,,,,,,,,,,
1226.1999999284744,,rt_thecrossant_black,962171,black_plus_sign,,,,50,,,1,0.9911504424778761,,,,,,,,,,
null,,color_black,962273,black_plus_sign,,,,null,,,,,,,,,,,,,,
null,,learn_phase(without_color),964275,black_plus_sign,,,,null,GW/wheelchair.jpg,GW/snail.jpg,,,,,,,,,,,,
null,,black_cross(without_color),964719,green,,,,null,GW/wheelchair.jpg,GW/snail.jpg,,,,,,,,,,,,
null,,rt_plussign_withcolor,965220,green,,,,null,GW/wheelchair.jpg,GW/snail.jpg,,,,,,,,,,,,
1360.2999999523163,,rt_thecrossant_black,966779,black_plus_sign,,,,50,,,1,0.9912280701754386,,,,,,,,,,
null,,color_black,966879,black_plus_sign,,,,null,,,,,,,,,,,,,,
null,,learn_phase(without_color),968881,black_plus_sign,,,,null,GW/barrel.jpg,GW/jukebox.jpg,,,,,,,,,,,,
null,,black_cross(without_color),969560,green,,,,null,GW/barrel.jpg,GW/jukebox.jpg,,,,,,,,,,,,
null,,rt_plussign_withcolor,970062,green,,,,null,GW/barrel.jpg,GW/jukebox.jpg,,,,,,,,,,,,
882.7999999523163,,rt_thecrossant_black,971386,black_plus_sign,,,,50,,,1,0.991304347826087,,,,,,,,,,
null,,color_black,971488,black_plus_sign,,,,null,,,,,,,,,,,,,,
null,,learn_phase(without_color),973490,black_plus_sign,,,,null,GW/camera.jpg,GW/basket.jpg,,,,,,,,,,,,
null,,black_cross(without_color),974163,green,,,,null,GW/camera.jpg,GW/basket.jpg,,,,,,,,,,,,
null,,rt_plussign_withcolor,974664,green,,,,null,GW/camera.jpg,GW/basket.jpg,,,,,,,,,,,,
1116.1999999284744,,rt_thecrossant_black,975994,black_plus_sign,,,,50,,,1,0.9913793103448276,,,,,,,,,,
null,,color_black,976096,black_plus_sign,,,,null,,,,,,,,,,,,,,
null,,learn_phase(without_color),978097,black_plus_sign,,,,null,GW/camera.jpg,GW/gong.jpg,,,,,,,,,,,,
null,,black_cross(without_color),978499,green,,,,null,GW/camera.jpg,GW/gong.jpg,,,,,,,,,,,,
null,,rt_plussign_withcolor,979000,green,,,,null,GW/camera.jpg,GW/gong.jpg,,,,,,,,,,,,
1125.5,,rt_thecrossant_black,980601,black_plus_sign,,,,50,,,1,0.9914529914529915,,,,,,,,,,
null,,color_black,980703,black_plus_sign,,,,null,,,,,,,,,,,,,,
null,,learn_phase(without_color),982710,black_plus_sign,,,,null,GW/camera.jpg,GW/basket.jpg,,,,,,,,,,,,
null,,black_cross(without_color),983371,green,,,,null,GW/camera.jpg,GW/basket.jpg,,,,,,,,,,,,
null,,rt_plussign_withcolor,983872,green,,,,null,GW/camera.jpg,GW/basket.jpg,,,,,,,,,,,,
847.1000000238419,,rt_thecrossant_black,985213,black_plus_sign,,,,50,,,1,0.9915254237288136,,,,,,,,,,
null,,color_black,985315,black_plus_sign,,,,null,,,,,,,,,,,,,,
null,,learn_phase(without_color),987316,black_plus_sign,,,,null,GW/gong.jpg,GW/soldier.jpg,,,,,,,,,,,,
null,,black_cross(without_color),988313,blue,,,,null,GW/gong.jpg,GW/soldier.jpg,,,,,,,,,,,,
null,,rt_plussign_withcolor,988815,blue,,,,null,GW/gong.jpg,GW/soldier.jpg,,,,,,,,,,,,
1130.6000000238419,,rt_thecrossant_black,989833,black_plus_sign,,,,49,,,1,0.9915966386554622,,,,,,,,,,
null,,color_black,989934,black_plus_sign,,,,null,,,,,,,,,,,,,,
null,,learn_phase(without_color),991936,black_plus_sign,,,,null,GW/wheelchair.jpg,GW/snail.jpg,,,,,,,,,,,,
null,,black_cross(without_color),992662,blue,,,,null,GW/wheelchair.jpg,GW/snail.jpg,,,,,,,,,,,,
null,,rt_plussign_withcolor,993163,blue,,,,null,GW/wheelchair.jpg,GW/snail.jpg,,,,,,,,,,,,
1387.2000000476837,,rt_thecrossant_black,994439,black_plus_sign,,,,49,,,1,0.9916666666666667,,,,,,,,,,
null,,color_black,994540,black_plus_sign,,,,null,,,,,,,,,,,,,,
null,,learn_phase(without_color),996542,black_plus_sign,,,,null,GW/barrel.jpg,GW/wheelchair.jpg,,,,,,,,,,,,
null,,black_cross(without_color),997109,blue,,,,null,GW/barrel.jpg,GW/wheelchair.jpg,,,,,,,,,,,,
null,,rt_plussign_withcolor,997610,blue,,,,null,GW/barrel.jpg,GW/wheelchair.jpg,,,,,,,,,,,,
1000.1999999284744,,rt_thecrossant_black,999047,black_plus_sign,,,,49,,,1,0.9917355371900827,,,,,,,,,,
null,,color_black,999149,black_plus_sign,,,,null,,,,,,,,,,,,,,
null,,learn_phase(without_color),1001150,black_plus_sign,,,,null,GW/barrel.jpg,GW/jukebox.jpg,,,,,,,,,,,,
null,,black_cross(without_color),1001802,blue,,,,null,GW/barrel.jpg,GW/jukebox.jpg,,,,,,,,,,,,
null,,rt_plussign_withcolor,1002304,blue,,,,null,GW/barrel.jpg,GW/jukebox.jpg,,,,,,,,,,,,
1483.2000000476837,,rt_thecrossant_black,1003654,black_plus_sign,,,,49,,,1,0.9918032786885246,,,,,,,,,,
null,,color_black,1003756,black_plus_sign,,,,null,,,,,,,,,,,,,,
null,,learn_phase(without_color),1005757,black_plus_sign,,,,null,GW/jukebox.jpg,GW/dustpan.jpg,,,,,,,,,,,,
null,,black_cross(without_color),1006159,blue,,,,null,GW/jukebox.jpg,GW/dustpan.jpg,,,,,,,,,,,,
null,,rt_plussign_withcolor,1006660,blue,,,,null,GW/jukebox.jpg,GW/dustpan.jpg,,,,,,,,,,,,
964.6000000238419,,rt_thecrossant_black,1008273,black_plus_sign,,,,49,,,1,0.991869918699187,,,,,,,,,,
null,,color_black,1008375,black_plus_sign,,,,null,,,,,,,,,,,,,,
null,,learn_phase(without_color),1010377,black_plus_sign,,,,null,GW/paint.jpg,GW/barrel.jpg,,,,,,,,,,,,
null,,black_cross(without_color),1010993,blue,,,,null,GW/paint.jpg,GW/barrel.jpg,,,,,,,,,,,,
null,,rt_plussign_withcolor,1011494,blue,,,,null,GW/paint.jpg,GW/barrel.jpg,,,,,,,,,,,,
591.6999999284744,,rt_thecrossant_black,1012882,black_plus_sign,,,,49,,,1,0.9919354838709677,,,,,,,,,,
null,,color_black,1012983,black_plus_sign,,,,null,,,,,,,,,,,,,,
null,,learn_phase(without_color),1014984,black_plus_sign,,,,null,GW/camera.jpg,GW/gong.jpg,,,,,,,,,,,,
null,,black_cross(without_color),1015739,green,,,,null,GW/camera.jpg,GW/gong.jpg,,,,,,,,,,,,
null,,rt_plussign_withcolor,1016239,green,,,,null,GW/camera.jpg,GW/gong.jpg,,,,,,,,,,,,
981.7000000476837,,rt_thecrossant_black,1017488,black_plus_sign,,,,50,,,1,0.992,,,,,,,,,,
null,,color_black,1017590,black_plus_sign,,,,null,,,,,,,,,,,,,,
null,,learn_phase(without_color),1019592,black_plus_sign,,,,null,GW/barrel.jpg,GW/wheelchair.jpg,,,,,,,,,,,,
null,,black_cross(without_color),1020286,blue,,,,null,GW/barrel.jpg,GW/wheelchair.jpg,,,,,,,,,,,,
null,,rt_plussign_withcolor,1020788,blue,,,,null,GW/barrel.jpg,GW/wheelchair.jpg,,,,,,,,,,,,
947.4000000953674,,rt_thecrossant_black,1022096,black_plus_sign,,,,49,,,1,0.9920634920634921,,,,,,,,,,
null,,color_black,1022198,black_plus_sign,,,,null,,,,,,,,,,,,,,
null,,learn_phase(without_color),1024199,black_plus_sign,,,,null,GW/gong.jpg,GW/soldier.jpg,,,,,,,,,,,,
null,,black_cross(without_color),1024827,blue,,,,null,GW/gong.jpg,GW/soldier.jpg,,,,,,,,,,,,
null,,rt_plussign_withcolor,1025329,blue,,,,null,GW/gong.jpg,GW/soldier.jpg,,,,,,,,,,,,
1130,,rt_thecrossant_black,1026718,black_plus_sign,,,,49,,,1,0.9921259842519685,,,,,,,,,,
null,,color_black,1026820,black_plus_sign,,,,null,,,,,,,,,,,,,,
null,,learn_phase(without_color),1028822,black_plus_sign,,,,null,GW/barrel.jpg,GW/jukebox.jpg,,,,,,,,,,,,
null,,black_cross(without_color),1029819,blue,,,,null,GW/barrel.jpg,GW/jukebox.jpg,,,,,,,,,,,,
null,,rt_plussign_withcolor,1030320,blue,,,,null,GW/barrel.jpg,GW/jukebox.jpg,,,,,,,,,,,,
897.6999999284744,,rt_thecrossant_black,1031327,black_plus_sign,,,,49,,,1,0.9921875,,,,,,,,,,
null,,color_black,1031428,black_plus_sign,,,,null,,,,,,,,,,,,,,
23149.299999952316,,intro_1,1054578,instruct,,0,Start,,,,,,,,,,,,,,,
3566.899999976158,,directmemory_phase,1058146,GW/snail.jpg,,,,49,,,1,1,GW/camera.jpg,GW/paint.jpg,GW/barrel.jpg,GW/camera.jpg,GW/barrel.jpg,GW/paint.jpg,1,,,
null,,html-keyboard-response,1059148,<p></p>,,,,null,,,,,,,,,,,,,,
2941.600000023842,,directmemory_phase,1062091,GW/globe.jpg,,,,51,,,1,1,GW/teeth.jpg,GW/wheelchair.jpg,GW/soldier.jpg,GW/soldier.jpg,GW/wheelchair.jpg,GW/teeth.jpg,1,,,
null,,html-keyboard-response,1063092,<p></p>,,,,null,,,,,,,,,,,,,,
2878.1999999284744,,directmemory_phase,1065971,GW/gong.jpg,,,,51,,,1,1,GW/jukebox.jpg,GW/teeth.jpg,GW/camera.jpg,GW/camera.jpg,GW/teeth.jpg,GW/jukebox.jpg,1,,,
null,,html-keyboard-response,1066973,<p></p>,,,,null,,,,,,,,,,,,,,
1812.2999999523163,,directmemory_phase,1068786,GW/basket.jpg,,,,50,,,1,1,GW/hat.jpg,GW/teeth.jpg,GW/globe.jpg,GW/teeth.jpg,GW/hat.jpg,GW/globe.jpg,1,,,
null,,html-keyboard-response,1069787,<p></p>,,,,null,,,,,,,,,,,,,,
2622.1999999284744,,directmemory_phase,1072410,GW/gong.jpg,,,,49,,,1,1,GW/soldier.jpg,GW/paint.jpg,GW/globe.jpg,GW/soldier.jpg,GW/globe.jpg,GW/paint.jpg,1,,,
null,,html-keyboard-response,1073412,<p></p>,,,,null,,,,,,,,,,,,,,
2101.899999976158,,directmemory_phase,1075515,GW/paint.jpg,,,,51,,,1,1,GW/globe.jpg,GW/wheelchair.jpg,GW/barrel.jpg,GW/barrel.jpg,GW/wheelchair.jpg,GW/globe.jpg,1,,,
null,,html-keyboard-response,1076516,<p></p>,,,,null,,,,,,,,,,,,,,
4853.699999928474,,directmemory_phase,1081371,GW/gong.jpg,,,,50,,,1,1,GW/globe.jpg,GW/basket.jpg,GW/jukebox.jpg,GW/basket.jpg,GW/globe.jpg,GW/jukebox.jpg,1,,,
null,,html-keyboard-response,1082372,<p></p>,,,,null,,,,,,,,,,,,,,
1677.7000000476837,,directmemory_phase,1084051,GW/snail.jpg,,,,51,,,1,1,GW/jukebox.jpg,GW/barrel.jpg,GW/wheelchair.jpg,GW/wheelchair.jpg,GW/barrel.jpg,GW/jukebox.jpg,1,,,
null,,html-keyboard-response,1085051,<p></p>,,,,null,,,,,,,,,,,,,,
1350.7000000476837,,directmemory_phase,1086403,GW/hat.jpg,,,,51,,,1,1,GW/globe.jpg,GW/snail.jpg,GW/camera.jpg,GW/camera.jpg,GW/snail.jpg,GW/globe.jpg,1,,,
null,,html-keyboard-response,1087415,<p></p>,,,,null,,,,,,,,,,,,,,
2722.399999976158,,directmemory_phase,1090139,GW/soldier.jpg,,,,51,,,1,1,GW/hat.jpg,GW/barrel.jpg,GW/gong.jpg,GW/gong.jpg,GW/barrel.jpg,GW/hat.jpg,1,,,
null,,html-keyboard-response,1091140,<p></p>,,,,null,,,,,,,,,,,,,,
3469.9000000953674,,directmemory_phase,1094611,GW/globe.jpg,,,,49,,,1,1,GW/jukebox.jpg,GW/teeth.jpg,GW/barrel.jpg,GW/jukebox.jpg,GW/barrel.jpg,GW/teeth.jpg,1,,,
null,,html-keyboard-response,1095612,<p></p>,,,,null,,,,,,,,,,,,,,
1597.3999999761581,,directmemory_phase,1097210,GW/wheelchair.jpg,,,,51,,,1,1,GW/dustpan.jpg,GW/gong.jpg,GW/soldier.jpg,GW/soldier.jpg,GW/gong.jpg,GW/dustpan.jpg,1,,,
null,,html-keyboard-response,1098212,<p></p>,,,,null,,,,,,,,,,,,,,
2509.600000023842,,directmemory_phase,1100723,GW/gong.jpg,,,,51,,,1,1,GW/paint.jpg,GW/hat.jpg,GW/snail.jpg,GW/snail.jpg,GW/hat.jpg,GW/paint.jpg,1,,,
null,,html-keyboard-response,1101724,<p></p>,,,,null,,,,,,,,,,,,,,
3749.7999999523163,,directmemory_phase,1105475,GW/barrel.jpg,,,,50,,,1,1,GW/soldier.jpg,GW/wheelchair.jpg,GW/hat.jpg,GW/wheelchair.jpg,GW/soldier.jpg,GW/hat.jpg,1,,,
null,,html-keyboard-response,1106490,<p></p>,,,,null,,,,,,,,,,,,,,
3087.7999999523163,,directmemory_phase,1109578,GW/soldier.jpg,,,,49,,,1,1,GW/globe.jpg,GW/paint.jpg,GW/jukebox.jpg,GW/globe.jpg,GW/jukebox.jpg,GW/paint.jpg,1,,,
null,,html-keyboard-response,1110590,<p></p>,,,,null,,,,,,,,,,,,,,
1595.7999999523163,,directmemory_phase,1112186,GW/dustpan.jpg,,,,51,,,1,1,GW/gong.jpg,GW/barrel.jpg,GW/jukebox.jpg,GW/jukebox.jpg,GW/barrel.jpg,GW/gong.jpg,1,,,
null,,html-keyboard-response,1113187,<p></p>,,,,null,,,,,,,,,,,,,,
2551,,directmemory_phase,1115739,GW/soldier.jpg,,,,49,,,1,1,GW/wheelchair.jpg,GW/dustpan.jpg,GW/barrel.jpg,GW/wheelchair.jpg,GW/barrel.jpg,GW/dustpan.jpg,1,,,
null,,html-keyboard-response,1116740,<p></p>,,,,null,,,,,,,,,,,,,,
2782.100000023842,,directmemory_phase,1119523,GW/basket.jpg,,,,51,,,1,1,GW/jukebox.jpg,GW/soldier.jpg,GW/gong.jpg,GW/gong.jpg,GW/soldier.jpg,GW/jukebox.jpg,1,,,
null,,html-keyboard-response,1120524,<p></p>,,,,null,,,,,,,,,,,,,,
3181.1999999284744,,directmemory_phase,1123706,GW/wheelchair.jpg,,,,51,,,1,1,GW/hat.jpg,GW/camera.jpg,GW/barrel.jpg,GW/barrel.jpg,GW/camera.jpg,GW/hat.jpg,1,,,
null,,html-keyboard-response,1124709,<p></p>,,,,null,,,,,,,,,,,,,,
6013,,directmemory_phase,1130723,GW/camera.jpg,,,,50,,,1,1,GW/soldier.jpg,GW/hat.jpg,GW/globe.jpg,GW/hat.jpg,GW/soldier.jpg,GW/globe.jpg,1,,,
null,,html-keyboard-response,1131725,<p></p>,,,,null,,,,,,,,,,,,,,
2484.2999999523163,,directmemory_phase,1134210,GW/teeth.jpg,,,,51,,,1,1,GW/snail.jpg,GW/gong.jpg,GW/basket.jpg,GW/basket.jpg,GW/gong.jpg,GW/snail.jpg,1,,,
null,,html-keyboard-response,1135212,<p></p>,,,,null,,,,,,,,,,,,,,
2957.5999999046326,,directmemory_phase,1138170,GW/barrel.jpg,,,,51,,,1,1,GW/camera.jpg,GW/soldier.jpg,GW/jukebox.jpg,GW/jukebox.jpg,GW/soldier.jpg,GW/camera.jpg,1,,,
null,,html-keyboard-response,1139172,<p></p>,,,,null,,,,,,,,,,,,,,
1854,,directmemory_phase,1141027,GW/wheelchair.jpg,,,,50,,,1,1,GW/gong.jpg,GW/snail.jpg,GW/teeth.jpg,GW/snail.jpg,GW/gong.jpg,GW/teeth.jpg,1,,,
null,,html-keyboard-response,1142030,<p></p>,,,,null,,,,,,,,,,,,,,
5388.100000023842,,directmemory_phase,1147418,GW/jukebox.jpg,,,,50,,,1,1,GW/wheelchair.jpg,GW/barrel.jpg,GW/gong.jpg,GW/barrel.jpg,GW/wheelchair.jpg,GW/gong.jpg,1,,,
null,,html-keyboard-response,1148419,<p></p>,,,,null,,,,,,,,,,,,,,
1950.6000000238419,,directmemory_phase,1150371,GW/camera.jpg,,,,51,,,1,1,GW/globe.jpg,GW/wheelchair.jpg,GW/snail.jpg,GW/snail.jpg,GW/wheelchair.jpg,GW/globe.jpg,1,,,
null,,html-keyboard-response,1151372,<p></p>,,,,null,,,,,,,,,,,,,,
2869.7000000476837,,directmemory_phase,1154243,GW/barrel.jpg,,,,49,,,1,1,GW/paint.jpg,GW/camera.jpg,GW/soldier.jpg,GW/paint.jpg,GW/soldier.jpg,GW/camera.jpg,1,,,
null,,html-keyboard-response,1155244,<p></p>,,,,null,,,,,,,,,,,,,,
null,,directmemory_phase,1161746,GW/camera.jpg,,,,null,,,0,0.9629629629629629,GW/barrel.jpg,GW/teeth.jpg,GW/basket.jpg,GW/basket.jpg,GW/teeth.jpg,GW/barrel.jpg,0,,,
null,,html-keyboard-response,1162749,<p></p>,,,,null,,,,,,,,,,,,,,
3485.399999976158,,directmemory_phase,1166235,GW/jukebox.jpg,,,,51,,,1,0.9642857142857143,GW/camera.jpg,GW/paint.jpg,GW/globe.jpg,GW/globe.jpg,GW/paint.jpg,GW/camera.jpg,1,,,
null,,html-keyboard-response,1167237,<p></p>,,,,null,,,,,,,,,,,,,,
3892.399999976158,,directmemory_phase,1171130,GW/camera.jpg,,,,49,,,0,0.9310344827586207,GW/wheelchair.jpg,GW/gong.jpg,GW/paint.jpg,GW/gong.jpg,GW/wheelchair.jpg,GW/paint.jpg,0.5,closer,,
null,,html-keyboard-response,1172132,<p></p>,,,,null,,,,,,,,,,,,,,
1333.8999999761581,,directmemory_phase,1173466,GW/jukebox.jpg,,,,50,,,1,0.9333333333333333,GW/paint.jpg,GW/dustpan.jpg,GW/snail.jpg,GW/dustpan.jpg,GW/paint.jpg,GW/snail.jpg,1,,,
null,,html-keyboard-response,1174469,<p></p>,,,,null,,,,,,,,,,,,,,
2708.600000023842,,directmemory_phase,1177179,GW/basket.jpg,,,,51,,,1,0.9354838709677419,GW/globe.jpg,GW/soldier.jpg,GW/camera.jpg,GW/camera.jpg,GW/soldier.jpg,GW/globe.jpg,1,,,
null,,html-keyboard-response,1178180,<p></p>,,,,null,,,,,,,,,,,,,,
2862.2000000476837,,directmemory_phase,1181043,GW/snail.jpg,,,,51,,,1,0.9375,GW/paint.jpg,GW/barrel.jpg,GW/gong.jpg,GW/gong.jpg,GW/barrel.jpg,GW/paint.jpg,1,,,
null,,html-keyboard-response,1182045,<p></p>,,,,null,,,,,,,,,,,,,,
26644.5,,intro_1,1208690,instruct,,0,,,,,,,,,,,,,,,,
8567,,intro_2,1217259,instruct,,1,Next,,,,,,,,,,,,,,,
5510.799999952316,,intro_3,1222771,instruct,,1,Next,,,,,,,,,,,,,,,
6838.899999976158,,intro_4,1229611,instruct,,1,Next,,,,,,,,,,,,,,,
38446.699999928474,,intro_5,1268059,instruct,,1,Next,,,,,,,,,,,,,,,
21959,,intro_6,1290019,instruct,,1,Next,,,,,,,,,,,,,,,
32974.700000047684,,intro_7,1322995,instruct,,1,Next,,,,,,,,,,,,,,,
6486.799999952316,,intro_8,1329483,instruct,,1,Next,,,,,,,,,,,,,,,
6606.700000047684,,shortestpath_phase,1336091,GW/teeth.jpg,,,,49,GW/barrel.jpg,GW/dustpan.jpg,1,1,,,,GW/barrel.jpg,,,,,One Edge Diff,Five Edge Six Edge
null,,html-keyboard-response,1337092,<p></p>,,,,null,,,,,,,,,,,,,,
2589.7999999523163,,shortestpath_phase,1339683,GW/snail.jpg,,,,50,GW/jukebox.jpg,GW/hat.jpg,1,1,,,,GW/hat.jpg,,,,,One Edge Diff,Two Edge Three Edge
null,,html-keyboard-response,1340685,<p></p>,,,,null,,,,,,,,,,,,,,
6492.600000023842,,shortestpath_phase,1347178,GW/dustpan.jpg,,,,50,GW/hat.jpg,GW/basket.jpg,1,1,,,,GW/basket.jpg,,,,,One Edge Diff,Five Edge Six Edge
null,,html-keyboard-response,1348179,<p></p>,,,,null,,,,,,,,,,,,,,
6358.5,,shortestpath_phase,1354539,GW/teeth.jpg,,,,49,GW/wheelchair.jpg,GW/barrel.jpg,1,1,,,,GW/wheelchair.jpg,,,,,One Edge Diff,Four Edge Five Edge
null,,html-keyboard-response,1355543,<p></p>,,,,null,,,,,,,,,,,,,,
6315.299999952316,,shortestpath_phase,1361859,GW/gong.jpg,,,,50,GW/globe.jpg,GW/jukebox.jpg,0,0.8,,,,GW/globe.jpg,,,,,One Edge Diff,Two Edge Three Edge
null,,html-keyboard-response,1362861,<p></p>,,,,null,,,,,,,,,,,,,,
2525.100000023842,,shortestpath_phase,1365387,GW/dustpan.jpg,,,,49,GW/barrel.jpg,GW/teeth.jpg,1,0.8333333333333334,,,,GW/barrel.jpg,,,,,Four Edge Diff,Two Edge Six Edge
null,,html-keyboard-response,1366389,<p></p>,,,,null,,,,,,,,,,,,,,
3500.7999999523163,,shortestpath_phase,1369891,GW/teeth.jpg,,,,50,GW/jukebox.jpg,GW/gong.jpg,1,0.8571428571428571,,,,GW/gong.jpg,,,,,Three Edge Diff,Three Edge Six Edge
null,,html-keyboard-response,1370892,<p></p>,,,,null,,,,,,,,,,,,,,
3149.600000023842,,shortestpath_phase,1374043,GW/paint.jpg,,,,50,GW/snail.jpg,GW/wheelchair.jpg,1,0.875,,,,GW/wheelchair.jpg,,,,,One Edge Diff,Two Edge Three Edge
null,,html-keyboard-response,1375044,<p></p>,,,,null,,,,,,,,,,,,,,
6390,,shortestpath_phase,1381435,GW/dustpan.jpg,,,,49,GW/snail.jpg,GW/teeth.jpg,1,0.8888888888888888,,,,GW/snail.jpg,,,,,Two Edge Diff,Four Edge Six Edge
null,,html-keyboard-response,1382436,<p></p>,,,,null,,,,,,,,,,,,,,
4541.900000095367,,shortestpath_phase,1386979,GW/teeth.jpg,,,,50,GW/snail.jpg,GW/gong.jpg,1,0.9,,,,GW/gong.jpg,,,,,One Edge Diff,Two Edge Three Edge
null,,html-keyboard-response,1387980,<p></p>,,,,null,,,,,,,,,,,,,,
4181.899999976158,,shortestpath_phase,1392163,GW/dustpan.jpg,,,,49,GW/barrel.jpg,GW/basket.jpg,1,0.9090909090909091,,,,GW/barrel.jpg,,,,,Three Edge Diff,Two Edge Five Edge
null,,html-keyboard-response,1393163,<p></p>,,,,null,,,,,,,,,,,,,,
7254.599999904633,,shortestpath_phase,1400419,GW/paint.jpg,,,,49,GW/gong.jpg,GW/basket.jpg,1,0.9166666666666666,,,,GW/gong.jpg,,,,,One Edge Diff,Four Edge Five Edge
null,,html-keyboard-response,1401421,<p></p>,,,,null,,,,,,,,,,,,,,
7332.799999952316,,shortestpath_phase,1408754,GW/dustpan.jpg,,,,49,GW/basket.jpg,GW/teeth.jpg,1,0.9230769230769231,,,,GW/basket.jpg,,,,,One Edge Diff,Five Edge Six Edge
null,,html-keyboard-response,1409756,<p></p>,,,,null,,,,,,,,,,,,,,
4077.600000023842,,shortestpath_phase,1413834,GW/paint.jpg,,,,50,GW/teeth.jpg,GW/gong.jpg,1,0.9285714285714286,,,,GW/gong.jpg,,,,,Two Edge Diff,Four Edge Six Edge
null,,html-keyboard-response,1414837,<p></p>,,,,null,,,,,,,,,,,,,,
5236.799999952316,,shortestpath_phase,1420074,GW/hat.jpg,,,,49,GW/basket.jpg,GW/dustpan.jpg,1,0.9333333333333333,,,,GW/basket.jpg,,,,,Four Edge Diff,Two Edge Six Edge
null,,html-keyboard-response,1421077,<p></p>,,,,null,,,,,,,,,,,,,,
3789.399999976158,,shortestpath_phase,1424867,GW/teeth.jpg,,,,49,GW/gong.jpg,GW/barrel.jpg,1,0.9375,,,,GW/gong.jpg,,,,,Three Edge Diff,Three Edge Six Edge
null,,html-keyboard-response,1425870,<p></p>,,,,null,,,,,,,,,,,,,,
6747.799999952316,,shortestpath_phase,1432618,GW/basket.jpg,,,,49,GW/globe.jpg,GW/snail.jpg,0,0.8823529411764706,,,,GW/snail.jpg,,,,,One Edge Diff,Two Edge Three Edge
null,,html-keyboard-response,1433619,<p></p>,,,,null,,,,,,,,,,,,,,
4894.299999952316,,shortestpath_phase,1438515,GW/hat.jpg,,,,50,GW/paint.jpg,GW/gong.jpg,1,0.8888888888888888,,,,GW/gong.jpg,,,,,Three Edge Diff,Two Edge Five Edge
null,,html-keyboard-response,1439516,<p></p>,,,,null,,,,,,,,,,,,,,
4493.800000071526,,shortestpath_phase,1444011,GW/basket.jpg,,,,49,GW/snail.jpg,GW/paint.jpg,1,0.8947368421052632,,,,GW/snail.jpg,,,,,Three Edge Diff,Three Edge Six Edge
null,,html-keyboard-response,1445014,<p></p>,,,,null,,,,,,,,,,,,,,
2076.100000023842,,shortestpath_phase,1447091,GW/paint.jpg,,,,49,GW/wheelchair.jpg,GW/gong.jpg,1,0.9,,,,GW/wheelchair.jpg,,,,,Two Edge Diff,Two Edge Four Edge
null,,html-keyboard-response,1448091,<p></p>,,,,null,,,,,,,,,,,,,,
3710.6999999284744,,shortestpath_phase,1451803,GW/dustpan.jpg,,,,50,GW/hat.jpg,GW/gong.jpg,1,0.9047619047619048,,,,GW/gong.jpg,,,,,Two Edge Diff,Four Edge Six Edge
null,,html-keyboard-response,1452805,<p></p>,,,,null,,,,,,,,,,,,,,
3228.5,,shortestpath_phase,1456035,GW/camera.jpg,,,,50,GW/jukebox.jpg,GW/soldier.jpg,1,0.9090909090909091,,,,GW/soldier.jpg,,,,,Two Edge Diff,Two Edge Four Edge
null,,html-keyboard-response,1457048,<p></p>,,,,null,,,,,,,,,,,,,,
2698.2000000476837,,shortestpath_phase,1459747,GW/paint.jpg,,,,50,GW/teeth.jpg,GW/jukebox.jpg,1,0.9130434782608695,,,,GW/jukebox.jpg,,,,,Four Edge Diff,Two Edge Six Edge
null,,html-keyboard-response,1460748,<p></p>,,,,null,,,,,,,,,,,,,,
4286.100000023842,,shortestpath_phase,1465035,GW/teeth.jpg,,,,50,GW/wheelchair.jpg,GW/soldier.jpg,1,0.9166666666666666,,,,GW/soldier.jpg,,,,,One Edge Diff,Three Edge Four Edge
null,,html-keyboard-response,1466036,<p></p>,,,,null,,,,,,,,,,,,,,
5141.799999952316,,shortestpath_phase,1471179,GW/paint.jpg,,,,49,GW/camera.jpg,GW/basket.jpg,1,0.92,,,,GW/camera.jpg,,,,,One Edge Diff,Four Edge Five Edge
null,,html-keyboard-response,1472180,<p></p>,,,,null,,,,,,,,,,,,,,
6061.200000047684,,shortestpath_phase,1478243,GW/dustpan.jpg,,,,50,GW/hat.jpg,GW/snail.jpg,1,0.9230769230769231,,,,GW/snail.jpg,,,,,Two Edge Diff,Four Edge Six Edge
null,,html-keyboard-response,1479244,<p></p>,,,,null,,,,,,,,,,,,,,
2230.399999976158,,shortestpath_phase,1481475,GW/paint.jpg,,,,49,GW/jukebox.jpg,GW/hat.jpg,1,0.9259259259259259,,,,GW/jukebox.jpg,,,,,Three Edge Diff,Two Edge Five Edge
null,,html-keyboard-response,1482477,<p></p>,,,,null,,,,,,,,,,,,,,
3988.8000000715256,,shortestpath_phase,1486467,GW/dustpan.jpg,,,,50,GW/hat.jpg,GW/barrel.jpg,1,0.9285714285714286,,,,GW/barrel.jpg,,,,,Four Edge Diff,Two Edge Six Edge
null,,html-keyboard-response,1487468,<p></p>,,,,null,,,,,,,,,,,,,,
3565.6999999284744,,shortestpath_phase,1491035,GW/jukebox.jpg,,,,49,GW/basket.jpg,GW/hat.jpg,1,0.9310344827586207,,,,GW/basket.jpg,,,,,One Edge Diff,Four Edge Five Edge
null,,html-keyboard-response,1492037,<p></p>,,,,null,,,,,,,,,,,,,,
5468.600000023842,,shortestpath_phase,1497506,GW/dustpan.jpg,,,,49,GW/basket.jpg,GW/paint.jpg,0,0.9,,,,GW/paint.jpg,,,,,Two Edge Diff,Three Edge Five Edge
null,,html-keyboard-response,1498509,<p></p>,,,,null,,,,,,,,,,,,,,
3684.600000023842,,shortestpath_phase,1502195,GW/jukebox.jpg,,,,50,GW/teeth.jpg,GW/camera.jpg,1,0.9032258064516129,,,,GW/camera.jpg,,,,,One Edge Diff,Four Edge Five Edge
null,,html-keyboard-response,1503196,<p></p>,,,,null,,,,,,,,,,,,,,
4742.5,,shortestpath_phase,1507939,GW/paint.jpg,,,,49,GW/hat.jpg,GW/teeth.jpg,1,0.90625,,,,GW/hat.jpg,,,,,One Edge Diff,Five Edge Six Edge
null,,html-keyboard-response,1508940,<p></p>,,,,null,,,,,,,,,,,,,,
2613.9000000953674,,shortestpath_phase,1511555,GW/dustpan.jpg,,,,49,GW/camera.jpg,GW/teeth.jpg,1,0.9090909090909091,,,,GW/camera.jpg,,,,,One Edge Diff,Five Edge Six Edge
null,,html-keyboard-response,1512556,<p></p>,,,,null,,,,,,,,,,,,,,
1933.8000000715256,,shortestpath_phase,1514491,GW/paint.jpg,,,,50,GW/hat.jpg,GW/gong.jpg,1,0.9117647058823529,,,,GW/gong.jpg,,,,,One Edge Diff,Four Edge Five Edge
null,,html-keyboard-response,1515492,<p></p>,,,,null,,,,,,,,,,,,,,
4741.600000023842,,shortestpath_phase,1520235,GW/camera.jpg,,,,50,GW/dustpan.jpg,GW/soldier.jpg,1,0.9142857142857143,,,,GW/soldier.jpg,,,,,Three Edge Diff,Two Edge Five Edge
null,,html-keyboard-response,1521250,<p></p>,,,,null,,,,,,,,,,,,,,
4632.600000023842,,shortestpath_phase,1525883,GW/jukebox.jpg,,,,49,GW/paint.jpg,GW/teeth.jpg,1,0.9166666666666666,,,,GW/paint.jpg,,,,,Three Edge Diff,Two Edge Five Edge
null,,html-keyboard-response,1526885,<p></p>,,,,null,,,,,,,,,,,,,,
5149.299999952316,,shortestpath_phase,1532035,GW/hat.jpg,,,,49,GW/barrel.jpg,GW/dustpan.jpg,1,0.918918918918919,,,,GW/barrel.jpg,,,,,Two Edge Diff,Four Edge Six Edge
null,,html-keyboard-response,1533036,<p></p>,,,,null,,,,,,,,,,,,,,
4525.700000047684,,shortestpath_phase,1537563,GW/paint.jpg,,,,50,GW/camera.jpg,GW/wheelchair.jpg,1,0.9210526315789473,,,,GW/wheelchair.jpg,,,,,Two Edge Diff,Two Edge Four Edge
null,,html-keyboard-response,1538564,<p></p>,,,,null,,,,,,,,,,,,,,
2438.399999976158,,shortestpath_phase,1541003,GW/camera.jpg,,,,49,GW/globe.jpg,GW/teeth.jpg,0,0.8974358974358975,,,,GW/teeth.jpg,,,,,One Edge Diff,Two Edge Three Edge
null,,html-keyboard-response,1542006,<p></p>,,,,null,,,,,,,,,,,,,,
2187.5,,shortestpath_phase,1544194,GW/paint.jpg,,,,50,GW/basket.jpg,GW/globe.jpg,1,0.9,,,,GW/globe.jpg,,,,,Two Edge Diff,Three Edge Five Edge
null,,html-keyboard-response,1545198,<p></p>,,,,null,,,,,,,,,,,,,,
3964.0999999046326,,shortestpath_phase,1549163,GW/basket.jpg,,,,50,GW/paint.jpg,GW/snail.jpg,1,0.9024390243902439,,,,GW/snail.jpg,,,,,Three Edge Diff,Two Edge Five Edge
null,,html-keyboard-response,1550164,<p></p>,,,,null,,,,,,,,,,,,,,
3245.5,,shortestpath_phase,1553410,GW/hat.jpg,,,,49,GW/jukebox.jpg,GW/dustpan.jpg,1,0.9047619047619048,,,,GW/jukebox.jpg,,,,,One Edge Diff,Five Edge Six Edge
null,,html-keyboard-response,1554413,<p></p>,,,,null,,,,,,,,,,,,,,
3412.600000023842,,shortestpath_phase,1557826,GW/basket.jpg,,,,50,GW/paint.jpg,GW/soldier.jpg,1,0.9069767441860465,,,,GW/soldier.jpg,,,,,Three Edge Diff,Three Edge Six Edge
null,,html-keyboard-response,1558828,<p></p>,,,,null,,,,,,,,,,,,,,
3598,,shortestpath_phase,1562427,GW/dustpan.jpg,,,,49,GW/snail.jpg,GW/wheelchair.jpg,0,0.8863636363636364,,,,GW/wheelchair.jpg,,,,,One Edge Diff,Three Edge Four Edge
null,,html-keyboard-response,1563428,<p></p>,,,,null,,,,,,,,,,,,,,
2981.899999976158,,shortestpath_phase,1566411,GW/barrel.jpg,,,,49,GW/gong.jpg,GW/teeth.jpg,1,0.8888888888888888,,,,GW/gong.jpg,,,,,Two Edge Diff,Three Edge Five Edge
null,,html-keyboard-response,1567413,<p></p>,,,,null,,,,,,,,,,,,,,
5581.400000095367,,shortestpath_phase,1572995,GW/wheelchair.jpg,,,,50,GW/teeth.jpg,GW/globe.jpg,1,0.8913043478260869,,,,GW/globe.jpg,,,,,Two Edge Diff,Two Edge Four Edge
null,,html-keyboard-response,1573996,<p></p>,,,,null,,,,,,,,,,,,,,
5518,,shortestpath_phase,1579515,GW/snail.jpg,,,,49,GW/jukebox.jpg,GW/soldier.jpg,0,0.8723404255319149,,,,GW/soldier.jpg,,,,,One Edge Diff,Two Edge Three Edge
null,,html-keyboard-response,1580516,<p></p>,,,,null,,,,,,,,,,,,,,
1589.3999999761581,,shortestpath_phase,1582107,GW/camera.jpg,,,,50,GW/dustpan.jpg,GW/globe.jpg,1,0.875,,,,GW/globe.jpg,,,,,Two Edge Diff,Three Edge Five Edge
null,,html-keyboard-response,1583108,<p></p>,,,,null,,,,,,,,,,,,,,
5701.899999976158,,shortestpath_phase,1588811,GW/dustpan.jpg,,,,50,GW/teeth.jpg,GW/gong.jpg,1,0.8775510204081632,,,,GW/gong.jpg,,,,,Two Edge Diff,Four Edge Six Edge
null,,html-keyboard-response,1589812,<p></p>,,,,null,,,,,,,,,,,,,,
6621.899999976158,,shortestpath_phase,1596435,GW/basket.jpg,,,,50,GW/jukebox.jpg,GW/globe.jpg,1,0.88,,,,GW/globe.jpg,,,,,One Edge Diff,Three Edge Four Edge
null,,html-keyboard-response,1597436,<p></p>,,,,null,,,,,,,,,,,,,,
2126.3000000715256,,shortestpath_phase,1599563,GW/teeth.jpg,,,,50,GW/paint.jpg,GW/wheelchair.jpg,1,0.8823529411764706,,,,GW/wheelchair.jpg,,,,,Two Edge Diff,Four Edge Six Edge
null,,html-keyboard-response,1600565,<p></p>,,,,null,,,,,,,,,,,,,,
2508.2999999523163,,shortestpath_phase,1603074,GW/globe.jpg,,,,49,GW/hat.jpg,GW/paint.jpg,0,0.8653846153846154,,,,GW/paint.jpg,,,,,One Edge Diff,Three Edge Four Edge
null,,html-keyboard-response,1604076,<p></p>,,,,null,,,,,,,,,,,,,,
4854,,shortestpath_phase,1608931,GW/hat.jpg,,,,49,GW/soldier.jpg,GW/jukebox.jpg,1,0.8679245283018868,,,,GW/soldier.jpg,,,,,Two Edge Diff,Three Edge Five Edge
null,,html-keyboard-response,1609932,<p></p>,,,,null,,,,,,,,,,,,,,
2293.6999999284744,,shortestpath_phase,1612226,GW/paint.jpg,,,,49,GW/wheelchair.jpg,GW/teeth.jpg,1,0.8703703703703703,,,,GW/wheelchair.jpg,,,,,Four Edge Diff,Two Edge Six Edge
null,,html-keyboard-response,1613228,<p></p>,,,,null,,,,,,,,,,,,,,
2910.100000023842,,shortestpath_phase,1616139,GW/hat.jpg,,,,49,GW/jukebox.jpg,GW/globe.jpg,0,0.8545454545454545,,,,GW/globe.jpg,,,,,One Edge Diff,Four Edge Five Edge
null,,html-keyboard-response,1617140,<p></p>,,,,null,,,,,,,,,,,,,,
3021.6999999284744,,shortestpath_phase,1620163,GW/paint.jpg,,,,50,GW/teeth.jpg,GW/camera.jpg,1,0.8571428571428571,,,,GW/camera.jpg,,,,,Two Edge Diff,Four Edge Six Edge
null,,html-keyboard-response,1621164,<p></p>,,,,null,,,,,,,,,,,,,,
5653.799999952316,,shortestpath_phase,1626819,GW/dustpan.jpg,,,,49,GW/globe.jpg,GW/basket.jpg,1,0.8596491228070176,,,,GW/globe.jpg,,,,,Three Edge Diff,Three Edge Six Edge
null,,html-keyboard-response,1627821,<p></p>,,,,null,,,,,,,,,,,,,,
4972.199999928474,,shortestpath_phase,1632794,GW/paint.jpg,,,,49,GW/basket.jpg,GW/teeth.jpg,1,0.8620689655172413,,,,GW/basket.jpg,,,,,One Edge Diff,Five Edge Six Edge
null,,html-keyboard-response,1633796,<p></p>,,,,null,,,,,,,,,,,,,,
2373.8000000715256,,shortestpath_phase,1636171,GW/dustpan.jpg,,,,49,GW/globe.jpg,GW/teeth.jpg,1,0.864406779661017,,,,GW/globe.jpg,,,,,Four Edge Diff,Two Edge Six Edge
null,,html-keyboard-response,1637174,<p></p>,,,,null,,,,,,,,,,,,,,
2996.7000000476837,,shortestpath_phase,1640171,GW/barrel.jpg,,,,49,GW/camera.jpg,GW/hat.jpg,1,0.8666666666666667,,,,GW/camera.jpg,,,,,One Edge Diff,Three Edge Four Edge
null,,html-keyboard-response,1641173,<p></p>,,,,null,,,,,,,,,,,,,,
4125.200000047684,,shortestpath_phase,1645299,GW/wheelchair.jpg,,,,50,GW/teeth.jpg,GW/hat.jpg,1,0.8688524590163934,,,,GW/hat.jpg,,,,,One Edge Diff,Three Edge Four Edge
null,,html-keyboard-response,1646300,<p></p>,,,,null,,,,,,,,,,,,,,
4798.100000023842,,shortestpath_phase,1651099,GW/globe.jpg,,,,50,GW/barrel.jpg,GW/camera.jpg,0,0.8548387096774194,,,,GW/barrel.jpg,,,,,One Edge Diff,Two Edge Three Edge
null,,html-keyboard-response,1652100,<p></p>,,,,null,,,,,,,,,,,,,,
5061.299999952316,,shortestpath_phase,1657163,GW/teeth.jpg,,,,49,GW/globe.jpg,GW/hat.jpg,0,0.8412698412698413,,,,GW/hat.jpg,,,,,One Edge Diff,Three Edge Four Edge
null,,html-keyboard-response,1658173,<p></p>,,,,null,,,,,,,,,,,,,,
3284.600000023842,,shortestpath_phase,1661459,GW/paint.jpg,,,,49,GW/wheelchair.jpg,GW/hat.jpg,1,0.84375,,,,GW/wheelchair.jpg,,,,,Three Edge Diff,Two Edge Five Edge
null,,html-keyboard-response,1662460,<p></p>,,,,null,,,,,,,,,,,,,,
2461.899999976158,,shortestpath_phase,1664923,GW/hat.jpg,,,,49,GW/globe.jpg,GW/dustpan.jpg,1,0.8461538461538461,,,,GW/globe.jpg,,,,,Two Edge Diff,Four Edge Six Edge
null,,html-keyboard-response,1665924,<p></p>,,,,null,,,,,,,,,,,,,,
4485.899999976158,,shortestpath_phase,1670411,GW/teeth.jpg,,,,49,GW/snail.jpg,GW/jukebox.jpg,1,0.8484848484848485,,,,GW/snail.jpg,,,,,Two Edge Diff,Three Edge Five Edge
null,,html-keyboard-response,1671412,<p></p>,,,,null,,,,,,,,,,,,,,
3414,,shortestpath_phase,1674827,GW/gong.jpg,,,,49,GW/barrel.jpg,GW/dustpan.jpg,1,0.8507462686567164,,,,GW/barrel.jpg,,,,,One Edge Diff,Three Edge Four Edge
null,,html-keyboard-response,1675828,<p></p>,,,,null,,,,,,,,,,,,,,
4277.399999976158,,shortestpath_phase,1680107,GW/teeth.jpg,,,,50,GW/camera.jpg,GW/jukebox.jpg,0,0.8382352941176471,,,,GW/camera.jpg,,,,,Three Edge Diff,Two Edge Five Edge
null,,html-keyboard-response,1681108,<p></p>,,,,null,,,,,,,,,,,,,,
2085.5,,shortestpath_phase,1683195,GW/dustpan.jpg,,,,50,GW/hat.jpg,GW/globe.jpg,1,0.8405797101449275,,,,GW/globe.jpg,,,,,Four Edge Diff,Two Edge Six Edge
null,,html-keyboard-response,1684205,<p></p>,,,,null,,,,,,,,,,,,,,
3996.899999976158,,shortestpath_phase,1688203,GW/camera.jpg,,,,50,GW/teeth.jpg,GW/dustpan.jpg,0,0.8285714285714286,,,,GW/teeth.jpg,,,,,Three Edge Diff,Two Edge Five Edge
null,,html-keyboard-response,1689204,<p></p>,,,,null,,,,,,,,,,,,,,
3085.5,,shortestpath_phase,1692291,GW/basket.jpg,,,,50,GW/paint.jpg,GW/barrel.jpg,1,0.8309859154929577,,,,GW/barrel.jpg,,,,,One Edge Diff,Four Edge Five Edge
null,,html-keyboard-response,1693291,<p></p>,,,,null,,,,,,,,,,,,,,
2166.5,,shortestpath_phase,1695459,GW/hat.jpg,,,,50,GW/paint.jpg,GW/globe.jpg,1,0.8333333333333334,,,,GW/globe.jpg,,,,,One Edge Diff,Four Edge Five Edge
null,,html-keyboard-response,1696461,<p></p>,,,,null,,,,,,,,,,,,,,
1821.1000000238419,,shortestpath_phase,1698283,GW/jukebox.jpg,,,,50,GW/teeth.jpg,GW/wheelchair.jpg,1,0.8356164383561644,,,,GW/wheelchair.jpg,,,,,Three Edge Diff,Three Edge Six Edge
null,,html-keyboard-response,1699284,<p></p>,,,,null,,,,,,,,,,,,,,
1933.6000000238419,,shortestpath_phase,1701218,GW/hat.jpg,,,,49,GW/snail.jpg,GW/paint.jpg,1,0.8378378378378378,,,,GW/snail.jpg,,,,,Three Edge Diff,Three Edge Six Edge
null,,html-keyboard-response,1702220,<p></p>,,,,null,,,,,,,,,,,,,,
3077.5,,shortestpath_phase,1705299,GW/teeth.jpg,,,,49,GW/barrel.jpg,GW/camera.jpg,0,0.8266666666666667,,,,GW/camera.jpg,,,,,Three Edge Diff,Three Edge Six Edge
null,,html-keyboard-response,1706300,<p></p>,,,,null,,,,,,,,,,,,,,
2525.899999976158,,shortestpath_phase,1708827,GW/hat.jpg,,,,50,GW/paint.jpg,GW/gong.jpg,1,0.8289473684210527,,,,GW/gong.jpg,,,,,Three Edge Diff,Three Edge Six Edge
null,,html-keyboard-response,1709828,<p></p>,,,,null,,,,,,,,,,,,,,
2989.6999999284744,,shortestpath_phase,1712819,GW/dustpan.jpg,,,,49,GW/camera.jpg,GW/hat.jpg,1,0.8311688311688312,,,,GW/camera.jpg,,,,,One Edge Diff,Five Edge Six Edge
null,,html-keyboard-response,1713820,<p></p>,,,,null,,,,,,,,,,,,,,
1398.2999999523163,,shortestpath_phase,1715219,GW/jukebox.jpg,,,,50,GW/teeth.jpg,GW/gong.jpg,1,0.8333333333333334,,,,GW/gong.jpg,,,,,Two Edge Diff,Three Edge Five Edge
null,,html-keyboard-response,1716221,<p></p>,,,,null,,,,,,,,,,,,,,
1973.1000000238419,,shortestpath_phase,1718195,GW/camera.jpg,,,,50,GW/dustpan.jpg,GW/soldier.jpg,1,0.8354430379746836,,,,GW/soldier.jpg,,,,,Three Edge Diff,Three Edge Six Edge
null,,html-keyboard-response,1719197,<p></p>,,,,null,,,,,,,,,,,,,,
2045.0999999046326,,shortestpath_phase,1721243,GW/teeth.jpg,,,,50,GW/paint.jpg,GW/gong.jpg,1,0.8375,,,,GW/gong.jpg,,,,,Four Edge Diff,Two Edge Six Edge
null,,html-keyboard-response,1722245,<p></p>,,,,null,,,,,,,,,,,,,,
1380.7999999523163,,shortestpath_phase,1723626,GW/barrel.jpg,,,,50,GW/teeth.jpg,GW/soldier.jpg,1,0.8395061728395061,,,,GW/soldier.jpg,,,,,Three Edge Diff,Two Edge Five Edge
null,,html-keyboard-response,1724628,<p></p>,,,,null,,,,,,,,,,,,,,
1525.7999999523163,,shortestpath_phase,1726155,GW/teeth.jpg,,,,50,GW/dustpan.jpg,GW/wheelchair.jpg,1,0.8414634146341463,,,,GW/wheelchair.jpg,,,,,Two Edge Diff,Four Edge Six Edge
null,,html-keyboard-response,1727157,<p></p>,,,,null,,,,,,,,,,,,,,
1421.2000000476837,,shortestpath_phase,1728579,GW/dustpan.jpg,,,,49,GW/snail.jpg,GW/paint.jpg,0,0.8313253012048193,,,,GW/paint.jpg,,,,,One Edge Diff,Three Edge Four Edge
null,,html-keyboard-response,1729585,<p></p>,,,,null,,,,,,,,,,,,,,
2185,,shortestpath_phase,1731771,GW/barrel.jpg,,,,49,GW/soldier.jpg,GW/hat.jpg,1,0.8333333333333334,,,,GW/soldier.jpg,,,,,Two Edge Diff,Two Edge Four Edge
null,,html-keyboard-response,1732773,<p></p>,,,,null,,,,,,,,,,,,,,
1404.2999999523163,,shortestpath_phase,1734179,GW/camera.jpg,,,,50,GW/dustpan.jpg,GW/jukebox.jpg,1,0.8352941176470589,,,,GW/jukebox.jpg,,,,,One Edge Diff,Four Edge Five Edge
null,,html-keyboard-response,1735180,<p></p>,,,,null,,,,,,,,,,,,,,
1230.0999999046326,,shortestpath_phase,1736411,GW/basket.jpg,,,,49,GW/globe.jpg,GW/paint.jpg,1,0.8372093023255814,,,,GW/globe.jpg,,,,,Two Edge Diff,Three Edge Five Edge
null,,html-keyboard-response,1737413,<p></p>,,,,null,,,,,,,,,,,,,,
2764.8000000715256,,shortestpath_phase,1740179,GW/barrel.jpg,,,,49,GW/camera.jpg,GW/teeth.jpg,1,0.8390804597701149,,,,GW/camera.jpg,,,,,Two Edge Diff,Three Edge Five Edge
null,,html-keyboard-response,1741183,<p></p>,,,,null,,,,,,,,,,,,,,
1602.7999999523163,,shortestpath_phase,1742787,GW/basket.jpg,,,,50,GW/barrel.jpg,GW/globe.jpg,1,0.8409090909090909,,,,GW/globe.jpg,,,,,One Edge Diff,Three Edge Four Edge
null,,html-keyboard-response,1743788,<p></p>,,,,null,,,,,,,,,,,,,,
4502.200000047684,,shortestpath_phase,1748291,GW/teeth.jpg,,,,49,GW/barrel.jpg,GW/hat.jpg,0,0.8314606741573034,,,,GW/hat.jpg,,,,,Two Edge Diff,Three Edge Five Edge
null,,html-keyboard-response,1749292,<p></p>,,,,null,,,,,,,,,,,,,,
1541.2999999523163,,shortestpath_phase,1750835,GW/barrel.jpg,,,,50,GW/camera.jpg,GW/globe.jpg,1,0.8333333333333334,,,,GW/globe.jpg,,,,,One Edge Diff,Two Edge Three Edge
null,,html-keyboard-response,1751842,<p></p>,,,,null,,,,,,,,,,,,,,
2279.4000000953674,,shortestpath_phase,1754123,GW/hat.jpg,,,,50,GW/jukebox.jpg,GW/gong.jpg,1,0.8351648351648352,,,,GW/gong.jpg,,,,,Three Edge Diff,Three Edge Six Edge
null,,html-keyboard-response,1755124,<p></p>,,,,null,,,,,,,,,,,,,,
1477.8999999761581,,shortestpath_phase,1756603,GW/jukebox.jpg,,,,49,GW/camera.jpg,GW/paint.jpg,0,0.8260869565217391,,,,GW/paint.jpg,,,,,Two Edge Diff,Two Edge Four Edge
null,,html-keyboard-response,1757605,<p></p>,,,,null,,,,,,,,,,,,,,
3509.100000023842,,shortestpath_phase,1761115,GW/hat.jpg,,,,49,GW/barrel.jpg,GW/paint.jpg,1,0.8279569892473119,,,,GW/barrel.jpg,,,,,One Edge Diff,Four Edge Five Edge
null,,html-keyboard-response,1762116,<p></p>,,,,null,,,,,,,,,,,,,,
1998,,shortestpath_phase,1764115,GW/soldier.jpg,,,,50,GW/dustpan.jpg,GW/basket.jpg,1,0.8297872340425532,,,,GW/basket.jpg,,,,,One Edge Diff,Two Edge Three Edge
null,,html-keyboard-response,1765125,<p></p>,,,,null,,,,,,,,,,,,,,
1197.2000000476837,,shortestpath_phase,1766323,GW/teeth.jpg,,,,49,GW/gong.jpg,GW/dustpan.jpg,1,0.8315789473684211,,,,GW/gong.jpg,,,,,Four Edge Diff,Two Edge Six Edge
null,,html-keyboard-response,1767324,<p></p>,,,,null,,,,,,,,,,,,,,
1590.1000000238419,,shortestpath_phase,1768915,GW/basket.jpg,,,,49,GW/hat.jpg,GW/dustpan.jpg,1,0.8333333333333334,,,,GW/hat.jpg,,,,,Three Edge Diff,Two Edge Five Edge
null,,html-keyboard-response,1769924,<p></p>,,,,null,,,,,,,,,,,,,,
3085.7000000476837,,shortestpath_phase,1773011,GW/dustpan.jpg,,,,49,GW/globe.jpg,GW/snail.jpg,1,0.8350515463917526,,,,GW/globe.jpg,,,,,Two Edge Diff,Two Edge Four Edge
null,,html-keyboard-response,1774013,<p></p>,,,,null,,,,,,,,,,,,,,
3884.100000023842,,shortestpath_phase,1777899,GW/jukebox.jpg,,,,49,GW/soldier.jpg,GW/basket.jpg,1,0.8367346938775511,,,,GW/soldier.jpg,,,,,Two Edge Diff,Two Edge Four Edge
null,,html-keyboard-response,1778900,<p></p>,,,,null,,,,,,,,,,,,,,
2141.2999999523163,,shortestpath_phase,1781043,GW/teeth.jpg,,,,49,GW/globe.jpg,GW/jukebox.jpg,1,0.8383838383838383,,,,GW/globe.jpg,,,,,One Edge Diff,Four Edge Five Edge
null,,html-keyboard-response,1782044,<p></p>,,,,null,,,,,,,,,,,,,,
3757.4000000953674,,shortestpath_phase,1785803,GW/hat.jpg,,,,50,GW/paint.jpg,GW/dustpan.jpg,0,0.83,,,,GW/paint.jpg,,,,,One Edge Diff,Five Edge Six Edge
null,,html-keyboard-response,1786805,<p></p>,,,,null,,,,,,,,,,,,,,
3293.1999999284744,,shortestpath_phase,1790099,GW/teeth.jpg,,,,49,GW/gong.jpg,GW/globe.jpg,1,0.8316831683168316,,,,GW/gong.jpg,,,,,Two Edge Diff,Two Edge Four Edge
null,,html-keyboard-response,1791101,<p></p>,,,,null,,,,,,,,,,,,,,
3501.3000000715256,,shortestpath_phase,1794603,GW/hat.jpg,,,,50,GW/dustpan.jpg,GW/snail.jpg,1,0.8333333333333334,,,,GW/snail.jpg,,,,,Four Edge Diff,Two Edge Six Edge
null,,html-keyboard-response,1795606,<p></p>,,,,null,,,,,,,,,,,,,,
2483.5,,shortestpath_phase,1798091,GW/teeth.jpg,,,,50,GW/dustpan.jpg,GW/jukebox.jpg,1,0.8349514563106796,,,,GW/jukebox.jpg,,,,,One Edge Diff,Five Edge Six Edge
null,,html-keyboard-response,1799093,<p></p>,,,,null,,,,,,,,,,,,,,
1876.5,,shortestpath_phase,1800971,GW/hat.jpg,,,,50,GW/dustpan.jpg,GW/gong.jpg,1,0.8365384615384616,,,,GW/gong.jpg,,,,,Four Edge Diff,Two Edge Six Edge
null,,html-keyboard-response,1801974,<p></p>,,,,null,,,,,,,,,,,,,,
1379.5,,shortestpath_phase,1803355,GW/teeth.jpg,,,,49,GW/jukebox.jpg,GW/paint.jpg,1,0.8380952380952381,,,,GW/jukebox.jpg,,,,,One Edge Diff,Five Edge Six Edge
null,,html-keyboard-response,1804359,<p></p>,,,,null,,,,,,,,,,,,,,
1754.6000000238419,,shortestpath_phase,1806115,GW/wheelchair.jpg,,,,49,GW/globe.jpg,GW/dustpan.jpg,1,0.839622641509434,,,,GW/globe.jpg,,,,,One Edge Diff,Two Edge Three Edge
null,,html-keyboard-response,1807116,<p></p>,,,,null,,,,,,,,,,,,,,
1222.2999999523163,,shortestpath_phase,1808339,GW/teeth.jpg,,,,50,GW/paint.jpg,GW/camera.jpg,1,0.8411214953271028,,,,GW/camera.jpg,,,,,Four Edge Diff,Two Edge Six Edge
null,,html-keyboard-response,1809341,<p></p>,,,,null,,,,,,,,,,,,,,
1973.5,,shortestpath_phase,1811315,GW/basket.jpg,,,,50,GW/barrel.jpg,GW/snail.jpg,1,0.8425925925925926,,,,GW/snail.jpg,,,,,Two Edge Diff,Two Edge Four Edge
null,,html-keyboard-response,1812316,<p></p>,,,,null,,,,,,,,,,,,,,
3765.7000000476837,,shortestpath_phase,1816083,GW/gong.jpg,,,,49,GW/teeth.jpg,GW/dustpan.jpg,1,0.8440366972477065,,,,GW/teeth.jpg,,,,,Two Edge Diff,Two Edge Four Edge
null,,html-keyboard-response,1817084,<p></p>,,,,null,,,,,,,,,,,,,,
4134.100000023842,,shortestpath_phase,1821219,GW/globe.jpg,,,,49,GW/basket.jpg,GW/teeth.jpg,1,0.8454545454545455,,,,GW/basket.jpg,,,,,One Edge Diff,Three Edge Four Edge
null,,html-keyboard-response,1822231,<p></p>,,,,null,,,,,,,,,,,,,,
4387.600000023842,,shortestpath_phase,1826619,GW/teeth.jpg,,,,49,GW/camera.jpg,GW/dustpan.jpg,1,0.8468468468468469,,,,GW/camera.jpg,,,,,Four Edge Diff,Two Edge Six Edge
null,,html-keyboard-response,1827621,<p></p>,,,,null,,,,,,,,,,,,,,
3228.4000000953674,,shortestpath_phase,1830851,GW/dustpan.jpg,,,,50,GW/paint.jpg,GW/gong.jpg,0,0.8392857142857143,,,,GW/paint.jpg,,,,,One Edge Diff,Three Edge Four Edge
null,,html-keyboard-response,1831854,<p></p>,,,,null,,,,,,,,,,,,,,
3388,,shortestpath_phase,1835243,GW/teeth.jpg,,,,49,GW/globe.jpg,GW/dustpan.jpg,1,0.8407079646017699,,,,GW/globe.jpg,,,,,Two Edge Diff,Four Edge Six Edge
null,,html-keyboard-response,1836244,<p></p>,,,,null,,,,,,,,,,,,,,
2909.7000000476837,,shortestpath_phase,1839155,GW/hat.jpg,,,,49,GW/wheelchair.jpg,GW/paint.jpg,1,0.8421052631578947,,,,GW/wheelchair.jpg,,,,,Two Edge Diff,Three Edge Five Edge
null,,html-keyboard-response,1840157,<p></p>,,,,null,,,,,,,,,,,,,,
3468.5999999046326,,shortestpath_phase,1843626,GW/teeth.jpg,,,,49,GW/globe.jpg,GW/paint.jpg,1,0.8434782608695652,,,,GW/globe.jpg,,,,,Two Edge Diff,Four Edge Six Edge
null,,html-keyboard-response,1844628,<p></p>,,,,null,,,,,,,,,,,,,,
3333.5,,shortestpath_phase,1847963,GW/basket.jpg,,,,49,GW/soldier.jpg,GW/barrel.jpg,1,0.8448275862068966,,,,GW/soldier.jpg,,,,,Two Edge Diff,Two Edge Four Edge
null,,html-keyboard-response,1848965,<p></p>,,,,null,,,,,,,,,,,,,,
3349.100000023842,,shortestpath_phase,1852315,GW/teeth.jpg,,,,50,GW/paint.jpg,GW/barrel.jpg,1,0.8461538461538461,,,,GW/barrel.jpg,,,,,One Edge Diff,Five Edge Six Edge
null,,html-keyboard-response,1853321,<p></p>,,,,null,,,,,,,,,,,,,,
3080.899999976158,,shortestpath_phase,1856403,GW/hat.jpg,,,,50,GW/gong.jpg,GW/soldier.jpg,0,0.8389830508474576,,,,GW/gong.jpg,,,,,One Edge Diff,Two Edge Three Edge
null,,html-keyboard-response,1857404,<p></p>,,,,null,,,,,,,,,,,,,,
2102.1999999284744,,shortestpath_phase,1859507,GW/teeth.jpg,,,,50,GW/barrel.jpg,GW/soldier.jpg,1,0.8403361344537815,,,,GW/soldier.jpg,,,,,Two Edge Diff,Three Edge Five Edge
null,,html-keyboard-response,1860510,<p></p>,,,,null,,,,,,,,,,,,,,
2443.600000023842,,shortestpath_phase,1862955,GW/hat.jpg,,,,50,GW/paint.jpg,GW/basket.jpg,1,0.8416666666666667,,,,GW/basket.jpg,,,,,Three Edge Diff,Three Edge Six Edge
null,,html-keyboard-response,1863972,<p></p>,,,,null,,,,,,,,,,,,,,
2109.7999999523163,,shortestpath_phase,1866083,,,,,50,,,1,0.8429752066115702,,,,,,,,,Three Edge Diff,Two Edge Five Edge
null,,html-keyboard-response,1867085,<p></p>,,,,null,,,,,,,,,,,,,,
19860.600000023842,,intro_1,1886947,instruct,,0,,,,,,,,,,,,,,,,
19838.5,,intro_2,1906787,instruct,,1,Next,,,,,,,,,,,,,,,
4559.099999904633,,intro_3,1911347,instruct,,1,Next,,,,,,,,,,,,,,,
