rt,responses,trial_type,time_elapsed,stimulus,graphorder,button_pressed,response,key_press,stimulus_left,stimulus_right,accuracy,cumulative_accuracy,stimulus_down_left,stimulus_down_mid,stimulus_down_right,stimulus_correct,stimulus_short,stimulus_far,weighted_accuracy,missedtrial,condition,specific_pairs
20623.40000000596,{worker_id:66a02d45a7db35d93c9f6a81},id_enter,20627,id_enter,GW/teeth.jpg; GW/wheelchair.jpg; GW/barrel.jpg; GW/hat.jpg; GW/jukebox.jpg; GW/paint.jpg; GW/basket.jpg; GW/snail.jpg; GW/gong.jpg; GW/globe.jpg; GW/dustpan.jpg; GW/soldier.jpg; GW/camera.jpg,,,,,,,,,,,,,,,,,
105258.20000001788,,fullscreen,125894,fullscreen,,0,,,,,,,,,,,,,,,,
20931.09999999404,,intro_1,146835,instruct,,0,,,,,,,,,,,,,,,,
5978,,intro_2,152815,instruct,,1,Next,,,,,,,,,,,,,,,
5108.4000000059605,,intro_3,157926,instruct,,1,Next,,,,,,,,,,,,,,,
null,,learn_prac_1,159929,lean_prac_1,,,,null,,,,,,,,,,,,,,
null,,html-keyboard-response,160931,<p></p>,,,,null,,,,,,,,,,,,,,
4200.0999999940395,,intro_1,165132,instruct,,0,,,,,,,,,,,,,,,,
3222.5,,intro_2,168357,instruct,,1,Next,,,,,,,,,,,,,,,
null,,learn_prac_2,170361,lean_prac_2,,,,null,,,,,,,,,,,,,,
null,,html-keyboard-response,171365,<p></p>,,,,null,,,,,,,,,,,,,,
3136,,intro_1,174503,instruct,,0,,,,,,,,,,,,,,,,
2718.5999999940395,,intro_2,177226,instruct,,1,Next,,,,,,,,,,,,,,,
13625.299999982119,,intro_3,190855,instruct,,1,Next,,,,,,,,,,,,,,,
null,,prac_atten_color_black,191691,black_plus_sign,,,,null,,,,,,,,,,,,,,
null,,prac_atten_color,192262,prac_stop_color,,,,null,,,,,,,,,,,,,,
148.59999999403954,,prac_atten_color_black,194265,black_plus_sign,,,,49,,,,,,,,,,,,,,
null,,prac_atten_color_black,195103,black_plus_sign,,,,null,,,,,,,,,,,,,,
null,,prac_atten_color,195816,prac_stop_color,,,,null,,,,,,,,,,,,,,
68.5,,prac_atten_color_black,197818,black_plus_sign,,,,49,,,,,,,,,,,,,,
4454.299999982119,,attentioncheck_help,202277,instruct,,,,32,,,,,,,,,,,,,,
null,,prac_atten_color_black,202970,black_plus_sign,,,,null,,,,,,,,,,,,,,
null,,prac_atten_color,203678,prac_stop_color,,,,null,,,,,,,,,,,,,,
345,,prac_atten_color_black,205680,black_plus_sign,,,,50,,,,,,,,,,,,,,
null,,prac_atten_color_black,206379,black_plus_sign,,,,null,,,,,,,,,,,,,,
null,,prac_atten_color,207271,prac_stop_color,,,,null,,,,,,,,,,,,,,
133.40000000596046,,prac_atten_color_black,209272,black_plus_sign,,,,49,,,,,,,,,,,,,,
null,,prac_atten_color_black,209787,black_plus_sign,,,,null,,,,,,,,,,,,,,
null,,prac_atten_color,210891,prac_stop_color,,,,null,,,,,,,,,,,,,,
225.39999997615814,,prac_atten_color_black,212892,black_plus_sign,,,,50,,,,,,,,,,,,,,
null,,prac_atten_color_black,213194,black_plus_sign,,,,null,,,,,,,,,,,,,,
null,,prac_atten_color,213910,prac_stop_color,,,,null,,,,,,,,,,,,,,
338.59999999403954,,prac_atten_color_black,215912,black_plus_sign,,,,50,,,,,,,,,,,,,,
null,,prac_atten_color_black,216602,black_plus_sign,,,,null,,,,,,,,,,,,,,
null,,prac_atten_color,217457,prac_stop_color,,,,null,,,,,,,,,,,,,,
7.9000000059604645,,prac_atten_color_black,219460,black_plus_sign,,,,49,,,,,,,,,,,,,,
null,,prac_atten_color_black,220012,black_plus_sign,,,,null,,,,,,,,,,,,,,
null,,prac_atten_color,220864,prac_stop_color,,,,null,,,,,,,,,,,,,,
383.2000000178814,,prac_atten_color_black,222866,black_plus_sign,,,,50,,,,,,,,,,,,,,
null,,prac_atten_color_black,223421,black_plus_sign,,,,null,,,,,,,,,,,,,,
null,,prac_atten_color,224268,prac_stop_color,,,,null,,,,,,,,,,,,,,
322.7999999821186,,prac_atten_color_black,226271,black_plus_sign,,,,49,,,,,,,,,,,,,,
null,,prac_atten_color_black,226830,black_plus_sign,,,,null,,,,,,,,,,,,,,
null,,prac_atten_color,227407,prac_stop_color,,,,null,,,,,,,,,,,,,,
475.7000000178814,,prac_atten_color_black,229410,black_plus_sign,,,,49,,,,,,,,,,,,,,
5281.9000000059605,,attentioncheck_feedback,234696,cross_check_feedback,,0,,,,,,,,,,,,,,,,
136408.30000001192,,last_instruct,371108,instruct,,,,32,,,,,,,,,,,,,,
null,,learn_phase(without_color),373111,black_plus_sign,,,,null,GW/gong.jpg,GW/dustpan.jpg,,,,,,,,,,,,
null,,black_cross(without_color),373693,green,,,,null,GW/gong.jpg,GW/dustpan.jpg,,,,,,,,,,,,
null,,rt_plussign_withcolor,374196,green,,,,null,GW/gong.jpg,GW/dustpan.jpg,,,,,,,,,,,,
938.6000000238419,,rt_thecrossant_black,375621,black_plus_sign,,,,50,,,1,1,,,,,,,,,,
null,,color_black,375725,black_plus_sign,,,,null,,,,,,,,,,,,,,
null,,learn_phase(without_color),377730,black_plus_sign,,,,null,GW/snail.jpg,GW/gong.jpg,,,,,,,,,,,,
null,,black_cross(without_color),378260,green,,,,null,GW/snail.jpg,GW/gong.jpg,,,,,,,,,,,,
null,,rt_plussign_withcolor,378763,green,,,,null,GW/snail.jpg,GW/gong.jpg,,,,,,,,,,,,
1148.7000000178814,,rt_thecrossant_black,380240,black_plus_sign,,,,50,,,1,1,,,,,,,,,,
null,,color_black,380343,black_plus_sign,,,,null,,,,,,,,,,,,,,
null,,learn_phase(without_color),382348,black_plus_sign,,,,null,GW/gong.jpg,GW/dustpan.jpg,,,,,,,,,,,,
null,,black_cross(without_color),383311,blue,,,,null,GW/gong.jpg,GW/dustpan.jpg,,,,,,,,,,,,
null,,rt_plussign_withcolor,383813,blue,,,,null,GW/gong.jpg,GW/dustpan.jpg,,,,,,,,,,,,
902.3999999761581,,rt_thecrossant_black,384856,black_plus_sign,,,,49,,,1,1,,,,,,,,,,
null,,color_black,384960,black_plus_sign,,,,null,,,,,,,,,,,,,,
null,,learn_phase(without_color),386964,black_plus_sign,,,,null,GW/barrel.jpg,GW/paint.jpg,,,,,,,,,,,,
null,,black_cross(without_color),387756,green,,,,null,GW/barrel.jpg,GW/paint.jpg,,,,,,,,,,,,
null,,rt_plussign_withcolor,388259,green,,,,null,GW/barrel.jpg,GW/paint.jpg,,,,,,,,,,,,
1469.699999988079,,rt_thecrossant_black,389472,black_plus_sign,,,,50,,,1,1,,,,,,,,,,
null,,color_black,389575,black_plus_sign,,,,null,,,,,,,,,,,,,,
null,,learn_phase(without_color),391578,black_plus_sign,,,,null,GW/paint.jpg,GW/basket.jpg,,,,,,,,,,,,
null,,black_cross(without_color),392153,green,,,,null,GW/paint.jpg,GW/basket.jpg,,,,,,,,,,,,
420.7999999821186,,rt_plussign_withcolor,392655,green,,,,49,GW/paint.jpg,GW/basket.jpg,,,,,,,,,,,,
null,,rt_thecrossant_black,394087,black_plus_sign,,,,null,,,0,0.8,,,,,,,,,,
null,,color_black,394190,black_plus_sign,,,,null,,,,,,,,,,,,,,
null,,learn_phase(without_color),396195,black_plus_sign,,,,null,GW/snail.jpg,GW/globe.jpg,,,,,,,,,,,,
null,,black_cross(without_color),396988,blue,,,,null,GW/snail.jpg,GW/globe.jpg,,,,,,,,,,,,
null,,rt_plussign_withcolor,397491,blue,,,,null,GW/snail.jpg,GW/globe.jpg,,,,,,,,,,,,
1055.2000000178814,,rt_thecrossant_black,398704,black_plus_sign,,,,49,,,1,0.8333333333333334,,,,,,,,,,
null,,color_black,398807,black_plus_sign,,,,null,,,,,,,,,,,,,,
null,,learn_phase(without_color),400812,black_plus_sign,,,,null,GW/barrel.jpg,GW/dustpan.jpg,,,,,,,,,,,,
null,,black_cross(without_color),401550,blue,,,,null,GW/barrel.jpg,GW/dustpan.jpg,,,,,,,,,,,,
null,,rt_plussign_withcolor,402051,blue,,,,null,GW/barrel.jpg,GW/dustpan.jpg,,,,,,,,,,,,
1408,,rt_thecrossant_black,403319,black_plus_sign,,,,49,,,1,0.8571428571428571,,,,,,,,,,
null,,color_black,403422,black_plus_sign,,,,null,,,,,,,,,,,,,,
null,,learn_phase(without_color),405427,black_plus_sign,,,,null,GW/snail.jpg,GW/gong.jpg,,,,,,,,,,,,
null,,black_cross(without_color),406059,green,,,,null,GW/snail.jpg,GW/gong.jpg,,,,,,,,,,,,
null,,rt_plussign_withcolor,406561,green,,,,null,GW/snail.jpg,GW/gong.jpg,,,,,,,,,,,,
1653.199999988079,,rt_thecrossant_black,407935,black_plus_sign,,,,50,,,1,0.875,,,,,,,,,,
null,,color_black,408039,black_plus_sign,,,,null,,,,,,,,,,,,,,
null,,learn_phase(without_color),410043,black_plus_sign,,,,null,GW/wheelchair.jpg,GW/barrel.jpg,,,,,,,,,,,,
null,,black_cross(without_color),410802,blue,,,,null,GW/wheelchair.jpg,GW/barrel.jpg,,,,,,,,,,,,
null,,rt_plussign_withcolor,411304,blue,,,,null,GW/wheelchair.jpg,GW/barrel.jpg,,,,,,,,,,,,
1146.300000011921,,rt_thecrossant_black,412552,black_plus_sign,,,,49,,,1,0.8888888888888888,,,,,,,,,,
null,,color_black,412654,black_plus_sign,,,,null,,,,,,,,,,,,,,
null,,learn_phase(without_color),414657,black_plus_sign,,,,null,GW/basket.jpg,GW/camera.jpg,,,,,,,,,,,,
null,,black_cross(without_color),415163,green,,,,null,GW/basket.jpg,GW/camera.jpg,,,,,,,,,,,,
null,,rt_plussign_withcolor,415665,green,,,,null,GW/basket.jpg,GW/camera.jpg,,,,,,,,,,,,
1137.4000000059605,,rt_thecrossant_black,417166,black_plus_sign,,,,50,,,1,0.9,,,,,,,,,,
null,,color_black,417270,black_plus_sign,,,,null,,,,,,,,,,,,,,
null,,learn_phase(without_color),419274,black_plus_sign,,,,null,GW/hat.jpg,GW/jukebox.jpg,,,,,,,,,,,,
null,,black_cross(without_color),419769,blue,,,,null,GW/hat.jpg,GW/jukebox.jpg,,,,,,,,,,,,
null,,rt_plussign_withcolor,420271,blue,,,,null,GW/hat.jpg,GW/jukebox.jpg,,,,,,,,,,,,
1128.0999999940395,,rt_thecrossant_black,421783,black_plus_sign,,,,49,,,1,0.9090909090909091,,,,,,,,,,
null,,color_black,421887,black_plus_sign,,,,null,,,,,,,,,,,,,,
null,,learn_phase(without_color),423891,black_plus_sign,,,,null,GW/paint.jpg,GW/gong.jpg,,,,,,,,,,,,
null,,black_cross(without_color),424297,green,,,,null,GW/paint.jpg,GW/gong.jpg,,,,,,,,,,,,
null,,rt_plussign_withcolor,424799,green,,,,null,GW/paint.jpg,GW/gong.jpg,,,,,,,,,,,,
858.3000000119209,,rt_thecrossant_black,426400,black_plus_sign,,,,50,,,1,0.9166666666666666,,,,,,,,,,
null,,color_black,426503,black_plus_sign,,,,null,,,,,,,,,,,,,,
null,,learn_phase(without_color),428507,black_plus_sign,,,,null,GW/barrel.jpg,GW/paint.jpg,,,,,,,,,,,,
null,,black_cross(without_color),429127,green,,,,null,GW/barrel.jpg,GW/paint.jpg,,,,,,,,,,,,
null,,rt_plussign_withcolor,429629,green,,,,null,GW/barrel.jpg,GW/paint.jpg,,,,,,,,,,,,
909.6999999880791,,rt_thecrossant_black,431016,black_plus_sign,,,,50,,,1,0.9230769230769231,,,,,,,,,,
null,,color_black,431119,black_plus_sign,,,,null,,,,,,,,,,,,,,
null,,learn_phase(without_color),433123,black_plus_sign,,,,null,GW/wheelchair.jpg,GW/hat.jpg,,,,,,,,,,,,
null,,black_cross(without_color),433888,green,,,,null,GW/wheelchair.jpg,GW/hat.jpg,,,,,,,,,,,,
null,,rt_plussign_withcolor,434391,green,,,,null,GW/wheelchair.jpg,GW/hat.jpg,,,,,,,,,,,,
1808.5,,rt_thecrossant_black,435632,black_plus_sign,,,,50,,,1,0.9285714285714286,,,,,,,,,,
null,,color_black,435735,black_plus_sign,,,,null,,,,,,,,,,,,,,
null,,learn_phase(without_color),437739,black_plus_sign,,,,null,GW/hat.jpg,GW/jukebox.jpg,,,,,,,,,,,,
null,,black_cross(without_color),438816,green,,,,null,GW/hat.jpg,GW/jukebox.jpg,,,,,,,,,,,,
null,,rt_plussign_withcolor,439318,green,,,,null,GW/hat.jpg,GW/jukebox.jpg,,,,,,,,,,,,
1510.300000011921,,rt_thecrossant_black,440247,black_plus_sign,,,,50,,,1,0.9333333333333333,,,,,,,,,,
null,,color_black,440350,black_plus_sign,,,,null,,,,,,,,,,,,,,
null,,learn_phase(without_color),442354,black_plus_sign,,,,null,GW/basket.jpg,GW/camera.jpg,,,,,,,,,,,,
null,,black_cross(without_color),443215,blue,,,,null,GW/basket.jpg,GW/camera.jpg,,,,,,,,,,,,
null,,rt_plussign_withcolor,443717,blue,,,,null,GW/basket.jpg,GW/camera.jpg,,,,,,,,,,,,
1487.9000000059605,,rt_thecrossant_black,444862,black_plus_sign,,,,49,,,1,0.9375,,,,,,,,,,
null,,color_black,444965,black_plus_sign,,,,null,,,,,,,,,,,,,,
null,,learn_phase(without_color),446970,black_plus_sign,,,,null,GW/wheelchair.jpg,GW/hat.jpg,,,,,,,,,,,,
null,,black_cross(without_color),447438,blue,,,,null,GW/wheelchair.jpg,GW/hat.jpg,,,,,,,,,,,,
null,,rt_plussign_withcolor,447940,blue,,,,null,GW/wheelchair.jpg,GW/hat.jpg,,,,,,,,,,,,
1329.5999999940395,,rt_thecrossant_black,449478,black_plus_sign,,,,49,,,1,0.9411764705882353,,,,,,,,,,
null,,color_black,449581,black_plus_sign,,,,null,,,,,,,,,,,,,,
null,,learn_phase(without_color),451586,black_plus_sign,,,,null,GW/gong.jpg,GW/dustpan.jpg,,,,,,,,,,,,
null,,black_cross(without_color),452074,green,,,,null,GW/gong.jpg,GW/dustpan.jpg,,,,,,,,,,,,
null,,rt_plussign_withcolor,452577,green,,,,null,GW/gong.jpg,GW/dustpan.jpg,,,,,,,,,,,,
831.5,,rt_thecrossant_black,454095,black_plus_sign,,,,50,,,1,0.9444444444444444,,,,,,,,,,
null,,color_black,454198,black_plus_sign,,,,null,,,,,,,,,,,,,,
null,,learn_phase(without_color),456202,black_plus_sign,,,,null,GW/teeth.jpg,GW/wheelchair.jpg,,,,,,,,,,,,
null,,black_cross(without_color),457212,blue,,,,null,GW/teeth.jpg,GW/wheelchair.jpg,,,,,,,,,,,,
null,,rt_plussign_withcolor,457714,blue,,,,null,GW/teeth.jpg,GW/wheelchair.jpg,,,,,,,,,,,,
889.1999999880791,,rt_thecrossant_black,458710,black_plus_sign,,,,49,,,1,0.9473684210526315,,,,,,,,,,
null,,color_black,458814,black_plus_sign,,,,null,,,,,,,,,,,,,,
null,,learn_phase(without_color),460818,black_plus_sign,,,,null,GW/paint.jpg,GW/basket.jpg,,,,,,,,,,,,
null,,black_cross(without_color),461375,green,,,,null,GW/paint.jpg,GW/basket.jpg,,,,,,,,,,,,
null,,rt_plussign_withcolor,461877,green,,,,null,GW/paint.jpg,GW/basket.jpg,,,,,,,,,,,,
1527.0999999940395,,rt_thecrossant_black,463327,black_plus_sign,,,,50,,,1,0.95,,,,,,,,,,
null,,color_black,463430,black_plus_sign,,,,null,,,,,,,,,,,,,,
null,,learn_phase(without_color),465434,black_plus_sign,,,,null,GW/wheelchair.jpg,GW/hat.jpg,,,,,,,,,,,,
null,,black_cross(without_color),466296,green,,,,null,GW/wheelchair.jpg,GW/hat.jpg,,,,,,,,,,,,
null,,rt_plussign_withcolor,466799,green,,,,null,GW/wheelchair.jpg,GW/hat.jpg,,,,,,,,,,,,
1503.2999999821186,,rt_thecrossant_black,467943,black_plus_sign,,,,50,,,1,0.9523809523809523,,,,,,,,,,
null,,color_black,468046,black_plus_sign,,,,null,,,,,,,,,,,,,,
null,,learn_phase(without_color),470050,black_plus_sign,,,,null,GW/barrel.jpg,GW/paint.jpg,,,,,,,,,,,,
null,,black_cross(without_color),470600,green,,,,null,GW/barrel.jpg,GW/paint.jpg,,,,,,,,,,,,
null,,rt_plussign_withcolor,471102,green,,,,null,GW/barrel.jpg,GW/paint.jpg,,,,,,,,,,,,
2133.9000000059605,,rt_thecrossant_black,472558,black_plus_sign,,,,50,,,1,0.9545454545454546,,,,,,,,,,
null,,color_black,472661,black_plus_sign,,,,null,,,,,,,,,,,,,,
null,,learn_phase(without_color),474665,black_plus_sign,,,,null,GW/basket.jpg,GW/snail.jpg,,,,,,,,,,,,
null,,black_cross(without_color),475159,blue,,,,null,GW/basket.jpg,GW/snail.jpg,,,,,,,,,,,,
null,,rt_plussign_withcolor,475662,blue,,,,null,GW/basket.jpg,GW/snail.jpg,,,,,,,,,,,,
913.8000000119209,,rt_thecrossant_black,477174,black_plus_sign,,,,49,,,1,0.9565217391304348,,,,,,,,,,
null,,color_black,477277,black_plus_sign,,,,null,,,,,,,,,,,,,,
null,,learn_phase(without_color),479279,black_plus_sign,,,,null,GW/wheelchair.jpg,GW/hat.jpg,,,,,,,,,,,,
null,,black_cross(without_color),480201,green,,,,null,GW/wheelchair.jpg,GW/hat.jpg,,,,,,,,,,,,
null,,rt_plussign_withcolor,480704,green,,,,null,GW/wheelchair.jpg,GW/hat.jpg,,,,,,,,,,,,
1196.0999999940395,,rt_thecrossant_black,481788,black_plus_sign,,,,50,,,1,0.9583333333333334,,,,,,,,,,
null,,color_black,481891,black_plus_sign,,,,null,,,,,,,,,,,,,,
null,,learn_phase(without_color),483896,black_plus_sign,,,,null,GW/basket.jpg,GW/gong.jpg,,,,,,,,,,,,
null,,black_cross(without_color),484362,blue,,,,null,GW/basket.jpg,GW/gong.jpg,,,,,,,,,,,,
null,,rt_plussign_withcolor,484864,blue,,,,null,GW/basket.jpg,GW/gong.jpg,,,,,,,,,,,,
1371,,rt_thecrossant_black,486403,black_plus_sign,,,,49,,,1,0.96,,,,,,,,,,
null,,color_black,486505,black_plus_sign,,,,null,,,,,,,,,,,,,,
null,,learn_phase(without_color),488510,black_plus_sign,,,,null,GW/snail.jpg,GW/globe.jpg,,,,,,,,,,,,
null,,black_cross(without_color),489115,blue,,,,null,GW/snail.jpg,GW/globe.jpg,,,,,,,,,,,,
null,,rt_plussign_withcolor,489617,blue,,,,null,GW/snail.jpg,GW/globe.jpg,,,,,,,,,,,,
1036.7999999821186,,rt_thecrossant_black,491019,black_plus_sign,,,,49,,,1,0.9615384615384616,,,,,,,,,,
null,,color_black,491122,black_plus_sign,,,,null,,,,,,,,,,,,,,
null,,learn_phase(without_color),493127,black_plus_sign,,,,null,GW/gong.jpg,GW/dustpan.jpg,,,,,,,,,,,,
null,,black_cross(without_color),493767,green,,,,null,GW/gong.jpg,GW/dustpan.jpg,,,,,,,,,,,,
null,,rt_plussign_withcolor,494268,green,,,,null,GW/gong.jpg,GW/dustpan.jpg,,,,,,,,,,,,
1142.300000011921,,rt_thecrossant_black,495635,black_plus_sign,,,,50,,,1,0.9629629629629629,,,,,,,,,,
null,,color_black,495738,black_plus_sign,,,,null,,,,,,,,,,,,,,
null,,learn_phase(without_color),497742,black_plus_sign,,,,null,GW/barrel.jpg,GW/paint.jpg,,,,,,,,,,,,
null,,black_cross(without_color),498774,blue,,,,null,GW/barrel.jpg,GW/paint.jpg,,,,,,,,,,,,
null,,rt_plussign_withcolor,499277,blue,,,,null,GW/barrel.jpg,GW/paint.jpg,,,,,,,,,,,,
1026.699999988079,,rt_thecrossant_black,500251,black_plus_sign,,,,49,,,1,0.9642857142857143,,,,,,,,,,
null,,color_black,500355,black_plus_sign,,,,null,,,,,,,,,,,,,,
null,,learn_phase(without_color),502359,black_plus_sign,,,,null,GW/dustpan.jpg,GW/soldier.jpg,,,,,,,,,,,,
null,,black_cross(without_color),503437,blue,,,,null,GW/dustpan.jpg,GW/soldier.jpg,,,,,,,,,,,,
null,,rt_plussign_withcolor,503939,blue,,,,null,GW/dustpan.jpg,GW/soldier.jpg,,,,,,,,,,,,
2048.5,,rt_thecrossant_black,504868,black_plus_sign,,,,49,,,1,0.9655172413793104,,,,,,,,,,
null,,color_black,504972,black_plus_sign,,,,null,,,,,,,,,,,,,,
null,,learn_phase(without_color),506974,black_plus_sign,,,,null,GW/basket.jpg,GW/camera.jpg,,,,,,,,,,,,
null,,black_cross(without_color),507629,blue,,,,null,GW/basket.jpg,GW/camera.jpg,,,,,,,,,,,,
null,,rt_plussign_withcolor,508132,blue,,,,null,GW/basket.jpg,GW/camera.jpg,,,,,,,,,,,,
2018.5999999940395,,rt_thecrossant_black,509483,black_plus_sign,,,,49,,,1,0.9666666666666667,,,,,,,,,,
null,,color_black,509585,black_plus_sign,,,,null,,,,,,,,,,,,,,
null,,learn_phase(without_color),511590,black_plus_sign,,,,null,GW/paint.jpg,GW/basket.jpg,,,,,,,,,,,,
null,,black_cross(without_color),511995,green,,,,null,GW/paint.jpg,GW/basket.jpg,,,,,,,,,,,,
null,,rt_plussign_withcolor,512498,green,,,,null,GW/paint.jpg,GW/basket.jpg,,,,,,,,,,,,
1599.5,,rt_thecrossant_black,514099,black_plus_sign,,,,50,,,1,0.967741935483871,,,,,,,,,,
null,,color_black,514202,black_plus_sign,,,,null,,,,,,,,,,,,,,
null,,learn_phase(without_color),516207,black_plus_sign,,,,null,GW/basket.jpg,GW/snail.jpg,,,,,,,,,,,,
null,,black_cross(without_color),516769,blue,,,,null,GW/basket.jpg,GW/snail.jpg,,,,,,,,,,,,
null,,rt_plussign_withcolor,517270,blue,,,,null,GW/basket.jpg,GW/snail.jpg,,,,,,,,,,,,
1544.9000000059605,,rt_thecrossant_black,518713,black_plus_sign,,,,49,,,1,0.96875,,,,,,,,,,
null,,color_black,518816,black_plus_sign,,,,null,,,,,,,,,,,,,,
null,,learn_phase(without_color),520821,black_plus_sign,,,,null,GW/hat.jpg,GW/jukebox.jpg,,,,,,,,,,,,
null,,black_cross(without_color),521557,green,,,,null,GW/hat.jpg,GW/jukebox.jpg,,,,,,,,,,,,
null,,rt_plussign_withcolor,522059,green,,,,null,GW/hat.jpg,GW/jukebox.jpg,,,,,,,,,,,,
1127.7000000178814,,rt_thecrossant_black,523329,black_plus_sign,,,,50,,,1,0.9696969696969697,,,,,,,,,,
null,,color_black,523432,black_plus_sign,,,,null,,,,,,,,,,,,,,
null,,learn_phase(without_color),525437,black_plus_sign,,,,null,GW/hat.jpg,GW/soldier.jpg,,,,,,,,,,,,
null,,black_cross(without_color),526115,green,,,,null,GW/hat.jpg,GW/soldier.jpg,,,,,,,,,,,,
null,,rt_plussign_withcolor,526617,green,,,,null,GW/hat.jpg,GW/soldier.jpg,,,,,,,,,,,,
null,,rt_thecrossant_black,527945,black_plus_sign,,,,null,,,,0.9696969696969697,,,,,,,,,,
null,,color_black,528048,black_plus_sign,,,,null,,,,,,,,,,,,,,
null,,learn_phase(without_color),530052,black_plus_sign,,,,null,GW/snail.jpg,GW/globe.jpg,,,,,,,,,,,,
null,,black_cross(without_color),530861,blue,,,,null,GW/snail.jpg,GW/globe.jpg,,,,,,,,,,,,
null,,rt_plussign_withcolor,531364,blue,,,,null,GW/snail.jpg,GW/globe.jpg,,,,,,,,,,,,
1288,,rt_thecrossant_black,532561,black_plus_sign,,,,49,,,1,0.9705882352941176,,,,,,,,,,
null,,color_black,532663,black_plus_sign,,,,null,,,,,,,,,,,,,,
null,,learn_phase(without_color),534666,black_plus_sign,,,,null,GW/dustpan.jpg,GW/soldier.jpg,,,,,,,,,,,,
null,,black_cross(without_color),535213,blue,,,,null,GW/dustpan.jpg,GW/soldier.jpg,,,,,,,,,,,,
null,,rt_plussign_withcolor,535715,blue,,,,null,GW/dustpan.jpg,GW/soldier.jpg,,,,,,,,,,,,
1236,,rt_thecrossant_black,537175,black_plus_sign,,,,49,,,1,0.9714285714285714,,,,,,,,,,
null,,color_black,537279,black_plus_sign,,,,null,,,,,,,,,,,,,,
null,,learn_phase(without_color),539283,black_plus_sign,,,,null,GW/wheelchair.jpg,GW/barrel.jpg,,,,,,,,,,,,
null,,black_cross(without_color),540201,blue,,,,null,GW/wheelchair.jpg,GW/barrel.jpg,,,,,,,,,,,,
null,,rt_plussign_withcolor,540703,blue,,,,null,GW/wheelchair.jpg,GW/barrel.jpg,,,,,,,,,,,,
984,,rt_thecrossant_black,541792,black_plus_sign,,,,49,,,1,0.9722222222222222,,,,,,,,,,
null,,color_black,541895,black_plus_sign,,,,null,,,,,,,,,,,,,,
null,,learn_phase(without_color),543900,black_plus_sign,,,,null,GW/barrel.jpg,GW/paint.jpg,,,,,,,,,,,,
null,,black_cross(without_color),544504,blue,,,,null,GW/barrel.jpg,GW/paint.jpg,,,,,,,,,,,,
null,,rt_plussign_withcolor,545007,blue,,,,null,GW/barrel.jpg,GW/paint.jpg,,,,,,,,,,,,
1853.7000000178814,,rt_thecrossant_black,546409,black_plus_sign,,,,49,,,1,0.972972972972973,,,,,,,,,,
null,,color_black,546513,black_plus_sign,,,,null,,,,,,,,,,,,,,
null,,learn_phase(without_color),548517,black_plus_sign,,,,null,GW/basket.jpg,GW/gong.jpg,,,,,,,,,,,,
null,,black_cross(without_color),549095,blue,,,,null,GW/basket.jpg,GW/gong.jpg,,,,,,,,,,,,
null,,rt_plussign_withcolor,549598,blue,,,,null,GW/basket.jpg,GW/gong.jpg,,,,,,,,,,,,
1480.7999999821186,,rt_thecrossant_black,551026,black_plus_sign,,,,49,,,1,0.9736842105263158,,,,,,,,,,
null,,color_black,551130,black_plus_sign,,,,null,,,,,,,,,,,,,,
null,,learn_phase(without_color),553135,black_plus_sign,,,,null,GW/paint.jpg,GW/gong.jpg,,,,,,,,,,,,
null,,black_cross(without_color),553883,green,,,,null,GW/paint.jpg,GW/gong.jpg,,,,,,,,,,,,
null,,rt_plussign_withcolor,554385,green,,,,null,GW/paint.jpg,GW/gong.jpg,,,,,,,,,,,,
1288,,rt_thecrossant_black,555642,black_plus_sign,,,,50,,,1,0.9743589743589743,,,,,,,,,,
null,,color_black,555746,black_plus_sign,,,,null,,,,,,,,,,,,,,
null,,learn_phase(without_color),557750,black_plus_sign,,,,null,GW/wheelchair.jpg,GW/barrel.jpg,,,,,,,,,,,,
null,,black_cross(without_color),558353,blue,,,,null,GW/wheelchair.jpg,GW/barrel.jpg,,,,,,,,,,,,
null,,rt_plussign_withcolor,558855,blue,,,,null,GW/wheelchair.jpg,GW/barrel.jpg,,,,,,,,,,,,
null,,rt_thecrossant_black,560259,black_plus_sign,,,,null,,,,0.9743589743589743,,,,,,,,,,
null,,color_black,560363,black_plus_sign,,,,null,,,,,,,,,,,,,,
null,,learn_phase(without_color),562368,black_plus_sign,,,,null,GW/snail.jpg,GW/globe.jpg,,,,,,,,,,,,
null,,black_cross(without_color),563359,green,,,,null,GW/snail.jpg,GW/globe.jpg,,,,,,,,,,,,
null,,rt_plussign_withcolor,563861,green,,,,null,GW/snail.jpg,GW/globe.jpg,,,,,,,,,,,,
null,,rt_thecrossant_black,564876,black_plus_sign,,,,null,,,,0.9743589743589743,,,,,,,,,,
null,,warning_page,567881,warning,,,,null,,,,,,,,,,,,,,
null,,color_black,567983,black_plus_sign,,,,null,,,,,,,,,,,,,,
null,,learn_phase(without_color),570001,black_plus_sign,,,,null,GW/basket.jpg,GW/gong.jpg,,,,,,,,,,,,
null,,black_cross(without_color),570823,green,,,,null,GW/basket.jpg,GW/gong.jpg,,,,,,,,,,,,
null,,rt_plussign_withcolor,571326,green,,,,null,GW/basket.jpg,GW/gong.jpg,,,,,,,,,,,,
1602.800000011921,,rt_thecrossant_black,572511,black_plus_sign,,,,50,,,1,0.975,,,,,,,,,,
null,,color_black,572614,black_plus_sign,,,,null,,,,,,,,,,,,,,
null,,learn_phase(without_color),574619,black_plus_sign,,,,null,GW/basket.jpg,GW/snail.jpg,,,,,,,,,,,,
null,,black_cross(without_color),575560,green,,,,null,GW/basket.jpg,GW/snail.jpg,,,,,,,,,,,,
null,,rt_plussign_withcolor,576062,green,,,,null,GW/basket.jpg,GW/snail.jpg,,,,,,,,,,,,
1315.5999999940395,,rt_thecrossant_black,577127,black_plus_sign,,,,50,,,1,0.975609756097561,,,,,,,,,,
null,,color_black,577231,black_plus_sign,,,,null,,,,,,,,,,,,,,
null,,learn_phase(without_color),579235,black_plus_sign,,,,null,GW/barrel.jpg,GW/dustpan.jpg,,,,,,,,,,,,
null,,black_cross(without_color),580111,blue,,,,null,GW/barrel.jpg,GW/dustpan.jpg,,,,,,,,,,,,
null,,rt_plussign_withcolor,580614,blue,,,,null,GW/barrel.jpg,GW/dustpan.jpg,,,,,,,,,,,,
1616.2999999821186,,rt_thecrossant_black,581743,black_plus_sign,,,,49,,,1,0.9761904761904762,,,,,,,,,,
null,,color_black,581845,black_plus_sign,,,,null,,,,,,,,,,,,,,
null,,learn_phase(without_color),583850,black_plus_sign,,,,null,GW/teeth.jpg,GW/wheelchair.jpg,,,,,,,,,,,,
null,,black_cross(without_color),584463,blue,,,,null,GW/teeth.jpg,GW/wheelchair.jpg,,,,,,,,,,,,
null,,rt_plussign_withcolor,584966,blue,,,,null,GW/teeth.jpg,GW/wheelchair.jpg,,,,,,,,,,,,
1722.5,,rt_thecrossant_black,586359,black_plus_sign,,,,49,,,1,0.9767441860465116,,,,,,,,,,
null,,color_black,586463,black_plus_sign,,,,null,,,,,,,,,,,,,,
null,,learn_phase(without_color),588467,black_plus_sign,,,,null,GW/hat.jpg,GW/soldier.jpg,,,,,,,,,,,,
null,,black_cross(without_color),589168,green,,,,null,GW/hat.jpg,GW/soldier.jpg,,,,,,,,,,,,
null,,rt_plussign_withcolor,589670,green,,,,null,GW/hat.jpg,GW/soldier.jpg,,,,,,,,,,,,
1091.3999999761581,,rt_thecrossant_black,590975,black_plus_sign,,,,50,,,1,0.9772727272727273,,,,,,,,,,
null,,color_black,591079,black_plus_sign,,,,null,,,,,,,,,,,,,,
null,,learn_phase(without_color),593084,black_plus_sign,,,,null,GW/basket.jpg,GW/camera.jpg,,,,,,,,,,,,
null,,black_cross(without_color),594013,green,,,,null,GW/basket.jpg,GW/camera.jpg,,,,,,,,,,,,
null,,rt_plussign_withcolor,594515,green,,,,null,GW/basket.jpg,GW/camera.jpg,,,,,,,,,,,,
1375,,rt_thecrossant_black,595592,black_plus_sign,,,,50,,,1,0.9777777777777777,,,,,,,,,,
null,,color_black,595695,black_plus_sign,,,,null,,,,,,,,,,,,,,
null,,learn_phase(without_color),597700,black_plus_sign,,,,null,GW/teeth.jpg,GW/wheelchair.jpg,,,,,,,,,,,,
null,,black_cross(without_color),598171,green,,,,null,GW/teeth.jpg,GW/wheelchair.jpg,,,,,,,,,,,,
null,,rt_plussign_withcolor,598672,green,,,,null,GW/teeth.jpg,GW/wheelchair.jpg,,,,,,,,,,,,
1583.5,,rt_thecrossant_black,600206,black_plus_sign,,,,50,,,1,0.9782608695652174,,,,,,,,,,
null,,color_black,600310,black_plus_sign,,,,null,,,,,,,,,,,,,,
null,,learn_phase(without_color),602315,black_plus_sign,,,,null,GW/basket.jpg,GW/snail.jpg,,,,,,,,,,,,
null,,black_cross(without_color),602761,blue,,,,null,GW/basket.jpg,GW/snail.jpg,,,,,,,,,,,,
null,,rt_plussign_withcolor,603264,blue,,,,null,GW/basket.jpg,GW/snail.jpg,,,,,,,,,,,,
1087.699999988079,,rt_thecrossant_black,604825,black_plus_sign,,,,49,,,1,0.9787234042553191,,,,,,,,,,
null,,color_black,604928,black_plus_sign,,,,null,,,,,,,,,,,,,,
null,,learn_phase(without_color),606933,black_plus_sign,,,,null,GW/hat.jpg,GW/soldier.jpg,,,,,,,,,,,,
null,,black_cross(without_color),607415,blue,,,,null,GW/hat.jpg,GW/soldier.jpg,,,,,,,,,,,,
null,,rt_plussign_withcolor,607918,blue,,,,null,GW/hat.jpg,GW/soldier.jpg,,,,,,,,,,,,
1047.5999999940395,,rt_thecrossant_black,609442,black_plus_sign,,,,49,,,1,0.9791666666666666,,,,,,,,,,
null,,color_black,609546,black_plus_sign,,,,null,,,,,,,,,,,,,,
null,,learn_phase(without_color),611551,black_plus_sign,,,,null,GW/gong.jpg,GW/dustpan.jpg,,,,,,,,,,,,
null,,black_cross(without_color),612647,green,,,,null,GW/gong.jpg,GW/dustpan.jpg,,,,,,,,,,,,
null,,rt_plussign_withcolor,613150,green,,,,null,GW/gong.jpg,GW/dustpan.jpg,,,,,,,,,,,,
934.8999999761581,,rt_thecrossant_black,614060,black_plus_sign,,,,50,,,1,0.9795918367346939,,,,,,,,,,
null,,color_black,614164,black_plus_sign,,,,null,,,,,,,,,,,,,,
null,,learn_phase(without_color),616169,black_plus_sign,,,,null,GW/wheelchair.jpg,GW/barrel.jpg,,,,,,,,,,,,
null,,black_cross(without_color),616578,green,,,,null,GW/wheelchair.jpg,GW/barrel.jpg,,,,,,,,,,,,
null,,rt_plussign_withcolor,617080,green,,,,null,GW/wheelchair.jpg,GW/barrel.jpg,,,,,,,,,,,,
1717.5999999940395,,rt_thecrossant_black,618676,black_plus_sign,,,,50,,,1,0.98,,,,,,,,,,
null,,color_black,618780,black_plus_sign,,,,null,,,,,,,,,,,,,,
null,,learn_phase(without_color),620783,black_plus_sign,,,,null,GW/teeth.jpg,GW/wheelchair.jpg,,,,,,,,,,,,
null,,black_cross(without_color),621879,blue,,,,null,GW/teeth.jpg,GW/wheelchair.jpg,,,,,,,,,,,,
null,,rt_plussign_withcolor,622381,blue,,,,null,GW/teeth.jpg,GW/wheelchair.jpg,,,,,,,,,,,,
801.7000000178814,,rt_thecrossant_black,623292,black_plus_sign,,,,49,,,1,0.9803921568627451,,,,,,,,,,
null,,color_black,623395,black_plus_sign,,,,null,,,,,,,,,,,,,,
null,,learn_phase(without_color),625400,black_plus_sign,,,,null,GW/wheelchair.jpg,GW/hat.jpg,,,,,,,,,,,,
null,,black_cross(without_color),626410,green,,,,null,GW/wheelchair.jpg,GW/hat.jpg,,,,,,,,,,,,
null,,rt_plussign_withcolor,626912,green,,,,null,GW/wheelchair.jpg,GW/hat.jpg,,,,,,,,,,,,
1875,,rt_thecrossant_black,627908,black_plus_sign,,,,50,,,1,0.9807692307692307,,,,,,,,,,
null,,color_black,628011,black_plus_sign,,,,null,,,,,,,,,,,,,,
null,,learn_phase(without_color),630014,black_plus_sign,,,,null,GW/hat.jpg,GW/soldier.jpg,,,,,,,,,,,,
null,,black_cross(without_color),631005,green,,,,null,GW/hat.jpg,GW/soldier.jpg,,,,,,,,,,,,
null,,rt_plussign_withcolor,631507,green,,,,null,GW/hat.jpg,GW/soldier.jpg,,,,,,,,,,,,
1620.5,,rt_thecrossant_black,632524,black_plus_sign,,,,50,,,1,0.9811320754716981,,,,,,,,,,
null,,color_black,632627,black_plus_sign,,,,null,,,,,,,,,,,,,,
null,,learn_phase(without_color),634632,black_plus_sign,,,,null,GW/wheelchair.jpg,GW/hat.jpg,,,,,,,,,,,,
null,,black_cross(without_color),635605,green,,,,null,GW/wheelchair.jpg,GW/hat.jpg,,,,,,,,,,,,
null,,rt_plussign_withcolor,636107,green,,,,null,GW/wheelchair.jpg,GW/hat.jpg,,,,,,,,,,,,
1475.2000000178814,,rt_thecrossant_black,637140,black_plus_sign,,,,50,,,1,0.9814814814814815,,,,,,,,,,
null,,color_black,637244,black_plus_sign,,,,null,,,,,,,,,,,,,,
null,,learn_phase(without_color),639247,black_plus_sign,,,,null,GW/hat.jpg,GW/soldier.jpg,,,,,,,,,,,,
null,,black_cross(without_color),639942,blue,,,,null,GW/hat.jpg,GW/soldier.jpg,,,,,,,,,,,,
null,,rt_plussign_withcolor,640444,blue,,,,null,GW/hat.jpg,GW/soldier.jpg,,,,,,,,,,,,
1601.3999999761581,,rt_thecrossant_black,641754,black_plus_sign,,,,49,,,1,0.9818181818181818,,,,,,,,,,
null,,color_black,641858,black_plus_sign,,,,null,,,,,,,,,,,,,,
null,,learn_phase(without_color),643863,black_plus_sign,,,,null,GW/paint.jpg,GW/gong.jpg,,,,,,,,,,,,
null,,black_cross(without_color),644695,blue,,,,null,GW/paint.jpg,GW/gong.jpg,,,,,,,,,,,,
null,,rt_plussign_withcolor,645198,blue,,,,null,GW/paint.jpg,GW/gong.jpg,,,,,,,,,,,,
1475.9000000059605,,rt_thecrossant_black,646372,black_plus_sign,,,,49,,,1,0.9821428571428571,,,,,,,,,,
null,,color_black,646476,black_plus_sign,,,,null,,,,,,,,,,,,,,
null,,learn_phase(without_color),648481,black_plus_sign,,,,null,GW/paint.jpg,GW/basket.jpg,,,,,,,,,,,,
null,,black_cross(without_color),649372,blue,,,,null,GW/paint.jpg,GW/basket.jpg,,,,,,,,,,,,
null,,rt_plussign_withcolor,649874,blue,,,,null,GW/paint.jpg,GW/basket.jpg,,,,,,,,,,,,
1801.8999999761581,,rt_thecrossant_black,650991,black_plus_sign,,,,49,,,1,0.9824561403508771,,,,,,,,,,
null,,color_black,651095,black_plus_sign,,,,null,,,,,,,,,,,,,,
null,,learn_phase(without_color),653100,black_plus_sign,,,,null,GW/basket.jpg,GW/snail.jpg,,,,,,,,,,,,
null,,black_cross(without_color),653531,green,,,,null,GW/basket.jpg,GW/snail.jpg,,,,,,,,,,,,
null,,rt_plussign_withcolor,654033,green,,,,null,GW/basket.jpg,GW/snail.jpg,,,,,,,,,,,,
1279.300000011921,,rt_thecrossant_black,655610,black_plus_sign,,,,50,,,1,0.9827586206896551,,,,,,,,,,
null,,color_black,655714,black_plus_sign,,,,null,,,,,,,,,,,,,,
null,,learn_phase(without_color),657719,black_plus_sign,,,,null,GW/dustpan.jpg,GW/soldier.jpg,,,,,,,,,,,,
null,,black_cross(without_color),658608,blue,,,,null,GW/dustpan.jpg,GW/soldier.jpg,,,,,,,,,,,,
null,,rt_plussign_withcolor,659111,blue,,,,null,GW/dustpan.jpg,GW/soldier.jpg,,,,,,,,,,,,
788.9000000059605,,rt_thecrossant_black,660228,black_plus_sign,,,,49,,,1,0.9830508474576272,,,,,,,,,,
null,,color_black,660332,black_plus_sign,,,,null,,,,,,,,,,,,,,
null,,learn_phase(without_color),662337,black_plus_sign,,,,null,GW/wheelchair.jpg,GW/hat.jpg,,,,,,,,,,,,
null,,black_cross(without_color),663168,green,,,,null,GW/wheelchair.jpg,GW/hat.jpg,,,,,,,,,,,,
null,,rt_plussign_withcolor,663670,green,,,,null,GW/wheelchair.jpg,GW/hat.jpg,,,,,,,,,,,,
1482.2999999821186,,rt_thecrossant_black,664846,black_plus_sign,,,,50,,,1,0.9833333333333333,,,,,,,,,,
null,,color_black,664950,black_plus_sign,,,,null,,,,,,,,,,,,,,
null,,learn_phase(without_color),666954,black_plus_sign,,,,null,GW/snail.jpg,GW/globe.jpg,,,,,,,,,,,,
null,,black_cross(without_color),667675,blue,,,,null,GW/snail.jpg,GW/globe.jpg,,,,,,,,,,,,
null,,rt_plussign_withcolor,668177,blue,,,,null,GW/snail.jpg,GW/globe.jpg,,,,,,,,,,,,
1324.199999988079,,rt_thecrossant_black,669463,black_plus_sign,,,,49,,,1,0.9836065573770492,,,,,,,,,,
null,,color_black,669566,black_plus_sign,,,,null,,,,,,,,,,,,,,
null,,learn_phase(without_color),671571,black_plus_sign,,,,null,GW/dustpan.jpg,GW/soldier.jpg,,,,,,,,,,,,
null,,black_cross(without_color),672639,blue,,,,null,GW/dustpan.jpg,GW/soldier.jpg,,,,,,,,,,,,
null,,rt_plussign_withcolor,673140,blue,,,,null,GW/dustpan.jpg,GW/soldier.jpg,,,,,,,,,,,,
1158.800000011921,,rt_thecrossant_black,674079,black_plus_sign,,,,49,,,1,0.9838709677419355,,,,,,,,,,
null,,color_black,674182,black_plus_sign,,,,null,,,,,,,,,,,,,,
null,,learn_phase(without_color),676185,black_plus_sign,,,,null,GW/barrel.jpg,GW/dustpan.jpg,,,,,,,,,,,,
null,,black_cross(without_color),677181,blue,,,,null,GW/barrel.jpg,GW/dustpan.jpg,,,,,,,,,,,,
null,,rt_plussign_withcolor,677683,blue,,,,null,GW/barrel.jpg,GW/dustpan.jpg,,,,,,,,,,,,
1600.8999999761581,,rt_thecrossant_black,678695,black_plus_sign,,,,49,,,1,0.9841269841269841,,,,,,,,,,
null,,color_black,678798,black_plus_sign,,,,null,,,,,,,,,,,,,,
null,,learn_phase(without_color),680800,black_plus_sign,,,,null,GW/paint.jpg,GW/gong.jpg,,,,,,,,,,,,
null,,black_cross(without_color),681760,blue,,,,null,GW/paint.jpg,GW/gong.jpg,,,,,,,,,,,,
null,,rt_plussign_withcolor,682263,blue,,,,null,GW/paint.jpg,GW/gong.jpg,,,,,,,,,,,,
1116.4000000059605,,rt_thecrossant_black,683309,black_plus_sign,,,,49,,,1,0.984375,,,,,,,,,,
null,,color_black,683413,black_plus_sign,,,,null,,,,,,,,,,,,,,
null,,learn_phase(without_color),685418,black_plus_sign,,,,null,GW/wheelchair.jpg,GW/barrel.jpg,,,,,,,,,,,,
null,,black_cross(without_color),685937,green,,,,null,GW/wheelchair.jpg,GW/barrel.jpg,,,,,,,,,,,,
null,,rt_plussign_withcolor,686439,green,,,,null,GW/wheelchair.jpg,GW/barrel.jpg,,,,,,,,,,,,
1377,,rt_thecrossant_black,687927,black_plus_sign,,,,50,,,1,0.9846153846153847,,,,,,,,,,
null,,color_black,688030,black_plus_sign,,,,null,,,,,,,,,,,,,,
null,,learn_phase(without_color),690035,black_plus_sign,,,,null,GW/barrel.jpg,GW/dustpan.jpg,,,,,,,,,,,,
null,,black_cross(without_color),690693,blue,,,,null,GW/barrel.jpg,GW/dustpan.jpg,,,,,,,,,,,,
null,,rt_plussign_withcolor,691195,blue,,,,null,GW/barrel.jpg,GW/dustpan.jpg,,,,,,,,,,,,
1233.300000011921,,rt_thecrossant_black,692545,black_plus_sign,,,,49,,,1,0.9848484848484849,,,,,,,,,,
null,,color_black,692649,black_plus_sign,,,,null,,,,,,,,,,,,,,
null,,learn_phase(without_color),694654,black_plus_sign,,,,null,GW/dustpan.jpg,GW/soldier.jpg,,,,,,,,,,,,
null,,black_cross(without_color),695388,blue,,,,null,GW/dustpan.jpg,GW/soldier.jpg,,,,,,,,,,,,
null,,rt_plussign_withcolor,695890,blue,,,,null,GW/dustpan.jpg,GW/soldier.jpg,,,,,,,,,,,,
1012.4000000059605,,rt_thecrossant_black,697164,black_plus_sign,,,,49,,,1,0.9850746268656716,,,,,,,,,,
null,,color_black,697267,black_plus_sign,,,,null,,,,,,,,,,,,,,
null,,learn_phase(without_color),699273,black_plus_sign,,,,null,GW/snail.jpg,GW/globe.jpg,,,,,,,,,,,,
null,,black_cross(without_color),699751,blue,,,,null,GW/snail.jpg,GW/globe.jpg,,,,,,,,,,,,
null,,rt_plussign_withcolor,700253,blue,,,,null,GW/snail.jpg,GW/globe.jpg,,,,,,,,,,,,
1191.4000000059605,,rt_thecrossant_black,701782,black_plus_sign,,,,49,,,1,0.9852941176470589,,,,,,,,,,
null,,color_black,701886,black_plus_sign,,,,null,,,,,,,,,,,,,,
null,,learn_phase(without_color),703889,black_plus_sign,,,,null,GW/teeth.jpg,GW/wheelchair.jpg,,,,,,,,,,,,
null,,black_cross(without_color),704594,blue,,,,null,GW/teeth.jpg,GW/wheelchair.jpg,,,,,,,,,,,,
null,,rt_plussign_withcolor,705096,blue,,,,null,GW/teeth.jpg,GW/wheelchair.jpg,,,,,,,,,,,,
679.0999999940395,,rt_thecrossant_black,706398,black_plus_sign,,,,49,,,1,0.9855072463768116,,,,,,,,,,
null,,color_black,706501,black_plus_sign,,,,null,,,,,,,,,,,,,,
null,,learn_phase(without_color),708507,black_plus_sign,,,,null,GW/paint.jpg,GW/basket.jpg,,,,,,,,,,,,
null,,black_cross(without_color),709247,blue,,,,null,GW/paint.jpg,GW/basket.jpg,,,,,,,,,,,,
null,,rt_plussign_withcolor,709750,blue,,,,null,GW/paint.jpg,GW/basket.jpg,,,,,,,,,,,,
1271.4000000059605,,rt_thecrossant_black,711017,black_plus_sign,,,,49,,,1,0.9857142857142858,,,,,,,,,,
null,,color_black,711121,black_plus_sign,,,,null,,,,,,,,,,,,,,
null,,learn_phase(without_color),713126,black_plus_sign,,,,null,GW/snail.jpg,GW/gong.jpg,,,,,,,,,,,,
null,,black_cross(without_color),713840,green,,,,null,GW/snail.jpg,GW/gong.jpg,,,,,,,,,,,,
null,,rt_plussign_withcolor,714341,green,,,,null,GW/snail.jpg,GW/gong.jpg,,,,,,,,,,,,
1087.5999999940395,,rt_thecrossant_black,715634,black_plus_sign,,,,50,,,1,0.9859154929577465,,,,,,,,,,
null,,color_black,715737,black_plus_sign,,,,null,,,,,,,,,,,,,,
null,,learn_phase(without_color),717741,black_plus_sign,,,,null,GW/paint.jpg,GW/basket.jpg,,,,,,,,,,,,
null,,black_cross(without_color),718532,green,,,,null,GW/paint.jpg,GW/basket.jpg,,,,,,,,,,,,
null,,rt_plussign_withcolor,719034,green,,,,null,GW/paint.jpg,GW/basket.jpg,,,,,,,,,,,,
1257.0999999940395,,rt_thecrossant_black,720249,black_plus_sign,,,,50,,,1,0.9861111111111112,,,,,,,,,,
null,,color_black,720352,black_plus_sign,,,,null,,,,,,,,,,,,,,
null,,learn_phase(without_color),722357,black_plus_sign,,,,null,GW/barrel.jpg,GW/dustpan.jpg,,,,,,,,,,,,
null,,black_cross(without_color),722958,blue,,,,null,GW/barrel.jpg,GW/dustpan.jpg,,,,,,,,,,,,
null,,rt_plussign_withcolor,723460,blue,,,,null,GW/barrel.jpg,GW/dustpan.jpg,,,,,,,,,,,,
1131.2999999821186,,rt_thecrossant_black,724867,black_plus_sign,,,,49,,,1,0.9863013698630136,,,,,,,,,,
null,,color_black,724970,black_plus_sign,,,,null,,,,,,,,,,,,,,
null,,learn_phase(without_color),726973,black_plus_sign,,,,null,GW/paint.jpg,GW/gong.jpg,,,,,,,,,,,,
null,,black_cross(without_color),727685,blue,,,,null,GW/paint.jpg,GW/gong.jpg,,,,,,,,,,,,
null,,rt_plussign_withcolor,728188,blue,,,,null,GW/paint.jpg,GW/gong.jpg,,,,,,,,,,,,
1061.199999988079,,rt_thecrossant_black,729482,black_plus_sign,,,,49,,,1,0.9864864864864865,,,,,,,,,,
null,,color_black,729586,black_plus_sign,,,,null,,,,,,,,,,,,,,
null,,learn_phase(without_color),731591,black_plus_sign,,,,null,GW/wheelchair.jpg,GW/hat.jpg,,,,,,,,,,,,
null,,black_cross(without_color),732171,blue,,,,null,GW/wheelchair.jpg,GW/hat.jpg,,,,,,,,,,,,
null,,rt_plussign_withcolor,732673,blue,,,,null,GW/wheelchair.jpg,GW/hat.jpg,,,,,,,,,,,,
1076.800000011921,,rt_thecrossant_black,734100,black_plus_sign,,,,49,,,1,0.9866666666666667,,,,,,,,,,
null,,color_black,734204,black_plus_sign,,,,null,,,,,,,,,,,,,,
null,,learn_phase(without_color),736209,black_plus_sign,,,,null,GW/basket.jpg,GW/gong.jpg,,,,,,,,,,,,
null,,black_cross(without_color),737271,blue,,,,null,GW/basket.jpg,GW/gong.jpg,,,,,,,,,,,,
null,,rt_plussign_withcolor,737774,blue,,,,null,GW/basket.jpg,GW/gong.jpg,,,,,,,,,,,,
979.6999999880791,,rt_thecrossant_black,738718,black_plus_sign,,,,49,,,1,0.9868421052631579,,,,,,,,,,
null,,color_black,738822,black_plus_sign,,,,null,,,,,,,,,,,,,,
null,,learn_phase(without_color),740827,black_plus_sign,,,,null,GW/snail.jpg,GW/globe.jpg,,,,,,,,,,,,
null,,black_cross(without_color),741593,blue,,,,null,GW/snail.jpg,GW/globe.jpg,,,,,,,,,,,,
null,,rt_plussign_withcolor,742095,blue,,,,null,GW/snail.jpg,GW/globe.jpg,,,,,,,,,,,,
1459.7000000178814,,rt_thecrossant_black,743336,black_plus_sign,,,,49,,,1,0.987012987012987,,,,,,,,,,
null,,color_black,743440,black_plus_sign,,,,null,,,,,,,,,,,,,,
null,,learn_phase(without_color),745445,black_plus_sign,,,,null,GW/basket.jpg,GW/snail.jpg,,,,,,,,,,,,
null,,black_cross(without_color),746130,blue,,,,null,GW/basket.jpg,GW/snail.jpg,,,,,,,,,,,,
null,,rt_plussign_withcolor,746633,blue,,,,null,GW/basket.jpg,GW/snail.jpg,,,,,,,,,,,,
1241.800000011921,,rt_thecrossant_black,747953,black_plus_sign,,,,49,,,1,0.9871794871794872,,,,,,,,,,
null,,color_black,748057,black_plus_sign,,,,null,,,,,,,,,,,,,,
null,,learn_phase(without_color),750061,black_plus_sign,,,,null,GW/wheelchair.jpg,GW/barrel.jpg,,,,,,,,,,,,
null,,black_cross(without_color),750545,green,,,,null,GW/wheelchair.jpg,GW/barrel.jpg,,,,,,,,,,,,
null,,rt_plussign_withcolor,751047,green,,,,null,GW/wheelchair.jpg,GW/barrel.jpg,,,,,,,,,,,,
1163.4000000059605,,rt_thecrossant_black,752571,black_plus_sign,,,,50,,,1,0.9873417721518988,,,,,,,,,,
null,,color_black,752675,black_plus_sign,,,,null,,,,,,,,,,,,,,
null,,learn_phase(without_color),754679,black_plus_sign,,,,null,GW/snail.jpg,GW/globe.jpg,,,,,,,,,,,,
null,,black_cross(without_color),755087,blue,,,,null,GW/snail.jpg,GW/globe.jpg,,,,,,,,,,,,
null,,rt_plussign_withcolor,755590,blue,,,,null,GW/snail.jpg,GW/globe.jpg,,,,,,,,,,,,
919.4000000059605,,rt_thecrossant_black,757188,black_plus_sign,,,,49,,,1,0.9875,,,,,,,,,,
null,,color_black,757291,black_plus_sign,,,,null,,,,,,,,,,,,,,
null,,learn_phase(without_color),759297,black_plus_sign,,,,null,GW/basket.jpg,GW/snail.jpg,,,,,,,,,,,,
null,,black_cross(without_color),760345,green,,,,null,GW/basket.jpg,GW/snail.jpg,,,,,,,,,,,,
null,,rt_plussign_withcolor,760848,green,,,,null,GW/basket.jpg,GW/snail.jpg,,,,,,,,,,,,
663.1999999880791,,rt_thecrossant_black,761806,black_plus_sign,,,,50,,,1,0.9876543209876543,,,,,,,,,,
null,,color_black,761908,black_plus_sign,,,,null,,,,,,,,,,,,,,
null,,learn_phase(without_color),763914,black_plus_sign,,,,null,GW/barrel.jpg,GW/dustpan.jpg,,,,,,,,,,,,
null,,black_cross(without_color),764918,blue,,,,null,GW/barrel.jpg,GW/dustpan.jpg,,,,,,,,,,,,
null,,rt_plussign_withcolor,765421,blue,,,,null,GW/barrel.jpg,GW/dustpan.jpg,,,,,,,,,,,,
1432.5,,rt_thecrossant_black,766423,black_plus_sign,,,,49,,,1,0.9878048780487805,,,,,,,,,,
null,,color_black,766527,black_plus_sign,,,,null,,,,,,,,,,,,,,
null,,learn_phase(without_color),768531,black_plus_sign,,,,null,GW/basket.jpg,GW/camera.jpg,,,,,,,,,,,,
null,,black_cross(without_color),769199,blue,,,,null,GW/basket.jpg,GW/camera.jpg,,,,,,,,,,,,
null,,rt_plussign_withcolor,769701,blue,,,,null,GW/basket.jpg,GW/camera.jpg,,,,,,,,,,,,
1731.5,,rt_thecrossant_black,771041,black_plus_sign,,,,49,,,1,0.9879518072289156,,,,,,,,,,
null,,color_black,771145,black_plus_sign,,,,null,,,,,,,,,,,,,,
null,,learn_phase(without_color),773150,black_plus_sign,,,,null,GW/dustpan.jpg,GW/soldier.jpg,,,,,,,,,,,,
null,,black_cross(without_color),773897,blue,,,,null,GW/dustpan.jpg,GW/soldier.jpg,,,,,,,,,,,,
null,,rt_plussign_withcolor,774399,blue,,,,null,GW/dustpan.jpg,GW/soldier.jpg,,,,,,,,,,,,
1434.9000000059605,,rt_thecrossant_black,775658,black_plus_sign,,,,49,,,1,0.9880952380952381,,,,,,,,,,
null,,color_black,775762,black_plus_sign,,,,null,,,,,,,,,,,,,,
null,,learn_phase(without_color),777767,black_plus_sign,,,,null,GW/hat.jpg,GW/soldier.jpg,,,,,,,,,,,,
null,,black_cross(without_color),778607,green,,,,null,GW/hat.jpg,GW/soldier.jpg,,,,,,,,,,,,
null,,rt_plussign_withcolor,779110,green,,,,null,GW/hat.jpg,GW/soldier.jpg,,,,,,,,,,,,
1053.5,,rt_thecrossant_black,780277,black_plus_sign,,,,50,,,1,0.9882352941176471,,,,,,,,,,
null,,color_black,780380,black_plus_sign,,,,null,,,,,,,,,,,,,,
null,,learn_phase(without_color),782383,black_plus_sign,,,,null,GW/teeth.jpg,GW/wheelchair.jpg,,,,,,,,,,,,
null,,black_cross(without_color),783077,green,,,,null,GW/teeth.jpg,GW/wheelchair.jpg,,,,,,,,,,,,
null,,rt_plussign_withcolor,783580,green,,,,null,GW/teeth.jpg,GW/wheelchair.jpg,,,,,,,,,,,,
1354.5999999940395,,rt_thecrossant_black,784892,black_plus_sign,,,,50,,,1,0.9883720930232558,,,,,,,,,,
null,,color_black,784995,black_plus_sign,,,,null,,,,,,,,,,,,,,
null,,learn_phase(without_color),787001,black_plus_sign,,,,null,GW/paint.jpg,GW/gong.jpg,,,,,,,,,,,,
null,,black_cross(without_color),787980,green,,,,null,GW/paint.jpg,GW/gong.jpg,,,,,,,,,,,,
null,,rt_plussign_withcolor,788483,green,,,,null,GW/paint.jpg,GW/gong.jpg,,,,,,,,,,,,
985.5999999940395,,rt_thecrossant_black,789511,black_plus_sign,,,,50,,,1,0.9885057471264368,,,,,,,,,,
null,,color_black,789614,black_plus_sign,,,,null,,,,,,,,,,,,,,
null,,learn_phase(without_color),791619,black_plus_sign,,,,null,GW/gong.jpg,GW/dustpan.jpg,,,,,,,,,,,,
null,,black_cross(without_color),792507,blue,,,,null,GW/gong.jpg,GW/dustpan.jpg,,,,,,,,,,,,
null,,rt_plussign_withcolor,793010,blue,,,,null,GW/gong.jpg,GW/dustpan.jpg,,,,,,,,,,,,
1660,,rt_thecrossant_black,794129,black_plus_sign,,,,49,,,1,0.9886363636363636,,,,,,,,,,
null,,color_black,794233,black_plus_sign,,,,null,,,,,,,,,,,,,,
null,,learn_phase(without_color),796238,black_plus_sign,,,,null,GW/snail.jpg,GW/gong.jpg,,,,,,,,,,,,
null,,black_cross(without_color),796734,green,,,,null,GW/snail.jpg,GW/gong.jpg,,,,,,,,,,,,
null,,rt_plussign_withcolor,797237,green,,,,null,GW/snail.jpg,GW/gong.jpg,,,,,,,,,,,,
1661.800000011921,,rt_thecrossant_black,798749,black_plus_sign,,,,50,,,1,0.9887640449438202,,,,,,,,,,
null,,color_black,798852,black_plus_sign,,,,null,,,,,,,,,,,,,,
null,,learn_phase(without_color),800857,black_plus_sign,,,,null,GW/barrel.jpg,GW/dustpan.jpg,,,,,,,,,,,,
null,,black_cross(without_color),801850,green,,,,null,GW/barrel.jpg,GW/dustpan.jpg,,,,,,,,,,,,
null,,rt_plussign_withcolor,802353,green,,,,null,GW/barrel.jpg,GW/dustpan.jpg,,,,,,,,,,,,
759.0999999940395,,rt_thecrossant_black,803367,black_plus_sign,,,,50,,,1,0.9888888888888889,,,,,,,,,,
null,,color_black,803471,black_plus_sign,,,,null,,,,,,,,,,,,,,
null,,learn_phase(without_color),805476,black_plus_sign,,,,null,GW/dustpan.jpg,GW/soldier.jpg,,,,,,,,,,,,
null,,black_cross(without_color),806244,blue,,,,null,GW/dustpan.jpg,GW/soldier.jpg,,,,,,,,,,,,
null,,rt_plussign_withcolor,806746,blue,,,,null,GW/dustpan.jpg,GW/soldier.jpg,,,,,,,,,,,,
1330.7999999821186,,rt_thecrossant_black,807986,black_plus_sign,,,,49,,,1,0.989010989010989,,,,,,,,,,
null,,color_black,808089,black_plus_sign,,,,null,,,,,,,,,,,,,,
null,,learn_phase(without_color),810095,black_plus_sign,,,,null,GW/teeth.jpg,GW/wheelchair.jpg,,,,,,,,,,,,
null,,black_cross(without_color),810813,blue,,,,null,GW/teeth.jpg,GW/wheelchair.jpg,,,,,,,,,,,,
null,,rt_plussign_withcolor,811315,blue,,,,null,GW/teeth.jpg,GW/wheelchair.jpg,,,,,,,,,,,,
1216.9000000059605,,rt_thecrossant_black,812605,black_plus_sign,,,,49,,,1,0.9891304347826086,,,,,,,,,,
null,,color_black,812709,black_plus_sign,,,,null,,,,,,,,,,,,,,
null,,learn_phase(without_color),814714,black_plus_sign,,,,null,GW/basket.jpg,GW/gong.jpg,,,,,,,,,,,,
null,,black_cross(without_color),815634,blue,,,,null,GW/basket.jpg,GW/gong.jpg,,,,,,,,,,,,
null,,rt_plussign_withcolor,816137,blue,,,,null,GW/basket.jpg,GW/gong.jpg,,,,,,,,,,,,
1055.2000000178814,,rt_thecrossant_black,817223,black_plus_sign,,,,49,,,1,0.989247311827957,,,,,,,,,,
null,,color_black,817327,black_plus_sign,,,,null,,,,,,,,,,,,,,
null,,learn_phase(without_color),819332,black_plus_sign,,,,null,GW/paint.jpg,GW/basket.jpg,,,,,,,,,,,,
null,,black_cross(without_color),819742,green,,,,null,GW/paint.jpg,GW/basket.jpg,,,,,,,,,,,,
null,,rt_plussign_withcolor,820245,green,,,,null,GW/paint.jpg,GW/basket.jpg,,,,,,,,,,,,
1332.4000000059605,,rt_thecrossant_black,821842,black_plus_sign,,,,50,,,1,0.9893617021276596,,,,,,,,,,
null,,color_black,821945,black_plus_sign,,,,null,,,,,,,,,,,,,,
null,,learn_phase(without_color),823950,black_plus_sign,,,,null,GW/gong.jpg,GW/dustpan.jpg,,,,,,,,,,,,
null,,black_cross(without_color),824982,blue,,,,null,GW/gong.jpg,GW/dustpan.jpg,,,,,,,,,,,,
null,,rt_plussign_withcolor,825485,blue,,,,null,GW/gong.jpg,GW/dustpan.jpg,,,,,,,,,,,,
732.3000000119209,,rt_thecrossant_black,826460,black_plus_sign,,,,49,,,1,0.9894736842105263,,,,,,,,,,
null,,color_black,826563,black_plus_sign,,,,null,,,,,,,,,,,,,,
null,,learn_phase(without_color),828568,black_plus_sign,,,,null,GW/hat.jpg,GW/jukebox.jpg,,,,,,,,,,,,
null,,black_cross(without_color),829421,blue,,,,null,GW/hat.jpg,GW/jukebox.jpg,,,,,,,,,,,,
null,,rt_plussign_withcolor,829924,blue,,,,null,GW/hat.jpg,GW/jukebox.jpg,,,,,,,,,,,,
1359.4000000059605,,rt_thecrossant_black,831078,black_plus_sign,,,,49,,,1,0.9895833333333334,,,,,,,,,,
null,,color_black,831182,black_plus_sign,,,,null,,,,,,,,,,,,,,
null,,learn_phase(without_color),833187,black_plus_sign,,,,null,GW/gong.jpg,GW/dustpan.jpg,,,,,,,,,,,,
null,,black_cross(without_color),834050,blue,,,,null,GW/gong.jpg,GW/dustpan.jpg,,,,,,,,,,,,
null,,rt_plussign_withcolor,834552,blue,,,,null,GW/gong.jpg,GW/dustpan.jpg,,,,,,,,,,,,
1359.699999988079,,rt_thecrossant_black,835697,black_plus_sign,,,,49,,,1,0.9896907216494846,,,,,,,,,,
null,,color_black,835801,black_plus_sign,,,,null,,,,,,,,,,,,,,
null,,learn_phase(without_color),837806,black_plus_sign,,,,null,GW/paint.jpg,GW/basket.jpg,,,,,,,,,,,,
null,,black_cross(without_color),838392,green,,,,null,GW/paint.jpg,GW/basket.jpg,,,,,,,,,,,,
null,,rt_plussign_withcolor,838895,green,,,,null,GW/paint.jpg,GW/basket.jpg,,,,,,,,,,,,
1061.5,,rt_thecrossant_black,840316,black_plus_sign,,,,50,,,1,0.9897959183673469,,,,,,,,,,
null,,color_black,840420,black_plus_sign,,,,null,,,,,,,,,,,,,,
null,,learn_phase(without_color),842425,black_plus_sign,,,,null,GW/hat.jpg,GW/jukebox.jpg,,,,,,,,,,,,
null,,black_cross(without_color),843341,blue,,,,null,GW/hat.jpg,GW/jukebox.jpg,,,,,,,,,,,,
null,,rt_plussign_withcolor,843844,blue,,,,null,GW/hat.jpg,GW/jukebox.jpg,,,,,,,,,,,,
746,,rt_thecrossant_black,844935,black_plus_sign,,,,49,,,1,0.98989898989899,,,,,,,,,,
null,,color_black,845039,black_plus_sign,,,,null,,,,,,,,,,,,,,
null,,learn_phase(without_color),847044,black_plus_sign,,,,null,GW/wheelchair.jpg,GW/barrel.jpg,,,,,,,,,,,,
null,,black_cross(without_color),847864,green,,,,null,GW/wheelchair.jpg,GW/barrel.jpg,,,,,,,,,,,,
null,,rt_plussign_withcolor,848369,green,,,,null,GW/wheelchair.jpg,GW/barrel.jpg,,,,,,,,,,,,
1012.3000000119209,,rt_thecrossant_black,849556,black_plus_sign,,,,50,,,1,0.99,,,,,,,,,,
null,,color_black,849660,black_plus_sign,,,,null,,,,,,,,,,,,,,
null,,learn_phase(without_color),851665,black_plus_sign,,,,null,GW/paint.jpg,GW/gong.jpg,,,,,,,,,,,,
null,,black_cross(without_color),852144,blue,,,,null,GW/paint.jpg,GW/gong.jpg,,,,,,,,,,,,
null,,rt_plussign_withcolor,852647,blue,,,,null,GW/paint.jpg,GW/gong.jpg,,,,,,,,,,,,
995.2000000178814,,rt_thecrossant_black,854175,black_plus_sign,,,,49,,,1,0.9900990099009901,,,,,,,,,,
null,,color_black,854279,black_plus_sign,,,,null,,,,,,,,,,,,,,
null,,learn_phase(without_color),856284,black_plus_sign,,,,null,GW/hat.jpg,GW/soldier.jpg,,,,,,,,,,,,
null,,black_cross(without_color),857094,blue,,,,null,GW/hat.jpg,GW/soldier.jpg,,,,,,,,,,,,
null,,rt_plussign_withcolor,857596,blue,,,,null,GW/hat.jpg,GW/soldier.jpg,,,,,,,,,,,,
734.1999999880791,,rt_thecrossant_black,858794,black_plus_sign,,,,49,,,1,0.9901960784313726,,,,,,,,,,
null,,color_black,858897,black_plus_sign,,,,null,,,,,,,,,,,,,,
null,,learn_phase(without_color),860901,black_plus_sign,,,,null,GW/dustpan.jpg,GW/soldier.jpg,,,,,,,,,,,,
null,,black_cross(without_color),861499,blue,,,,null,GW/dustpan.jpg,GW/soldier.jpg,,,,,,,,,,,,
null,,rt_plussign_withcolor,862002,blue,,,,null,GW/dustpan.jpg,GW/soldier.jpg,,,,,,,,,,,,
1168.5,,rt_thecrossant_black,863410,black_plus_sign,,,,49,,,1,0.9902912621359223,,,,,,,,,,
null,,color_black,863514,black_plus_sign,,,,null,,,,,,,,,,,,,,
null,,learn_phase(without_color),865519,black_plus_sign,,,,null,GW/basket.jpg,GW/camera.jpg,,,,,,,,,,,,
null,,black_cross(without_color),866142,green,,,,null,GW/basket.jpg,GW/camera.jpg,,,,,,,,,,,,
null,,rt_plussign_withcolor,866645,green,,,,null,GW/basket.jpg,GW/camera.jpg,,,,,,,,,,,,
838,,rt_thecrossant_black,868028,black_plus_sign,,,,50,,,1,0.9903846153846154,,,,,,,,,,
null,,color_black,868132,black_plus_sign,,,,null,,,,,,,,,,,,,,
null,,learn_phase(without_color),870137,black_plus_sign,,,,null,GW/barrel.jpg,GW/dustpan.jpg,,,,,,,,,,,,
null,,black_cross(without_color),870544,green,,,,null,GW/barrel.jpg,GW/dustpan.jpg,,,,,,,,,,,,
null,,rt_plussign_withcolor,871047,green,,,,null,GW/barrel.jpg,GW/dustpan.jpg,,,,,,,,,,,,
913.0999999940395,,rt_thecrossant_black,872647,black_plus_sign,,,,50,,,1,0.9904761904761905,,,,,,,,,,
null,,color_black,872751,black_plus_sign,,,,null,,,,,,,,,,,,,,
null,,learn_phase(without_color),874756,black_plus_sign,,,,null,GW/barrel.jpg,GW/paint.jpg,,,,,,,,,,,,
null,,black_cross(without_color),875776,green,,,,null,GW/barrel.jpg,GW/paint.jpg,,,,,,,,,,,,
null,,rt_plussign_withcolor,876279,green,,,,null,GW/barrel.jpg,GW/paint.jpg,,,,,,,,,,,,
785.7999999821186,,rt_thecrossant_black,877266,black_plus_sign,,,,50,,,1,0.9905660377358491,,,,,,,,,,
null,,color_black,877370,black_plus_sign,,,,null,,,,,,,,,,,,,,
null,,learn_phase(without_color),879375,black_plus_sign,,,,null,GW/snail.jpg,GW/gong.jpg,,,,,,,,,,,,
null,,black_cross(without_color),880087,green,,,,null,GW/snail.jpg,GW/gong.jpg,,,,,,,,,,,,
null,,rt_plussign_withcolor,880590,green,,,,null,GW/snail.jpg,GW/gong.jpg,,,,,,,,,,,,
1248.5999999940395,,rt_thecrossant_black,881886,black_plus_sign,,,,50,,,1,0.9906542056074766,,,,,,,,,,
null,,color_black,881989,black_plus_sign,,,,null,,,,,,,,,,,,,,
null,,learn_phase(without_color),883995,black_plus_sign,,,,null,GW/basket.jpg,GW/gong.jpg,,,,,,,,,,,,
null,,black_cross(without_color),884513,blue,,,,null,GW/basket.jpg,GW/gong.jpg,,,,,,,,,,,,
null,,rt_plussign_withcolor,885016,blue,,,,null,GW/basket.jpg,GW/gong.jpg,,,,,,,,,,,,
972.6000000238419,,rt_thecrossant_black,886504,black_plus_sign,,,,49,,,1,0.9907407407407407,,,,,,,,,,
null,,color_black,886608,black_plus_sign,,,,null,,,,,,,,,,,,,,
null,,learn_phase(without_color),888614,black_plus_sign,,,,null,GW/barrel.jpg,GW/paint.jpg,,,,,,,,,,,,
null,,black_cross(without_color),889303,blue,,,,null,GW/barrel.jpg,GW/paint.jpg,,,,,,,,,,,,
null,,rt_plussign_withcolor,889805,blue,,,,null,GW/barrel.jpg,GW/paint.jpg,,,,,,,,,,,,
884.4000000059605,,rt_thecrossant_black,891124,black_plus_sign,,,,49,,,1,0.9908256880733946,,,,,,,,,,
null,,color_black,891228,black_plus_sign,,,,null,,,,,,,,,,,,,,
null,,learn_phase(without_color),893233,black_plus_sign,,,,null,GW/basket.jpg,GW/gong.jpg,,,,,,,,,,,,
null,,black_cross(without_color),894151,green,,,,null,GW/basket.jpg,GW/gong.jpg,,,,,,,,,,,,
null,,rt_plussign_withcolor,894654,green,,,,null,GW/basket.jpg,GW/gong.jpg,,,,,,,,,,,,
1123.9000000059605,,rt_thecrossant_black,895743,black_plus_sign,,,,50,,,1,0.990909090909091,,,,,,,,,,
null,,color_black,895847,black_plus_sign,,,,null,,,,,,,,,,,,,,
null,,learn_phase(without_color),897852,black_plus_sign,,,,null,GW/paint.jpg,GW/gong.jpg,,,,,,,,,,,,
null,,black_cross(without_color),898828,blue,,,,null,GW/paint.jpg,GW/gong.jpg,,,,,,,,,,,,
null,,rt_plussign_withcolor,899331,blue,,,,null,GW/paint.jpg,GW/gong.jpg,,,,,,,,,,,,
1248.4000000059605,,rt_thecrossant_black,900362,black_plus_sign,,,,49,,,1,0.990990990990991,,,,,,,,,,
null,,color_black,900466,black_plus_sign,,,,null,,,,,,,,,,,,,,
null,,learn_phase(without_color),902472,black_plus_sign,,,,null,GW/hat.jpg,GW/soldier.jpg,,,,,,,,,,,,
null,,black_cross(without_color),903171,blue,,,,null,GW/hat.jpg,GW/soldier.jpg,,,,,,,,,,,,
null,,rt_plussign_withcolor,903674,blue,,,,null,GW/hat.jpg,GW/soldier.jpg,,,,,,,,,,,,
1332.800000011921,,rt_thecrossant_black,904980,black_plus_sign,,,,49,,,1,0.9910714285714286,,,,,,,,,,
null,,color_black,905084,black_plus_sign,,,,null,,,,,,,,,,,,,,
null,,learn_phase(without_color),907090,black_plus_sign,,,,null,GW/teeth.jpg,GW/wheelchair.jpg,,,,,,,,,,,,
null,,black_cross(without_color),908110,blue,,,,null,GW/teeth.jpg,GW/wheelchair.jpg,,,,,,,,,,,,
null,,rt_plussign_withcolor,908613,blue,,,,null,GW/teeth.jpg,GW/wheelchair.jpg,,,,,,,,,,,,
1071.7999999821186,,rt_thecrossant_black,909600,black_plus_sign,,,,49,,,1,0.9911504424778761,,,,,,,,,,
null,,color_black,909704,black_plus_sign,,,,null,,,,,,,,,,,,,,
null,,learn_phase(without_color),911709,black_plus_sign,,,,null,GW/snail.jpg,GW/gong.jpg,,,,,,,,,,,,
null,,black_cross(without_color),912466,green,,,,null,GW/snail.jpg,GW/gong.jpg,,,,,,,,,,,,
null,,rt_plussign_withcolor,912969,green,,,,null,GW/snail.jpg,GW/gong.jpg,,,,,,,,,,,,
1520.5,,rt_thecrossant_black,914220,black_plus_sign,,,,50,,,1,0.9912280701754386,,,,,,,,,,
null,,color_black,914323,black_plus_sign,,,,null,,,,,,,,,,,,,,
null,,learn_phase(without_color),916328,black_plus_sign,,,,null,GW/basket.jpg,GW/snail.jpg,,,,,,,,,,,,
null,,black_cross(without_color),917136,blue,,,,null,GW/basket.jpg,GW/snail.jpg,,,,,,,,,,,,
null,,rt_plussign_withcolor,917638,blue,,,,null,GW/basket.jpg,GW/snail.jpg,,,,,,,,,,,,
1451.0999999940395,,rt_thecrossant_black,918837,black_plus_sign,,,,49,,,1,0.991304347826087,,,,,,,,,,
null,,color_black,918939,black_plus_sign,,,,null,,,,,,,,,,,,,,
null,,learn_phase(without_color),920942,black_plus_sign,,,,null,GW/hat.jpg,GW/jukebox.jpg,,,,,,,,,,,,
null,,black_cross(without_color),921869,green,,,,null,GW/hat.jpg,GW/jukebox.jpg,,,,,,,,,,,,
null,,rt_plussign_withcolor,922372,green,,,,null,GW/hat.jpg,GW/jukebox.jpg,,,,,,,,,,,,
1272,,rt_thecrossant_black,923452,black_plus_sign,,,,50,,,1,0.9913793103448276,,,,,,,,,,
null,,color_black,923556,black_plus_sign,,,,null,,,,,,,,,,,,,,
null,,learn_phase(without_color),925561,black_plus_sign,,,,null,GW/snail.jpg,GW/gong.jpg,,,,,,,,,,,,
null,,black_cross(without_color),926104,blue,,,,null,GW/snail.jpg,GW/gong.jpg,,,,,,,,,,,,
null,,rt_plussign_withcolor,926607,blue,,,,null,GW/snail.jpg,GW/gong.jpg,,,,,,,,,,,,
1280.199999988079,,rt_thecrossant_black,928070,black_plus_sign,,,,49,,,1,0.9914529914529915,,,,,,,,,,
null,,color_black,928174,black_plus_sign,,,,null,,,,,,,,,,,,,,
null,,learn_phase(without_color),930179,black_plus_sign,,,,null,GW/basket.jpg,GW/camera.jpg,,,,,,,,,,,,
null,,black_cross(without_color),930670,blue,,,,null,GW/basket.jpg,GW/camera.jpg,,,,,,,,,,,,
null,,rt_plussign_withcolor,931172,blue,,,,null,GW/basket.jpg,GW/camera.jpg,,,,,,,,,,,,
918.7000000178814,,rt_thecrossant_black,932689,black_plus_sign,,,,49,,,1,0.9915254237288136,,,,,,,,,,
null,,color_black,932793,black_plus_sign,,,,null,,,,,,,,,,,,,,
null,,learn_phase(without_color),934799,black_plus_sign,,,,null,GW/hat.jpg,GW/jukebox.jpg,,,,,,,,,,,,
null,,black_cross(without_color),935773,blue,,,,null,GW/hat.jpg,GW/jukebox.jpg,,,,,,,,,,,,
null,,rt_plussign_withcolor,936275,blue,,,,null,GW/hat.jpg,GW/jukebox.jpg,,,,,,,,,,,,
1081.0999999940395,,rt_thecrossant_black,937308,black_plus_sign,,,,49,,,1,0.9915966386554622,,,,,,,,,,
null,,color_black,937410,black_plus_sign,,,,null,,,,,,,,,,,,,,
null,,learn_phase(without_color),939416,black_plus_sign,,,,null,GW/basket.jpg,GW/gong.jpg,,,,,,,,,,,,
null,,black_cross(without_color),940339,green,,,,null,GW/basket.jpg,GW/gong.jpg,,,,,,,,,,,,
null,,rt_plussign_withcolor,940841,green,,,,null,GW/basket.jpg,GW/gong.jpg,,,,,,,,,,,,
1149.5,,rt_thecrossant_black,941925,black_plus_sign,,,,50,,,1,0.9916666666666667,,,,,,,,,,
null,,color_black,942029,black_plus_sign,,,,null,,,,,,,,,,,,,,
null,,learn_phase(without_color),944034,black_plus_sign,,,,null,GW/basket.jpg,GW/camera.jpg,,,,,,,,,,,,
null,,black_cross(without_color),944746,blue,,,,null,GW/basket.jpg,GW/camera.jpg,,,,,,,,,,,,
null,,rt_plussign_withcolor,945248,blue,,,,null,GW/basket.jpg,GW/camera.jpg,,,,,,,,,,,,
1276.2000000178814,,rt_thecrossant_black,946544,black_plus_sign,,,,49,,,1,0.9917355371900827,,,,,,,,,,
null,,color_black,946648,black_plus_sign,,,,null,,,,,,,,,,,,,,
null,,learn_phase(without_color),948654,black_plus_sign,,,,null,GW/hat.jpg,GW/jukebox.jpg,,,,,,,,,,,,
null,,black_cross(without_color),949357,blue,,,,null,GW/hat.jpg,GW/jukebox.jpg,,,,,,,,,,,,
365.5,,rt_plussign_withcolor,949860,blue,,,,49,GW/hat.jpg,GW/jukebox.jpg,,,,,,,,,,,,
null,,rt_thecrossant_black,951164,black_plus_sign,,,,null,,,1,0.9918032786885246,,,,,,,,,,
null,,color_black,951267,black_plus_sign,,,,null,,,,,,,,,,,,,,
null,,learn_phase(without_color),953273,black_plus_sign,,,,null,GW/snail.jpg,GW/gong.jpg,,,,,,,,,,,,
null,,black_cross(without_color),953855,blue,,,,null,GW/snail.jpg,GW/gong.jpg,,,,,,,,,,,,
null,,rt_plussign_withcolor,954358,blue,,,,null,GW/snail.jpg,GW/gong.jpg,,,,,,,,,,,,
909.2999999821186,,rt_thecrossant_black,955783,black_plus_sign,,,,49,,,1,0.991869918699187,,,,,,,,,,
null,,color_black,955887,black_plus_sign,,,,null,,,,,,,,,,,,,,
null,,learn_phase(without_color),957892,black_plus_sign,,,,null,GW/wheelchair.jpg,GW/barrel.jpg,,,,,,,,,,,,
null,,black_cross(without_color),958535,blue,,,,null,GW/wheelchair.jpg,GW/barrel.jpg,,,,,,,,,,,,
null,,rt_plussign_withcolor,959038,blue,,,,null,GW/wheelchair.jpg,GW/barrel.jpg,,,,,,,,,,,,
909.5999999940395,,rt_thecrossant_black,960402,black_plus_sign,,,,49,,,1,0.9919354838709677,,,,,,,,,,
null,,color_black,960506,black_plus_sign,,,,null,,,,,,,,,,,,,,
null,,learn_phase(without_color),962512,black_plus_sign,,,,null,GW/barrel.jpg,GW/paint.jpg,,,,,,,,,,,,
null,,black_cross(without_color),962920,green,,,,null,GW/barrel.jpg,GW/paint.jpg,,,,,,,,,,,,
null,,rt_plussign_withcolor,963423,green,,,,null,GW/barrel.jpg,GW/paint.jpg,,,,,,,,,,,,
1153.3999999761581,,rt_thecrossant_black,965022,black_plus_sign,,,,50,,,1,0.992,,,,,,,,,,
null,,color_black,965125,black_plus_sign,,,,null,,,,,,,,,,,,,,
8008.0999999940395,,intro_1,973144,instruct,,0,Start,,,,,,,,,,,,,,,
2911.2999999821186,,directmemory_phase,976062,GW/snail.jpg,,,,50,,,1,1,GW/dustpan.jpg,GW/basket.jpg,GW/barrel.jpg,GW/basket.jpg,GW/dustpan.jpg,GW/barrel.jpg,1,,,
null,,html-keyboard-response,977069,<p></p>,,,,null,,,,,,,,,,,,,,
1407.5999999940395,,directmemory_phase,978481,GW/paint.jpg,,,,49,,,1,1,GW/barrel.jpg,GW/jukebox.jpg,GW/dustpan.jpg,GW/barrel.jpg,GW/dustpan.jpg,GW/jukebox.jpg,1,,,
null,,html-keyboard-response,979485,<p></p>,,,,null,,,,,,,,,,,,,,
2530.5999999940395,,directmemory_phase,982019,GW/gong.jpg,,,,51,,,1,1,GW/hat.jpg,GW/globe.jpg,GW/dustpan.jpg,GW/dustpan.jpg,GW/globe.jpg,GW/hat.jpg,1,,,
null,,html-keyboard-response,983024,<p></p>,,,,null,,,,,,,,,,,,,,
1668.800000011921,,directmemory_phase,984697,GW/wheelchair.jpg,,,,51,,,1,1,GW/snail.jpg,GW/dustpan.jpg,GW/teeth.jpg,GW/teeth.jpg,GW/dustpan.jpg,GW/snail.jpg,1,,,
null,,html-keyboard-response,985702,<p></p>,,,,null,,,,,,,,,,,,,,
3691.4000000059605,,directmemory_phase,989398,GW/paint.jpg,,,,50,,,0,0.8,GW/gong.jpg,GW/jukebox.jpg,GW/camera.jpg,GW/gong.jpg,GW/camera.jpg,GW/jukebox.jpg,0.5,closer,,
null,,html-keyboard-response,990403,<p></p>,,,,null,,,,,,,,,,,,,,
3879.2000000178814,,directmemory_phase,994284,GW/jukebox.jpg,,,,51,,,1,0.8333333333333334,GW/barrel.jpg,GW/soldier.jpg,GW/hat.jpg,GW/hat.jpg,GW/soldier.jpg,GW/barrel.jpg,1,,,
null,,html-keyboard-response,995288,<p></p>,,,,null,,,,,,,,,,,,,,
5340.299999982119,,directmemory_phase,1000633,GW/barrel.jpg,,,,50,,,0,0.7142857142857143,GW/wheelchair.jpg,GW/snail.jpg,GW/basket.jpg,GW/wheelchair.jpg,GW/basket.jpg,GW/snail.jpg,0.5,closer,,
null,,html-keyboard-response,1001639,<p></p>,,,,null,,,,,,,,,,,,,,
4897.5,,directmemory_phase,1006541,GW/paint.jpg,,,,50,,,1,0.75,GW/dustpan.jpg,GW/basket.jpg,GW/jukebox.jpg,GW/basket.jpg,GW/dustpan.jpg,GW/jukebox.jpg,1,,,
null,,html-keyboard-response,1007546,<p></p>,,,,null,,,,,,,,,,,,,,
4229.9000000059605,,directmemory_phase,1011782,GW/wheelchair.jpg,,,,49,,,1,0.7777777777777778,GW/hat.jpg,GW/basket.jpg,GW/soldier.jpg,GW/hat.jpg,GW/soldier.jpg,GW/basket.jpg,1,,,
null,,html-keyboard-response,1012787,<p></p>,,,,null,,,,,,,,,,,,,,
1576.7000000178814,,directmemory_phase,1014368,GW/barrel.jpg,,,,51,,,1,0.8,GW/globe.jpg,GW/basket.jpg,GW/paint.jpg,GW/paint.jpg,GW/basket.jpg,GW/globe.jpg,1,,,
null,,html-keyboard-response,1015373,<p></p>,,,,null,,,,,,,,,,,,,,
4432.699999988079,,directmemory_phase,1019809,GW/basket.jpg,,,,51,,,1,0.8181818181818182,GW/hat.jpg,GW/barrel.jpg,GW/snail.jpg,GW/snail.jpg,GW/barrel.jpg,GW/hat.jpg,1,,,
null,,html-keyboard-response,1020814,<p></p>,,,,null,,,,,,,,,,,,,,
null,,directmemory_phase,1027318,GW/dustpan.jpg,,,,null,,,0,0.75,GW/teeth.jpg,GW/paint.jpg,GW/barrel.jpg,GW/barrel.jpg,GW/paint.jpg,GW/teeth.jpg,0,,,
null,,html-keyboard-response,1028322,<p></p>,,,,null,,,,,,,,,,,,,,
1957.5999999940395,,directmemory_phase,1030284,GW/hat.jpg,,,,49,,,0,0.6923076923076923,GW/gong.jpg,GW/dustpan.jpg,GW/jukebox.jpg,GW/jukebox.jpg,GW/dustpan.jpg,GW/gong.jpg,0.5,closer,,
null,,html-keyboard-response,1031289,<p></p>,,,,null,,,,,,,,,,,,,,
1434.5,,directmemory_phase,1032727,GW/teeth.jpg,,,,51,,,1,0.7142857142857143,GW/gong.jpg,GW/hat.jpg,GW/wheelchair.jpg,GW/wheelchair.jpg,GW/hat.jpg,GW/gong.jpg,1,,,
null,,html-keyboard-response,1033732,<p></p>,,,,null,,,,,,,,,,,,,,
1576,,directmemory_phase,1035312,GW/globe.jpg,,,,50,,,1,0.7333333333333333,GW/basket.jpg,GW/snail.jpg,GW/paint.jpg,GW/snail.jpg,GW/basket.jpg,GW/paint.jpg,1,,,
null,,html-keyboard-response,1036317,<p></p>,,,,null,,,,,,,,,,,,,,
1151.3999999761581,,directmemory_phase,1037472,GW/hat.jpg,,,,51,,,1,0.75,GW/paint.jpg,GW/teeth.jpg,GW/wheelchair.jpg,GW/wheelchair.jpg,GW/teeth.jpg,GW/paint.jpg,1,,,
null,,html-keyboard-response,1038479,<p></p>,,,,null,,,,,,,,,,,,,,
1659.4000000059605,,directmemory_phase,1040141,GW/gong.jpg,,,,49,,,0,0.7058823529411765,GW/teeth.jpg,GW/soldier.jpg,GW/basket.jpg,GW/basket.jpg,GW/soldier.jpg,GW/teeth.jpg,0.5,closer,,
null,,html-keyboard-response,1041145,<p></p>,,,,null,,,,,,,,,,,,,,
1893.2999999821186,,directmemory_phase,1043042,GW/soldier.jpg,,,,51,,,1,0.7222222222222222,GW/paint.jpg,GW/barrel.jpg,GW/hat.jpg,GW/hat.jpg,GW/barrel.jpg,GW/paint.jpg,1,,,
null,,html-keyboard-response,1044047,<p></p>,,,,null,,,,,,,,,,,,,,
1925.6000000238419,,directmemory_phase,1045977,GW/wheelchair.jpg,,,,51,,,0,0.6842105263157895,GW/barrel.jpg,GW/basket.jpg,GW/paint.jpg,GW/barrel.jpg,GW/paint.jpg,GW/basket.jpg,0.5,closer,,
null,,html-keyboard-response,1046982,<p></p>,,,,null,,,,,,,,,,,,,,
1642.9000000059605,,directmemory_phase,1048628,GW/camera.jpg,,,,49,,,0,0.65,GW/wheelchair.jpg,GW/paint.jpg,GW/basket.jpg,GW/basket.jpg,GW/paint.jpg,GW/wheelchair.jpg,0.5,closer,,
null,,html-keyboard-response,1049634,<p></p>,,,,null,,,,,,,,,,,,,,
1833.8999999761581,,directmemory_phase,1051471,GW/barrel.jpg,,,,51,,,0,0.6190476190476191,GW/dustpan.jpg,GW/camera.jpg,GW/teeth.jpg,GW/dustpan.jpg,GW/teeth.jpg,GW/camera.jpg,0.5,closer,,
null,,html-keyboard-response,1052476,<p></p>,,,,null,,,,,,,,,,,,,,
2130.9000000059605,,directmemory_phase,1054609,GW/gong.jpg,,,,50,,,0,0.5909090909090909,GW/hat.jpg,GW/globe.jpg,GW/snail.jpg,GW/snail.jpg,GW/globe.jpg,GW/hat.jpg,0.5,closer,,
null,,html-keyboard-response,1055614,<p></p>,,,,null,,,,,,,,,,,,,,
1716.5999999940395,,directmemory_phase,1057334,GW/basket.jpg,,,,50,,,1,0.6086956521739131,GW/barrel.jpg,GW/camera.jpg,GW/hat.jpg,GW/camera.jpg,GW/barrel.jpg,GW/hat.jpg,1,,,
null,,html-keyboard-response,1058340,<p></p>,,,,null,,,,,,,,,,,,,,
1331.7999999821186,,directmemory_phase,1059676,GW/dustpan.jpg,,,,50,,,0,0.5833333333333334,GW/soldier.jpg,GW/camera.jpg,GW/snail.jpg,GW/soldier.jpg,GW/snail.jpg,GW/camera.jpg,0.5,closer,,
null,,html-keyboard-response,1060681,<p></p>,,,,null,,,,,,,,,,,,,,
2038.5999999940395,,directmemory_phase,1062723,GW/basket.jpg,,,,50,,,0,0.56,GW/gong.jpg,GW/hat.jpg,GW/dustpan.jpg,GW/gong.jpg,GW/dustpan.jpg,GW/hat.jpg,0.5,closer,,
null,,html-keyboard-response,1063728,<p></p>,,,,null,,,,,,,,,,,,,,
1122.9000000059605,,directmemory_phase,1064855,GW/soldier.jpg,,,,49,,,0,0.5384615384615384,GW/gong.jpg,GW/dustpan.jpg,GW/snail.jpg,GW/dustpan.jpg,GW/gong.jpg,GW/snail.jpg,0.5,closer,,
null,,html-keyboard-response,1065860,<p></p>,,,,null,,,,,,,,,,,,,,
1852.6000000238419,,directmemory_phase,1067716,GW/snail.jpg,,,,49,,,1,0.5555555555555556,GW/gong.jpg,GW/soldier.jpg,GW/dustpan.jpg,GW/gong.jpg,GW/dustpan.jpg,GW/soldier.jpg,1,,,
null,,html-keyboard-response,1068722,<p></p>,,,,null,,,,,,,,,,,,,,
1281.9000000059605,,directmemory_phase,1070008,GW/basket.jpg,,,,50,,,0,0.5357142857142857,GW/paint.jpg,GW/soldier.jpg,GW/dustpan.jpg,GW/paint.jpg,GW/dustpan.jpg,GW/soldier.jpg,0.5,closer,,
null,,html-keyboard-response,1071015,<p></p>,,,,null,,,,,,,,,,,,,,
1587.199999988079,,directmemory_phase,1072606,GW/snail.jpg,,,,49,,,1,0.5517241379310345,GW/globe.jpg,GW/barrel.jpg,GW/dustpan.jpg,GW/globe.jpg,GW/dustpan.jpg,GW/barrel.jpg,1,,,
null,,html-keyboard-response,1073613,<p></p>,,,,null,,,,,,,,,,,,,,
3502.5999999940395,,directmemory_phase,1077118,GW/gong.jpg,,,,50,,,0,0.5333333333333333,GW/hat.jpg,GW/globe.jpg,GW/paint.jpg,GW/paint.jpg,GW/globe.jpg,GW/hat.jpg,0.5,closer,,
null,,html-keyboard-response,1078121,<p></p>,,,,null,,,,,,,,,,,,,,
2342.2000000178814,,directmemory_phase,1080467,GW/hat.jpg,,,,49,,,0,0.5161290322580645,GW/teeth.jpg,GW/soldier.jpg,GW/basket.jpg,GW/soldier.jpg,GW/teeth.jpg,GW/basket.jpg,0.5,closer,,
null,,html-keyboard-response,1081472,<p></p>,,,,null,,,,,,,,,,,,,,
1291.5,,directmemory_phase,1082768,GW/dustpan.jpg,,,,49,,,1,0.53125,GW/gong.jpg,GW/teeth.jpg,GW/hat.jpg,GW/gong.jpg,GW/hat.jpg,GW/teeth.jpg,1,,,
null,,html-keyboard-response,1083772,<p></p>,,,,null,,,,,,,,,,,,,,
23344.399999976158,,intro_1,1107119,instruct,,0,,,,,,,,,,,,,,,,
8741.699999988079,,intro_2,1115863,instruct,,1,Next,,,,,,,,,,,,,,,
1485,,intro_3,1117351,instruct,,1,Next,,,,,,,,,,,,,,,
4514.0999999940395,,intro_4,1121869,instruct,,1,Next,,,,,,,,,,,,,,,
8575.299999982119,,intro_5,1130449,instruct,,1,Next,,,,,,,,,,,,,,,
8904.40000000596,,intro_6,1139356,instruct,,1,Next,,,,,,,,,,,,,,,
2066.5999999940395,,intro_7,1141425,instruct,,1,Next,,,,,,,,,,,,,,,
6795.5999999940395,,intro_8,1148224,instruct,,1,Next,,,,,,,,,,,,,,,
2401.800000011921,,shortestpath_phase,1150629,GW/jukebox.jpg,,,,49,GW/globe.jpg,GW/soldier.jpg,0,0,,,,GW/soldier.jpg,,,,,Four Edge Diff,Two Edge Six Edge
null,,html-keyboard-response,1151635,<p></p>,,,,null,,,,,,,,,,,,,,
2439.800000011921,,shortestpath_phase,1154078,GW/hat.jpg,,,,50,GW/globe.jpg,GW/teeth.jpg,1,0.5,,,,GW/teeth.jpg,,,,,Three Edge Diff,Three Edge Six Edge
null,,html-keyboard-response,1155081,<p></p>,,,,null,,,,,,,,,,,,,,
2147.199999988079,,shortestpath_phase,1157231,GW/camera.jpg,,,,49,GW/hat.jpg,GW/soldier.jpg,0,0.3333333333333333,,,,GW/soldier.jpg,,,,,One Edge Diff,Four Edge Five Edge
null,,html-keyboard-response,1158236,<p></p>,,,,null,,,,,,,,,,,,,,
1841.8999999761581,,shortestpath_phase,1160083,GW/jukebox.jpg,,,,50,GW/paint.jpg,GW/teeth.jpg,1,0.5,,,,GW/teeth.jpg,,,,,One Edge Diff,Three Edge Four Edge
null,,html-keyboard-response,1161087,<p></p>,,,,null,,,,,,,,,,,,,,
1735.2999999821186,,shortestpath_phase,1162826,GW/wheelchair.jpg,,,,49,GW/camera.jpg,GW/gong.jpg,0,0.4,,,,GW/gong.jpg,,,,,One Edge Diff,Three Edge Four Edge
null,,html-keyboard-response,1163831,<p></p>,,,,null,,,,,,,,,,,,,,
2492.7000000178814,,shortestpath_phase,1166328,GW/barrel.jpg,,,,49,GW/globe.jpg,GW/basket.jpg,0,0.3333333333333333,,,,GW/basket.jpg,,,,,Two Edge Diff,Two Edge Four Edge
null,,html-keyboard-response,1167333,<p></p>,,,,null,,,,,,,,,,,,,,
1661.5999999940395,,shortestpath_phase,1168998,GW/teeth.jpg,,,,50,GW/globe.jpg,GW/gong.jpg,1,0.42857142857142855,,,,GW/gong.jpg,,,,,Two Edge Diff,Four Edge Six Edge
null,,html-keyboard-response,1170002,<p></p>,,,,null,,,,,,,,,,,,,,
2202.5,,shortestpath_phase,1172208,GW/globe.jpg,,,,49,GW/teeth.jpg,GW/hat.jpg,0,0.375,,,,GW/hat.jpg,,,,,One Edge Diff,Five Edge Six Edge
null,,html-keyboard-response,1173211,<p></p>,,,,null,,,,,,,,,,,,,,
2503.7000000178814,,shortestpath_phase,1175717,GW/camera.jpg,,,,49,GW/teeth.jpg,GW/paint.jpg,0,0.3333333333333333,,,,GW/paint.jpg,,,,,Three Edge Diff,Two Edge Five Edge
null,,html-keyboard-response,1176723,<p></p>,,,,null,,,,,,,,,,,,,,
1888.3999999761581,,shortestpath_phase,1178616,GW/hat.jpg,,,,49,GW/globe.jpg,GW/barrel.jpg,0,0.3,,,,GW/barrel.jpg,,,,,Three Edge Diff,Two Edge Five Edge
null,,html-keyboard-response,1179620,<p></p>,,,,null,,,,,,,,,,,,,,
1241.5999999940395,,shortestpath_phase,1180863,GW/globe.jpg,,,,50,GW/gong.jpg,GW/teeth.jpg,0,0.2727272727272727,,,,GW/gong.jpg,,,,,Four Edge Diff,Two Edge Six Edge
null,,html-keyboard-response,1181865,<p></p>,,,,null,,,,,,,,,,,,,,
1378.199999988079,,shortestpath_phase,1183246,GW/hat.jpg,,,,49,GW/dustpan.jpg,GW/snail.jpg,1,0.3333333333333333,,,,GW/dustpan.jpg,,,,,Two Edge Diff,Two Edge Four Edge
null,,html-keyboard-response,1184251,<p></p>,,,,null,,,,,,,,,,,,,,
1062,,shortestpath_phase,1185315,GW/globe.jpg,,,,49,GW/basket.jpg,GW/soldier.jpg,1,0.38461538461538464,,,,GW/basket.jpg,,,,,Two Edge Diff,Two Edge Four Edge
null,,html-keyboard-response,1186322,<p></p>,,,,null,,,,,,,,,,,,,,
1196.300000011921,,shortestpath_phase,1187522,GW/hat.jpg,,,,49,GW/snail.jpg,GW/camera.jpg,1,0.42857142857142855,,,,GW/snail.jpg,,,,,One Edge Diff,Four Edge Five Edge
null,,html-keyboard-response,1188528,<p></p>,,,,null,,,,,,,,,,,,,,
1441.9000000059605,,shortestpath_phase,1189973,GW/globe.jpg,,,,50,GW/teeth.jpg,GW/wheelchair.jpg,1,0.4666666666666667,,,,GW/wheelchair.jpg,,,,,One Edge Diff,Five Edge Six Edge
null,,html-keyboard-response,1190979,<p></p>,,,,null,,,,,,,,,,,,,,
1771.2999999821186,,shortestpath_phase,1192754,GW/camera.jpg,,,,50,GW/jukebox.jpg,GW/hat.jpg,1,0.5,,,,GW/hat.jpg,,,,,One Edge Diff,Five Edge Six Edge
null,,html-keyboard-response,1193761,<p></p>,,,,null,,,,,,,,,,,,,,
1158.0999999940395,,shortestpath_phase,1194923,GW/wheelchair.jpg,,,,49,GW/jukebox.jpg,GW/globe.jpg,1,0.5294117647058824,,,,GW/jukebox.jpg,,,,,Three Edge Diff,Three Edge Six Edge
null,,html-keyboard-response,1195926,<p></p>,,,,null,,,,,,,,,,,,,,
1634.5999999940395,,shortestpath_phase,1197564,GW/globe.jpg,,,,49,GW/hat.jpg,GW/camera.jpg,0,0.5,,,,GW/camera.jpg,,,,,Two Edge Diff,Three Edge Five Edge
null,,html-keyboard-response,1198569,<p></p>,,,,null,,,,,,,,,,,,,,
1284.2999999821186,,shortestpath_phase,1199857,GW/wheelchair.jpg,,,,50,GW/camera.jpg,GW/paint.jpg,1,0.5263157894736842,,,,GW/paint.jpg,,,,,Two Edge Diff,Two Edge Four Edge
null,,html-keyboard-response,1200861,<p></p>,,,,null,,,,,,,,,,,,,,
1685.5999999940395,,shortestpath_phase,1202550,GW/globe.jpg,,,,50,GW/hat.jpg,GW/dustpan.jpg,1,0.55,,,,GW/dustpan.jpg,,,,,Two Edge Diff,Three Edge Five Edge
null,,html-keyboard-response,1203553,<p></p>,,,,null,,,,,,,,,,,,,,
1953.4000000059605,,shortestpath_phase,1205509,GW/hat.jpg,,,,50,GW/camera.jpg,GW/barrel.jpg,1,0.5714285714285714,,,,GW/barrel.jpg,,,,,Three Edge Diff,Two Edge Five Edge
null,,html-keyboard-response,1206514,<p></p>,,,,null,,,,,,,,,,,,,,
1415.5999999940395,,shortestpath_phase,1207933,GW/snail.jpg,,,,49,GW/teeth.jpg,GW/paint.jpg,0,0.5454545454545454,,,,GW/paint.jpg,,,,,Three Edge Diff,Two Edge Five Edge
null,,html-keyboard-response,1208936,<p></p>,,,,null,,,,,,,,,,,,,,
1647,,shortestpath_phase,1210588,GW/hat.jpg,,,,50,GW/camera.jpg,GW/gong.jpg,1,0.5652173913043478,,,,GW/gong.jpg,,,,,Two Edge Diff,Three Edge Five Edge
null,,html-keyboard-response,1211593,<p></p>,,,,null,,,,,,,,,,,,,,
1526.7999999821186,,shortestpath_phase,1213124,GW/jukebox.jpg,,,,49,GW/barrel.jpg,GW/basket.jpg,1,0.5833333333333334,,,,GW/barrel.jpg,,,,,Two Edge Diff,Three Edge Five Edge
null,,html-keyboard-response,1214129,<p></p>,,,,null,,,,,,,,,,,,,,
668.0999999940395,,shortestpath_phase,1214801,GW/hat.jpg,,,,49,GW/globe.jpg,GW/snail.jpg,0,0.56,,,,GW/snail.jpg,,,,,One Edge Diff,Four Edge Five Edge
null,,html-keyboard-response,1215804,<p></p>,,,,null,,,,,,,,,,,,,,
659.5,,shortestpath_phase,1216467,GW/teeth.jpg,,,,49,GW/jukebox.jpg,GW/snail.jpg,1,0.5769230769230769,,,,GW/jukebox.jpg,,,,,Two Edge Diff,Three Edge Five Edge
null,,html-keyboard-response,1217473,<p></p>,,,,null,,,,,,,,,,,,,,
1046.4000000059605,,shortestpath_phase,1218523,GW/soldier.jpg,,,,49,GW/camera.jpg,GW/wheelchair.jpg,0,0.5555555555555556,,,,GW/wheelchair.jpg,,,,,Two Edge Diff,Two Edge Four Edge
null,,html-keyboard-response,1219529,<p></p>,,,,null,,,,,,,,,,,,,,
1216.300000011921,,shortestpath_phase,1220747,GW/jukebox.jpg,,,,49,GW/globe.jpg,GW/paint.jpg,0,0.5357142857142857,,,,GW/paint.jpg,,,,,Two Edge Diff,Four Edge Six Edge
null,,html-keyboard-response,1221752,<p></p>,,,,null,,,,,,,,,,,,,,
1086.2999999821186,,shortestpath_phase,1222843,GW/basket.jpg,,,,49,GW/hat.jpg,GW/wheelchair.jpg,0,0.5172413793103449,,,,GW/wheelchair.jpg,,,,,One Edge Diff,Three Edge Four Edge
null,,html-keyboard-response,1223849,<p></p>,,,,null,,,,,,,,,,,,,,
629.7999999821186,,shortestpath_phase,1224483,GW/jukebox.jpg,,,,49,GW/basket.jpg,GW/soldier.jpg,0,0.5,,,,GW/soldier.jpg,,,,,Three Edge Diff,Two Edge Five Edge
null,,html-keyboard-response,1225488,<p></p>,,,,null,,,,,,,,,,,,,,
882.5,,shortestpath_phase,1226374,GW/globe.jpg,,,,50,GW/jukebox.jpg,GW/wheelchair.jpg,1,0.5161290322580645,,,,GW/wheelchair.jpg,,,,,One Edge Diff,Five Edge Six Edge
null,,html-keyboard-response,1227380,<p></p>,,,,null,,,,,,,,,,,,,,
765.6000000238419,,shortestpath_phase,1228149,GW/jukebox.jpg,,,,49,GW/basket.jpg,GW/camera.jpg,1,0.53125,,,,GW/basket.jpg,,,,,One Edge Diff,Five Edge Six Edge
null,,html-keyboard-response,1229155,<p></p>,,,,null,,,,,,,,,,,,,,
657.4000000059605,,shortestpath_phase,1229815,GW/camera.jpg,,,,49,GW/dustpan.jpg,GW/teeth.jpg,1,0.5454545454545454,,,,GW/dustpan.jpg,,,,,Two Edge Diff,Three Edge Five Edge
null,,html-keyboard-response,1230819,<p></p>,,,,null,,,,,,,,,,,,,,
1259.7000000178814,,shortestpath_phase,1232081,GW/teeth.jpg,,,,50,GW/barrel.jpg,GW/globe.jpg,0,0.5294117647058824,,,,GW/barrel.jpg,,,,,Four Edge Diff,Two Edge Six Edge
null,,html-keyboard-response,1233087,<p></p>,,,,null,,,,,,,,,,,,,,
710.0999999940395,,shortestpath_phase,1233800,GW/globe.jpg,,,,49,GW/teeth.jpg,GW/basket.jpg,0,0.5142857142857142,,,,GW/basket.jpg,,,,,Four Edge Diff,Two Edge Six Edge
null,,html-keyboard-response,1234808,<p></p>,,,,null,,,,,,,,,,,,,,
1412.800000011921,,shortestpath_phase,1236224,GW/soldier.jpg,,,,49,GW/barrel.jpg,GW/snail.jpg,1,0.5277777777777778,,,,GW/barrel.jpg,,,,,One Edge Diff,Two Edge Three Edge
null,,html-keyboard-response,1237230,<p></p>,,,,null,,,,,,,,,,,,,,
1044.300000011921,,shortestpath_phase,1238278,GW/jukebox.jpg,,,,49,GW/globe.jpg,GW/basket.jpg,0,0.5135135135135135,,,,GW/basket.jpg,,,,,One Edge Diff,Five Edge Six Edge
null,,html-keyboard-response,1239283,<p></p>,,,,null,,,,,,,,,,,,,,
1016.7000000178814,,shortestpath_phase,1240304,GW/wheelchair.jpg,,,,49,GW/soldier.jpg,GW/snail.jpg,1,0.5263157894736842,,,,GW/soldier.jpg,,,,,Two Edge Diff,Two Edge Four Edge
null,,html-keyboard-response,1241310,<p></p>,,,,null,,,,,,,,,,,,,,
1272,,shortestpath_phase,1242585,GW/jukebox.jpg,,,,49,GW/snail.jpg,GW/globe.jpg,1,0.5384615384615384,,,,GW/snail.jpg,,,,,One Edge Diff,Five Edge Six Edge
null,,html-keyboard-response,1243591,<p></p>,,,,null,,,,,,,,,,,,,,
1453.5,,shortestpath_phase,1245048,GW/globe.jpg,,,,50,GW/soldier.jpg,GW/teeth.jpg,0,0.525,,,,GW/soldier.jpg,,,,,Two Edge Diff,Four Edge Six Edge
null,,html-keyboard-response,1246054,<p></p>,,,,null,,,,,,,,,,,,,,
1037.800000011921,,shortestpath_phase,1247095,GW/jukebox.jpg,,,,49,GW/wheelchair.jpg,GW/basket.jpg,1,0.5365853658536586,,,,GW/wheelchair.jpg,,,,,Three Edge Diff,Two Edge Five Edge
null,,html-keyboard-response,1248099,<p></p>,,,,null,,,,,,,,,,,,,,
2867,,shortestpath_phase,1250968,GW/soldier.jpg,,,,49,GW/globe.jpg,GW/paint.jpg,0,0.5238095238095238,,,,GW/paint.jpg,,,,,One Edge Diff,Three Edge Four Edge
null,,html-keyboard-response,1251971,<p></p>,,,,null,,,,,,,,,,,,,,
1188.0999999940395,,shortestpath_phase,1253163,GW/teeth.jpg,,,,49,GW/camera.jpg,GW/globe.jpg,1,0.5348837209302325,,,,GW/camera.jpg,,,,,One Edge Diff,Five Edge Six Edge
null,,html-keyboard-response,1254169,<p></p>,,,,null,,,,,,,,,,,,,,
1486,,shortestpath_phase,1255659,GW/jukebox.jpg,,,,50,GW/globe.jpg,GW/gong.jpg,1,0.5454545454545454,,,,GW/gong.jpg,,,,,Two Edge Diff,Four Edge Six Edge
null,,html-keyboard-response,1256665,<p></p>,,,,null,,,,,,,,,,,,,,
912,,shortestpath_phase,1257581,GW/camera.jpg,,,,49,GW/teeth.jpg,GW/jukebox.jpg,1,0.5555555555555556,,,,GW/teeth.jpg,,,,,One Edge Diff,Five Edge Six Edge
null,,html-keyboard-response,1258585,<p></p>,,,,null,,,,,,,,,,,,,,
1108.800000011921,,shortestpath_phase,1259696,GW/snail.jpg,,,,50,GW/dustpan.jpg,GW/barrel.jpg,0,0.5434782608695652,,,,GW/dustpan.jpg,,,,,One Edge Diff,Two Edge Three Edge
null,,html-keyboard-response,1260701,<p></p>,,,,null,,,,,,,,,,,,,,
1695,,shortestpath_phase,1262400,GW/camera.jpg,,,,49,GW/soldier.jpg,GW/jukebox.jpg,1,0.5531914893617021,,,,GW/soldier.jpg,,,,,Two Edge Diff,Four Edge Six Edge
null,,html-keyboard-response,1263405,<p></p>,,,,null,,,,,,,,,,,,,,
1021.2000000178814,,shortestpath_phase,1264430,GW/wheelchair.jpg,,,,50,GW/globe.jpg,GW/gong.jpg,1,0.5625,,,,GW/gong.jpg,,,,,Two Edge Diff,Three Edge Five Edge
null,,html-keyboard-response,1265435,<p></p>,,,,null,,,,,,,,,,,,,,
961.6999999880791,,shortestpath_phase,1266401,GW/globe.jpg,,,,50,GW/wheelchair.jpg,GW/dustpan.jpg,1,0.5714285714285714,,,,GW/dustpan.jpg,,,,,Two Edge Diff,Three Edge Five Edge
null,,html-keyboard-response,1267407,<p></p>,,,,null,,,,,,,,,,,,,,
564.7000000178814,,shortestpath_phase,1267975,GW/camera.jpg,,,,49,GW/hat.jpg,GW/gong.jpg,0,0.56,,,,GW/gong.jpg,,,,,Three Edge Diff,Three Edge Six Edge
null,,html-keyboard-response,1268981,<p></p>,,,,null,,,,,,,,,,,,,,
1495.8999999761581,,shortestpath_phase,1270481,GW/basket.jpg,,,,50,GW/hat.jpg,GW/jukebox.jpg,0,0.5490196078431373,,,,GW/hat.jpg,,,,,One Edge Diff,Four Edge Five Edge
null,,html-keyboard-response,1271487,<p></p>,,,,null,,,,,,,,,,,,,,
1165.6000000238419,,shortestpath_phase,1272656,GW/wheelchair.jpg,,,,50,GW/snail.jpg,GW/gong.jpg,1,0.5576923076923077,,,,GW/gong.jpg,,,,,One Edge Diff,Three Edge Four Edge
null,,html-keyboard-response,1273662,<p></p>,,,,null,,,,,,,,,,,,,,
1133.0999999940395,,shortestpath_phase,1274799,GW/camera.jpg,,,,49,GW/hat.jpg,GW/snail.jpg,0,0.5471698113207547,,,,GW/snail.jpg,,,,,Three Edge Diff,Two Edge Five Edge
null,,html-keyboard-response,1275805,<p></p>,,,,null,,,,,,,,,,,,,,
917.0999999940395,,shortestpath_phase,1276726,GW/teeth.jpg,,,,50,GW/dustpan.jpg,GW/hat.jpg,1,0.5555555555555556,,,,GW/hat.jpg,,,,,One Edge Diff,Two Edge Three Edge
null,,html-keyboard-response,1277731,<p></p>,,,,null,,,,,,,,,,,,,,
1619.7999999821186,,shortestpath_phase,1279355,GW/camera.jpg,,,,49,GW/gong.jpg,GW/jukebox.jpg,1,0.5636363636363636,,,,GW/gong.jpg,,,,,Four Edge Diff,Two Edge Six Edge
null,,html-keyboard-response,1280361,<p></p>,,,,null,,,,,,,,,,,,,,
1896.5,,shortestpath_phase,1282262,GW/snail.jpg,,,,49,GW/jukebox.jpg,GW/dustpan.jpg,0,0.5535714285714286,,,,GW/dustpan.jpg,,,,,Three Edge Diff,Three Edge Six Edge
null,,html-keyboard-response,1283267,<p></p>,,,,null,,,,,,,,,,,,,,
1215.699999988079,,shortestpath_phase,1284485,GW/camera.jpg,,,,50,GW/jukebox.jpg,GW/wheelchair.jpg,1,0.5614035087719298,,,,GW/wheelchair.jpg,,,,,Two Edge Diff,Four Edge Six Edge
null,,html-keyboard-response,1285493,<p></p>,,,,null,,,,,,,,,,,,,,
1897.4000000059605,,shortestpath_phase,1287394,GW/globe.jpg,,,,49,GW/jukebox.jpg,GW/hat.jpg,0,0.5517241379310345,,,,GW/hat.jpg,,,,,One Edge Diff,Five Edge Six Edge
null,,html-keyboard-response,1288400,<p></p>,,,,null,,,,,,,,,,,,,,
2748.199999988079,,shortestpath_phase,1291152,GW/camera.jpg,,,,50,GW/dustpan.jpg,GW/hat.jpg,0,0.5423728813559322,,,,GW/dustpan.jpg,,,,,Two Edge Diff,Three Edge Five Edge
null,,html-keyboard-response,1292155,<p></p>,,,,null,,,,,,,,,,,,,,
2762.5,,shortestpath_phase,1294921,GW/teeth.jpg,,,,49,GW/hat.jpg,GW/globe.jpg,1,0.55,,,,GW/hat.jpg,,,,,Four Edge Diff,Two Edge Six Edge
null,,html-keyboard-response,1295926,<p></p>,,,,null,,,,,,,,,,,,,,
1377.9000000059605,,shortestpath_phase,1297308,GW/jukebox.jpg,,,,50,GW/paint.jpg,GW/camera.jpg,0,0.5409836065573771,,,,GW/paint.jpg,,,,,Two Edge Diff,Four Edge Six Edge
null,,html-keyboard-response,1298315,<p></p>,,,,null,,,,,,,,,,,,,,
3744.5,,shortestpath_phase,1302063,GW/teeth.jpg,,,,50,GW/gong.jpg,GW/camera.jpg,0,0.532258064516129,,,,GW/gong.jpg,,,,,One Edge Diff,Four Edge Five Edge
null,,html-keyboard-response,1303069,<p></p>,,,,null,,,,,,,,,,,,,,
1090.6000000238419,,shortestpath_phase,1304165,GW/jukebox.jpg,,,,50,GW/snail.jpg,GW/wheelchair.jpg,1,0.5396825396825397,,,,GW/wheelchair.jpg,,,,,Three Edge Diff,Three Edge Six Edge
null,,html-keyboard-response,1305170,<p></p>,,,,null,,,,,,,,,,,,,,
1331.5999999940395,,shortestpath_phase,1306505,GW/basket.jpg,,,,50,GW/barrel.jpg,GW/jukebox.jpg,0,0.53125,,,,GW/barrel.jpg,,,,,Three Edge Diff,Three Edge Six Edge
null,,html-keyboard-response,1307510,<p></p>,,,,null,,,,,,,,,,,,,,
879.3000000119209,,shortestpath_phase,1308393,GW/camera.jpg,,,,49,GW/gong.jpg,GW/teeth.jpg,1,0.5384615384615384,,,,GW/gong.jpg,,,,,Three Edge Diff,Two Edge Five Edge
null,,html-keyboard-response,1309399,<p></p>,,,,null,,,,,,,,,,,,,,
1579.4000000059605,,shortestpath_phase,1310982,GW/globe.jpg,,,,49,GW/jukebox.jpg,GW/barrel.jpg,0,0.5303030303030303,,,,GW/barrel.jpg,,,,,Two Edge Diff,Four Edge Six Edge
null,,html-keyboard-response,1311988,<p></p>,,,,null,,,,,,,,,,,,,,
1342.8999999761581,,shortestpath_phase,1313335,GW/jukebox.jpg,,,,49,GW/camera.jpg,GW/gong.jpg,0,0.5223880597014925,,,,GW/gong.jpg,,,,,Two Edge Diff,Four Edge Six Edge
null,,html-keyboard-response,1314341,<p></p>,,,,null,,,,,,,,,,,,,,
1650,,shortestpath_phase,1315995,GW/soldier.jpg,,,,49,GW/globe.jpg,GW/snail.jpg,0,0.5147058823529411,,,,GW/snail.jpg,,,,,One Edge Diff,Three Edge Four Edge
null,,html-keyboard-response,1317002,<p></p>,,,,null,,,,,,,,,,,,,,
564.0999999940395,,shortestpath_phase,1317569,GW/jukebox.jpg,,,,49,GW/paint.jpg,GW/barrel.jpg,0,0.5072463768115942,,,,GW/barrel.jpg,,,,,One Edge Diff,Three Edge Four Edge
null,,html-keyboard-response,1318576,<p></p>,,,,null,,,,,,,,,,,,,,
897.5,,shortestpath_phase,1319477,GW/hat.jpg,,,,50,GW/snail.jpg,GW/gong.jpg,1,0.5142857142857142,,,,GW/gong.jpg,,,,,One Edge Diff,Three Edge Four Edge
null,,html-keyboard-response,1320480,<p></p>,,,,null,,,,,,,,,,,,,,
898,,shortestpath_phase,1321381,GW/camera.jpg,,,,50,GW/hat.jpg,GW/wheelchair.jpg,1,0.5211267605633803,,,,GW/wheelchair.jpg,,,,,One Edge Diff,Four Edge Five Edge
null,,html-keyboard-response,1322387,<p></p>,,,,null,,,,,,,,,,,,,,
713.2999999821186,,shortestpath_phase,1323104,GW/dustpan.jpg,,,,49,GW/hat.jpg,GW/globe.jpg,1,0.5277777777777778,,,,GW/hat.jpg,,,,,One Edge Diff,Two Edge Three Edge
null,,html-keyboard-response,1324110,<p></p>,,,,null,,,,,,,,,,,,,,
1180.9000000059605,,shortestpath_phase,1325295,GW/globe.jpg,,,,49,GW/gong.jpg,GW/jukebox.jpg,1,0.5342465753424658,,,,GW/gong.jpg,,,,,Four Edge Diff,Two Edge Six Edge
null,,html-keyboard-response,1326299,<p></p>,,,,null,,,,,,,,,,,,,,
1047.0999999940395,,shortestpath_phase,1327350,GW/teeth.jpg,,,,49,GW/globe.jpg,GW/snail.jpg,0,0.527027027027027,,,,GW/snail.jpg,,,,,One Edge Diff,Five Edge Six Edge
null,,html-keyboard-response,1328356,<p></p>,,,,null,,,,,,,,,,,,,,
1938.5,,shortestpath_phase,1330297,GW/basket.jpg,,,,50,GW/jukebox.jpg,GW/globe.jpg,1,0.5333333333333333,,,,GW/globe.jpg,,,,,Three Edge Diff,Three Edge Six Edge
null,,html-keyboard-response,1331302,<p></p>,,,,null,,,,,,,,,,,,,,
2749.5999999940395,,shortestpath_phase,1334054,GW/camera.jpg,,,,49,GW/paint.jpg,GW/jukebox.jpg,1,0.5394736842105263,,,,GW/paint.jpg,,,,,Four Edge Diff,Two Edge Six Edge
null,,html-keyboard-response,1335061,<p></p>,,,,null,,,,,,,,,,,,,,
1358,,shortestpath_phase,1336423,GW/basket.jpg,,,,50,GW/soldier.jpg,GW/teeth.jpg,0,0.5324675324675324,,,,GW/soldier.jpg,,,,,One Edge Diff,Three Edge Four Edge
null,,html-keyboard-response,1337429,<p></p>,,,,null,,,,,,,,,,,,,,
1080.0999999940395,,shortestpath_phase,1338512,GW/teeth.jpg,,,,49,GW/gong.jpg,GW/snail.jpg,1,0.5384615384615384,,,,GW/gong.jpg,,,,,One Edge Diff,Four Edge Five Edge
null,,html-keyboard-response,1339518,<p></p>,,,,null,,,,,,,,,,,,,,
2064.300000011921,,shortestpath_phase,1341589,GW/globe.jpg,,,,50,GW/soldier.jpg,GW/wheelchair.jpg,0,0.5316455696202531,,,,GW/soldier.jpg,,,,,One Edge Diff,Four Edge Five Edge
null,,html-keyboard-response,1342594,<p></p>,,,,null,,,,,,,,,,,,,,
941.0999999940395,,shortestpath_phase,1343539,GW/basket.jpg,,,,49,GW/barrel.jpg,GW/jukebox.jpg,1,0.5375,,,,GW/barrel.jpg,,,,,Three Edge Diff,Two Edge Five Edge
null,,html-keyboard-response,1344545,<p></p>,,,,null,,,,,,,,,,,,,,
902.8999999761581,,shortestpath_phase,1345452,GW/globe.jpg,,,,50,GW/soldier.jpg,GW/camera.jpg,1,0.5432098765432098,,,,GW/camera.jpg,,,,,One Edge Diff,Three Edge Four Edge
null,,html-keyboard-response,1346457,<p></p>,,,,null,,,,,,,,,,,,,,
1474.2000000178814,,shortestpath_phase,1347935,GW/hat.jpg,,,,50,GW/basket.jpg,GW/camera.jpg,0,0.5365853658536586,,,,GW/basket.jpg,,,,,One Edge Diff,Four Edge Five Edge
null,,html-keyboard-response,1348942,<p></p>,,,,null,,,,,,,,,,,,,,
929.7999999821186,,shortestpath_phase,1349876,GW/snail.jpg,,,,49,GW/camera.jpg,GW/jukebox.jpg,1,0.5421686746987951,,,,GW/camera.jpg,,,,,Three Edge Diff,Two Edge Five Edge
null,,html-keyboard-response,1350882,<p></p>,,,,null,,,,,,,,,,,,,,
1367.699999988079,,shortestpath_phase,1352253,GW/hat.jpg,,,,49,GW/gong.jpg,GW/teeth.jpg,0,0.5357142857142857,,,,GW/teeth.jpg,,,,,One Edge Diff,Two Edge Three Edge
null,,html-keyboard-response,1353259,<p></p>,,,,null,,,,,,,,,,,,,,
1916,,shortestpath_phase,1355178,GW/globe.jpg,,,,50,GW/basket.jpg,GW/wheelchair.jpg,0,0.5294117647058824,,,,GW/basket.jpg,,,,,Three Edge Diff,Three Edge Six Edge
null,,html-keyboard-response,1356181,<p></p>,,,,null,,,,,,,,,,,,,,
1112.7999999821186,,shortestpath_phase,1357298,GW/soldier.jpg,,,,49,GW/teeth.jpg,GW/barrel.jpg,0,0.5232558139534884,,,,GW/barrel.jpg,,,,,One Edge Diff,Two Edge Three Edge
null,,html-keyboard-response,1358304,<p></p>,,,,null,,,,,,,,,,,,,,
1146.7999999821186,,shortestpath_phase,1359455,GW/teeth.jpg,,,,49,GW/basket.jpg,GW/globe.jpg,1,0.5287356321839081,,,,GW/basket.jpg,,,,,Two Edge Diff,Four Edge Six Edge
null,,html-keyboard-response,1360459,<p></p>,,,,null,,,,,,,,,,,,,,
960.8999999761581,,shortestpath_phase,1361424,GW/jukebox.jpg,,,,50,GW/camera.jpg,GW/soldier.jpg,1,0.5340909090909091,,,,GW/soldier.jpg,,,,,Four Edge Diff,Two Edge Six Edge
null,,html-keyboard-response,1362430,<p></p>,,,,null,,,,,,,,,,,,,,
1969.0999999940395,,shortestpath_phase,1364405,GW/dustpan.jpg,,,,49,GW/jukebox.jpg,GW/hat.jpg,0,0.5280898876404494,,,,GW/hat.jpg,,,,,One Edge Diff,Two Edge Three Edge
null,,html-keyboard-response,1365410,<p></p>,,,,null,,,,,,,,,,,,,,
712.9000000059605,,shortestpath_phase,1366126,GW/jukebox.jpg,,,,49,GW/globe.jpg,GW/wheelchair.jpg,0,0.5222222222222223,,,,GW/wheelchair.jpg,,,,,Four Edge Diff,Two Edge Six Edge
null,,html-keyboard-response,1367129,<p></p>,,,,null,,,,,,,,,,,,,,
547.9000000059605,,shortestpath_phase,1367679,GW/teeth.jpg,,,,49,GW/hat.jpg,GW/camera.jpg,1,0.5274725274725275,,,,GW/hat.jpg,,,,,Three Edge Diff,Three Edge Six Edge
null,,html-keyboard-response,1368686,<p></p>,,,,null,,,,,,,,,,,,,,
805.5,,shortestpath_phase,1369495,GW/paint.jpg,,,,50,GW/wheelchair.jpg,GW/jukebox.jpg,0,0.5217391304347826,,,,GW/wheelchair.jpg,,,,,Two Edge Diff,Two Edge Four Edge
null,,html-keyboard-response,1370500,<p></p>,,,,null,,,,,,,,,,,,,,
1088.6000000238419,,shortestpath_phase,1371591,GW/barrel.jpg,,,,50,GW/hat.jpg,GW/globe.jpg,0,0.5161290322580645,,,,GW/hat.jpg,,,,,Two Edge Diff,Two Edge Four Edge
null,,html-keyboard-response,1372597,<p></p>,,,,null,,,,,,,,,,,,,,
585.5999999940395,,shortestpath_phase,1373187,GW/wheelchair.jpg,,,,49,GW/paint.jpg,GW/globe.jpg,1,0.5212765957446809,,,,GW/paint.jpg,,,,,Three Edge Diff,Three Edge Six Edge
null,,html-keyboard-response,1374194,<p></p>,,,,null,,,,,,,,,,,,,,
1037.4000000059605,,shortestpath_phase,1375236,GW/camera.jpg,,,,50,GW/jukebox.jpg,GW/snail.jpg,1,0.5263157894736842,,,,GW/snail.jpg,,,,,Four Edge Diff,Two Edge Six Edge
null,,html-keyboard-response,1376241,<p></p>,,,,null,,,,,,,,,,,,,,
522.7000000178814,,shortestpath_phase,1376768,GW/jukebox.jpg,,,,49,GW/wheelchair.jpg,GW/basket.jpg,1,0.53125,,,,GW/wheelchair.jpg,,,,,Three Edge Diff,Three Edge Six Edge
null,,html-keyboard-response,1377774,<p></p>,,,,null,,,,,,,,,,,,,,
781,,shortestpath_phase,1378559,GW/dustpan.jpg,,,,50,GW/camera.jpg,GW/snail.jpg,1,0.5360824742268041,,,,GW/snail.jpg,,,,,One Edge Diff,Two Edge Three Edge
null,,html-keyboard-response,1379566,<p></p>,,,,null,,,,,,,,,,,,,,
898.5,,shortestpath_phase,1380468,GW/wheelchair.jpg,,,,49,GW/globe.jpg,GW/jukebox.jpg,0,0.5306122448979592,,,,GW/jukebox.jpg,,,,,Three Edge Diff,Two Edge Five Edge
null,,html-keyboard-response,1381473,<p></p>,,,,null,,,,,,,,,,,,,,
701.4000000059605,,shortestpath_phase,1382178,GW/teeth.jpg,,,,50,GW/barrel.jpg,GW/camera.jpg,0,0.5252525252525253,,,,GW/barrel.jpg,,,,,Three Edge Diff,Two Edge Five Edge
null,,html-keyboard-response,1383184,<p></p>,,,,null,,,,,,,,,,,,,,
566.9000000059605,,shortestpath_phase,1383755,GW/snail.jpg,,,,49,GW/jukebox.jpg,GW/wheelchair.jpg,0,0.52,,,,GW/wheelchair.jpg,,,,,One Edge Diff,Four Edge Five Edge
null,,html-keyboard-response,1384758,<p></p>,,,,null,,,,,,,,,,,,,,
1003.6999999880791,,shortestpath_phase,1385766,GW/jukebox.jpg,,,,50,GW/snail.jpg,GW/barrel.jpg,1,0.5247524752475248,,,,GW/barrel.jpg,,,,,Two Edge Diff,Three Edge Five Edge
null,,html-keyboard-response,1386770,<p></p>,,,,null,,,,,,,,,,,,,,
693.0999999940395,,shortestpath_phase,1387467,GW/globe.jpg,,,,49,GW/jukebox.jpg,GW/basket.jpg,0,0.5196078431372549,,,,GW/basket.jpg,,,,,Four Edge Diff,Two Edge Six Edge
null,,html-keyboard-response,1388474,<p></p>,,,,null,,,,,,,,,,,,,,
1166.4000000059605,,shortestpath_phase,1389644,GW/jukebox.jpg,,,,50,GW/camera.jpg,GW/wheelchair.jpg,1,0.5242718446601942,,,,GW/wheelchair.jpg,,,,,Four Edge Diff,Two Edge Six Edge
null,,html-keyboard-response,1390649,<p></p>,,,,null,,,,,,,,,,,,,,
638.1999999880791,,shortestpath_phase,1391291,GW/globe.jpg,,,,49,GW/jukebox.jpg,GW/soldier.jpg,0,0.5192307692307693,,,,GW/soldier.jpg,,,,,Two Edge Diff,Four Edge Six Edge
null,,html-keyboard-response,1392296,<p></p>,,,,null,,,,,,,,,,,,,,
776.0999999940395,,shortestpath_phase,1393075,GW/jukebox.jpg,,,,50,GW/snail.jpg,GW/camera.jpg,0,0.5142857142857142,,,,GW/snail.jpg,,,,,One Edge Diff,Five Edge Six Edge
null,,html-keyboard-response,1394080,<p></p>,,,,null,,,,,,,,,,,,,,
2115.5999999940395,,shortestpath_phase,1396198,GW/wheelchair.jpg,,,,49,GW/camera.jpg,GW/soldier.jpg,0,0.5094339622641509,,,,GW/soldier.jpg,,,,,Two Edge Diff,Two Edge Four Edge
null,,html-keyboard-response,1397205,<p></p>,,,,null,,,,,,,,,,,,,,
793.5,,shortestpath_phase,1398002,GW/basket.jpg,,,,50,GW/hat.jpg,GW/dustpan.jpg,1,0.514018691588785,,,,GW/dustpan.jpg,,,,,Two Edge Diff,Two Edge Four Edge
null,,html-keyboard-response,1399008,<p></p>,,,,null,,,,,,,,,,,,,,
619.3000000119209,,shortestpath_phase,1399631,GW/jukebox.jpg,,,,49,GW/teeth.jpg,GW/snail.jpg,1,0.5185185185185185,,,,GW/teeth.jpg,,,,,Two Edge Diff,Three Edge Five Edge
null,,html-keyboard-response,1400637,<p></p>,,,,null,,,,,,,,,,,,,,
630.3999999761581,,shortestpath_phase,1401271,GW/globe.jpg,,,,50,GW/teeth.jpg,GW/barrel.jpg,1,0.5229357798165137,,,,GW/barrel.jpg,,,,,Two Edge Diff,Four Edge Six Edge
null,,html-keyboard-response,1402278,<p></p>,,,,null,,,,,,,,,,,,,,
859.9000000059605,,shortestpath_phase,1403141,GW/snail.jpg,,,,50,GW/soldier.jpg,GW/dustpan.jpg,1,0.5272727272727272,,,,GW/dustpan.jpg,,,,,One Edge Diff,Two Edge Three Edge
null,,html-keyboard-response,1404147,<p></p>,,,,null,,,,,,,,,,,,,,
916.5999999940395,,shortestpath_phase,1405068,GW/soldier.jpg,,,,50,GW/barrel.jpg,GW/paint.jpg,0,0.5225225225225225,,,,GW/barrel.jpg,,,,,One Edge Diff,Two Edge Three Edge
null,,html-keyboard-response,1406074,<p></p>,,,,null,,,,,,,,,,,,,,
898,,shortestpath_phase,1406976,GW/globe.jpg,,,,49,GW/camera.jpg,GW/wheelchair.jpg,1,0.5267857142857143,,,,GW/camera.jpg,,,,,Two Edge Diff,Three Edge Five Edge
null,,html-keyboard-response,1407982,<p></p>,,,,null,,,,,,,,,,,,,,
858.4000000059605,,shortestpath_phase,1408844,GW/teeth.jpg,,,,49,GW/hat.jpg,GW/snail.jpg,1,0.5309734513274337,,,,GW/hat.jpg,,,,,Three Edge Diff,Three Edge Six Edge
null,,html-keyboard-response,1409851,<p></p>,,,,null,,,,,,,,,,,,,,
731.8000000119209,,shortestpath_phase,1410586,GW/globe.jpg,,,,50,GW/barrel.jpg,GW/wheelchair.jpg,0,0.5263157894736842,,,,GW/barrel.jpg,,,,,One Edge Diff,Four Edge Five Edge
null,,html-keyboard-response,1411589,<p></p>,,,,null,,,,,,,,,,,,,,
684.7000000178814,,shortestpath_phase,1412278,GW/teeth.jpg,,,,50,GW/basket.jpg,GW/soldier.jpg,1,0.5304347826086957,,,,GW/soldier.jpg,,,,,One Edge Diff,Three Edge Four Edge
null,,html-keyboard-response,1413285,<p></p>,,,,null,,,,,,,,,,,,,,
545.7999999821186,,shortestpath_phase,1413835,GW/hat.jpg,,,,49,GW/dustpan.jpg,GW/gong.jpg,1,0.5344827586206896,,,,GW/dustpan.jpg,,,,,One Edge Diff,Two Edge Three Edge
null,,html-keyboard-response,1414840,<p></p>,,,,null,,,,,,,,,,,,,,
580.2999999821186,,shortestpath_phase,1415424,GW/teeth.jpg,,,,50,GW/basket.jpg,GW/jukebox.jpg,1,0.5384615384615384,,,,GW/jukebox.jpg,,,,,One Edge Diff,Three Edge Four Edge
null,,html-keyboard-response,1416430,<p></p>,,,,null,,,,,,,,,,,,,,
489.5,,shortestpath_phase,1416923,GW/snail.jpg,,,,49,GW/wheelchair.jpg,GW/dustpan.jpg,0,0.5338983050847458,,,,GW/dustpan.jpg,,,,,Two Edge Diff,Two Edge Four Edge
null,,html-keyboard-response,1417929,<p></p>,,,,null,,,,,,,,,,,,,,
1337.2999999821186,,shortestpath_phase,1419270,GW/basket.jpg,,,,49,GW/jukebox.jpg,GW/teeth.jpg,0,0.5294117647058824,,,,GW/teeth.jpg,,,,,One Edge Diff,Four Edge Five Edge
null,,html-keyboard-response,1420277,<p></p>,,,,null,,,,,,,,,,,,,,
818.4000000059605,,shortestpath_phase,1421099,GW/soldier.jpg,,,,49,GW/basket.jpg,GW/jukebox.jpg,0,0.525,,,,GW/jukebox.jpg,,,,,One Edge Diff,Two Edge Three Edge
null,,html-keyboard-response,1422105,<p></p>,,,,null,,,,,,,,,,,,,,
895.7000000178814,,shortestpath_phase,1423003,GW/paint.jpg,,,,49,GW/jukebox.jpg,GW/snail.jpg,0,0.5206611570247934,,,,GW/snail.jpg,,,,,Two Edge Diff,Two Edge Four Edge
null,,html-keyboard-response,1424009,<p></p>,,,,null,,,,,,,,,,,,,,
54760.20000001788,,intro_1,1478772,instruct,,0,,,,,,,,,,,,,,,,
23755.59999999404,,intro_2,1502531,instruct,,1,Next,,,,,,,,,,,,,,,
4994.800000011921,,intro_3,1507529,instruct,,1,Next,,,,,,,,,,,,,,,
