rt,responses,trial_type,time_elapsed,stimulus,graphorder,button_pressed,response,key_press,stimulus_left,stimulus_right,cumulative_accuracy,accuracy,stimulus_down_left,stimulus_down_mid,stimulus_down_right,stimulus_correct,stimulus_short,stimulus_far,weighted_accuracy,missedtrial,condition,specific_pairs
5750.099999904633,{worker_id:6679dc943f855ba978447c25},id_enter,5752,id_enter,GW/globe.jpg; GW/basket.jpg; GW/barrel.jpg; GW/snail.jpg; GW/gong.jpg; GW/teeth.jpg; GW/jukebox.jpg; GW/camera.jpg; GW/soldier.jpg; GW/dustpan.jpg; GW/wheelchair.jpg; GW/paint.jpg; GW/hat.jpg,,,,,,,,,,,,,,,,,
13362.200000047684,,fullscreen,19119,fullscreen,,0,,,,,,,,,,,,,,,,
12031,,intro_1,31155,instruct,,0,,,,,,,,,,,,,,,,
13279.200000047684,,intro_2,44437,instruct,,1,Next,,,,,,,,,,,,,,,
8266.400000095367,,intro_3,52705,instruct,,1,Next,,,,,,,,,,,,,,,
null,,learn_prac_1,54712,lean_prac_1,,,,null,,,,,,,,,,,,,,
null,,html-keyboard-response,55726,<p></p>,,,,null,,,,,,,,,,,,,,
3201.9000000953674,,intro_1,58930,instruct,,0,,,,,,,,,,,,,,,,
5253.899999976158,,intro_2,64186,instruct,,1,Next,,,,,,,,,,,,,,,
null,,learn_prac_2,66191,lean_prac_2,,,,null,,,,,,,,,,,,,,
null,,html-keyboard-response,67207,<p></p>,,,,null,,,,,,,,,,,,,,
3584.3000000715256,,intro_1,70793,instruct,,0,,,,,,,,,,,,,,,,
2370.2000000476837,,intro_2,73165,instruct,,1,Next,,,,,,,,,,,,,,,
21522.800000071526,,intro_3,94689,instruct,,1,Next,,,,,,,,,,,,,,,
null,,prac_atten_color_black,95664,black_plus_sign,,,,null,,,,,,,,,,,,,,
null,,prac_atten_color,96111,prac_stop_color,,,,null,,,,,,,,,,,,,,
1050.5999999046326,,prac_atten_color_black,98129,black_plus_sign,,,,49,,,,,,,,,,,,,,
null,,prac_atten_color_black,99096,black_plus_sign,,,,null,,,,,,,,,,,,,,
null,,prac_atten_color,99683,prac_stop_color,,,,null,,,,,,,,,,,,,,
447.10000002384186,,prac_atten_color_black,101690,black_plus_sign,,,,50,,,,,,,,,,,,,,
null,,prac_atten_color_black,102527,black_plus_sign,,,,null,,,,,,,,,,,,,,
679.5,,prac_atten_color,103569,prac_stop_color,,,,50,,,,,,,,,,,,,,
null,,prac_atten_color_black,105589,black_plus_sign,,,,null,,,,,,,,,,,,,,
null,,prac_atten_color_black,105975,black_plus_sign,,,,null,,,,,,,,,,,,,,
472.60000002384186,,prac_atten_color,106871,prac_stop_color,,,,49,,,,,,,,,,,,,,
null,,prac_atten_color_black,108892,black_plus_sign,,,,null,,,,,,,,,,,,,,
null,,prac_atten_color_black,109423,black_plus_sign,,,,null,,,,,,,,,,,,,,
678.7999999523163,,prac_atten_color,110131,prac_stop_color,,,,49,,,,,,,,,,,,,,
null,,prac_atten_color_black,112140,black_plus_sign,,,,null,,,,,,,,,,,,,,
9937.699999928474,,attentioncheck_help,122079,instruct,,,,32,,,,,,,,,,,,,,
null,,prac_atten_color_black,122793,black_plus_sign,,,,null,,,,,,,,,,,,,,
null,,prac_atten_color,123259,prac_stop_color,,,,null,,,,,,,,,,,,,,
345.7999999523163,,prac_atten_color_black,125279,black_plus_sign,,,,50,,,,,,,,,,,,,,
null,,prac_atten_color_black,126239,black_plus_sign,,,,null,,,,,,,,,,,,,,
null,,prac_atten_color,126807,prac_stop_color,,,,null,,,,,,,,,,,,,,
65.89999997615814,,prac_atten_color_black,128824,black_plus_sign,,,,49,,,,,,,,,,,,,,
null,,prac_atten_color_black,129692,black_plus_sign,,,,null,,,,,,,,,,,,,,
509.3000000715256,,prac_atten_color,130429,prac_stop_color,,,,50,,,,,,,,,,,,,,
null,,prac_atten_color_black,132440,black_plus_sign,,,,null,,,,,,,,,,,,,,
null,,prac_atten_color_black,133140,black_plus_sign,,,,null,,,,,,,,,,,,,,
506.1999999284744,,prac_atten_color,133746,prac_stop_color,,,,49,,,,,,,,,,,,,,
null,,prac_atten_color_black,135766,black_plus_sign,,,,null,,,,,,,,,,,,,,
null,,prac_atten_color_black,136583,black_plus_sign,,,,null,,,,,,,,,,,,,,
null,,prac_atten_color,137106,prac_stop_color,,,,null,,,,,,,,,,,,,,
230.30000007152557,,prac_atten_color_black,139123,black_plus_sign,,,,49,,,,,,,,,,,,,,
5242.200000047684,,attentioncheck_feedback,144367,cross_check_feedback,,0,,,,,,,,,,,,,,,,
17558.700000047684,,last_instruct,161926,instruct,,,,32,,,,,,,,,,,,,,
null,,learn_phase(without_color),163930,black_plus_sign,,,,null,GW/jukebox.jpg,GW/camera.jpg,,,,,,,,,,,,
null,,black_cross(without_color),164973,green,,,,null,GW/jukebox.jpg,GW/camera.jpg,,,,,,,,,,,,
null,,rt_plussign_withcolor,165475,green,,,,null,GW/jukebox.jpg,GW/camera.jpg,,,,,,,,,,,,
null,,rt_thecrossant_black,166461,black_plus_sign,,,,null,,,NaN,,,,,,,,,,,
null,,color_black,166573,black_plus_sign,,,,null,,,,,,,,,,,,,,
null,,learn_phase(without_color),168583,black_plus_sign,,,,null,GW/barrel.jpg,GW/wheelchair.jpg,,,,,,,,,,,,
null,,black_cross(without_color),169480,blue,,,,null,GW/barrel.jpg,GW/wheelchair.jpg,,,,,,,,,,,,
null,,rt_plussign_withcolor,170000,blue,,,,null,GW/barrel.jpg,GW/wheelchair.jpg,,,,,,,,,,,,
1159.7999999523163,,rt_thecrossant_black,171119,black_plus_sign,,,,49,,,1,1,,,,,,,,,,
null,,color_black,171231,black_plus_sign,,,,null,,,,,,,,,,,,,,
null,,learn_phase(without_color),173248,black_plus_sign,,,,null,GW/barrel.jpg,GW/teeth.jpg,,,,,,,,,,,,
null,,black_cross(without_color),174142,green,,,,null,GW/barrel.jpg,GW/teeth.jpg,,,,,,,,,,,,
null,,rt_plussign_withcolor,174656,green,,,,null,GW/barrel.jpg,GW/teeth.jpg,,,,,,,,,,,,
1253.8999999761581,,rt_thecrossant_black,175775,black_plus_sign,,,,50,,,1,1,,,,,,,,,,
null,,color_black,175889,black_plus_sign,,,,null,,,,,,,,,,,,,,
null,,learn_phase(without_color),177901,black_plus_sign,,,,null,GW/basket.jpg,GW/snail.jpg,,,,,,,,,,,,
null,,black_cross(without_color),178606,green,,,,null,GW/basket.jpg,GW/snail.jpg,,,,,,,,,,,,
null,,rt_plussign_withcolor,179120,green,,,,null,GW/basket.jpg,GW/snail.jpg,,,,,,,,,,,,
1178.9000000953674,,rt_thecrossant_black,180432,black_plus_sign,,,,50,,,1,1,,,,,,,,,,
null,,color_black,180545,black_plus_sign,,,,null,,,,,,,,,,,,,,
null,,learn_phase(without_color),182563,black_plus_sign,,,,null,GW/basket.jpg,GW/barrel.jpg,,,,,,,,,,,,
null,,black_cross(without_color),183456,green,,,,null,GW/basket.jpg,GW/barrel.jpg,,,,,,,,,,,,
null,,rt_plussign_withcolor,183965,green,,,,null,GW/basket.jpg,GW/barrel.jpg,,,,,,,,,,,,
909.3999999761581,,rt_thecrossant_black,185099,black_plus_sign,,,,50,,,1,1,,,,,,,,,,
null,,color_black,185214,black_plus_sign,,,,null,,,,,,,,,,,,,,
null,,learn_phase(without_color),187223,black_plus_sign,,,,null,GW/camera.jpg,GW/soldier.jpg,,,,,,,,,,,,
null,,black_cross(without_color),187951,green,,,,null,GW/camera.jpg,GW/soldier.jpg,,,,,,,,,,,,
null,,rt_plussign_withcolor,188466,green,,,,null,GW/camera.jpg,GW/soldier.jpg,,,,,,,,,,,,
1346.1000000238419,,rt_thecrossant_black,189756,black_plus_sign,,,,50,,,1,1,,,,,,,,,,
null,,color_black,189868,black_plus_sign,,,,null,,,,,,,,,,,,,,
null,,learn_phase(without_color),191885,black_plus_sign,,,,null,GW/barrel.jpg,GW/wheelchair.jpg,,,,,,,,,,,,
null,,black_cross(without_color),192722,green,,,,null,GW/barrel.jpg,GW/wheelchair.jpg,,,,,,,,,,,,
null,,rt_plussign_withcolor,193228,green,,,,null,GW/barrel.jpg,GW/wheelchair.jpg,,,,,,,,,,,,
1086.9000000953674,,rt_thecrossant_black,194414,black_plus_sign,,,,50,,,1,1,,,,,,,,,,
null,,color_black,194528,black_plus_sign,,,,null,,,,,,,,,,,,,,
null,,learn_phase(without_color),196533,black_plus_sign,,,,null,GW/wheelchair.jpg,GW/paint.jpg,,,,,,,,,,,,
null,,black_cross(without_color),197515,green,,,,null,GW/wheelchair.jpg,GW/paint.jpg,,,,,,,,,,,,
null,,rt_plussign_withcolor,198032,green,,,,null,GW/wheelchair.jpg,GW/paint.jpg,,,,,,,,,,,,
1059.8999999761581,,rt_thecrossant_black,199085,black_plus_sign,,,,50,,,1,1,,,,,,,,,,
null,,color_black,199198,black_plus_sign,,,,null,,,,,,,,,,,,,,
null,,learn_phase(without_color),201202,black_plus_sign,,,,null,GW/camera.jpg,GW/soldier.jpg,,,,,,,,,,,,
null,,black_cross(without_color),202200,blue,,,,null,GW/camera.jpg,GW/soldier.jpg,,,,,,,,,,,,
null,,rt_plussign_withcolor,202708,blue,,,,null,GW/camera.jpg,GW/soldier.jpg,,,,,,,,,,,,
1350.6000000238419,,rt_thecrossant_black,203719,black_plus_sign,,,,49,,,1,1,,,,,,,,,,
null,,color_black,203839,black_plus_sign,,,,null,,,,,,,,,,,,,,
null,,learn_phase(without_color),205847,black_plus_sign,,,,null,GW/snail.jpg,GW/paint.jpg,,,,,,,,,,,,
null,,black_cross(without_color),206797,blue,,,,null,GW/snail.jpg,GW/paint.jpg,,,,,,,,,,,,
null,,rt_plussign_withcolor,207315,blue,,,,null,GW/snail.jpg,GW/paint.jpg,,,,,,,,,,,,
1196.7000000476837,,rt_thecrossant_black,208404,black_plus_sign,,,,49,,,1,1,,,,,,,,,,
null,,color_black,208524,black_plus_sign,,,,null,,,,,,,,,,,,,,
null,,learn_phase(without_color),210531,black_plus_sign,,,,null,GW/camera.jpg,GW/dustpan.jpg,,,,,,,,,,,,
null,,black_cross(without_color),211236,green,,,,null,GW/camera.jpg,GW/dustpan.jpg,,,,,,,,,,,,
null,,rt_plussign_withcolor,211749,green,,,,null,GW/camera.jpg,GW/dustpan.jpg,,,,,,,,,,,,
1366.5,,rt_thecrossant_black,213072,black_plus_sign,,,,50,,,1,1,,,,,,,,,,
null,,color_black,213186,black_plus_sign,,,,null,,,,,,,,,,,,,,
null,,learn_phase(without_color),215199,black_plus_sign,,,,null,GW/basket.jpg,GW/barrel.jpg,,,,,,,,,,,,
null,,black_cross(without_color),216254,green,,,,null,GW/basket.jpg,GW/barrel.jpg,,,,,,,,,,,,
null,,rt_plussign_withcolor,216755,green,,,,null,GW/basket.jpg,GW/barrel.jpg,,,,,,,,,,,,
1042.1000000238419,,rt_thecrossant_black,217725,black_plus_sign,,,,50,,,1,1,,,,,,,,,,
null,,color_black,217843,black_plus_sign,,,,null,,,,,,,,,,,,,,
null,,learn_phase(without_color),219850,black_plus_sign,,,,null,GW/snail.jpg,GW/paint.jpg,,,,,,,,,,,,
null,,black_cross(without_color),220798,blue,,,,null,GW/snail.jpg,GW/paint.jpg,,,,,,,,,,,,
null,,rt_plussign_withcolor,221304,blue,,,,null,GW/snail.jpg,GW/paint.jpg,,,,,,,,,,,,
1626.8000000715256,,rt_thecrossant_black,222382,black_plus_sign,,,,49,,,1,1,,,,,,,,,,
null,,color_black,222484,black_plus_sign,,,,null,,,,,,,,,,,,,,
null,,learn_phase(without_color),224490,black_plus_sign,,,,null,GW/basket.jpg,GW/snail.jpg,,,,,,,,,,,,
null,,black_cross(without_color),225257,green,,,,null,GW/basket.jpg,GW/snail.jpg,,,,,,,,,,,,
null,,rt_plussign_withcolor,225762,green,,,,null,GW/basket.jpg,GW/snail.jpg,,,,,,,,,,,,
1106.3999999761581,,rt_thecrossant_black,227021,black_plus_sign,,,,50,,,1,1,,,,,,,,,,
null,,color_black,227134,black_plus_sign,,,,null,,,,,,,,,,,,,,
null,,learn_phase(without_color),229142,black_plus_sign,,,,null,GW/barrel.jpg,GW/wheelchair.jpg,,,,,,,,,,,,
null,,black_cross(without_color),229815,green,,,,null,GW/barrel.jpg,GW/wheelchair.jpg,,,,,,,,,,,,
null,,rt_plussign_withcolor,230320,green,,,,null,GW/barrel.jpg,GW/wheelchair.jpg,,,,,,,,,,,,
924.6999999284744,,rt_thecrossant_black,231674,black_plus_sign,,,,50,,,1,1,,,,,,,,,,
null,,color_black,231777,black_plus_sign,,,,null,,,,,,,,,,,,,,
null,,learn_phase(without_color),233793,black_plus_sign,,,,null,GW/basket.jpg,GW/barrel.jpg,,,,,,,,,,,,
null,,black_cross(without_color),234245,blue,,,,null,GW/basket.jpg,GW/barrel.jpg,,,,,,,,,,,,
null,,rt_plussign_withcolor,234759,blue,,,,null,GW/basket.jpg,GW/barrel.jpg,,,,,,,,,,,,
833.2999999523163,,rt_thecrossant_black,236339,black_plus_sign,,,,49,,,1,1,,,,,,,,,,
null,,color_black,236454,black_plus_sign,,,,null,,,,,,,,,,,,,,
null,,learn_phase(without_color),238465,black_plus_sign,,,,null,GW/basket.jpg,GW/snail.jpg,,,,,,,,,,,,
null,,black_cross(without_color),239177,green,,,,null,GW/basket.jpg,GW/snail.jpg,,,,,,,,,,,,
null,,rt_plussign_withcolor,239691,green,,,,null,GW/basket.jpg,GW/snail.jpg,,,,,,,,,,,,
634.2999999523163,,rt_thecrossant_black,240992,black_plus_sign,,,,50,,,1,1,,,,,,,,,,
null,,color_black,241105,black_plus_sign,,,,null,,,,,,,,,,,,,,
null,,learn_phase(without_color),243119,black_plus_sign,,,,null,GW/soldier.jpg,GW/wheelchair.jpg,,,,,,,,,,,,
null,,black_cross(without_color),244168,green,,,,null,GW/soldier.jpg,GW/wheelchair.jpg,,,,,,,,,,,,
null,,rt_plussign_withcolor,244685,green,,,,null,GW/soldier.jpg,GW/wheelchair.jpg,,,,,,,,,,,,
1056.5,,rt_thecrossant_black,245642,black_plus_sign,,,,50,,,1,1,,,,,,,,,,
null,,color_black,245758,black_plus_sign,,,,null,,,,,,,,,,,,,,
null,,learn_phase(without_color),247780,black_plus_sign,,,,null,GW/barrel.jpg,GW/teeth.jpg,,,,,,,,,,,,
null,,black_cross(without_color),248254,green,,,,null,GW/barrel.jpg,GW/teeth.jpg,,,,,,,,,,,,
null,,rt_plussign_withcolor,248759,green,,,,null,GW/barrel.jpg,GW/teeth.jpg,,,,,,,,,,,,
null,,rt_thecrossant_black,250307,black_plus_sign,,,,null,,,1,,,,,,,,,,,
null,,color_black,250410,black_plus_sign,,,,null,,,,,,,,,,,,,,
null,,learn_phase(without_color),252423,black_plus_sign,,,,null,GW/jukebox.jpg,GW/soldier.jpg,,,,,,,,,,,,
null,,black_cross(without_color),252946,blue,,,,null,GW/jukebox.jpg,GW/soldier.jpg,,,,,,,,,,,,
null,,rt_plussign_withcolor,253456,blue,,,,null,GW/jukebox.jpg,GW/soldier.jpg,,,,,,,,,,,,
1160.9000000953674,,rt_thecrossant_black,254961,black_plus_sign,,,,49,,,1,1,,,,,,,,,,
null,,color_black,255074,black_plus_sign,,,,null,,,,,,,,,,,,,,
null,,learn_phase(without_color),257085,black_plus_sign,,,,null,GW/snail.jpg,GW/paint.jpg,,,,,,,,,,,,
null,,black_cross(without_color),257954,green,,,,null,GW/snail.jpg,GW/paint.jpg,,,,,,,,,,,,
480.3000000715256,,rt_plussign_withcolor,258455,green,,,,50,GW/snail.jpg,GW/paint.jpg,,,,,,,,,,,,
null,,rt_thecrossant_black,259602,black_plus_sign,,,,null,,,1,1,,,,,,,,,,
null,,color_black,259704,black_plus_sign,,,,null,,,,,,,,,,,,,,
null,,learn_phase(without_color),261713,black_plus_sign,,,,null,GW/soldier.jpg,GW/wheelchair.jpg,,,,,,,,,,,,
null,,black_cross(without_color),262620,blue,,,,null,GW/soldier.jpg,GW/wheelchair.jpg,,,,,,,,,,,,
null,,rt_plussign_withcolor,263135,blue,,,,null,GW/soldier.jpg,GW/wheelchair.jpg,,,,,,,,,,,,
1586.8000000715256,,rt_thecrossant_black,264264,black_plus_sign,,,,49,,,1,1,,,,,,,,,,
null,,color_black,264376,black_plus_sign,,,,null,,,,,,,,,,,,,,
null,,learn_phase(without_color),266391,black_plus_sign,,,,null,GW/globe.jpg,GW/basket.jpg,,,,,,,,,,,,
null,,black_cross(without_color),267321,blue,,,,null,GW/globe.jpg,GW/basket.jpg,,,,,,,,,,,,
null,,rt_plussign_withcolor,267842,blue,,,,null,GW/globe.jpg,GW/basket.jpg,,,,,,,,,,,,
1347,,rt_thecrossant_black,268937,black_plus_sign,,,,49,,,1,1,,,,,,,,,,
null,,color_black,269052,black_plus_sign,,,,null,,,,,,,,,,,,,,
null,,learn_phase(without_color),271058,black_plus_sign,,,,null,GW/snail.jpg,GW/gong.jpg,,,,,,,,,,,,
null,,black_cross(without_color),271901,blue,,,,null,GW/snail.jpg,GW/gong.jpg,,,,,,,,,,,,
null,,rt_plussign_withcolor,272405,blue,,,,null,GW/snail.jpg,GW/gong.jpg,,,,,,,,,,,,
1237.6000000238419,,rt_thecrossant_black,273583,black_plus_sign,,,,49,,,1,1,,,,,,,,,,
null,,color_black,273694,black_plus_sign,,,,null,,,,,,,,,,,,,,
null,,learn_phase(without_color),275710,black_plus_sign,,,,null,GW/jukebox.jpg,GW/camera.jpg,,,,,,,,,,,,
null,,black_cross(without_color),276219,blue,,,,null,GW/jukebox.jpg,GW/camera.jpg,,,,,,,,,,,,
null,,rt_plussign_withcolor,276728,blue,,,,null,GW/jukebox.jpg,GW/camera.jpg,,,,,,,,,,,,
1158.7000000476837,,rt_thecrossant_black,278251,black_plus_sign,,,,49,,,1,1,,,,,,,,,,
null,,color_black,278364,black_plus_sign,,,,null,,,,,,,,,,,,,,
null,,learn_phase(without_color),280372,black_plus_sign,,,,null,GW/teeth.jpg,GW/jukebox.jpg,,,,,,,,,,,,
null,,black_cross(without_color),281303,blue,,,,null,GW/teeth.jpg,GW/jukebox.jpg,,,,,,,,,,,,
null,,rt_plussign_withcolor,281818,blue,,,,null,GW/teeth.jpg,GW/jukebox.jpg,,,,,,,,,,,,
642.3999999761581,,rt_thecrossant_black,282902,black_plus_sign,,,,49,,,1,1,,,,,,,,,,
null,,color_black,283004,black_plus_sign,,,,null,,,,,,,,,,,,,,
null,,learn_phase(without_color),285022,black_plus_sign,,,,null,GW/jukebox.jpg,GW/camera.jpg,,,,,,,,,,,,
null,,black_cross(without_color),285862,blue,,,,null,GW/jukebox.jpg,GW/camera.jpg,,,,,,,,,,,,
null,,rt_plussign_withcolor,286378,blue,,,,null,GW/jukebox.jpg,GW/camera.jpg,,,,,,,,,,,,
1099.3000000715256,,rt_thecrossant_black,287565,black_plus_sign,,,,49,,,1,1,,,,,,,,,,
null,,color_black,287677,black_plus_sign,,,,null,,,,,,,,,,,,,,
null,,learn_phase(without_color),289687,black_plus_sign,,,,null,GW/soldier.jpg,GW/wheelchair.jpg,,,,,,,,,,,,
null,,black_cross(without_color),290151,blue,,,,null,GW/soldier.jpg,GW/wheelchair.jpg,,,,,,,,,,,,
null,,rt_plussign_withcolor,290669,blue,,,,null,GW/soldier.jpg,GW/wheelchair.jpg,,,,,,,,,,,,
1155.4000000953674,,rt_thecrossant_black,292241,black_plus_sign,,,,49,,,1,1,,,,,,,,,,
null,,color_black,292343,black_plus_sign,,,,null,,,,,,,,,,,,,,
null,,learn_phase(without_color),294351,black_plus_sign,,,,null,GW/teeth.jpg,GW/soldier.jpg,,,,,,,,,,,,
null,,black_cross(without_color),295062,blue,,,,null,GW/teeth.jpg,GW/soldier.jpg,,,,,,,,,,,,
null,,rt_plussign_withcolor,295573,blue,,,,null,GW/teeth.jpg,GW/soldier.jpg,,,,,,,,,,,,
743.1999999284744,,rt_thecrossant_black,296902,black_plus_sign,,,,49,,,1,1,,,,,,,,,,
null,,color_black,297012,black_plus_sign,,,,null,,,,,,,,,,,,,,
null,,learn_phase(without_color),299029,black_plus_sign,,,,null,GW/camera.jpg,GW/soldier.jpg,,,,,,,,,,,,
null,,black_cross(without_color),300072,green,,,,null,GW/camera.jpg,GW/soldier.jpg,,,,,,,,,,,,
null,,rt_plussign_withcolor,300585,green,,,,null,GW/camera.jpg,GW/soldier.jpg,,,,,,,,,,,,
937.3999999761581,,rt_thecrossant_black,301573,black_plus_sign,,,,50,,,1,1,,,,,,,,,,
null,,color_black,301685,black_plus_sign,,,,null,,,,,,,,,,,,,,
null,,learn_phase(without_color),303697,black_plus_sign,,,,null,GW/snail.jpg,GW/paint.jpg,,,,,,,,,,,,
null,,black_cross(without_color),304759,green,,,,null,GW/snail.jpg,GW/paint.jpg,,,,,,,,,,,,
null,,rt_plussign_withcolor,305264,green,,,,null,GW/snail.jpg,GW/paint.jpg,,,,,,,,,,,,
1378.8000000715256,,rt_thecrossant_black,306234,black_plus_sign,,,,50,,,1,1,,,,,,,,,,
null,,color_black,306337,black_plus_sign,,,,null,,,,,,,,,,,,,,
null,,learn_phase(without_color),308360,black_plus_sign,,,,null,GW/snail.jpg,GW/gong.jpg,,,,,,,,,,,,
null,,black_cross(without_color),309272,green,,,,null,GW/snail.jpg,GW/gong.jpg,,,,,,,,,,,,
null,,rt_plussign_withcolor,309790,green,,,,null,GW/snail.jpg,GW/gong.jpg,,,,,,,,,,,,
1259.9000000953674,,rt_thecrossant_black,310905,black_plus_sign,,,,50,,,1,1,,,,,,,,,,
null,,color_black,311025,black_plus_sign,,,,null,,,,,,,,,,,,,,
null,,learn_phase(without_color),313038,black_plus_sign,,,,null,GW/teeth.jpg,GW/soldier.jpg,,,,,,,,,,,,
null,,black_cross(without_color),313917,green,,,,null,GW/teeth.jpg,GW/soldier.jpg,,,,,,,,,,,,
null,,rt_plussign_withcolor,314437,green,,,,null,GW/teeth.jpg,GW/soldier.jpg,,,,,,,,,,,,
1247.3000000715256,,rt_thecrossant_black,315595,black_plus_sign,,,,50,,,1,1,,,,,,,,,,
null,,color_black,315712,black_plus_sign,,,,null,,,,,,,,,,,,,,
null,,learn_phase(without_color),317729,black_plus_sign,,,,null,GW/basket.jpg,GW/barrel.jpg,,,,,,,,,,,,
null,,black_cross(without_color),318211,green,,,,null,GW/basket.jpg,GW/barrel.jpg,,,,,,,,,,,,
null,,rt_plussign_withcolor,318730,green,,,,null,GW/basket.jpg,GW/barrel.jpg,,,,,,,,,,,,
1192.1000000238419,,rt_thecrossant_black,320279,black_plus_sign,,,,50,,,1,1,,,,,,,,,,
null,,color_black,320392,black_plus_sign,,,,null,,,,,,,,,,,,,,
null,,learn_phase(without_color),322403,black_plus_sign,,,,null,GW/barrel.jpg,GW/teeth.jpg,,,,,,,,,,,,
null,,black_cross(without_color),322834,blue,,,,null,GW/barrel.jpg,GW/teeth.jpg,,,,,,,,,,,,
null,,rt_plussign_withcolor,323349,blue,,,,null,GW/barrel.jpg,GW/teeth.jpg,,,,,,,,,,,,
715.2000000476837,,rt_thecrossant_black,324945,black_plus_sign,,,,49,,,1,1,,,,,,,,,,
null,,color_black,325048,black_plus_sign,,,,null,,,,,,,,,,,,,,
null,,learn_phase(without_color),327055,black_plus_sign,,,,null,GW/camera.jpg,GW/dustpan.jpg,,,,,,,,,,,,
null,,black_cross(without_color),328043,blue,,,,null,GW/camera.jpg,GW/dustpan.jpg,,,,,,,,,,,,
null,,rt_plussign_withcolor,328554,blue,,,,null,GW/camera.jpg,GW/dustpan.jpg,,,,,,,,,,,,
609.4000000953674,,rt_thecrossant_black,329587,black_plus_sign,,,,49,,,1,1,,,,,,,,,,
null,,color_black,329705,black_plus_sign,,,,null,,,,,,,,,,,,,,
null,,learn_phase(without_color),331712,black_plus_sign,,,,null,GW/teeth.jpg,GW/soldier.jpg,,,,,,,,,,,,
null,,black_cross(without_color),332625,green,,,,null,GW/teeth.jpg,GW/soldier.jpg,,,,,,,,,,,,
null,,rt_plussign_withcolor,333143,green,,,,null,GW/teeth.jpg,GW/soldier.jpg,,,,,,,,,,,,
1484.6000000238419,,rt_thecrossant_black,334253,black_plus_sign,,,,50,,,1,1,,,,,,,,,,
null,,color_black,334358,black_plus_sign,,,,null,,,,,,,,,,,,,,
null,,learn_phase(without_color),336362,black_plus_sign,,,,null,GW/jukebox.jpg,GW/soldier.jpg,,,,,,,,,,,,
null,,black_cross(without_color),337317,blue,,,,null,GW/jukebox.jpg,GW/soldier.jpg,,,,,,,,,,,,
null,,rt_plussign_withcolor,337830,blue,,,,null,GW/jukebox.jpg,GW/soldier.jpg,,,,,,,,,,,,
1231.5,,rt_thecrossant_black,338899,black_plus_sign,,,,50,,,0.9722222222222222,0,,,,,,,,,,
null,,color_black,339020,black_plus_sign,,,,null,,,,,,,,,,,,,,
null,,learn_phase(without_color),341025,black_plus_sign,,,,null,GW/jukebox.jpg,GW/hat.jpg,,,,,,,,,,,,
null,,black_cross(without_color),341822,blue,,,,null,GW/jukebox.jpg,GW/hat.jpg,,,,,,,,,,,,
null,,rt_plussign_withcolor,342334,blue,,,,null,GW/jukebox.jpg,GW/hat.jpg,,,,,,,,,,,,
1727.5,,rt_thecrossant_black,343557,black_plus_sign,,,,49,,,0.972972972972973,1,,,,,,,,,,
null,,color_black,343660,black_plus_sign,,,,null,,,,,,,,,,,,,,
null,,learn_phase(without_color),345681,black_plus_sign,,,,null,GW/jukebox.jpg,GW/soldier.jpg,,,,,,,,,,,,
null,,black_cross(without_color),346693,green,,,,null,GW/jukebox.jpg,GW/soldier.jpg,,,,,,,,,,,,
null,,rt_plussign_withcolor,347208,green,,,,null,GW/jukebox.jpg,GW/soldier.jpg,,,,,,,,,,,,
1056,,rt_thecrossant_black,348215,black_plus_sign,,,,50,,,0.9736842105263158,1,,,,,,,,,,
null,,color_black,348318,black_plus_sign,,,,null,,,,,,,,,,,,,,
null,,learn_phase(without_color),350332,black_plus_sign,,,,null,GW/barrel.jpg,GW/wheelchair.jpg,,,,,,,,,,,,
null,,black_cross(without_color),350923,green,,,,null,GW/barrel.jpg,GW/wheelchair.jpg,,,,,,,,,,,,
null,,rt_plussign_withcolor,351429,green,,,,null,GW/barrel.jpg,GW/wheelchair.jpg,,,,,,,,,,,,
1256.5,,rt_thecrossant_black,352868,black_plus_sign,,,,50,,,0.9743589743589743,1,,,,,,,,,,
null,,color_black,352980,black_plus_sign,,,,null,,,,,,,,,,,,,,
null,,learn_phase(without_color),354992,black_plus_sign,,,,null,GW/teeth.jpg,GW/jukebox.jpg,,,,,,,,,,,,
null,,black_cross(without_color),356110,green,,,,null,GW/teeth.jpg,GW/jukebox.jpg,,,,,,,,,,,,
null,,rt_plussign_withcolor,356621,green,,,,null,GW/teeth.jpg,GW/jukebox.jpg,,,,,,,,,,,,
915.4000000953674,,rt_thecrossant_black,357527,black_plus_sign,,,,50,,,0.975,1,,,,,,,,,,
null,,color_black,357641,black_plus_sign,,,,null,,,,,,,,,,,,,,
null,,learn_phase(without_color),359650,black_plus_sign,,,,null,GW/snail.jpg,GW/paint.jpg,,,,,,,,,,,,
null,,black_cross(without_color),360066,green,,,,null,GW/snail.jpg,GW/paint.jpg,,,,,,,,,,,,
null,,rt_plussign_withcolor,360576,green,,,,null,GW/snail.jpg,GW/paint.jpg,,,,,,,,,,,,
1380,,rt_thecrossant_black,362183,black_plus_sign,,,,50,,,0.975609756097561,1,,,,,,,,,,
null,,color_black,362297,black_plus_sign,,,,null,,,,,,,,,,,,,,
null,,learn_phase(without_color),364304,black_plus_sign,,,,null,GW/jukebox.jpg,GW/camera.jpg,,,,,,,,,,,,
null,,black_cross(without_color),364923,blue,,,,null,GW/jukebox.jpg,GW/camera.jpg,,,,,,,,,,,,
null,,rt_plussign_withcolor,365442,blue,,,,null,GW/jukebox.jpg,GW/camera.jpg,,,,,,,,,,,,
560.9000000953674,,rt_thecrossant_black,366863,black_plus_sign,,,,49,,,0.9761904761904762,1,,,,,,,,,,
null,,color_black,366976,black_plus_sign,,,,null,,,,,,,,,,,,,,
null,,learn_phase(without_color),368998,black_plus_sign,,,,null,GW/camera.jpg,GW/soldier.jpg,,,,,,,,,,,,
null,,black_cross(without_color),370066,green,,,,null,GW/camera.jpg,GW/soldier.jpg,,,,,,,,,,,,
null,,rt_plussign_withcolor,370586,green,,,,null,GW/camera.jpg,GW/soldier.jpg,,,,,,,,,,,,
789.3999999761581,,rt_thecrossant_black,371538,black_plus_sign,,,,50,,,0.9767441860465116,1,,,,,,,,,,
null,,color_black,371651,black_plus_sign,,,,null,,,,,,,,,,,,,,
null,,learn_phase(without_color),373674,black_plus_sign,,,,null,GW/wheelchair.jpg,GW/paint.jpg,,,,,,,,,,,,
null,,black_cross(without_color),374370,blue,,,,null,GW/wheelchair.jpg,GW/paint.jpg,,,,,,,,,,,,
null,,rt_plussign_withcolor,374874,blue,,,,null,GW/wheelchair.jpg,GW/paint.jpg,,,,,,,,,,,,
1389.3999999761581,,rt_thecrossant_black,376211,black_plus_sign,,,,49,,,0.9772727272727273,1,,,,,,,,,,
null,,color_black,376330,black_plus_sign,,,,null,,,,,,,,,,,,,,
null,,learn_phase(without_color),378337,black_plus_sign,,,,null,GW/barrel.jpg,GW/wheelchair.jpg,,,,,,,,,,,,
null,,black_cross(without_color),379194,green,,,,null,GW/barrel.jpg,GW/wheelchair.jpg,,,,,,,,,,,,
null,,rt_plussign_withcolor,379707,green,,,,null,GW/barrel.jpg,GW/wheelchair.jpg,,,,,,,,,,,,
1010.5,,rt_thecrossant_black,380861,black_plus_sign,,,,50,,,0.9777777777777777,1,,,,,,,,,,
null,,color_black,380974,black_plus_sign,,,,null,,,,,,,,,,,,,,
null,,learn_phase(without_color),382993,black_plus_sign,,,,null,GW/jukebox.jpg,GW/camera.jpg,,,,,,,,,,,,
null,,black_cross(without_color),383619,green,,,,null,GW/jukebox.jpg,GW/camera.jpg,,,,,,,,,,,,
null,,rt_plussign_withcolor,384128,green,,,,null,GW/jukebox.jpg,GW/camera.jpg,,,,,,,,,,,,
1199.2999999523163,,rt_thecrossant_black,385529,black_plus_sign,,,,50,,,0.9782608695652174,1,,,,,,,,,,
null,,color_black,385630,black_plus_sign,,,,null,,,,,,,,,,,,,,
null,,learn_phase(without_color),387647,black_plus_sign,,,,null,GW/wheelchair.jpg,GW/paint.jpg,,,,,,,,,,,,
null,,black_cross(without_color),388311,green,,,,null,GW/wheelchair.jpg,GW/paint.jpg,,,,,,,,,,,,
null,,rt_plussign_withcolor,388818,green,,,,null,GW/wheelchair.jpg,GW/paint.jpg,,,,,,,,,,,,
1098.6999999284744,,rt_thecrossant_black,390194,black_plus_sign,,,,50,,,0.9787234042553191,1,,,,,,,,,,
null,,color_black,390306,black_plus_sign,,,,null,,,,,,,,,,,,,,
null,,learn_phase(without_color),392323,black_plus_sign,,,,null,GW/barrel.jpg,GW/teeth.jpg,,,,,,,,,,,,
null,,black_cross(without_color),392805,green,,,,null,GW/barrel.jpg,GW/teeth.jpg,,,,,,,,,,,,
null,,rt_plussign_withcolor,393315,green,,,,null,GW/barrel.jpg,GW/teeth.jpg,,,,,,,,,,,,
1018.1999999284744,,rt_thecrossant_black,394850,black_plus_sign,,,,50,,,0.9791666666666666,1,,,,,,,,,,
null,,color_black,394963,black_plus_sign,,,,null,,,,,,,,,,,,,,
null,,learn_phase(without_color),396969,black_plus_sign,,,,null,GW/snail.jpg,GW/paint.jpg,,,,,,,,,,,,
null,,black_cross(without_color),398031,green,,,,null,GW/snail.jpg,GW/paint.jpg,,,,,,,,,,,,
null,,rt_plussign_withcolor,398540,green,,,,null,GW/snail.jpg,GW/paint.jpg,,,,,,,,,,,,
700.2000000476837,,rt_thecrossant_black,399492,black_plus_sign,,,,50,,,0.9795918367346939,1,,,,,,,,,,
null,,color_black,399596,black_plus_sign,,,,null,,,,,,,,,,,,,,
null,,learn_phase(without_color),401600,black_plus_sign,,,,null,GW/globe.jpg,GW/basket.jpg,,,,,,,,,,,,
null,,black_cross(without_color),402635,blue,,,,null,GW/globe.jpg,GW/basket.jpg,,,,,,,,,,,,
482.5,,rt_plussign_withcolor,403144,blue,,,,49,GW/globe.jpg,GW/basket.jpg,,,,,,,,,,,,
null,,rt_thecrossant_black,404137,black_plus_sign,,,,null,,,0.98,1,,,,,,,,,,
null,,color_black,404249,black_plus_sign,,,,null,,,,,,,,,,,,,,
null,,learn_phase(without_color),406272,black_plus_sign,,,,null,GW/basket.jpg,GW/snail.jpg,,,,,,,,,,,,
null,,black_cross(without_color),407215,blue,,,,null,GW/basket.jpg,GW/snail.jpg,,,,,,,,,,,,
null,,rt_plussign_withcolor,407730,blue,,,,null,GW/basket.jpg,GW/snail.jpg,,,,,,,,,,,,
1149.2999999523163,,rt_thecrossant_black,408810,black_plus_sign,,,,49,,,0.9803921568627451,1,,,,,,,,,,
null,,color_black,408922,black_plus_sign,,,,null,,,,,,,,,,,,,,
null,,learn_phase(without_color),410939,black_plus_sign,,,,null,GW/jukebox.jpg,GW/hat.jpg,,,,,,,,,,,,
null,,black_cross(without_color),411540,blue,,,,null,GW/jukebox.jpg,GW/hat.jpg,,,,,,,,,,,,
501.2000000476837,,rt_plussign_withcolor,412044,blue,,,,49,GW/jukebox.jpg,GW/hat.jpg,,,,,,,,,,,,
null,,rt_thecrossant_black,413471,black_plus_sign,,,,null,,,0.9807692307692307,1,,,,,,,,,,
null,,color_black,413591,black_plus_sign,,,,null,,,,,,,,,,,,,,
null,,learn_phase(without_color),415598,black_plus_sign,,,,null,GW/snail.jpg,GW/gong.jpg,,,,,,,,,,,,
null,,black_cross(without_color),416250,green,,,,null,GW/snail.jpg,GW/gong.jpg,,,,,,,,,,,,
null,,rt_plussign_withcolor,416766,green,,,,null,GW/snail.jpg,GW/gong.jpg,,,,,,,,,,,,
934.1000000238419,,rt_thecrossant_black,418142,black_plus_sign,,,,50,,,0.9811320754716981,1,,,,,,,,,,
null,,color_black,418255,black_plus_sign,,,,null,,,,,,,,,,,,,,
null,,learn_phase(without_color),420261,black_plus_sign,,,,null,GW/basket.jpg,GW/snail.jpg,,,,,,,,,,,,
null,,black_cross(without_color),420746,green,,,,null,GW/basket.jpg,GW/snail.jpg,,,,,,,,,,,,
null,,rt_plussign_withcolor,421251,green,,,,null,GW/basket.jpg,GW/snail.jpg,,,,,,,,,,,,
965.7000000476837,,rt_thecrossant_black,422800,black_plus_sign,,,,50,,,0.9814814814814815,1,,,,,,,,,,
null,,color_black,422904,black_plus_sign,,,,null,,,,,,,,,,,,,,
null,,learn_phase(without_color),424913,black_plus_sign,,,,null,GW/globe.jpg,GW/basket.jpg,,,,,,,,,,,,
null,,black_cross(without_color),425592,blue,,,,null,GW/globe.jpg,GW/basket.jpg,,,,,,,,,,,,
null,,rt_plussign_withcolor,426105,blue,,,,null,GW/globe.jpg,GW/basket.jpg,,,,,,,,,,,,
802.1000000238419,,rt_thecrossant_black,427454,black_plus_sign,,,,49,,,0.9818181818181818,1,,,,,,,,,,
null,,color_black,427572,black_plus_sign,,,,null,,,,,,,,,,,,,,
null,,learn_phase(without_color),429587,black_plus_sign,,,,null,GW/snail.jpg,GW/paint.jpg,,,,,,,,,,,,
null,,black_cross(without_color),430284,blue,,,,null,GW/snail.jpg,GW/paint.jpg,,,,,,,,,,,,
null,,rt_plussign_withcolor,430789,blue,,,,null,GW/snail.jpg,GW/paint.jpg,,,,,,,,,,,,
1085,,rt_thecrossant_black,432109,black_plus_sign,,,,49,,,0.9821428571428571,1,,,,,,,,,,
null,,color_black,432211,black_plus_sign,,,,null,,,,,,,,,,,,,,
null,,learn_phase(without_color),434219,black_plus_sign,,,,null,GW/snail.jpg,GW/gong.jpg,,,,,,,,,,,,
null,,black_cross(without_color),434779,blue,,,,null,GW/snail.jpg,GW/gong.jpg,,,,,,,,,,,,
null,,rt_plussign_withcolor,435290,blue,,,,null,GW/snail.jpg,GW/gong.jpg,,,,,,,,,,,,
934.5,,rt_thecrossant_black,436748,black_plus_sign,,,,49,,,0.9824561403508771,1,,,,,,,,,,
null,,color_black,436862,black_plus_sign,,,,null,,,,,,,,,,,,,,
null,,learn_phase(without_color),438877,black_plus_sign,,,,null,GW/jukebox.jpg,GW/camera.jpg,,,,,,,,,,,,
null,,black_cross(without_color),439579,green,,,,null,GW/jukebox.jpg,GW/camera.jpg,,,,,,,,,,,,
null,,rt_plussign_withcolor,440094,green,,,,null,GW/jukebox.jpg,GW/camera.jpg,,,,,,,,,,,,
851.4000000953674,,rt_thecrossant_black,441421,black_plus_sign,,,,50,,,0.9827586206896551,1,,,,,,,,,,
null,,color_black,441534,black_plus_sign,,,,null,,,,,,,,,,,,,,
null,,learn_phase(without_color),443554,black_plus_sign,,,,null,GW/teeth.jpg,GW/soldier.jpg,,,,,,,,,,,,
null,,black_cross(without_color),444399,green,,,,null,GW/teeth.jpg,GW/soldier.jpg,,,,,,,,,,,,
null,,rt_plussign_withcolor,444905,green,,,,null,GW/teeth.jpg,GW/soldier.jpg,,,,,,,,,,,,
1104.5,,rt_thecrossant_black,446092,black_plus_sign,,,,50,,,0.9830508474576272,1,,,,,,,,,,
null,,color_black,446207,black_plus_sign,,,,null,,,,,,,,,,,,,,
null,,learn_phase(without_color),448215,black_plus_sign,,,,null,GW/jukebox.jpg,GW/hat.jpg,,,,,,,,,,,,
null,,black_cross(without_color),448838,blue,,,,null,GW/jukebox.jpg,GW/hat.jpg,,,,,,,,,,,,
null,,rt_plussign_withcolor,449345,blue,,,,null,GW/jukebox.jpg,GW/hat.jpg,,,,,,,,,,,,
1284.7999999523163,,rt_thecrossant_black,450747,black_plus_sign,,,,49,,,0.9833333333333333,1,,,,,,,,,,
null,,color_black,450860,black_plus_sign,,,,null,,,,,,,,,,,,,,
null,,learn_phase(without_color),452877,black_plus_sign,,,,null,GW/basket.jpg,GW/snail.jpg,,,,,,,,,,,,
null,,black_cross(without_color),453934,blue,,,,null,GW/basket.jpg,GW/snail.jpg,,,,,,,,,,,,
null,,rt_plussign_withcolor,454452,blue,,,,null,GW/basket.jpg,GW/snail.jpg,,,,,,,,,,,,
954.3000000715256,,rt_thecrossant_black,455422,black_plus_sign,,,,49,,,0.9836065573770492,1,,,,,,,,,,
null,,color_black,455534,black_plus_sign,,,,null,,,,,,,,,,,,,,
null,,learn_phase(without_color),457552,black_plus_sign,,,,null,GW/globe.jpg,GW/basket.jpg,,,,,,,,,,,,
null,,black_cross(without_color),458605,blue,,,,null,GW/globe.jpg,GW/basket.jpg,,,,,,,,,,,,
null,,rt_plussign_withcolor,459115,blue,,,,null,GW/globe.jpg,GW/basket.jpg,,,,,,,,,,,,
1407.3000000715256,,rt_thecrossant_black,460088,black_plus_sign,,,,49,,,0.9838709677419355,1,,,,,,,,,,
null,,color_black,460190,black_plus_sign,,,,null,,,,,,,,,,,,,,
null,,learn_phase(without_color),462210,black_plus_sign,,,,null,GW/soldier.jpg,GW/wheelchair.jpg,,,,,,,,,,,,
null,,black_cross(without_color),462965,green,,,,null,GW/soldier.jpg,GW/wheelchair.jpg,,,,,,,,,,,,
null,,rt_plussign_withcolor,463476,green,,,,null,GW/soldier.jpg,GW/wheelchair.jpg,,,,,,,,,,,,
1372.1000000238419,,rt_thecrossant_black,464746,black_plus_sign,,,,50,,,0.9841269841269841,1,,,,,,,,,,
null,,color_black,464859,black_plus_sign,,,,null,,,,,,,,,,,,,,
null,,learn_phase(without_color),466867,black_plus_sign,,,,null,GW/barrel.jpg,GW/teeth.jpg,,,,,,,,,,,,
null,,black_cross(without_color),467564,green,,,,null,GW/barrel.jpg,GW/teeth.jpg,,,,,,,,,,,,
null,,rt_plussign_withcolor,468076,green,,,,null,GW/barrel.jpg,GW/teeth.jpg,,,,,,,,,,,,
1070.5,,rt_thecrossant_black,469393,black_plus_sign,,,,50,,,0.984375,1,,,,,,,,,,
null,,color_black,469506,black_plus_sign,,,,null,,,,,,,,,,,,,,
null,,learn_phase(without_color),471523,black_plus_sign,,,,null,GW/snail.jpg,GW/gong.jpg,,,,,,,,,,,,
null,,black_cross(without_color),472619,blue,,,,null,GW/snail.jpg,GW/gong.jpg,,,,,,,,,,,,
null,,rt_plussign_withcolor,473132,blue,,,,null,GW/snail.jpg,GW/gong.jpg,,,,,,,,,,,,
907,,rt_thecrossant_black,474051,black_plus_sign,,,,49,,,0.9846153846153847,1,,,,,,,,,,
null,,color_black,474164,black_plus_sign,,,,null,,,,,,,,,,,,,,
null,,learn_phase(without_color),476180,black_plus_sign,,,,null,GW/jukebox.jpg,GW/camera.jpg,,,,,,,,,,,,
null,,black_cross(without_color),476803,blue,,,,null,GW/jukebox.jpg,GW/camera.jpg,,,,,,,,,,,,
null,,rt_plussign_withcolor,477314,blue,,,,null,GW/jukebox.jpg,GW/camera.jpg,,,,,,,,,,,,
1453.7999999523163,,rt_thecrossant_black,478721,black_plus_sign,,,,49,,,0.9848484848484849,1,,,,,,,,,,
null,,color_black,478832,black_plus_sign,,,,null,,,,,,,,,,,,,,
null,,learn_phase(without_color),480838,black_plus_sign,,,,null,GW/barrel.jpg,GW/teeth.jpg,,,,,,,,,,,,
null,,black_cross(without_color),481910,blue,,,,null,GW/barrel.jpg,GW/teeth.jpg,,,,,,,,,,,,
null,,rt_plussign_withcolor,482415,blue,,,,null,GW/barrel.jpg,GW/teeth.jpg,,,,,,,,,,,,
942.7000000476837,,rt_thecrossant_black,483375,black_plus_sign,,,,49,,,0.9850746268656716,1,,,,,,,,,,
null,,color_black,483477,black_plus_sign,,,,null,,,,,,,,,,,,,,
null,,learn_phase(without_color),485490,black_plus_sign,,,,null,GW/globe.jpg,GW/basket.jpg,,,,,,,,,,,,
null,,black_cross(without_color),486560,blue,,,,null,GW/globe.jpg,GW/basket.jpg,,,,,,,,,,,,
null,,rt_plussign_withcolor,487076,blue,,,,null,GW/globe.jpg,GW/basket.jpg,,,,,,,,,,,,
1296.2000000476837,,rt_thecrossant_black,488025,black_plus_sign,,,,49,,,0.9852941176470589,1,,,,,,,,,,
null,,color_black,488136,black_plus_sign,,,,null,,,,,,,,,,,,,,
null,,learn_phase(without_color),490142,black_plus_sign,,,,null,GW/teeth.jpg,GW/jukebox.jpg,,,,,,,,,,,,
null,,black_cross(without_color),490929,green,,,,null,GW/teeth.jpg,GW/jukebox.jpg,,,,,,,,,,,,
null,,rt_plussign_withcolor,491444,green,,,,null,GW/teeth.jpg,GW/jukebox.jpg,,,,,,,,,,,,
1882.6999999284744,,rt_thecrossant_black,492688,black_plus_sign,,,,50,,,0.9855072463768116,1,,,,,,,,,,
null,,color_black,492802,black_plus_sign,,,,null,,,,,,,,,,,,,,
null,,learn_phase(without_color),494809,black_plus_sign,,,,null,GW/barrel.jpg,GW/teeth.jpg,,,,,,,,,,,,
null,,black_cross(without_color),495803,blue,,,,null,GW/barrel.jpg,GW/teeth.jpg,,,,,,,,,,,,
null,,rt_plussign_withcolor,496310,blue,,,,null,GW/barrel.jpg,GW/teeth.jpg,,,,,,,,,,,,
1062.3999999761581,,rt_thecrossant_black,497326,black_plus_sign,,,,49,,,0.9857142857142858,1,,,,,,,,,,
null,,color_black,497430,black_plus_sign,,,,null,,,,,,,,,,,,,,
null,,learn_phase(without_color),499453,black_plus_sign,,,,null,GW/camera.jpg,GW/dustpan.jpg,,,,,,,,,,,,
null,,black_cross(without_color),500382,green,,,,null,GW/camera.jpg,GW/dustpan.jpg,,,,,,,,,,,,
null,,rt_plussign_withcolor,500890,green,,,,null,GW/camera.jpg,GW/dustpan.jpg,,,,,,,,,,,,
1202.5,,rt_thecrossant_black,501990,black_plus_sign,,,,50,,,0.9859154929577465,1,,,,,,,,,,
null,,color_black,502101,black_plus_sign,,,,null,,,,,,,,,,,,,,
null,,learn_phase(without_color),504119,black_plus_sign,,,,null,GW/basket.jpg,GW/barrel.jpg,,,,,,,,,,,,
null,,black_cross(without_color),504779,blue,,,,null,GW/basket.jpg,GW/barrel.jpg,,,,,,,,,,,,
null,,rt_plussign_withcolor,505288,blue,,,,null,GW/basket.jpg,GW/barrel.jpg,,,,,,,,,,,,
1118.5999999046326,,rt_thecrossant_black,506665,black_plus_sign,,,,49,,,0.9861111111111112,1,,,,,,,,,,
null,,color_black,506778,black_plus_sign,,,,null,,,,,,,,,,,,,,
null,,learn_phase(without_color),508796,black_plus_sign,,,,null,GW/basket.jpg,GW/snail.jpg,,,,,,,,,,,,
null,,black_cross(without_color),509316,blue,,,,null,GW/basket.jpg,GW/snail.jpg,,,,,,,,,,,,
null,,rt_plussign_withcolor,509818,blue,,,,null,GW/basket.jpg,GW/snail.jpg,,,,,,,,,,,,
1127,,rt_thecrossant_black,511329,black_plus_sign,,,,49,,,0.9863013698630136,1,,,,,,,,,,
null,,color_black,511442,black_plus_sign,,,,null,,,,,,,,,,,,,,
null,,learn_phase(without_color),513460,black_plus_sign,,,,null,GW/teeth.jpg,GW/soldier.jpg,,,,,,,,,,,,
null,,black_cross(without_color),514137,blue,,,,null,GW/teeth.jpg,GW/soldier.jpg,,,,,,,,,,,,
null,,rt_plussign_withcolor,514654,blue,,,,null,GW/teeth.jpg,GW/soldier.jpg,,,,,,,,,,,,
998.9000000953674,,rt_thecrossant_black,515995,black_plus_sign,,,,49,,,0.9864864864864865,1,,,,,,,,,,
null,,color_black,516112,black_plus_sign,,,,null,,,,,,,,,,,,,,
null,,learn_phase(without_color),518134,black_plus_sign,,,,null,GW/teeth.jpg,GW/jukebox.jpg,,,,,,,,,,,,
null,,black_cross(without_color),518812,blue,,,,null,GW/teeth.jpg,GW/jukebox.jpg,,,,,,,,,,,,
null,,rt_plussign_withcolor,519326,blue,,,,null,GW/teeth.jpg,GW/jukebox.jpg,,,,,,,,,,,,
928.8000000715256,,rt_thecrossant_black,520682,black_plus_sign,,,,49,,,0.9866666666666667,1,,,,,,,,,,
null,,color_black,520785,black_plus_sign,,,,null,,,,,,,,,,,,,,
null,,learn_phase(without_color),522806,black_plus_sign,,,,null,GW/camera.jpg,GW/soldier.jpg,,,,,,,,,,,,
null,,black_cross(without_color),523906,green,,,,null,GW/camera.jpg,GW/soldier.jpg,,,,,,,,,,,,
475.1999999284744,,rt_plussign_withcolor,524409,green,,,,50,GW/camera.jpg,GW/soldier.jpg,,,,,,,,,,,,
null,,rt_thecrossant_black,525337,black_plus_sign,,,,null,,,0.9868421052631579,1,,,,,,,,,,
null,,color_black,525448,black_plus_sign,,,,null,,,,,,,,,,,,,,
null,,learn_phase(without_color),527456,black_plus_sign,,,,null,GW/jukebox.jpg,GW/soldier.jpg,,,,,,,,,,,,
null,,black_cross(without_color),528023,green,,,,null,GW/jukebox.jpg,GW/soldier.jpg,,,,,,,,,,,,
null,,rt_plussign_withcolor,528543,green,,,,null,GW/jukebox.jpg,GW/soldier.jpg,,,,,,,,,,,,
1700,,rt_thecrossant_black,530002,black_plus_sign,,,,50,,,0.987012987012987,1,,,,,,,,,,
null,,color_black,530115,black_plus_sign,,,,null,,,,,,,,,,,,,,
null,,learn_phase(without_color),532130,black_plus_sign,,,,null,GW/camera.jpg,GW/dustpan.jpg,,,,,,,,,,,,
null,,black_cross(without_color),532711,green,,,,null,GW/camera.jpg,GW/dustpan.jpg,,,,,,,,,,,,
null,,rt_plussign_withcolor,533218,green,,,,null,GW/camera.jpg,GW/dustpan.jpg,,,,,,,,,,,,
849.7999999523163,,rt_thecrossant_black,534655,black_plus_sign,,,,50,,,0.9871794871794872,1,,,,,,,,,,
null,,color_black,534773,black_plus_sign,,,,null,,,,,,,,,,,,,,
null,,learn_phase(without_color),536781,black_plus_sign,,,,null,GW/camera.jpg,GW/soldier.jpg,,,,,,,,,,,,
null,,black_cross(without_color),537783,blue,,,,null,GW/camera.jpg,GW/soldier.jpg,,,,,,,,,,,,
null,,rt_plussign_withcolor,538305,blue,,,,null,GW/camera.jpg,GW/soldier.jpg,,,,,,,,,,,,
787.5,,rt_thecrossant_black,539319,black_plus_sign,,,,49,,,0.9873417721518988,1,,,,,,,,,,
null,,color_black,539441,black_plus_sign,,,,null,,,,,,,,,,,,,,
null,,learn_phase(without_color),541446,black_plus_sign,,,,null,GW/snail.jpg,GW/gong.jpg,,,,,,,,,,,,
null,,black_cross(without_color),542461,green,,,,null,GW/snail.jpg,GW/gong.jpg,,,,,,,,,,,,
null,,rt_plussign_withcolor,542967,green,,,,null,GW/snail.jpg,GW/gong.jpg,,,,,,,,,,,,
1256.3999999761581,,rt_thecrossant_black,543977,black_plus_sign,,,,50,,,0.9875,1,,,,,,,,,,
null,,color_black,544091,black_plus_sign,,,,null,,,,,,,,,,,,,,
null,,learn_phase(without_color),546110,black_plus_sign,,,,null,GW/basket.jpg,GW/barrel.jpg,,,,,,,,,,,,
null,,black_cross(without_color),546772,blue,,,,null,GW/basket.jpg,GW/barrel.jpg,,,,,,,,,,,,
null,,rt_plussign_withcolor,547279,blue,,,,null,GW/basket.jpg,GW/barrel.jpg,,,,,,,,,,,,
1308.8000000715256,,rt_thecrossant_black,548647,black_plus_sign,,,,49,,,0.9876543209876543,1,,,,,,,,,,
null,,color_black,548749,black_plus_sign,,,,null,,,,,,,,,,,,,,
null,,learn_phase(without_color),550761,black_plus_sign,,,,null,GW/snail.jpg,GW/paint.jpg,,,,,,,,,,,,
null,,black_cross(without_color),551543,green,,,,null,GW/snail.jpg,GW/paint.jpg,,,,,,,,,,,,
null,,rt_plussign_withcolor,552052,green,,,,null,GW/snail.jpg,GW/paint.jpg,,,,,,,,,,,,
962.6000000238419,,rt_thecrossant_black,553304,black_plus_sign,,,,50,,,0.9878048780487805,1,,,,,,,,,,
null,,color_black,553405,black_plus_sign,,,,null,,,,,,,,,,,,,,
null,,learn_phase(without_color),555416,black_plus_sign,,,,null,GW/jukebox.jpg,GW/camera.jpg,,,,,,,,,,,,
null,,black_cross(without_color),556481,blue,,,,null,GW/jukebox.jpg,GW/camera.jpg,,,,,,,,,,,,
489.8000000715256,,rt_plussign_withcolor,556990,blue,,,,49,GW/jukebox.jpg,GW/camera.jpg,,,,,,,,,,,,
null,,rt_thecrossant_black,557948,black_plus_sign,,,,null,,,0.9879518072289156,1,,,,,,,,,,
null,,color_black,558062,black_plus_sign,,,,null,,,,,,,,,,,,,,
null,,learn_phase(without_color),560079,black_plus_sign,,,,null,GW/jukebox.jpg,GW/soldier.jpg,,,,,,,,,,,,
null,,black_cross(without_color),560502,blue,,,,null,GW/jukebox.jpg,GW/soldier.jpg,,,,,,,,,,,,
null,,rt_plussign_withcolor,561008,blue,,,,null,GW/jukebox.jpg,GW/soldier.jpg,,,,,,,,,,,,
1312.7000000476837,,rt_thecrossant_black,562596,black_plus_sign,,,,49,,,0.9880952380952381,1,,,,,,,,,,
null,,color_black,562715,black_plus_sign,,,,null,,,,,,,,,,,,,,
null,,learn_phase(without_color),564730,black_plus_sign,,,,null,GW/basket.jpg,GW/barrel.jpg,,,,,,,,,,,,
null,,black_cross(without_color),565147,green,,,,null,GW/basket.jpg,GW/barrel.jpg,,,,,,,,,,,,
null,,rt_plussign_withcolor,565665,green,,,,null,GW/basket.jpg,GW/barrel.jpg,,,,,,,,,,,,
844.0999999046326,,rt_thecrossant_black,567271,black_plus_sign,,,,50,,,0.9882352941176471,1,,,,,,,,,,
null,,color_black,567385,black_plus_sign,,,,null,,,,,,,,,,,,,,
null,,learn_phase(without_color),569405,black_plus_sign,,,,null,GW/jukebox.jpg,GW/hat.jpg,,,,,,,,,,,,
null,,black_cross(without_color),570338,green,,,,null,GW/jukebox.jpg,GW/hat.jpg,,,,,,,,,,,,
null,,rt_plussign_withcolor,570845,green,,,,null,GW/jukebox.jpg,GW/hat.jpg,,,,,,,,,,,,
774.9000000953674,,rt_thecrossant_black,571940,black_plus_sign,,,,50,,,0.9883720930232558,1,,,,,,,,,,
null,,color_black,572055,black_plus_sign,,,,null,,,,,,,,,,,,,,
null,,learn_phase(without_color),574073,black_plus_sign,,,,null,GW/camera.jpg,GW/soldier.jpg,,,,,,,,,,,,
null,,black_cross(without_color),575046,green,,,,null,GW/camera.jpg,GW/soldier.jpg,,,,,,,,,,,,
null,,rt_plussign_withcolor,575565,green,,,,null,GW/camera.jpg,GW/soldier.jpg,,,,,,,,,,,,
1183.3999999761581,,rt_thecrossant_black,576614,black_plus_sign,,,,50,,,0.9885057471264368,1,,,,,,,,,,
null,,color_black,576734,black_plus_sign,,,,null,,,,,,,,,,,,,,
null,,learn_phase(without_color),578739,black_plus_sign,,,,null,GW/barrel.jpg,GW/teeth.jpg,,,,,,,,,,,,
null,,black_cross(without_color),579791,green,,,,null,GW/barrel.jpg,GW/teeth.jpg,,,,,,,,,,,,
null,,rt_plussign_withcolor,580309,green,,,,null,GW/barrel.jpg,GW/teeth.jpg,,,,,,,,,,,,
1176.6000000238419,,rt_thecrossant_black,581292,black_plus_sign,,,,50,,,0.9886363636363636,1,,,,,,,,,,
null,,color_black,581403,black_plus_sign,,,,null,,,,,,,,,,,,,,
null,,learn_phase(without_color),583416,black_plus_sign,,,,null,GW/wheelchair.jpg,GW/paint.jpg,,,,,,,,,,,,
null,,black_cross(without_color),584405,green,,,,null,GW/wheelchair.jpg,GW/paint.jpg,,,,,,,,,,,,
null,,rt_plussign_withcolor,584921,green,,,,null,GW/wheelchair.jpg,GW/paint.jpg,,,,,,,,,,,,
1315.8999999761581,,rt_thecrossant_black,585953,black_plus_sign,,,,50,,,0.9887640449438202,1,,,,,,,,,,
null,,color_black,586055,black_plus_sign,,,,null,,,,,,,,,,,,,,
null,,learn_phase(without_color),588064,black_plus_sign,,,,null,GW/soldier.jpg,GW/wheelchair.jpg,,,,,,,,,,,,
null,,black_cross(without_color),588964,green,,,,null,GW/soldier.jpg,GW/wheelchair.jpg,,,,,,,,,,,,
null,,rt_plussign_withcolor,589485,green,,,,null,GW/soldier.jpg,GW/wheelchair.jpg,,,,,,,,,,,,
1350.0999999046326,,rt_thecrossant_black,590606,black_plus_sign,,,,50,,,0.9888888888888889,1,,,,,,,,,,
null,,color_black,590720,black_plus_sign,,,,null,,,,,,,,,,,,,,
null,,learn_phase(without_color),592728,black_plus_sign,,,,null,GW/wheelchair.jpg,GW/paint.jpg,,,,,,,,,,,,
null,,black_cross(without_color),593587,green,,,,null,GW/wheelchair.jpg,GW/paint.jpg,,,,,,,,,,,,
null,,rt_plussign_withcolor,594105,green,,,,null,GW/wheelchair.jpg,GW/paint.jpg,,,,,,,,,,,,
1256.2999999523163,,rt_thecrossant_black,595268,black_plus_sign,,,,50,,,0.989010989010989,1,,,,,,,,,,
null,,color_black,595381,black_plus_sign,,,,null,,,,,,,,,,,,,,
null,,learn_phase(without_color),597398,black_plus_sign,,,,null,GW/teeth.jpg,GW/soldier.jpg,,,,,,,,,,,,
null,,black_cross(without_color),598186,blue,,,,null,GW/teeth.jpg,GW/soldier.jpg,,,,,,,,,,,,
null,,rt_plussign_withcolor,598699,blue,,,,null,GW/teeth.jpg,GW/soldier.jpg,,,,,,,,,,,,
1239.2000000476837,,rt_thecrossant_black,599951,black_plus_sign,,,,49,,,0.9891304347826086,1,,,,,,,,,,
null,,color_black,600070,black_plus_sign,,,,null,,,,,,,,,,,,,,
null,,learn_phase(without_color),602072,black_plus_sign,,,,null,GW/teeth.jpg,GW/jukebox.jpg,,,,,,,,,,,,
null,,black_cross(without_color),602935,green,,,,null,GW/teeth.jpg,GW/jukebox.jpg,,,,,,,,,,,,
null,,rt_plussign_withcolor,603446,green,,,,null,GW/teeth.jpg,GW/jukebox.jpg,,,,,,,,,,,,
975.2999999523163,,rt_thecrossant_black,604597,black_plus_sign,,,,50,,,0.989247311827957,1,,,,,,,,,,
null,,color_black,604716,black_plus_sign,,,,null,,,,,,,,,,,,,,
null,,learn_phase(without_color),606731,black_plus_sign,,,,null,GW/barrel.jpg,GW/wheelchair.jpg,,,,,,,,,,,,
null,,black_cross(without_color),607500,green,,,,null,GW/barrel.jpg,GW/wheelchair.jpg,,,,,,,,,,,,
null,,rt_plussign_withcolor,608016,green,,,,null,GW/barrel.jpg,GW/wheelchair.jpg,,,,,,,,,,,,
1221.3000000715256,,rt_thecrossant_black,609282,black_plus_sign,,,,50,,,0.9893617021276596,1,,,,,,,,,,
null,,color_black,609400,black_plus_sign,,,,null,,,,,,,,,,,,,,
null,,learn_phase(without_color),611420,black_plus_sign,,,,null,GW/wheelchair.jpg,GW/paint.jpg,,,,,,,,,,,,
null,,black_cross(without_color),611830,green,,,,null,GW/wheelchair.jpg,GW/paint.jpg,,,,,,,,,,,,
null,,rt_plussign_withcolor,612349,green,,,,null,GW/wheelchair.jpg,GW/paint.jpg,,,,,,,,,,,,
869.0999999046326,,rt_thecrossant_black,613969,black_plus_sign,,,,50,,,0.9894736842105263,1,,,,,,,,,,
null,,color_black,614081,black_plus_sign,,,,null,,,,,,,,,,,,,,
null,,learn_phase(without_color),616087,black_plus_sign,,,,null,GW/barrel.jpg,GW/wheelchair.jpg,,,,,,,,,,,,
null,,black_cross(without_color),616826,green,,,,null,GW/barrel.jpg,GW/wheelchair.jpg,,,,,,,,,,,,
null,,rt_plussign_withcolor,617339,green,,,,null,GW/barrel.jpg,GW/wheelchair.jpg,,,,,,,,,,,,
738.7999999523163,,rt_thecrossant_black,618624,black_plus_sign,,,,50,,,0.9895833333333334,1,,,,,,,,,,
null,,color_black,618742,black_plus_sign,,,,null,,,,,,,,,,,,,,
null,,learn_phase(without_color),620752,black_plus_sign,,,,null,GW/teeth.jpg,GW/soldier.jpg,,,,,,,,,,,,
null,,black_cross(without_color),621765,blue,,,,null,GW/teeth.jpg,GW/soldier.jpg,,,,,,,,,,,,
null,,rt_plussign_withcolor,622280,blue,,,,null,GW/teeth.jpg,GW/soldier.jpg,,,,,,,,,,,,
1197.7000000476837,,rt_thecrossant_black,623290,black_plus_sign,,,,49,,,0.9896907216494846,1,,,,,,,,,,
null,,color_black,623408,black_plus_sign,,,,null,,,,,,,,,,,,,,
null,,learn_phase(without_color),625415,black_plus_sign,,,,null,GW/globe.jpg,GW/basket.jpg,,,,,,,,,,,,
null,,black_cross(without_color),626338,blue,,,,null,GW/globe.jpg,GW/basket.jpg,,,,,,,,,,,,
null,,rt_plussign_withcolor,626855,blue,,,,null,GW/globe.jpg,GW/basket.jpg,,,,,,,,,,,,
1162.1000000238419,,rt_thecrossant_black,627956,black_plus_sign,,,,49,,,0.9897959183673469,1,,,,,,,,,,
null,,color_black,628069,black_plus_sign,,,,null,,,,,,,,,,,,,,
null,,learn_phase(without_color),630075,black_plus_sign,,,,null,GW/soldier.jpg,GW/wheelchair.jpg,,,,,,,,,,,,
null,,black_cross(without_color),630579,green,,,,null,GW/soldier.jpg,GW/wheelchair.jpg,,,,,,,,,,,,
null,,rt_plussign_withcolor,631092,green,,,,null,GW/soldier.jpg,GW/wheelchair.jpg,,,,,,,,,,,,
1189.2999999523163,,rt_thecrossant_black,632617,black_plus_sign,,,,50,,,0.98989898989899,1,,,,,,,,,,
null,,color_black,632735,black_plus_sign,,,,null,,,,,,,,,,,,,,
null,,learn_phase(without_color),634751,black_plus_sign,,,,null,GW/snail.jpg,GW/gong.jpg,,,,,,,,,,,,
null,,black_cross(without_color),635187,blue,,,,null,GW/snail.jpg,GW/gong.jpg,,,,,,,,,,,,
null,,rt_plussign_withcolor,635699,blue,,,,null,GW/snail.jpg,GW/gong.jpg,,,,,,,,,,,,
752.1999999284744,,rt_thecrossant_black,637279,black_plus_sign,,,,50,,,0.98,0,,,,,,,,,,
null,,color_black,637385,black_plus_sign,,,,null,,,,,,,,,,,,,,
null,,learn_phase(without_color),639395,black_plus_sign,,,,null,GW/barrel.jpg,GW/wheelchair.jpg,,,,,,,,,,,,
null,,black_cross(without_color),640431,green,,,,null,GW/barrel.jpg,GW/wheelchair.jpg,,,,,,,,,,,,
null,,rt_plussign_withcolor,640938,green,,,,null,GW/barrel.jpg,GW/wheelchair.jpg,,,,,,,,,,,,
712.7000000476837,,rt_thecrossant_black,641925,black_plus_sign,,,,50,,,0.9801980198019802,1,,,,,,,,,,
null,,color_black,642041,black_plus_sign,,,,null,,,,,,,,,,,,,,
null,,learn_phase(without_color),644053,black_plus_sign,,,,null,GW/soldier.jpg,GW/wheelchair.jpg,,,,,,,,,,,,
null,,black_cross(without_color),645044,green,,,,null,GW/soldier.jpg,GW/wheelchair.jpg,,,,,,,,,,,,
null,,rt_plussign_withcolor,645559,green,,,,null,GW/soldier.jpg,GW/wheelchair.jpg,,,,,,,,,,,,
1305.0999999046326,,rt_thecrossant_black,646589,black_plus_sign,,,,50,,,0.9803921568627451,1,,,,,,,,,,
null,,color_black,646711,black_plus_sign,,,,null,,,,,,,,,,,,,,
null,,learn_phase(without_color),648720,black_plus_sign,,,,null,GW/teeth.jpg,GW/soldier.jpg,,,,,,,,,,,,
null,,black_cross(without_color),649282,green,,,,null,GW/teeth.jpg,GW/soldier.jpg,,,,,,,,,,,,
null,,rt_plussign_withcolor,649793,green,,,,null,GW/teeth.jpg,GW/soldier.jpg,,,,,,,,,,,,
1318,,rt_thecrossant_black,651257,black_plus_sign,,,,50,,,0.9805825242718447,1,,,,,,,,,,
null,,color_black,651369,black_plus_sign,,,,null,,,,,,,,,,,,,,
null,,learn_phase(without_color),653382,black_plus_sign,,,,null,GW/jukebox.jpg,GW/hat.jpg,,,,,,,,,,,,
null,,black_cross(without_color),654196,blue,,,,null,GW/jukebox.jpg,GW/hat.jpg,,,,,,,,,,,,
471.7000000476837,,rt_plussign_withcolor,654703,blue,,,,49,GW/jukebox.jpg,GW/hat.jpg,,,,,,,,,,,,
null,,rt_thecrossant_black,655917,black_plus_sign,,,,null,,,0.9807692307692307,1,,,,,,,,,,
null,,color_black,656030,black_plus_sign,,,,null,,,,,,,,,,,,,,
null,,learn_phase(without_color),658038,black_plus_sign,,,,null,GW/snail.jpg,GW/gong.jpg,,,,,,,,,,,,
null,,black_cross(without_color),658713,green,,,,null,GW/snail.jpg,GW/gong.jpg,,,,,,,,,,,,
null,,rt_plussign_withcolor,659228,green,,,,null,GW/snail.jpg,GW/gong.jpg,,,,,,,,,,,,
1099.7999999523163,,rt_thecrossant_black,660573,black_plus_sign,,,,50,,,0.9809523809523809,1,,,,,,,,,,
null,,color_black,660685,black_plus_sign,,,,null,,,,,,,,,,,,,,
null,,learn_phase(without_color),662710,black_plus_sign,,,,null,GW/jukebox.jpg,GW/hat.jpg,,,,,,,,,,,,
null,,black_cross(without_color),663417,green,,,,null,GW/jukebox.jpg,GW/hat.jpg,,,,,,,,,,,,
null,,rt_plussign_withcolor,663930,green,,,,null,GW/jukebox.jpg,GW/hat.jpg,,,,,,,,,,,,
876.2999999523163,,rt_thecrossant_black,665245,black_plus_sign,,,,50,,,0.9811320754716981,1,,,,,,,,,,
null,,color_black,665358,black_plus_sign,,,,null,,,,,,,,,,,,,,
null,,learn_phase(without_color),667377,black_plus_sign,,,,null,GW/wheelchair.jpg,GW/paint.jpg,,,,,,,,,,,,
null,,black_cross(without_color),668163,blue,,,,null,GW/wheelchair.jpg,GW/paint.jpg,,,,,,,,,,,,
null,,rt_plussign_withcolor,668670,blue,,,,null,GW/wheelchair.jpg,GW/paint.jpg,,,,,,,,,,,,
1355.3999999761581,,rt_thecrossant_black,669919,black_plus_sign,,,,49,,,0.9813084112149533,1,,,,,,,,,,
null,,color_black,670022,black_plus_sign,,,,null,,,,,,,,,,,,,,
null,,learn_phase(without_color),672026,black_plus_sign,,,,null,GW/jukebox.jpg,GW/hat.jpg,,,,,,,,,,,,
null,,black_cross(without_color),673015,blue,,,,null,GW/jukebox.jpg,GW/hat.jpg,,,,,,,,,,,,
null,,rt_plussign_withcolor,673535,blue,,,,null,GW/jukebox.jpg,GW/hat.jpg,,,,,,,,,,,,
921.7999999523163,,rt_thecrossant_black,674567,black_plus_sign,,,,50,,,0.9722222222222222,0,,,,,,,,,,
null,,color_black,674683,black_plus_sign,,,,null,,,,,,,,,,,,,,
null,,learn_phase(without_color),676700,black_plus_sign,,,,null,GW/wheelchair.jpg,GW/paint.jpg,,,,,,,,,,,,
null,,black_cross(without_color),677425,blue,,,,null,GW/wheelchair.jpg,GW/paint.jpg,,,,,,,,,,,,
499.89999997615814,,rt_plussign_withcolor,677927,blue,,,,49,GW/wheelchair.jpg,GW/paint.jpg,,,,,,,,,,,,
null,,rt_thecrossant_black,679233,black_plus_sign,,,,null,,,0.9724770642201835,1,,,,,,,,,,
null,,color_black,679344,black_plus_sign,,,,null,,,,,,,,,,,,,,
null,,learn_phase(without_color),681350,black_plus_sign,,,,null,GW/camera.jpg,GW/dustpan.jpg,,,,,,,,,,,,
null,,black_cross(without_color),682019,green,,,,null,GW/camera.jpg,GW/dustpan.jpg,,,,,,,,,,,,
null,,rt_plussign_withcolor,682530,green,,,,null,GW/camera.jpg,GW/dustpan.jpg,,,,,,,,,,,,
1149.7000000476837,,rt_thecrossant_black,683890,black_plus_sign,,,,50,,,0.9727272727272728,1,,,,,,,,,,
null,,color_black,684004,black_plus_sign,,,,null,,,,,,,,,,,,,,
null,,learn_phase(without_color),686012,black_plus_sign,,,,null,GW/globe.jpg,GW/basket.jpg,,,,,,,,,,,,
null,,black_cross(without_color),686845,green,,,,null,GW/globe.jpg,GW/basket.jpg,,,,,,,,,,,,
null,,rt_plussign_withcolor,687352,green,,,,null,GW/globe.jpg,GW/basket.jpg,,,,,,,,,,,,
962.7999999523163,,rt_thecrossant_black,688549,black_plus_sign,,,,50,,,0.972972972972973,1,,,,,,,,,,
null,,color_black,688662,black_plus_sign,,,,null,,,,,,,,,,,,,,
null,,learn_phase(without_color),690669,black_plus_sign,,,,null,GW/soldier.jpg,GW/wheelchair.jpg,,,,,,,,,,,,
null,,black_cross(without_color),691203,green,,,,null,GW/soldier.jpg,GW/wheelchair.jpg,,,,,,,,,,,,
null,,rt_plussign_withcolor,691723,green,,,,null,GW/soldier.jpg,GW/wheelchair.jpg,,,,,,,,,,,,
1589.5,,rt_thecrossant_black,693215,black_plus_sign,,,,50,,,0.9732142857142857,1,,,,,,,,,,
null,,color_black,693331,black_plus_sign,,,,null,,,,,,,,,,,,,,
null,,learn_phase(without_color),695343,black_plus_sign,,,,null,GW/teeth.jpg,GW/jukebox.jpg,,,,,,,,,,,,
null,,black_cross(without_color),696191,green,,,,null,GW/teeth.jpg,GW/jukebox.jpg,,,,,,,,,,,,
null,,rt_plussign_withcolor,696711,green,,,,null,GW/teeth.jpg,GW/jukebox.jpg,,,,,,,,,,,,
890.2000000476837,,rt_thecrossant_black,697880,black_plus_sign,,,,50,,,0.9734513274336283,1,,,,,,,,,,
null,,color_black,697999,black_plus_sign,,,,null,,,,,,,,,,,,,,
null,,learn_phase(without_color),700005,black_plus_sign,,,,null,GW/camera.jpg,GW/soldier.jpg,,,,,,,,,,,,
null,,black_cross(without_color),700904,blue,,,,null,GW/camera.jpg,GW/soldier.jpg,,,,,,,,,,,,
518.1000000238419,,rt_plussign_withcolor,701424,blue,,,,49,GW/camera.jpg,GW/soldier.jpg,,,,,,,,,,,,
null,,rt_thecrossant_black,702549,black_plus_sign,,,,null,,,0.9736842105263158,1,,,,,,,,,,
null,,color_black,702652,black_plus_sign,,,,null,,,,,,,,,,,,,,
null,,learn_phase(without_color),704671,black_plus_sign,,,,null,GW/teeth.jpg,GW/jukebox.jpg,,,,,,,,,,,,
null,,black_cross(without_color),705098,green,,,,null,GW/teeth.jpg,GW/jukebox.jpg,,,,,,,,,,,,
null,,rt_plussign_withcolor,705610,green,,,,null,GW/teeth.jpg,GW/jukebox.jpg,,,,,,,,,,,,
1531.2000000476837,,rt_thecrossant_black,707210,black_plus_sign,,,,50,,,0.9739130434782609,1,,,,,,,,,,
null,,color_black,707323,black_plus_sign,,,,null,,,,,,,,,,,,,,
null,,learn_phase(without_color),709333,black_plus_sign,,,,null,GW/jukebox.jpg,GW/soldier.jpg,,,,,,,,,,,,
null,,black_cross(without_color),709996,green,,,,null,GW/jukebox.jpg,GW/soldier.jpg,,,,,,,,,,,,
null,,rt_plussign_withcolor,710512,green,,,,null,GW/jukebox.jpg,GW/soldier.jpg,,,,,,,,,,,,
734.1000000238419,,rt_thecrossant_black,711861,black_plus_sign,,,,50,,,0.9741379310344828,1,,,,,,,,,,
null,,color_black,711963,black_plus_sign,,,,null,,,,,,,,,,,,,,
null,,learn_phase(without_color),713969,black_plus_sign,,,,null,GW/jukebox.jpg,GW/hat.jpg,,,,,,,,,,,,
null,,black_cross(without_color),714604,green,,,,null,GW/jukebox.jpg,GW/hat.jpg,,,,,,,,,,,,
null,,rt_plussign_withcolor,715119,green,,,,null,GW/jukebox.jpg,GW/hat.jpg,,,,,,,,,,,,
1046.6999999284744,,rt_thecrossant_black,716510,black_plus_sign,,,,50,,,0.9743589743589743,1,,,,,,,,,,
null,,color_black,716623,black_plus_sign,,,,null,,,,,,,,,,,,,,
null,,learn_phase(without_color),718636,black_plus_sign,,,,null,GW/jukebox.jpg,GW/soldier.jpg,,,,,,,,,,,,
null,,black_cross(without_color),719180,green,,,,null,GW/jukebox.jpg,GW/soldier.jpg,,,,,,,,,,,,
null,,rt_plussign_withcolor,719686,green,,,,null,GW/jukebox.jpg,GW/soldier.jpg,,,,,,,,,,,,
1282.5,,rt_thecrossant_black,721165,black_plus_sign,,,,50,,,0.9745762711864406,1,,,,,,,,,,
null,,color_black,721278,black_plus_sign,,,,null,,,,,,,,,,,,,,
null,,learn_phase(without_color),723300,black_plus_sign,,,,null,GW/teeth.jpg,GW/jukebox.jpg,,,,,,,,,,,,
null,,black_cross(without_color),723968,green,,,,null,GW/teeth.jpg,GW/jukebox.jpg,,,,,,,,,,,,
null,,rt_plussign_withcolor,724484,green,,,,null,GW/teeth.jpg,GW/jukebox.jpg,,,,,,,,,,,,
807.1999999284744,,rt_thecrossant_black,725839,black_plus_sign,,,,50,,,0.9747899159663865,1,,,,,,,,,,
null,,color_black,725955,black_plus_sign,,,,null,,,,,,,,,,,,,,
null,,learn_phase(without_color),727964,black_plus_sign,,,,null,GW/camera.jpg,GW/dustpan.jpg,,,,,,,,,,,,
null,,black_cross(without_color),728947,blue,,,,null,GW/camera.jpg,GW/dustpan.jpg,,,,,,,,,,,,
null,,rt_plussign_withcolor,729458,blue,,,,null,GW/camera.jpg,GW/dustpan.jpg,,,,,,,,,,,,
842.1000000238419,,rt_thecrossant_black,730491,black_plus_sign,,,,49,,,0.975,1,,,,,,,,,,
null,,color_black,730594,black_plus_sign,,,,null,,,,,,,,,,,,,,
null,,learn_phase(without_color),732603,black_plus_sign,,,,null,GW/jukebox.jpg,GW/soldier.jpg,,,,,,,,,,,,
null,,black_cross(without_color),733429,blue,,,,null,GW/jukebox.jpg,GW/soldier.jpg,,,,,,,,,,,,
null,,rt_plussign_withcolor,733940,blue,,,,null,GW/jukebox.jpg,GW/soldier.jpg,,,,,,,,,,,,
1500.3000000715256,,rt_thecrossant_black,735130,black_plus_sign,,,,49,,,0.9752066115702479,1,,,,,,,,,,
null,,color_black,735247,black_plus_sign,,,,null,,,,,,,,,,,,,,
null,,learn_phase(without_color),737264,black_plus_sign,,,,null,GW/basket.jpg,GW/snail.jpg,,,,,,,,,,,,
null,,black_cross(without_color),737982,green,,,,null,GW/basket.jpg,GW/snail.jpg,,,,,,,,,,,,
502.2999999523163,,rt_plussign_withcolor,738486,green,,,,50,GW/basket.jpg,GW/snail.jpg,,,,,,,,,,,,
null,,rt_thecrossant_black,739797,black_plus_sign,,,,null,,,0.9754098360655737,1,,,,,,,,,,
null,,color_black,739908,black_plus_sign,,,,null,,,,,,,,,,,,,,
null,,learn_phase(without_color),741914,black_plus_sign,,,,null,GW/globe.jpg,GW/basket.jpg,,,,,,,,,,,,
null,,black_cross(without_color),742812,blue,,,,null,GW/globe.jpg,GW/basket.jpg,,,,,,,,,,,,
null,,rt_plussign_withcolor,743318,blue,,,,null,GW/globe.jpg,GW/basket.jpg,,,,,,,,,,,,
977,,rt_thecrossant_black,744445,black_plus_sign,,,,49,,,0.975609756097561,1,,,,,,,,,,
null,,color_black,744563,black_plus_sign,,,,null,,,,,,,,,,,,,,
null,,learn_phase(without_color),746585,black_plus_sign,,,,null,GW/camera.jpg,GW/dustpan.jpg,,,,,,,,,,,,
null,,black_cross(without_color),747549,blue,,,,null,GW/camera.jpg,GW/dustpan.jpg,,,,,,,,,,,,
null,,rt_plussign_withcolor,748067,blue,,,,null,GW/camera.jpg,GW/dustpan.jpg,,,,,,,,,,,,
1207.7999999523163,,rt_thecrossant_black,749134,black_plus_sign,,,,49,,,0.9758064516129032,1,,,,,,,,,,
null,,color_black,749247,black_plus_sign,,,,null,,,,,,,,,,,,,,
null,,learn_phase(without_color),751251,black_plus_sign,,,,null,GW/basket.jpg,GW/barrel.jpg,,,,,,,,,,,,
null,,black_cross(without_color),752054,green,,,,null,GW/basket.jpg,GW/barrel.jpg,,,,,,,,,,,,
455.2999999523163,,rt_plussign_withcolor,752561,green,,,,50,GW/basket.jpg,GW/barrel.jpg,,,,,,,,,,,,
null,,rt_thecrossant_black,753792,black_plus_sign,,,,null,,,0.976,1,,,,,,,,,,
null,,color_black,753905,black_plus_sign,,,,null,,,,,,,,,,,,,,
null,,learn_phase(without_color),755925,black_plus_sign,,,,null,GW/camera.jpg,GW/dustpan.jpg,,,,,,,,,,,,
null,,black_cross(without_color),756709,green,,,,null,GW/camera.jpg,GW/dustpan.jpg,,,,,,,,,,,,
null,,rt_plussign_withcolor,757223,green,,,,null,GW/camera.jpg,GW/dustpan.jpg,,,,,,,,,,,,
1090.5,,rt_thecrossant_black,758460,black_plus_sign,,,,50,,,0.9761904761904762,1,,,,,,,,,,
null,,color_black,758580,black_plus_sign,,,,null,,,,,,,,,,,,,,
25166.700000047684,,intro_1,783749,instruct,,0,Start,,,,,,,,,,,,,,,
2962.7000000476837,,directmemory_phase,786714,GW/camera.jpg,,,,51,,,1,1,GW/barrel.jpg,GW/hat.jpg,GW/dustpan.jpg,GW/dustpan.jpg,GW/hat.jpg,GW/barrel.jpg,1,,,
null,,html-keyboard-response,787730,<p></p>,,,,null,,,,,,,,,,,,,,
2573.7000000476837,,directmemory_phase,790305,GW/hat.jpg,,,,51,,,1,1,GW/dustpan.jpg,GW/soldier.jpg,GW/jukebox.jpg,GW/jukebox.jpg,GW/soldier.jpg,GW/dustpan.jpg,1,,,
null,,html-keyboard-response,791319,<p></p>,,,,null,,,,,,,,,,,,,,
1917.2000000476837,,directmemory_phase,793238,GW/paint.jpg,,,,49,,,1,1,GW/wheelchair.jpg,GW/jukebox.jpg,GW/soldier.jpg,GW/wheelchair.jpg,GW/soldier.jpg,GW/jukebox.jpg,1,,,
null,,html-keyboard-response,794257,<p></p>,,,,null,,,,,,,,,,,,,,
1749,,directmemory_phase,796008,GW/globe.jpg,,,,49,,,1,1,GW/basket.jpg,GW/paint.jpg,GW/snail.jpg,GW/basket.jpg,GW/snail.jpg,GW/paint.jpg,1,,,
null,,html-keyboard-response,797026,<p></p>,,,,null,,,,,,,,,,,,,,
1958.2999999523163,,directmemory_phase,798986,GW/soldier.jpg,,,,51,,,1,1,GW/basket.jpg,GW/barrel.jpg,GW/teeth.jpg,GW/teeth.jpg,GW/barrel.jpg,GW/basket.jpg,1,,,
null,,html-keyboard-response,799999,<p></p>,,,,null,,,,,,,,,,,,,,
2342.399999976158,,directmemory_phase,802343,GW/basket.jpg,,,,50,,,1,1,GW/teeth.jpg,GW/snail.jpg,GW/camera.jpg,GW/snail.jpg,GW/teeth.jpg,GW/camera.jpg,1,,,
null,,html-keyboard-response,803349,<p></p>,,,,null,,,,,,,,,,,,,,
2304.899999976158,,directmemory_phase,805655,GW/dustpan.jpg,,,,51,,,1,1,GW/hat.jpg,GW/soldier.jpg,GW/camera.jpg,GW/camera.jpg,GW/soldier.jpg,GW/hat.jpg,1,,,
null,,html-keyboard-response,806659,<p></p>,,,,null,,,,,,,,,,,,,,
2986.399999976158,,directmemory_phase,809648,GW/barrel.jpg,,,,51,,,1,1,GW/hat.jpg,GW/paint.jpg,GW/basket.jpg,GW/basket.jpg,GW/paint.jpg,GW/hat.jpg,1,,,
null,,html-keyboard-response,810649,<p></p>,,,,null,,,,,,,,,,,,,,
1569.9000000953674,,directmemory_phase,812221,GW/jukebox.jpg,,,,49,,,1,1,GW/camera.jpg,GW/basket.jpg,GW/dustpan.jpg,GW/camera.jpg,GW/dustpan.jpg,GW/basket.jpg,1,,,
null,,html-keyboard-response,813225,<p></p>,,,,null,,,,,,,,,,,,,,
4544.5,,directmemory_phase,817771,GW/barrel.jpg,,,,49,,,0.9,0,GW/soldier.jpg,GW/teeth.jpg,GW/camera.jpg,GW/teeth.jpg,GW/soldier.jpg,GW/camera.jpg,0.5,closer,,
null,,html-keyboard-response,818790,<p></p>,,,,null,,,,,,,,,,,,,,
3207,,directmemory_phase,821998,GW/basket.jpg,,,,51,,,0.8181818181818182,0,GW/globe.jpg,GW/hat.jpg,GW/gong.jpg,GW/globe.jpg,GW/gong.jpg,GW/hat.jpg,0.5,closer,,
null,,html-keyboard-response,823008,<p></p>,,,,null,,,,,,,,,,,,,,
4270.400000095367,,directmemory_phase,827280,GW/jukebox.jpg,,,,51,,,0.8333333333333334,1,GW/globe.jpg,GW/dustpan.jpg,GW/soldier.jpg,GW/soldier.jpg,GW/dustpan.jpg,GW/globe.jpg,1,,,
null,,html-keyboard-response,828298,<p></p>,,,,null,,,,,,,,,,,,,,
3631.2000000476837,,directmemory_phase,831932,GW/basket.jpg,,,,51,,,0.8461538461538461,1,GW/camera.jpg,GW/paint.jpg,GW/barrel.jpg,GW/barrel.jpg,GW/paint.jpg,GW/camera.jpg,1,,,
null,,html-keyboard-response,832936,<p></p>,,,,null,,,,,,,,,,,,,,
2056.2999999523163,,directmemory_phase,834994,GW/snail.jpg,,,,49,,,0.8571428571428571,1,GW/gong.jpg,GW/teeth.jpg,GW/barrel.jpg,GW/gong.jpg,GW/barrel.jpg,GW/teeth.jpg,1,,,
null,,html-keyboard-response,836009,<p></p>,,,,null,,,,,,,,,,,,,,
2901.899999976158,,directmemory_phase,838913,GW/wheelchair.jpg,,,,50,,,0.8666666666666667,1,GW/basket.jpg,GW/soldier.jpg,GW/globe.jpg,GW/soldier.jpg,GW/basket.jpg,GW/globe.jpg,1,,,
null,,html-keyboard-response,839927,<p></p>,,,,null,,,,,,,,,,,,,,
1640.3999999761581,,directmemory_phase,841570,GW/camera.jpg,,,,49,,,0.875,1,GW/jukebox.jpg,GW/paint.jpg,GW/hat.jpg,GW/jukebox.jpg,GW/hat.jpg,GW/paint.jpg,1,,,
null,,html-keyboard-response,842587,<p></p>,,,,null,,,,,,,,,,,,,,
1989.7999999523163,,directmemory_phase,844579,GW/teeth.jpg,,,,50,,,0.8235294117647058,0,GW/snail.jpg,GW/wheelchair.jpg,GW/soldier.jpg,GW/soldier.jpg,GW/wheelchair.jpg,GW/snail.jpg,0.5,closer,,
null,,html-keyboard-response,845600,<p></p>,,,,null,,,,,,,,,,,,,,
3219.6999999284744,,directmemory_phase,848821,GW/wheelchair.jpg,,,,49,,,0.8333333333333334,1,GW/barrel.jpg,GW/globe.jpg,GW/snail.jpg,GW/barrel.jpg,GW/snail.jpg,GW/globe.jpg,1,,,
null,,html-keyboard-response,849836,<p></p>,,,,null,,,,,,,,,,,,,,
4200.700000047684,,directmemory_phase,854039,GW/camera.jpg,,,,51,,,0.8421052631578947,1,GW/paint.jpg,GW/wheelchair.jpg,GW/soldier.jpg,GW/soldier.jpg,GW/wheelchair.jpg,GW/paint.jpg,1,,,
null,,html-keyboard-response,855045,<p></p>,,,,null,,,,,,,,,,,,,,
2588.0999999046326,,directmemory_phase,857634,GW/paint.jpg,,,,51,,,0.85,1,GW/dustpan.jpg,GW/soldier.jpg,GW/snail.jpg,GW/snail.jpg,GW/soldier.jpg,GW/dustpan.jpg,1,,,
null,,html-keyboard-response,858647,<p></p>,,,,null,,,,,,,,,,,,,,
3121.399999976158,,directmemory_phase,861770,GW/soldier.jpg,,,,51,,,0.8095238095238095,0,GW/paint.jpg,GW/camera.jpg,GW/basket.jpg,GW/camera.jpg,GW/paint.jpg,GW/basket.jpg,0.5,closer,,
null,,html-keyboard-response,862788,<p></p>,,,,null,,,,,,,,,,,,,,
3238.399999976158,,directmemory_phase,866029,GW/gong.jpg,,,,51,,,0.8181818181818182,1,GW/soldier.jpg,GW/basket.jpg,GW/snail.jpg,GW/snail.jpg,GW/basket.jpg,GW/soldier.jpg,1,,,
null,,html-keyboard-response,867044,<p></p>,,,,null,,,,,,,,,,,,,,
2450.7999999523163,,directmemory_phase,869496,GW/soldier.jpg,,,,51,,,0.8260869565217391,1,GW/globe.jpg,GW/dustpan.jpg,GW/jukebox.jpg,GW/jukebox.jpg,GW/dustpan.jpg,GW/globe.jpg,1,,,
null,,html-keyboard-response,870515,<p></p>,,,,null,,,,,,,,,,,,,,
3222.5,,directmemory_phase,873739,GW/wheelchair.jpg,,,,50,,,0.7916666666666666,0,GW/paint.jpg,GW/dustpan.jpg,GW/camera.jpg,GW/paint.jpg,GW/camera.jpg,GW/dustpan.jpg,0.5,closer,,
null,,html-keyboard-response,874751,<p></p>,,,,null,,,,,,,,,,,,,,
3801.2000000476837,,directmemory_phase,878554,GW/jukebox.jpg,,,,49,,,0.8,1,GW/teeth.jpg,GW/paint.jpg,GW/dustpan.jpg,GW/teeth.jpg,GW/dustpan.jpg,GW/paint.jpg,1,,,
null,,html-keyboard-response,879566,<p></p>,,,,null,,,,,,,,,,,,,,
2032.7999999523163,,directmemory_phase,881601,GW/soldier.jpg,,,,49,,,0.7692307692307693,0,GW/basket.jpg,GW/paint.jpg,GW/wheelchair.jpg,GW/wheelchair.jpg,GW/paint.jpg,GW/basket.jpg,0.5,closer,,
null,,html-keyboard-response,882614,<p></p>,,,,null,,,,,,,,,,,,,,
3068.600000023842,,directmemory_phase,885684,GW/teeth.jpg,,,,50,,,0.7777777777777778,1,GW/basket.jpg,GW/jukebox.jpg,GW/snail.jpg,GW/jukebox.jpg,GW/basket.jpg,GW/snail.jpg,1,,,
null,,html-keyboard-response,886692,<p></p>,,,,null,,,,,,,,,,,,,,
2526.1999999284744,,directmemory_phase,889220,GW/barrel.jpg,,,,51,,,0.7857142857142857,1,GW/camera.jpg,GW/jukebox.jpg,GW/wheelchair.jpg,GW/wheelchair.jpg,GW/jukebox.jpg,GW/camera.jpg,1,,,
null,,html-keyboard-response,890233,<p></p>,,,,null,,,,,,,,,,,,,,
2658.5,,directmemory_phase,892894,GW/snail.jpg,,,,49,,,0.7931034482758621,1,GW/basket.jpg,GW/soldier.jpg,GW/wheelchair.jpg,GW/basket.jpg,GW/wheelchair.jpg,GW/soldier.jpg,1,,,
null,,html-keyboard-response,893913,<p></p>,,,,null,,,,,,,,,,,,,,
4044.2999999523163,,directmemory_phase,897959,GW/jukebox.jpg,,,,50,,,0.8,1,GW/barrel.jpg,GW/hat.jpg,GW/basket.jpg,GW/hat.jpg,GW/barrel.jpg,GW/basket.jpg,1,,,
null,,html-keyboard-response,898966,<p></p>,,,,null,,,,,,,,,,,,,,
2363.1999999284744,,directmemory_phase,901330,GW/teeth.jpg,,,,51,,,0.8064516129032258,1,GW/globe.jpg,GW/camera.jpg,GW/barrel.jpg,GW/barrel.jpg,GW/camera.jpg,GW/globe.jpg,1,,,
null,,html-keyboard-response,902349,<p></p>,,,,null,,,,,,,,,,,,,,
2650.2000000476837,,directmemory_phase,905001,GW/snail.jpg,,,,51,,,0.8125,1,GW/teeth.jpg,GW/wheelchair.jpg,GW/paint.jpg,GW/paint.jpg,GW/wheelchair.jpg,GW/teeth.jpg,1,,,
null,,html-keyboard-response,906017,<p></p>,,,,null,,,,,,,,,,,,,,
28472.100000023842,,intro_1,934491,instruct,,0,,,,,,,,,,,,,,,,
14049,,intro_2,948543,instruct,,1,Next,,,,,,,,,,,,,,,
8433.799999952316,,intro_3,956979,instruct,,1,Next,,,,,,,,,,,,,,,
15516,,intro_4,972498,instruct,,1,Next,,,,,,,,,,,,,,,
20749.700000047684,,intro_5,993250,instruct,,1,Next,,,,,,,,,,,,,,,
14188.5,,intro_6,1007441,instruct,,1,Next,,,,,,,,,,,,,,,
14701.600000023842,,intro_7,1022145,instruct,,1,Next,,,,,,,,,,,,,,,
15705.200000047684,,intro_8,1037852,instruct,,1,Next,,,,,,,,,,,,,,,
3523.6999999284744,,shortestpath_phase,1041379,GW/jukebox.jpg,,,,49,GW/barrel.jpg,GW/gong.jpg,1,1,,,,GW/barrel.jpg,,,,,Three Edge Diff,Three Edge Six Edge
null,,html-keyboard-response,1042397,<p></p>,,,,null,,,,,,,,,,,,,,
2183,,shortestpath_phase,1044581,GW/dustpan.jpg,,,,49,GW/soldier.jpg,GW/gong.jpg,1,1,,,,GW/soldier.jpg,,,,,Four Edge Diff,Two Edge Six Edge
null,,html-keyboard-response,1045597,<p></p>,,,,null,,,,,,,,,,,,,,
2533.899999976158,,shortestpath_phase,1048133,GW/hat.jpg,,,,50,GW/snail.jpg,GW/camera.jpg,1,1,,,,GW/camera.jpg,,,,,Three Edge Diff,Three Edge Six Edge
null,,html-keyboard-response,1049143,<p></p>,,,,null,,,,,,,,,,,,,,
2052.7999999523163,,shortestpath_phase,1051198,GW/wheelchair.jpg,,,,49,GW/teeth.jpg,GW/globe.jpg,1,1,,,,GW/teeth.jpg,,,,,One Edge Diff,Two Edge Three Edge
null,,html-keyboard-response,1052208,<p></p>,,,,null,,,,,,,,,,,,,,
2658,,shortestpath_phase,1054868,GW/snail.jpg,,,,49,GW/dustpan.jpg,GW/barrel.jpg,0.8,0,,,,GW/barrel.jpg,,,,,Three Edge Diff,Two Edge Five Edge
null,,html-keyboard-response,1055878,<p></p>,,,,null,,,,,,,,,,,,,,
2350.899999976158,,shortestpath_phase,1058231,GW/gong.jpg,,,,49,GW/globe.jpg,GW/camera.jpg,0.8333333333333334,1,,,,GW/globe.jpg,,,,,Two Edge Diff,Three Edge Five Edge
null,,html-keyboard-response,1059246,<p></p>,,,,null,,,,,,,,,,,,,,
3089.7000000476837,,shortestpath_phase,1062337,GW/paint.jpg,,,,49,GW/dustpan.jpg,GW/teeth.jpg,0.7142857142857143,0,,,,GW/teeth.jpg,,,,,One Edge Diff,Three Edge Four Edge
null,,html-keyboard-response,1063348,<p></p>,,,,null,,,,,,,,,,,,,,
3001.399999976158,,shortestpath_phase,1066351,GW/globe.jpg,,,,50,GW/snail.jpg,GW/dustpan.jpg,0.625,0,,,,GW/snail.jpg,,,,,Four Edge Diff,Two Edge Six Edge
null,,html-keyboard-response,1067370,<p></p>,,,,null,,,,,,,,,,,,,,
2434.8000000715256,,shortestpath_phase,1069807,GW/paint.jpg,,,,49,GW/basket.jpg,GW/hat.jpg,0.6666666666666666,1,,,,GW/basket.jpg,,,,,Two Edge Diff,Two Edge Four Edge
null,,html-keyboard-response,1070817,<p></p>,,,,null,,,,,,,,,,,,,,
2574.399999976158,,shortestpath_phase,1073393,GW/gong.jpg,,,,49,GW/dustpan.jpg,GW/teeth.jpg,0.6,0,,,,GW/teeth.jpg,,,,,Two Edge Diff,Four Edge Six Edge
null,,html-keyboard-response,1074405,<p></p>,,,,null,,,,,,,,,,,,,,
3751.100000023842,,shortestpath_phase,1078158,GW/dustpan.jpg,,,,50,GW/soldier.jpg,GW/paint.jpg,0.5454545454545454,0,,,,GW/soldier.jpg,,,,,Two Edge Diff,Two Edge Four Edge
null,,html-keyboard-response,1079165,<p></p>,,,,null,,,,,,,,,,,,,,
2456.2999999523163,,shortestpath_phase,1081624,GW/basket.jpg,,,,50,GW/paint.jpg,GW/soldier.jpg,0.5,0,,,,GW/paint.jpg,,,,,One Edge Diff,Two Edge Three Edge
null,,html-keyboard-response,1082636,<p></p>,,,,null,,,,,,,,,,,,,,
4340.699999928474,,shortestpath_phase,1086978,GW/gong.jpg,,,,49,GW/globe.jpg,GW/jukebox.jpg,0.5384615384615384,1,,,,GW/globe.jpg,,,,,Two Edge Diff,Three Edge Five Edge
null,,html-keyboard-response,1087984,<p></p>,,,,null,,,,,,,,,,,,,,
4144.300000071526,,shortestpath_phase,1092130,GW/hat.jpg,,,,49,GW/basket.jpg,GW/globe.jpg,0.5714285714285714,1,,,,GW/basket.jpg,,,,,One Edge Diff,Four Edge Five Edge
null,,html-keyboard-response,1093138,<p></p>,,,,null,,,,,,,,,,,,,,
3280.2999999523163,,shortestpath_phase,1096420,GW/wheelchair.jpg,,,,49,GW/camera.jpg,GW/gong.jpg,0.6,1,,,,GW/camera.jpg,,,,,One Edge Diff,Two Edge Three Edge
null,,html-keyboard-response,1097428,<p></p>,,,,null,,,,,,,,,,,,,,
3556.399999976158,,shortestpath_phase,1100986,GW/hat.jpg,,,,49,GW/basket.jpg,GW/soldier.jpg,0.5625,0,,,,GW/soldier.jpg,,,,,Two Edge Diff,Two Edge Four Edge
null,,html-keyboard-response,1101995,<p></p>,,,,null,,,,,,,,,,,,,,
1927,,shortestpath_phase,1103924,GW/dustpan.jpg,,,,50,GW/gong.jpg,GW/barrel.jpg,0.5882352941176471,1,,,,GW/barrel.jpg,,,,,Two Edge Diff,Four Edge Six Edge
null,,html-keyboard-response,1104938,<p></p>,,,,null,,,,,,,,,,,,,,
2772.2000000476837,,shortestpath_phase,1107712,GW/globe.jpg,,,,50,GW/soldier.jpg,GW/paint.jpg,0.6111111111111112,1,,,,GW/paint.jpg,,,,,One Edge Diff,Three Edge Four Edge
null,,html-keyboard-response,1108728,<p></p>,,,,null,,,,,,,,,,,,,,
3672.100000023842,,shortestpath_phase,1112402,GW/dustpan.jpg,,,,50,GW/barrel.jpg,GW/snail.jpg,0.5789473684210527,0,,,,GW/barrel.jpg,,,,,One Edge Diff,Four Edge Five Edge
null,,html-keyboard-response,1113408,<p></p>,,,,null,,,,,,,,,,,,,,
3014.100000023842,,shortestpath_phase,1116425,GW/globe.jpg,,,,50,GW/jukebox.jpg,GW/dustpan.jpg,0.55,0,,,,GW/jukebox.jpg,,,,,Two Edge Diff,Four Edge Six Edge
null,,html-keyboard-response,1117432,<p></p>,,,,null,,,,,,,,,,,,,,
2169.5,,shortestpath_phase,1119603,GW/dustpan.jpg,,,,50,GW/gong.jpg,GW/paint.jpg,0.5714285714285714,1,,,,GW/paint.jpg,,,,,Two Edge Diff,Four Edge Six Edge
null,,html-keyboard-response,1120605,<p></p>,,,,null,,,,,,,,,,,,,,
2084.399999976158,,shortestpath_phase,1122691,GW/teeth.jpg,,,,49,GW/hat.jpg,GW/dustpan.jpg,0.5909090909090909,1,,,,GW/hat.jpg,,,,,One Edge Diff,Two Edge Three Edge
null,,html-keyboard-response,1123696,<p></p>,,,,null,,,,,,,,,,,,,,
3507.5,,shortestpath_phase,1127206,GW/camera.jpg,,,,49,GW/barrel.jpg,GW/wheelchair.jpg,0.5652173913043478,0,,,,GW/wheelchair.jpg,,,,,One Edge Diff,Two Edge Three Edge
null,,html-keyboard-response,1128215,<p></p>,,,,null,,,,,,,,,,,,,,
4157.700000047684,,shortestpath_phase,1132374,GW/hat.jpg,,,,50,GW/wheelchair.jpg,GW/teeth.jpg,0.5833333333333334,1,,,,GW/teeth.jpg,,,,,One Edge Diff,Two Edge Three Edge
null,,html-keyboard-response,1133390,<p></p>,,,,null,,,,,,,,,,,,,,
2535.5,,shortestpath_phase,1135928,GW/gong.jpg,,,,50,GW/dustpan.jpg,GW/basket.jpg,0.6,1,,,,GW/basket.jpg,,,,,Four Edge Diff,Two Edge Six Edge
null,,html-keyboard-response,1136944,<p></p>,,,,null,,,,,,,,,,,,,,
1890.6000000238419,,shortestpath_phase,1138836,GW/dustpan.jpg,,,,50,GW/snail.jpg,GW/paint.jpg,0.6153846153846154,1,,,,GW/paint.jpg,,,,,One Edge Diff,Four Edge Five Edge
null,,html-keyboard-response,1139845,<p></p>,,,,null,,,,,,,,,,,,,,
1771.0999999046326,,shortestpath_phase,1141618,GW/hat.jpg,,,,49,GW/basket.jpg,GW/gong.jpg,0.6296296296296297,1,,,,GW/basket.jpg,,,,,Two Edge Diff,Four Edge Six Edge
null,,html-keyboard-response,1142630,<p></p>,,,,null,,,,,,,,,,,,,,
2416.6999999284744,,shortestpath_phase,1145049,GW/globe.jpg,,,,49,GW/barrel.jpg,GW/camera.jpg,0.6428571428571429,1,,,,GW/barrel.jpg,,,,,Three Edge Diff,Two Edge Five Edge
null,,html-keyboard-response,1146059,<p></p>,,,,null,,,,,,,,,,,,,,
2977.7000000476837,,shortestpath_phase,1149039,GW/dustpan.jpg,,,,49,GW/basket.jpg,GW/gong.jpg,0.6551724137931034,1,,,,GW/basket.jpg,,,,,One Edge Diff,Five Edge Six Edge
null,,html-keyboard-response,1150044,<p></p>,,,,null,,,,,,,,,,,,,,
2592.100000023842,,shortestpath_phase,1152638,GW/globe.jpg,,,,50,GW/jukebox.jpg,GW/wheelchair.jpg,0.6666666666666666,1,,,,GW/wheelchair.jpg,,,,,One Edge Diff,Three Edge Four Edge
null,,html-keyboard-response,1153646,<p></p>,,,,null,,,,,,,,,,,,,,
4494.200000047684,,shortestpath_phase,1158143,GW/hat.jpg,,,,50,GW/globe.jpg,GW/dustpan.jpg,0.6774193548387096,1,,,,GW/dustpan.jpg,,,,,Two Edge Diff,Three Edge Five Edge
null,,html-keyboard-response,1159152,<p></p>,,,,null,,,,,,,,,,,,,,
2551.7999999523163,,shortestpath_phase,1161705,GW/basket.jpg,,,,49,GW/dustpan.jpg,GW/wheelchair.jpg,0.65625,0,,,,GW/wheelchair.jpg,,,,,Three Edge Diff,Three Edge Six Edge
null,,html-keyboard-response,1162710,<p></p>,,,,null,,,,,,,,,,,,,,
5840.800000071526,,shortestpath_phase,1168553,GW/globe.jpg,,,,50,GW/jukebox.jpg,GW/teeth.jpg,0.6666666666666666,1,,,,GW/teeth.jpg,,,,,One Edge Diff,Three Edge Four Edge
null,,html-keyboard-response,1169565,<p></p>,,,,null,,,,,,,,,,,,,,
1666.7999999523163,,shortestpath_phase,1171233,GW/dustpan.jpg,,,,49,GW/snail.jpg,GW/wheelchair.jpg,0.6470588235294118,0,,,,GW/wheelchair.jpg,,,,,Two Edge Diff,Three Edge Five Edge
null,,html-keyboard-response,1172248,<p></p>,,,,null,,,,,,,,,,,,,,
4393.399999976158,,shortestpath_phase,1176643,GW/hat.jpg,,,,50,GW/globe.jpg,GW/gong.jpg,0.6285714285714286,0,,,,GW/globe.jpg,,,,,One Edge Diff,Five Edge Six Edge
null,,html-keyboard-response,1177658,<p></p>,,,,null,,,,,,,,,,,,,,
2156.2000000476837,,shortestpath_phase,1179815,GW/basket.jpg,,,,49,GW/hat.jpg,GW/gong.jpg,0.6111111111111112,0,,,,GW/gong.jpg,,,,,Two Edge Diff,Two Edge Four Edge
null,,html-keyboard-response,1180822,<p></p>,,,,null,,,,,,,,,,,,,,
3041.7999999523163,,shortestpath_phase,1183866,GW/hat.jpg,,,,50,GW/camera.jpg,GW/gong.jpg,0.5945945945945946,0,,,,GW/camera.jpg,,,,,Four Edge Diff,Two Edge Six Edge
null,,html-keyboard-response,1184879,<p></p>,,,,null,,,,,,,,,,,,,,
3534.7999999523163,,shortestpath_phase,1188416,GW/gong.jpg,,,,50,GW/hat.jpg,GW/paint.jpg,0.6052631578947368,1,,,,GW/paint.jpg,,,,,Four Edge Diff,Two Edge Six Edge
null,,html-keyboard-response,1189428,<p></p>,,,,null,,,,,,,,,,,,,,
2372.399999976158,,shortestpath_phase,1191802,GW/basket.jpg,,,,49,GW/teeth.jpg,GW/dustpan.jpg,0.6153846153846154,1,,,,GW/teeth.jpg,,,,,Three Edge Diff,Two Edge Five Edge
null,,html-keyboard-response,1192808,<p></p>,,,,null,,,,,,,,,,,,,,
4017.2000000476837,,shortestpath_phase,1196828,GW/camera.jpg,,,,49,GW/gong.jpg,GW/paint.jpg,0.6,0,,,,GW/paint.jpg,,,,,Two Edge Diff,Three Edge Five Edge
null,,html-keyboard-response,1197830,<p></p>,,,,null,,,,,,,,,,,,,,
2677.1999999284744,,shortestpath_phase,1200509,GW/globe.jpg,,,,49,GW/soldier.jpg,GW/teeth.jpg,0.5853658536585366,0,,,,GW/teeth.jpg,,,,,One Edge Diff,Three Edge Four Edge
null,,html-keyboard-response,1201528,<p></p>,,,,null,,,,,,,,,,,,,,
2733.3000000715256,,shortestpath_phase,1204263,GW/hat.jpg,,,,49,GW/basket.jpg,GW/wheelchair.jpg,0.5714285714285714,0,,,,GW/wheelchair.jpg,,,,,One Edge Diff,Three Edge Four Edge
null,,html-keyboard-response,1205273,<p></p>,,,,null,,,,,,,,,,,,,,
2105.8000000715256,,shortestpath_phase,1207381,GW/globe.jpg,,,,50,GW/soldier.jpg,GW/hat.jpg,0.5581395348837209,0,,,,GW/soldier.jpg,,,,,One Edge Diff,Four Edge Five Edge
null,,html-keyboard-response,1208400,<p></p>,,,,null,,,,,,,,,,,,,,
1858.2999999523163,,shortestpath_phase,1210260,GW/dustpan.jpg,,,,49,GW/snail.jpg,GW/gong.jpg,0.5681818181818182,1,,,,GW/snail.jpg,,,,,One Edge Diff,Five Edge Six Edge
null,,html-keyboard-response,1211269,<p></p>,,,,null,,,,,,,,,,,,,,
2845.7000000476837,,shortestpath_phase,1214117,GW/gong.jpg,,,,49,GW/camera.jpg,GW/soldier.jpg,0.5555555555555556,0,,,,GW/soldier.jpg,,,,,One Edge Diff,Four Edge Five Edge
null,,html-keyboard-response,1215126,<p></p>,,,,null,,,,,,,,,,,,,,
2967.7000000476837,,shortestpath_phase,1218096,GW/camera.jpg,,,,50,GW/basket.jpg,GW/globe.jpg,0.5434782608695652,0,,,,GW/basket.jpg,,,,,One Edge Diff,Four Edge Five Edge
null,,html-keyboard-response,1219099,<p></p>,,,,null,,,,,,,,,,,,,,
4104.399999976158,,shortestpath_phase,1223206,GW/soldier.jpg,,,,49,GW/snail.jpg,GW/globe.jpg,0.5531914893617021,1,,,,GW/snail.jpg,,,,,One Edge Diff,Three Edge Four Edge
null,,html-keyboard-response,1224212,<p></p>,,,,null,,,,,,,,,,,,,,
1977.3000000715256,,shortestpath_phase,1226191,GW/globe.jpg,,,,50,GW/gong.jpg,GW/hat.jpg,0.5416666666666666,0,,,,GW/gong.jpg,,,,,Two Edge Diff,Three Edge Five Edge
null,,html-keyboard-response,1227197,<p></p>,,,,null,,,,,,,,,,,,,,
1662.8999999761581,,shortestpath_phase,1228861,GW/hat.jpg,,,,50,GW/camera.jpg,GW/dustpan.jpg,0.5306122448979592,0,,,,GW/camera.jpg,,,,,One Edge Diff,Two Edge Three Edge
null,,html-keyboard-response,1229880,<p></p>,,,,null,,,,,,,,,,,,,,
1528.6999999284744,,shortestpath_phase,1231410,GW/dustpan.jpg,,,,50,GW/jukebox.jpg,GW/snail.jpg,0.52,0,,,,GW/jukebox.jpg,,,,,Three Edge Diff,Three Edge Six Edge
null,,html-keyboard-response,1232425,<p></p>,,,,null,,,,,,,,,,,,,,
3568,,shortestpath_phase,1235995,GW/hat.jpg,,,,50,GW/snail.jpg,GW/teeth.jpg,0.5294117647058824,1,,,,GW/teeth.jpg,,,,,Three Edge Diff,Two Edge Five Edge
null,,html-keyboard-response,1237000,<p></p>,,,,null,,,,,,,,,,,,,,
4317.5,,shortestpath_phase,1241319,GW/dustpan.jpg,,,,49,GW/globe.jpg,GW/jukebox.jpg,0.5192307692307693,0,,,,GW/jukebox.jpg,,,,,Four Edge Diff,Two Edge Six Edge
null,,html-keyboard-response,1242334,<p></p>,,,,null,,,,,,,,,,,,,,
2957.4000000953674,,shortestpath_phase,1245293,GW/hat.jpg,,,,49,GW/globe.jpg,GW/soldier.jpg,0.5094339622641509,0,,,,GW/soldier.jpg,,,,,Three Edge Diff,Two Edge Five Edge
null,,html-keyboard-response,1246306,<p></p>,,,,null,,,,,,,,,,,,,,
3964.1999999284744,,shortestpath_phase,1250272,GW/gong.jpg,,,,50,GW/camera.jpg,GW/barrel.jpg,0.5185185185185185,1,,,,GW/barrel.jpg,,,,,Two Edge Diff,Three Edge Five Edge
null,,html-keyboard-response,1251276,<p></p>,,,,null,,,,,,,,,,,,,,
3866.1999999284744,,shortestpath_phase,1255144,GW/globe.jpg,,,,50,GW/dustpan.jpg,GW/hat.jpg,0.5272727272727272,1,,,,GW/hat.jpg,,,,,One Edge Diff,Five Edge Six Edge
null,,html-keyboard-response,1256149,<p></p>,,,,null,,,,,,,,,,,,,,
2822.2000000476837,,shortestpath_phase,1258973,GW/gong.jpg,,,,49,GW/wheelchair.jpg,GW/jukebox.jpg,0.5357142857142857,1,,,,GW/wheelchair.jpg,,,,,Two Edge Diff,Three Edge Five Edge
null,,html-keyboard-response,1259979,<p></p>,,,,null,,,,,,,,,,,,,,
2247.899999976158,,shortestpath_phase,1262229,GW/camera.jpg,,,,49,GW/globe.jpg,GW/hat.jpg,0.5263157894736842,0,,,,GW/hat.jpg,,,,,Three Edge Diff,Two Edge Five Edge
null,,html-keyboard-response,1263237,<p></p>,,,,null,,,,,,,,,,,,,,
2858.399999976158,,shortestpath_phase,1266098,GW/gong.jpg,,,,49,GW/paint.jpg,GW/jukebox.jpg,0.5344827586206896,1,,,,GW/paint.jpg,,,,,Three Edge Diff,Three Edge Six Edge
null,,html-keyboard-response,1267117,<p></p>,,,,null,,,,,,,,,,,,,,
2321.600000023842,,shortestpath_phase,1269440,GW/teeth.jpg,,,,49,GW/wheelchair.jpg,GW/snail.jpg,0.5423728813559322,1,,,,GW/wheelchair.jpg,,,,,One Edge Diff,Two Edge Three Edge
null,,html-keyboard-response,1270447,<p></p>,,,,null,,,,,,,,,,,,,,
2322.2999999523163,,shortestpath_phase,1272772,GW/gong.jpg,,,,50,GW/dustpan.jpg,GW/soldier.jpg,0.55,1,,,,GW/soldier.jpg,,,,,Two Edge Diff,Four Edge Six Edge
null,,html-keyboard-response,1273791,<p></p>,,,,null,,,,,,,,,,,,,,
2458,,shortestpath_phase,1276251,GW/hat.jpg,,,,49,GW/basket.jpg,GW/dustpan.jpg,0.5409836065573771,0,,,,GW/dustpan.jpg,,,,,One Edge Diff,Three Edge Four Edge
null,,html-keyboard-response,1277256,<p></p>,,,,null,,,,,,,,,,,,,,
3049.100000023842,,shortestpath_phase,1280307,GW/gong.jpg,,,,49,GW/teeth.jpg,GW/hat.jpg,0.5483870967741935,1,,,,GW/teeth.jpg,,,,,Two Edge Diff,Four Edge Six Edge
null,,html-keyboard-response,1281323,<p></p>,,,,null,,,,,,,,,,,,,,
1516.1999999284744,,shortestpath_phase,1282841,GW/dustpan.jpg,,,,50,GW/globe.jpg,GW/snail.jpg,0.5555555555555556,1,,,,GW/snail.jpg,,,,,One Edge Diff,Five Edge Six Edge
null,,html-keyboard-response,1283852,<p></p>,,,,null,,,,,,,,,,,,,,
1268.2999999523163,,shortestpath_phase,1285122,GW/paint.jpg,,,,49,GW/dustpan.jpg,GW/gong.jpg,0.546875,0,,,,GW/gong.jpg,,,,,Two Edge Diff,Two Edge Four Edge
null,,html-keyboard-response,1286138,<p></p>,,,,null,,,,,,,,,,,,,,
3123.5,,shortestpath_phase,1289264,GW/wheelchair.jpg,,,,49,GW/camera.jpg,GW/globe.jpg,0.5538461538461539,1,,,,GW/camera.jpg,,,,,One Edge Diff,Two Edge Three Edge
null,,html-keyboard-response,1290273,<p></p>,,,,null,,,,,,,,,,,,,,
2427.4000000953674,,shortestpath_phase,1292702,GW/gong.jpg,,,,50,GW/globe.jpg,GW/basket.jpg,0.5606060606060606,1,,,,GW/basket.jpg,,,,,One Edge Diff,Two Edge Three Edge
null,,html-keyboard-response,1293714,<p></p>,,,,null,,,,,,,,,,,,,,
1679,,shortestpath_phase,1295395,GW/hat.jpg,,,,50,GW/teeth.jpg,GW/snail.jpg,0.5522388059701493,0,,,,GW/teeth.jpg,,,,,Three Edge Diff,Three Edge Six Edge
null,,html-keyboard-response,1296408,<p></p>,,,,null,,,,,,,,,,,,,,
2273.399999976158,,shortestpath_phase,1298683,GW/gong.jpg,,,,49,GW/paint.jpg,GW/dustpan.jpg,0.5588235294117647,1,,,,GW/paint.jpg,,,,,Four Edge Diff,Two Edge Six Edge
null,,html-keyboard-response,1299702,<p></p>,,,,null,,,,,,,,,,,,,,
3172.0999999046326,,shortestpath_phase,1302876,GW/globe.jpg,,,,49,GW/soldier.jpg,GW/snail.jpg,0.5507246376811594,0,,,,GW/snail.jpg,,,,,Two Edge Diff,Two Edge Four Edge
null,,html-keyboard-response,1303888,<p></p>,,,,null,,,,,,,,,,,,,,
2893.2000000476837,,shortestpath_phase,1306783,GW/dustpan.jpg,,,,49,GW/barrel.jpg,GW/jukebox.jpg,0.5428571428571428,0,,,,GW/jukebox.jpg,,,,,Two Edge Diff,Two Edge Four Edge
null,,html-keyboard-response,1307792,<p></p>,,,,null,,,,,,,,,,,,,,
1769.6999999284744,,shortestpath_phase,1309564,GW/hat.jpg,,,,50,GW/gong.jpg,GW/soldier.jpg,0.5492957746478874,1,,,,GW/soldier.jpg,,,,,Four Edge Diff,Two Edge Six Edge
null,,html-keyboard-response,1310584,<p></p>,,,,null,,,,,,,,,,,,,,
1855.1000000238419,,shortestpath_phase,1312441,GW/camera.jpg,,,,49,GW/teeth.jpg,GW/globe.jpg,0.5555555555555556,1,,,,GW/teeth.jpg,,,,,Three Edge Diff,Three Edge Six Edge
null,,html-keyboard-response,1313455,<p></p>,,,,null,,,,,,,,,,,,,,
3461.7000000476837,,shortestpath_phase,1316919,GW/paint.jpg,,,,50,GW/globe.jpg,GW/hat.jpg,0.547945205479452,0,,,,GW/globe.jpg,,,,,One Edge Diff,Three Edge Four Edge
null,,html-keyboard-response,1317938,<p></p>,,,,null,,,,,,,,,,,,,,
2690.5999999046326,,shortestpath_phase,1320630,GW/hat.jpg,,,,49,GW/barrel.jpg,GW/snail.jpg,0.5540540540540541,1,,,,GW/barrel.jpg,,,,,Two Edge Diff,Three Edge Five Edge
null,,html-keyboard-response,1321636,<p></p>,,,,null,,,,,,,,,,,,,,
1792.8999999761581,,shortestpath_phase,1323431,GW/globe.jpg,,,,50,GW/dustpan.jpg,GW/soldier.jpg,0.56,1,,,,GW/soldier.jpg,,,,,Two Edge Diff,Four Edge Six Edge
null,,html-keyboard-response,1324441,<p></p>,,,,null,,,,,,,,,,,,,,
5072.299999952316,,shortestpath_phase,1329515,GW/hat.jpg,,,,50,GW/globe.jpg,GW/paint.jpg,0.5657894736842105,1,,,,GW/paint.jpg,,,,,One Edge Diff,Four Edge Five Edge
null,,html-keyboard-response,1330534,<p></p>,,,,null,,,,,,,,,,,,,,
2221.2999999523163,,shortestpath_phase,1332758,GW/dustpan.jpg,,,,50,GW/soldier.jpg,GW/barrel.jpg,0.5584415584415584,0,,,,GW/soldier.jpg,,,,,Two Edge Diff,Two Edge Four Edge
null,,html-keyboard-response,1333762,<p></p>,,,,null,,,,,,,,,,,,,,
3191,,shortestpath_phase,1336954,GW/gong.jpg,,,,49,GW/hat.jpg,GW/jukebox.jpg,0.5512820512820513,0,,,,GW/jukebox.jpg,,,,,One Edge Diff,Five Edge Six Edge
null,,html-keyboard-response,1337970,<p></p>,,,,null,,,,,,,,,,,,,,
2380.1999999284744,,shortestpath_phase,1340352,GW/soldier.jpg,,,,50,GW/basket.jpg,GW/globe.jpg,0.5443037974683544,0,,,,GW/basket.jpg,,,,,One Edge Diff,Three Edge Four Edge
null,,html-keyboard-response,1341369,<p></p>,,,,null,,,,,,,,,,,,,,
1937.3000000715256,,shortestpath_phase,1343308,GW/dustpan.jpg,,,,49,GW/gong.jpg,GW/jukebox.jpg,0.5375,0,,,,GW/jukebox.jpg,,,,,Four Edge Diff,Two Edge Six Edge
null,,html-keyboard-response,1344322,<p></p>,,,,null,,,,,,,,,,,,,,
1829.3999999761581,,shortestpath_phase,1346153,GW/gong.jpg,,,,50,GW/jukebox.jpg,GW/soldier.jpg,0.5432098765432098,1,,,,GW/soldier.jpg,,,,,One Edge Diff,Four Edge Five Edge
null,,html-keyboard-response,1347172,<p></p>,,,,null,,,,,,,,,,,,,,
2771.1999999284744,,shortestpath_phase,1349945,GW/dustpan.jpg,,,,49,GW/paint.jpg,GW/basket.jpg,0.5487804878048781,1,,,,GW/paint.jpg,,,,,One Edge Diff,Four Edge Five Edge
null,,html-keyboard-response,1350957,<p></p>,,,,null,,,,,,,,,,,,,,
4926,,shortestpath_phase,1355885,GW/gong.jpg,,,,50,GW/basket.jpg,GW/hat.jpg,0.5421686746987951,0,,,,GW/basket.jpg,,,,,Four Edge Diff,Two Edge Six Edge
null,,html-keyboard-response,1356893,<p></p>,,,,null,,,,,,,,,,,,,,
2499.2999999523163,,shortestpath_phase,1359394,GW/hat.jpg,,,,49,GW/gong.jpg,GW/paint.jpg,0.5357142857142857,0,,,,GW/paint.jpg,,,,,Two Edge Diff,Four Edge Six Edge
null,,html-keyboard-response,1360414,<p></p>,,,,null,,,,,,,,,,,,,,
3832.7000000476837,,shortestpath_phase,1364248,GW/dustpan.jpg,,,,49,GW/barrel.jpg,GW/globe.jpg,0.5411764705882353,1,,,,GW/barrel.jpg,,,,,Two Edge Diff,Four Edge Six Edge
null,,html-keyboard-response,1365257,<p></p>,,,,null,,,,,,,,,,,,,,
3137.600000023842,,shortestpath_phase,1368395,GW/gong.jpg,,,,49,GW/teeth.jpg,GW/camera.jpg,0.5465116279069767,1,,,,GW/teeth.jpg,,,,,One Edge Diff,Four Edge Five Edge
null,,html-keyboard-response,1369414,<p></p>,,,,null,,,,,,,,,,,,,,
1776.0999999046326,,shortestpath_phase,1371192,GW/dustpan.jpg,,,,49,GW/basket.jpg,GW/jukebox.jpg,0.5402298850574713,0,,,,GW/jukebox.jpg,,,,,Three Edge Diff,Three Edge Six Edge
null,,html-keyboard-response,1372207,<p></p>,,,,null,,,,,,,,,,,,,,
3741.3000000715256,,shortestpath_phase,1375950,GW/snail.jpg,,,,50,GW/teeth.jpg,GW/dustpan.jpg,0.5340909090909091,0,,,,GW/teeth.jpg,,,,,Two Edge Diff,Three Edge Five Edge
null,,html-keyboard-response,1376962,<p></p>,,,,null,,,,,,,,,,,,,,
1823.3999999761581,,shortestpath_phase,1378787,GW/gong.jpg,,,,50,GW/hat.jpg,GW/camera.jpg,0.5393258426966292,1,,,,GW/camera.jpg,,,,,One Edge Diff,Five Edge Six Edge
null,,html-keyboard-response,1379805,<p></p>,,,,null,,,,,,,,,,,,,,
3521.2000000476837,,shortestpath_phase,1383328,GW/hat.jpg,,,,50,GW/gong.jpg,GW/teeth.jpg,0.5444444444444444,1,,,,GW/teeth.jpg,,,,,Four Edge Diff,Two Edge Six Edge
null,,html-keyboard-response,1384346,<p></p>,,,,null,,,,,,,,,,,,,,
2941.5,,shortestpath_phase,1387290,GW/globe.jpg,,,,49,GW/hat.jpg,GW/barrel.jpg,0.5384615384615384,0,,,,GW/barrel.jpg,,,,,Three Edge Diff,Two Edge Five Edge
null,,html-keyboard-response,1388299,<p></p>,,,,null,,,,,,,,,,,,,,
3744.6999999284744,,shortestpath_phase,1392045,GW/gong.jpg,,,,49,GW/hat.jpg,GW/soldier.jpg,0.532608695652174,0,,,,GW/soldier.jpg,,,,,Two Edge Diff,Four Edge Six Edge
null,,html-keyboard-response,1393062,<p></p>,,,,null,,,,,,,,,,,,,,
1694.3999999761581,,shortestpath_phase,1394758,GW/snail.jpg,,,,50,GW/barrel.jpg,GW/dustpan.jpg,0.5268817204301075,0,,,,GW/barrel.jpg,,,,,Three Edge Diff,Three Edge Six Edge
null,,html-keyboard-response,1395769,<p></p>,,,,null,,,,,,,,,,,,,,
2496.600000023842,,shortestpath_phase,1398268,GW/hat.jpg,,,,49,GW/teeth.jpg,GW/globe.jpg,0.5319148936170213,1,,,,GW/teeth.jpg,,,,,Three Edge Diff,Two Edge Five Edge
null,,html-keyboard-response,1399278,<p></p>,,,,null,,,,,,,,,,,,,,
1488.2999999523163,,shortestpath_phase,1400769,GW/paint.jpg,,,,50,GW/barrel.jpg,GW/dustpan.jpg,0.5263157894736842,0,,,,GW/barrel.jpg,,,,,Two Edge Diff,Two Edge Four Edge
null,,html-keyboard-response,1401780,<p></p>,,,,null,,,,,,,,,,,,,,
3102.899999976158,,shortestpath_phase,1404885,GW/teeth.jpg,,,,49,GW/paint.jpg,GW/basket.jpg,0.5208333333333334,0,,,,GW/basket.jpg,,,,,One Edge Diff,Two Edge Three Edge
null,,html-keyboard-response,1405896,<p></p>,,,,null,,,,,,,,,,,,,,
3459.3000000715256,,shortestpath_phase,1409357,GW/gong.jpg,,,,49,GW/globe.jpg,GW/teeth.jpg,0.5257731958762887,1,,,,GW/globe.jpg,,,,,One Edge Diff,Three Edge Four Edge
null,,html-keyboard-response,1410375,<p></p>,,,,null,,,,,,,,,,,,,,
1934.2000000476837,,shortestpath_phase,1412312,GW/soldier.jpg,,,,49,GW/hat.jpg,GW/gong.jpg,0.5306122448979592,1,,,,GW/hat.jpg,,,,,Two Edge Diff,Two Edge Four Edge
null,,html-keyboard-response,1413317,<p></p>,,,,null,,,,,,,,,,,,,,
1767.2999999523163,,shortestpath_phase,1415086,GW/dustpan.jpg,,,,49,GW/basket.jpg,GW/globe.jpg,0.5353535353535354,1,,,,GW/basket.jpg,,,,,One Edge Diff,Five Edge Six Edge
null,,html-keyboard-response,1416105,<p></p>,,,,null,,,,,,,,,,,,,,
3160.3000000715256,,shortestpath_phase,1419267,GW/gong.jpg,,,,50,GW/paint.jpg,GW/camera.jpg,0.53,0,,,,GW/paint.jpg,,,,,Three Edge Diff,Two Edge Five Edge
null,,html-keyboard-response,1420271,<p></p>,,,,null,,,,,,,,,,,,,,
1793.2999999523163,,shortestpath_phase,1422066,GW/dustpan.jpg,,,,49,GW/soldier.jpg,GW/globe.jpg,0.5346534653465347,1,,,,GW/soldier.jpg,,,,,Four Edge Diff,Two Edge Six Edge
null,,html-keyboard-response,1423085,<p></p>,,,,null,,,,,,,,,,,,,,
4251.899999976158,,shortestpath_phase,1427338,GW/basket.jpg,,,,50,GW/wheelchair.jpg,GW/dustpan.jpg,0.5294117647058824,0,,,,GW/wheelchair.jpg,,,,,Three Edge Diff,Two Edge Five Edge
null,,html-keyboard-response,1428343,<p></p>,,,,null,,,,,,,,,,,,,,
3112.899999976158,,shortestpath_phase,1431458,GW/gong.jpg,,,,49,GW/jukebox.jpg,GW/dustpan.jpg,0.5339805825242718,1,,,,GW/jukebox.jpg,,,,,One Edge Diff,Five Edge Six Edge
null,,html-keyboard-response,1432467,<p></p>,,,,null,,,,,,,,,,,,,,
1302.2999999523163,,shortestpath_phase,1433771,GW/hat.jpg,,,,49,GW/soldier.jpg,GW/globe.jpg,0.5384615384615384,1,,,,GW/soldier.jpg,,,,,Three Edge Diff,Three Edge Six Edge
null,,html-keyboard-response,1434775,<p></p>,,,,null,,,,,,,,,,,,,,
2634.899999976158,,shortestpath_phase,1437411,GW/globe.jpg,,,,49,GW/wheelchair.jpg,GW/snail.jpg,0.5333333333333333,0,,,,GW/snail.jpg,,,,,One Edge Diff,Two Edge Three Edge
null,,html-keyboard-response,1438416,<p></p>,,,,null,,,,,,,,,,,,,,
2398.399999976158,,shortestpath_phase,1440817,GW/hat.jpg,,,,49,GW/basket.jpg,GW/snail.jpg,0.5377358490566038,1,,,,GW/basket.jpg,,,,,One Edge Diff,Four Edge Five Edge
null,,html-keyboard-response,1441821,<p></p>,,,,null,,,,,,,,,,,,,,
1644.1999999284744,,shortestpath_phase,1443468,GW/gong.jpg,,,,50,GW/dustpan.jpg,GW/camera.jpg,0.5420560747663551,1,,,,GW/camera.jpg,,,,,One Edge Diff,Five Edge Six Edge
null,,html-keyboard-response,1444475,<p></p>,,,,null,,,,,,,,,,,,,,
1483.5,,shortestpath_phase,1445961,GW/dustpan.jpg,,,,49,GW/paint.jpg,GW/globe.jpg,0.5462962962962963,1,,,,GW/paint.jpg,,,,,Two Edge Diff,Four Edge Six Edge
null,,html-keyboard-response,1446966,<p></p>,,,,null,,,,,,,,,,,,,,
2313.2999999523163,,shortestpath_phase,1449282,GW/gong.jpg,,,,49,GW/jukebox.jpg,GW/basket.jpg,0.5412844036697247,0,,,,GW/basket.jpg,,,,,Three Edge Diff,Three Edge Six Edge
null,,html-keyboard-response,1450298,<p></p>,,,,null,,,,,,,,,,,,,,
2583.100000023842,,shortestpath_phase,1452882,GW/globe.jpg,,,,49,GW/hat.jpg,GW/wheelchair.jpg,0.5363636363636364,0,,,,GW/wheelchair.jpg,,,,,Two Edge Diff,Three Edge Five Edge
null,,html-keyboard-response,1453899,<p></p>,,,,null,,,,,,,,,,,,,,
1884.7000000476837,,shortestpath_phase,1455785,GW/hat.jpg,,,,50,GW/snail.jpg,GW/soldier.jpg,0.5405405405405406,1,,,,GW/soldier.jpg,,,,,Three Edge Diff,Two Edge Five Edge
null,,html-keyboard-response,1456794,<p></p>,,,,null,,,,,,,,,,,,,,
2854.600000023842,,shortestpath_phase,1459650,GW/globe.jpg,,,,49,GW/dustpan.jpg,GW/barrel.jpg,0.5357142857142857,0,,,,GW/barrel.jpg,,,,,Four Edge Diff,Two Edge Six Edge
null,,html-keyboard-response,1460668,<p></p>,,,,null,,,,,,,,,,,,,,
2323,,shortestpath_phase,1462993,GW/camera.jpg,,,,50,GW/paint.jpg,GW/globe.jpg,0.5309734513274337,0,,,,GW/paint.jpg,,,,,Two Edge Diff,Three Edge Five Edge
null,,html-keyboard-response,1464011,<p></p>,,,,null,,,,,,,,,,,,,,
3737.2999999523163,,shortestpath_phase,1467751,GW/jukebox.jpg,,,,49,GW/gong.jpg,GW/snail.jpg,0.5263157894736842,0,,,,GW/snail.jpg,,,,,One Edge Diff,Four Edge Five Edge
null,,html-keyboard-response,1468768,<p></p>,,,,null,,,,,,,,,,,,,,
3197,,shortestpath_phase,1471967,GW/globe.jpg,,,,50,GW/dustpan.jpg,GW/camera.jpg,0.5304347826086957,1,,,,GW/camera.jpg,,,,,One Edge Diff,Five Edge Six Edge
null,,html-keyboard-response,1472974,<p></p>,,,,null,,,,,,,,,,,,,,
1629.6000000238419,,shortestpath_phase,1474605,GW/hat.jpg,,,,49,GW/snail.jpg,GW/gong.jpg,0.5344827586206896,1,,,,GW/snail.jpg,,,,,One Edge Diff,Five Edge Six Edge
null,,html-keyboard-response,1475617,<p></p>,,,,null,,,,,,,,,,,,,,
2433.2000000476837,,shortestpath_phase,1478052,GW/teeth.jpg,,,,49,GW/camera.jpg,GW/gong.jpg,0.5384615384615384,1,,,,GW/camera.jpg,,,,,Two Edge Diff,Two Edge Four Edge
null,,html-keyboard-response,1479063,<p></p>,,,,null,,,,,,,,,,,,,,
1605.3999999761581,,shortestpath_phase,1480671,GW/jukebox.jpg,,,,49,GW/gong.jpg,GW/barrel.jpg,0.5338983050847458,0,,,,GW/barrel.jpg,,,,,Three Edge Diff,Two Edge Five Edge
null,,html-keyboard-response,1481683,<p></p>,,,,null,,,,,,,,,,,,,,
2088.7999999523163,,shortestpath_phase,1483774,GW/gong.jpg,,,,49,GW/teeth.jpg,GW/basket.jpg,0.5294117647058824,0,,,,GW/basket.jpg,,,,,Two Edge Diff,Two Edge Four Edge
null,,html-keyboard-response,1484788,<p></p>,,,,null,,,,,,,,,,,,,,
3697.5,,shortestpath_phase,1488487,GW/globe.jpg,,,,49,GW/paint.jpg,GW/jukebox.jpg,0.5333333333333333,1,,,,GW/paint.jpg,,,,,One Edge Diff,Three Edge Four Edge
null,,html-keyboard-response,1489508,<p></p>,,,,null,,,,,,,,,,,,,,
2362.9000000953674,,shortestpath_phase,1491873,GW/basket.jpg,,,,50,GW/gong.jpg,GW/dustpan.jpg,0.5289256198347108,0,,,,GW/gong.jpg,,,,,Three Edge Diff,Three Edge Six Edge
null,,html-keyboard-response,1492891,<p></p>,,,,null,,,,,,,,,,,,,,
33610.59999990463,,intro_1,1526504,instruct,,0,,,,,,,,,,,,,,,,
22743.5,,intro_2,1549250,instruct,,1,Next,,,,,,,,,,,,,,,
5254.100000023842,,intro_3,1554507,instruct,,1,Next,,,,,,,,,,,,,,,
