rt,responses,trial_type,time_elapsed,stimulus,graphorder,button_pressed,response,key_press,stimulus_left,stimulus_right,cumulative_accuracy,accuracy,stimulus_down_left,stimulus_down_mid,stimulus_down_right,stimulus_correct,stimulus_short,stimulus_far,weighted_accuracy,missedtrial,condition,specific_pairs
6943.199999928474,{worker_id:668d4819f7ea48371e78223f},id_enter,6946,id_enter,GW/soldier.jpg; GW/barrel.jpg; GW/jukebox.jpg; GW/camera.jpg; GW/paint.jpg; GW/basket.jpg; GW/snail.jpg; GW/globe.jpg; GW/gong.jpg; GW/dustpan.jpg; GW/hat.jpg; GW/wheelchair.jpg; GW/teeth.jpg,,,,,,,,,,,,,,,,,
39263.200000047684,,fullscreen,46213,fullscreen,,0,,,,,,,,,,,,,,,,
37790.90000009537,,intro_1,84006,instruct,,0,,,,,,,,,,,,,,,,
35316.60000002384,,intro_2,119324,instruct,,1,Next,,,,,,,,,,,,,,,
18233.299999952316,,intro_3,137558,instruct,,1,Next,,,,,,,,,,,,,,,
null,,learn_prac_1,139560,lean_prac_1,,,,null,,,,,,,,,,,,,,
null,,html-keyboard-response,140562,<p></p>,,,,null,,,,,,,,,,,,,,
4703.799999952316,,intro_1,145267,instruct,,0,,,,,,,,,,,,,,,,
10460.600000023842,,intro_2,155729,instruct,,1,Next,,,,,,,,,,,,,,,
null,,learn_prac_2,157731,lean_prac_2,,,,null,,,,,,,,,,,,,,
null,,html-keyboard-response,158733,<p></p>,,,,null,,,,,,,,,,,,,,
5705.5,,intro_1,164439,instruct,,0,,,,,,,,,,,,,,,,
12256,,intro_2,176696,instruct,,1,Next,,,,,,,,,,,,,,,
43045.800000071526,,intro_3,219743,instruct,,1,Next,,,,,,,,,,,,,,,
null,,prac_atten_color_black,220548,black_plus_sign,,,,null,,,,,,,,,,,,,,
null,,prac_atten_color,221150,prac_stop_color,,,,null,,,,,,,,,,,,,,
773.5999999046326,,prac_atten_color_black,223151,black_plus_sign,,,,49,,,,,,,,,,,,,,
null,,prac_atten_color_black,223956,black_plus_sign,,,,null,,,,,,,,,,,,,,
null,,prac_atten_color,224552,prac_stop_color,,,,null,,,,,,,,,,,,,,
636.9000000953674,,prac_atten_color_black,226553,black_plus_sign,,,,50,,,,,,,,,,,,,,
null,,prac_atten_color_black,227361,black_plus_sign,,,,null,,,,,,,,,,,,,,
null,,prac_atten_color,227947,prac_stop_color,,,,null,,,,,,,,,,,,,,
372.89999997615814,,prac_atten_color_black,229950,black_plus_sign,,,,49,,,,,,,,,,,,,,
12075.200000047684,,attentioncheck_help,242026,instruct,,,,32,,,,,,,,,,,,,,
null,,prac_atten_color_black,242843,black_plus_sign,,,,null,,,,,,,,,,,,,,
null,,prac_atten_color,243309,prac_stop_color,,,,null,,,,,,,,,,,,,,
1378.6000000238419,,prac_atten_color_black,245313,black_plus_sign,,,,49,,,,,,,,,,,,,,
null,,prac_atten_color_black,246251,black_plus_sign,,,,null,,,,,,,,,,,,,,
null,,prac_atten_color,246692,prac_stop_color,,,,null,,,,,,,,,,,,,,
932,,prac_atten_color_black,248694,black_plus_sign,,,,50,,,,,,,,,,,,,,
null,,prac_atten_color_black,249657,black_plus_sign,,,,null,,,,,,,,,,,,,,
null,,prac_atten_color,250384,prac_stop_color,,,,null,,,,,,,,,,,,,,
585.6999999284744,,prac_atten_color_black,252385,black_plus_sign,,,,50,,,,,,,,,,,,,,
null,,prac_atten_color_black,253061,black_plus_sign,,,,null,,,,,,,,,,,,,,
null,,prac_atten_color,253607,prac_stop_color,,,,null,,,,,,,,,,,,,,
901.0999999046326,,prac_atten_color_black,255609,black_plus_sign,,,,49,,,,,,,,,,,,,,
null,,prac_atten_color_black,256466,black_plus_sign,,,,null,,,,,,,,,,,,,,
null,,prac_atten_color,257416,prac_stop_color,,,,null,,,,,,,,,,,,,,
363.7999999523163,,prac_atten_color_black,259419,black_plus_sign,,,,50,,,,,,,,,,,,,,
null,,prac_atten_color_black,259872,black_plus_sign,,,,null,,,,,,,,,,,,,,
null,,prac_atten_color,260797,prac_stop_color,,,,null,,,,,,,,,,,,,,
407.59999990463257,,prac_atten_color_black,262799,black_plus_sign,,,,49,,,,,,,,,,,,,,
null,,prac_atten_color_black,263278,black_plus_sign,,,,null,,,,,,,,,,,,,,
null,,prac_atten_color,264003,prac_stop_color,,,,null,,,,,,,,,,,,,,
610.2999999523163,,prac_atten_color_black,266004,black_plus_sign,,,,49,,,,,,,,,,,,,,
11855.699999928474,,attentioncheck_feedback,277862,cross_check_feedback,,0,,,,,,,,,,,,,,,,
49645.39999997616,,last_instruct,327507,instruct,,,,32,,,,,,,,,,,,,,
null,,learn_phase(without_color),329509,black_plus_sign,,,,null,GW/snail.jpg,GW/gong.jpg,,,,,,,,,,,,
null,,black_cross(without_color),330398,green,,,,null,GW/snail.jpg,GW/gong.jpg,,,,,,,,,,,,
null,,rt_plussign_withcolor,330900,green,,,,null,GW/snail.jpg,GW/gong.jpg,,,,,,,,,,,,
null,,rt_thecrossant_black,332015,black_plus_sign,,,,null,,,NaN,,,,,,,,,,,
null,,color_black,332120,black_plus_sign,,,,null,,,,,,,,,,,,,,
null,,learn_phase(without_color),334122,black_plus_sign,,,,null,GW/snail.jpg,GW/globe.jpg,,,,,,,,,,,,
null,,black_cross(without_color),334641,green,,,,null,GW/snail.jpg,GW/globe.jpg,,,,,,,,,,,,
null,,rt_plussign_withcolor,335142,green,,,,null,GW/snail.jpg,GW/globe.jpg,,,,,,,,,,,,
1479.6000000238419,,rt_thecrossant_black,336631,black_plus_sign,,,,50,,,1,1,,,,,,,,,,
null,,color_black,336733,black_plus_sign,,,,null,,,,,,,,,,,,,,
null,,learn_phase(without_color),338735,black_plus_sign,,,,null,GW/globe.jpg,GW/dustpan.jpg,,,,,,,,,,,,
null,,black_cross(without_color),339374,green,,,,null,GW/globe.jpg,GW/dustpan.jpg,,,,,,,,,,,,
null,,rt_plussign_withcolor,339876,green,,,,null,GW/globe.jpg,GW/dustpan.jpg,,,,,,,,,,,,
1601.2999999523163,,rt_thecrossant_black,341241,black_plus_sign,,,,50,,,1,1,,,,,,,,,,
null,,color_black,341342,black_plus_sign,,,,null,,,,,,,,,,,,,,
null,,learn_phase(without_color),343344,black_plus_sign,,,,null,GW/camera.jpg,GW/paint.jpg,,,,,,,,,,,,
null,,black_cross(without_color),343869,blue,,,,null,GW/camera.jpg,GW/paint.jpg,,,,,,,,,,,,
null,,rt_plussign_withcolor,344370,blue,,,,null,GW/camera.jpg,GW/paint.jpg,,,,,,,,,,,,
1651.9000000953674,,rt_thecrossant_black,345849,black_plus_sign,,,,49,,,1,1,,,,,,,,,,
null,,color_black,345951,black_plus_sign,,,,null,,,,,,,,,,,,,,
null,,learn_phase(without_color),347953,black_plus_sign,,,,null,GW/jukebox.jpg,GW/basket.jpg,,,,,,,,,,,,
null,,black_cross(without_color),348905,blue,,,,null,GW/jukebox.jpg,GW/basket.jpg,,,,,,,,,,,,
null,,rt_plussign_withcolor,349408,blue,,,,null,GW/jukebox.jpg,GW/basket.jpg,,,,,,,,,,,,
1460.2999999523163,,rt_thecrossant_black,350458,black_plus_sign,,,,49,,,1,1,,,,,,,,,,
null,,color_black,350560,black_plus_sign,,,,null,,,,,,,,,,,,,,
null,,learn_phase(without_color),352563,black_plus_sign,,,,null,GW/basket.jpg,GW/gong.jpg,,,,,,,,,,,,
null,,black_cross(without_color),353563,green,,,,null,GW/basket.jpg,GW/gong.jpg,,,,,,,,,,,,
null,,rt_plussign_withcolor,354064,green,,,,null,GW/basket.jpg,GW/gong.jpg,,,,,,,,,,,,
null,,rt_thecrossant_black,355068,black_plus_sign,,,,null,,,1,,,,,,,,,,,
null,,color_black,355169,black_plus_sign,,,,null,,,,,,,,,,,,,,
null,,learn_phase(without_color),357172,black_plus_sign,,,,null,GW/snail.jpg,GW/globe.jpg,,,,,,,,,,,,
null,,black_cross(without_color),358088,green,,,,null,GW/snail.jpg,GW/globe.jpg,,,,,,,,,,,,
null,,rt_plussign_withcolor,358589,green,,,,null,GW/snail.jpg,GW/globe.jpg,,,,,,,,,,,,
null,,rt_thecrossant_black,359677,black_plus_sign,,,,null,,,1,,,,,,,,,,,
null,,warning_page,362679,warning,,,,null,,,,,,,,,,,,,,
null,,color_black,362780,black_plus_sign,,,,null,,,,,,,,,,,,,,
null,,learn_phase(without_color),364783,black_plus_sign,,,,null,GW/globe.jpg,GW/dustpan.jpg,,,,,,,,,,,,
null,,black_cross(without_color),365242,blue,,,,null,GW/globe.jpg,GW/dustpan.jpg,,,,,,,,,,,,
null,,rt_plussign_withcolor,365743,blue,,,,null,GW/globe.jpg,GW/dustpan.jpg,,,,,,,,,,,,
null,,rt_thecrossant_black,367287,black_plus_sign,,,,null,,,1,,,,,,,,,,,
null,,warning_page,370289,warning,,,,null,,,,,,,,,,,,,,
null,,color_black,370391,black_plus_sign,,,,null,,,,,,,,,,,,,,
null,,learn_phase(without_color),372393,black_plus_sign,,,,null,GW/basket.jpg,GW/snail.jpg,,,,,,,,,,,,
null,,black_cross(without_color),373166,green,,,,null,GW/basket.jpg,GW/snail.jpg,,,,,,,,,,,,
null,,rt_plussign_withcolor,373677,green,,,,null,GW/basket.jpg,GW/snail.jpg,,,,,,,,,,,,
1437,,rt_thecrossant_black,374908,black_plus_sign,,,,50,,,1,1,,,,,,,,,,
null,,color_black,375010,black_plus_sign,,,,null,,,,,,,,,,,,,,
null,,learn_phase(without_color),377011,black_plus_sign,,,,null,GW/camera.jpg,GW/paint.jpg,,,,,,,,,,,,
null,,black_cross(without_color),377418,green,,,,null,GW/camera.jpg,GW/paint.jpg,,,,,,,,,,,,
null,,rt_plussign_withcolor,377920,green,,,,null,GW/camera.jpg,GW/paint.jpg,,,,,,,,,,,,
1304.3999999761581,,rt_thecrossant_black,379518,black_plus_sign,,,,50,,,1,1,,,,,,,,,,
null,,color_black,379619,black_plus_sign,,,,null,,,,,,,,,,,,,,
null,,learn_phase(without_color),381621,black_plus_sign,,,,null,GW/gong.jpg,GW/hat.jpg,,,,,,,,,,,,
null,,black_cross(without_color),382208,blue,,,,null,GW/gong.jpg,GW/hat.jpg,,,,,,,,,,,,
null,,rt_plussign_withcolor,382710,blue,,,,null,GW/gong.jpg,GW/hat.jpg,,,,,,,,,,,,
1283.4000000953674,,rt_thecrossant_black,384126,black_plus_sign,,,,49,,,1,1,,,,,,,,,,
null,,color_black,384232,black_plus_sign,,,,null,,,,,,,,,,,,,,
null,,learn_phase(without_color),386234,black_plus_sign,,,,null,GW/camera.jpg,GW/wheelchair.jpg,,,,,,,,,,,,
null,,black_cross(without_color),386785,blue,,,,null,GW/camera.jpg,GW/wheelchair.jpg,,,,,,,,,,,,
null,,rt_plussign_withcolor,387286,blue,,,,null,GW/camera.jpg,GW/wheelchair.jpg,,,,,,,,,,,,
1412.2000000476837,,rt_thecrossant_black,388738,black_plus_sign,,,,49,,,1,1,,,,,,,,,,
null,,color_black,388840,black_plus_sign,,,,null,,,,,,,,,,,,,,
null,,learn_phase(without_color),390841,black_plus_sign,,,,null,GW/barrel.jpg,GW/jukebox.jpg,,,,,,,,,,,,
null,,black_cross(without_color),391894,blue,,,,null,GW/barrel.jpg,GW/jukebox.jpg,,,,,,,,,,,,
null,,rt_plussign_withcolor,392396,blue,,,,null,GW/barrel.jpg,GW/jukebox.jpg,,,,,,,,,,,,
1366.0999999046326,,rt_thecrossant_black,393347,black_plus_sign,,,,49,,,1,1,,,,,,,,,,
null,,color_black,393448,black_plus_sign,,,,null,,,,,,,,,,,,,,
null,,learn_phase(without_color),395450,black_plus_sign,,,,null,GW/jukebox.jpg,GW/basket.jpg,,,,,,,,,,,,
null,,black_cross(without_color),395958,blue,,,,null,GW/jukebox.jpg,GW/basket.jpg,,,,,,,,,,,,
null,,rt_plussign_withcolor,396461,blue,,,,null,GW/jukebox.jpg,GW/basket.jpg,,,,,,,,,,,,
1827.9000000953674,,rt_thecrossant_black,397957,black_plus_sign,,,,49,,,1,1,,,,,,,,,,
null,,color_black,398065,black_plus_sign,,,,null,,,,,,,,,,,,,,
null,,learn_phase(without_color),400067,black_plus_sign,,,,null,GW/snail.jpg,GW/teeth.jpg,,,,,,,,,,,,
null,,black_cross(without_color),400842,blue,,,,null,GW/snail.jpg,GW/teeth.jpg,,,,,,,,,,,,
null,,rt_plussign_withcolor,401343,blue,,,,null,GW/snail.jpg,GW/teeth.jpg,,,,,,,,,,,,
1237.2000000476837,,rt_thecrossant_black,402574,black_plus_sign,,,,49,,,1,1,,,,,,,,,,
null,,color_black,402675,black_plus_sign,,,,null,,,,,,,,,,,,,,
null,,learn_phase(without_color),404677,black_plus_sign,,,,null,GW/gong.jpg,GW/hat.jpg,,,,,,,,,,,,
null,,black_cross(without_color),405112,blue,,,,null,GW/gong.jpg,GW/hat.jpg,,,,,,,,,,,,
null,,rt_plussign_withcolor,405613,blue,,,,null,GW/gong.jpg,GW/hat.jpg,,,,,,,,,,,,
1635.2999999523163,,rt_thecrossant_black,407195,black_plus_sign,,,,49,,,1,1,,,,,,,,,,
null,,color_black,407298,black_plus_sign,,,,null,,,,,,,,,,,,,,
null,,learn_phase(without_color),409300,black_plus_sign,,,,null,GW/basket.jpg,GW/gong.jpg,,,,,,,,,,,,
null,,black_cross(without_color),409958,green,,,,null,GW/basket.jpg,GW/gong.jpg,,,,,,,,,,,,
null,,rt_plussign_withcolor,410462,green,,,,null,GW/basket.jpg,GW/gong.jpg,,,,,,,,,,,,
897.2000000476837,,rt_thecrossant_black,411808,black_plus_sign,,,,49,,,0.9230769230769231,0,,,,,,,,,,
null,,color_black,411911,black_plus_sign,,,,null,,,,,,,,,,,,,,
null,,learn_phase(without_color),413913,black_plus_sign,,,,null,GW/camera.jpg,GW/paint.jpg,,,,,,,,,,,,
null,,black_cross(without_color),414901,blue,,,,null,GW/camera.jpg,GW/paint.jpg,,,,,,,,,,,,
null,,rt_plussign_withcolor,415402,blue,,,,null,GW/camera.jpg,GW/paint.jpg,,,,,,,,,,,,
1544.6999999284744,,rt_thecrossant_black,416417,black_plus_sign,,,,49,,,0.9285714285714286,1,,,,,,,,,,
null,,color_black,416523,black_plus_sign,,,,null,,,,,,,,,,,,,,
null,,learn_phase(without_color),418526,black_plus_sign,,,,null,GW/barrel.jpg,GW/camera.jpg,,,,,,,,,,,,
null,,black_cross(without_color),419064,blue,,,,null,GW/barrel.jpg,GW/camera.jpg,,,,,,,,,,,,
null,,rt_plussign_withcolor,419567,blue,,,,null,GW/barrel.jpg,GW/camera.jpg,,,,,,,,,,,,
1920.7999999523163,,rt_thecrossant_black,421031,black_plus_sign,,,,49,,,0.9333333333333333,1,,,,,,,,,,
null,,color_black,421134,black_plus_sign,,,,null,,,,,,,,,,,,,,
null,,learn_phase(without_color),423136,black_plus_sign,,,,null,GW/camera.jpg,GW/paint.jpg,,,,,,,,,,,,
null,,black_cross(without_color),424148,green,,,,null,GW/camera.jpg,GW/paint.jpg,,,,,,,,,,,,
null,,rt_plussign_withcolor,424650,green,,,,null,GW/camera.jpg,GW/paint.jpg,,,,,,,,,,,,
1516.9000000953674,,rt_thecrossant_black,425642,black_plus_sign,,,,50,,,0.9375,1,,,,,,,,,,
null,,color_black,425744,black_plus_sign,,,,null,,,,,,,,,,,,,,
null,,learn_phase(without_color),427746,black_plus_sign,,,,null,GW/globe.jpg,GW/gong.jpg,,,,,,,,,,,,
null,,black_cross(without_color),428252,green,,,,null,GW/globe.jpg,GW/gong.jpg,,,,,,,,,,,,
null,,rt_plussign_withcolor,428756,green,,,,null,GW/globe.jpg,GW/gong.jpg,,,,,,,,,,,,
1778.3999999761581,,rt_thecrossant_black,430253,black_plus_sign,,,,50,,,0.9411764705882353,1,,,,,,,,,,
null,,color_black,430356,black_plus_sign,,,,null,,,,,,,,,,,,,,
null,,learn_phase(without_color),432358,black_plus_sign,,,,null,GW/barrel.jpg,GW/jukebox.jpg,,,,,,,,,,,,
null,,black_cross(without_color),432789,blue,,,,null,GW/barrel.jpg,GW/jukebox.jpg,,,,,,,,,,,,
null,,rt_plussign_withcolor,433291,blue,,,,null,GW/barrel.jpg,GW/jukebox.jpg,,,,,,,,,,,,
1264,,rt_thecrossant_black,434862,black_plus_sign,,,,49,,,0.9444444444444444,1,,,,,,,,,,
null,,color_black,434964,black_plus_sign,,,,null,,,,,,,,,,,,,,
null,,learn_phase(without_color),436966,black_plus_sign,,,,null,GW/hat.jpg,GW/wheelchair.jpg,,,,,,,,,,,,
null,,black_cross(without_color),437847,green,,,,null,GW/hat.jpg,GW/wheelchair.jpg,,,,,,,,,,,,
null,,rt_plussign_withcolor,438349,green,,,,null,GW/hat.jpg,GW/wheelchair.jpg,,,,,,,,,,,,
1103,,rt_thecrossant_black,439471,black_plus_sign,,,,50,,,0.9473684210526315,1,,,,,,,,,,
null,,color_black,439573,black_plus_sign,,,,null,,,,,,,,,,,,,,
null,,learn_phase(without_color),441575,black_plus_sign,,,,null,GW/barrel.jpg,GW/jukebox.jpg,,,,,,,,,,,,
null,,black_cross(without_color),442228,green,,,,null,GW/barrel.jpg,GW/jukebox.jpg,,,,,,,,,,,,
null,,rt_plussign_withcolor,442730,green,,,,null,GW/barrel.jpg,GW/jukebox.jpg,,,,,,,,,,,,
1806.6000000238419,,rt_thecrossant_black,444082,black_plus_sign,,,,50,,,0.95,1,,,,,,,,,,
null,,color_black,444183,black_plus_sign,,,,null,,,,,,,,,,,,,,
null,,learn_phase(without_color),446185,black_plus_sign,,,,null,GW/snail.jpg,GW/globe.jpg,,,,,,,,,,,,
null,,black_cross(without_color),446707,blue,,,,null,GW/snail.jpg,GW/globe.jpg,,,,,,,,,,,,
null,,rt_plussign_withcolor,447209,blue,,,,null,GW/snail.jpg,GW/globe.jpg,,,,,,,,,,,,
1411.2000000476837,,rt_thecrossant_black,448690,black_plus_sign,,,,49,,,0.9523809523809523,1,,,,,,,,,,
null,,color_black,448792,black_plus_sign,,,,null,,,,,,,,,,,,,,
null,,learn_phase(without_color),450793,black_plus_sign,,,,null,GW/hat.jpg,GW/wheelchair.jpg,,,,,,,,,,,,
null,,black_cross(without_color),451229,blue,,,,null,GW/hat.jpg,GW/wheelchair.jpg,,,,,,,,,,,,
null,,rt_plussign_withcolor,451730,blue,,,,null,GW/hat.jpg,GW/wheelchair.jpg,,,,,,,,,,,,
1514.6000000238419,,rt_thecrossant_black,453298,black_plus_sign,,,,49,,,0.9545454545454546,1,,,,,,,,,,
null,,color_black,453400,black_plus_sign,,,,null,,,,,,,,,,,,,,
null,,learn_phase(without_color),455402,black_plus_sign,,,,null,GW/barrel.jpg,GW/jukebox.jpg,,,,,,,,,,,,
null,,black_cross(without_color),456128,blue,,,,null,GW/barrel.jpg,GW/jukebox.jpg,,,,,,,,,,,,
null,,rt_plussign_withcolor,456630,blue,,,,null,GW/barrel.jpg,GW/jukebox.jpg,,,,,,,,,,,,
1222.7000000476837,,rt_thecrossant_black,457907,black_plus_sign,,,,49,,,0.9565217391304348,1,,,,,,,,,,
null,,color_black,458007,black_plus_sign,,,,null,,,,,,,,,,,,,,
null,,learn_phase(without_color),460009,black_plus_sign,,,,null,GW/hat.jpg,GW/wheelchair.jpg,,,,,,,,,,,,
null,,black_cross(without_color),460511,blue,,,,null,GW/hat.jpg,GW/wheelchair.jpg,,,,,,,,,,,,
null,,rt_plussign_withcolor,461013,blue,,,,null,GW/hat.jpg,GW/wheelchair.jpg,,,,,,,,,,,,
1544.9000000953674,,rt_thecrossant_black,462515,black_plus_sign,,,,49,,,0.9583333333333334,1,,,,,,,,,,
null,,color_black,462617,black_plus_sign,,,,null,,,,,,,,,,,,,,
null,,learn_phase(without_color),464618,black_plus_sign,,,,null,GW/snail.jpg,GW/gong.jpg,,,,,,,,,,,,
null,,black_cross(without_color),465578,blue,,,,null,GW/snail.jpg,GW/gong.jpg,,,,,,,,,,,,
null,,rt_plussign_withcolor,466079,blue,,,,null,GW/snail.jpg,GW/gong.jpg,,,,,,,,,,,,
1336.8000000715256,,rt_thecrossant_black,467122,black_plus_sign,,,,49,,,0.96,1,,,,,,,,,,
null,,color_black,467224,black_plus_sign,,,,null,,,,,,,,,,,,,,
null,,learn_phase(without_color),469226,black_plus_sign,,,,null,GW/jukebox.jpg,GW/hat.jpg,,,,,,,,,,,,
null,,black_cross(without_color),470081,blue,,,,null,GW/jukebox.jpg,GW/hat.jpg,,,,,,,,,,,,
null,,rt_plussign_withcolor,470582,blue,,,,null,GW/jukebox.jpg,GW/hat.jpg,,,,,,,,,,,,
1636.8999999761581,,rt_thecrossant_black,471731,black_plus_sign,,,,49,,,0.9615384615384616,1,,,,,,,,,,
null,,color_black,471832,black_plus_sign,,,,null,,,,,,,,,,,,,,
null,,learn_phase(without_color),473834,black_plus_sign,,,,null,GW/camera.jpg,GW/wheelchair.jpg,,,,,,,,,,,,
null,,black_cross(without_color),474500,green,,,,null,GW/camera.jpg,GW/wheelchair.jpg,,,,,,,,,,,,
null,,rt_plussign_withcolor,475002,green,,,,null,GW/camera.jpg,GW/wheelchair.jpg,,,,,,,,,,,,
1681.5,,rt_thecrossant_black,476340,black_plus_sign,,,,50,,,0.9629629629629629,1,,,,,,,,,,
null,,color_black,476442,black_plus_sign,,,,null,,,,,,,,,,,,,,
null,,learn_phase(without_color),478444,black_plus_sign,,,,null,GW/soldier.jpg,GW/barrel.jpg,,,,,,,,,,,,
null,,black_cross(without_color),479114,green,,,,null,GW/soldier.jpg,GW/barrel.jpg,,,,,,,,,,,,
null,,rt_plussign_withcolor,479616,green,,,,null,GW/soldier.jpg,GW/barrel.jpg,,,,,,,,,,,,
1433.6000000238419,,rt_thecrossant_black,480949,black_plus_sign,,,,50,,,0.9642857142857143,1,,,,,,,,,,
null,,color_black,481051,black_plus_sign,,,,null,,,,,,,,,,,,,,
null,,learn_phase(without_color),483053,black_plus_sign,,,,null,GW/snail.jpg,GW/gong.jpg,,,,,,,,,,,,
null,,black_cross(without_color),483869,blue,,,,null,GW/snail.jpg,GW/gong.jpg,,,,,,,,,,,,
null,,rt_plussign_withcolor,484382,blue,,,,null,GW/snail.jpg,GW/gong.jpg,,,,,,,,,,,,
1656.3000000715256,,rt_thecrossant_black,485570,black_plus_sign,,,,49,,,0.9655172413793104,1,,,,,,,,,,
null,,color_black,485673,black_plus_sign,,,,null,,,,,,,,,,,,,,
null,,learn_phase(without_color),487674,black_plus_sign,,,,null,GW/camera.jpg,GW/paint.jpg,,,,,,,,,,,,
null,,black_cross(without_color),488124,blue,,,,null,GW/camera.jpg,GW/paint.jpg,,,,,,,,,,,,
null,,rt_plussign_withcolor,488626,blue,,,,null,GW/camera.jpg,GW/paint.jpg,,,,,,,,,,,,
1653.1000000238419,,rt_thecrossant_black,490180,black_plus_sign,,,,49,,,0.9666666666666667,1,,,,,,,,,,
null,,color_black,490282,black_plus_sign,,,,null,,,,,,,,,,,,,,
null,,learn_phase(without_color),492284,black_plus_sign,,,,null,GW/basket.jpg,GW/snail.jpg,,,,,,,,,,,,
null,,black_cross(without_color),492847,blue,,,,null,GW/basket.jpg,GW/snail.jpg,,,,,,,,,,,,
null,,rt_plussign_withcolor,493349,blue,,,,null,GW/basket.jpg,GW/snail.jpg,,,,,,,,,,,,
1276.6000000238419,,rt_thecrossant_black,494804,black_plus_sign,,,,49,,,0.967741935483871,1,,,,,,,,,,
null,,color_black,494906,black_plus_sign,,,,null,,,,,,,,,,,,,,
null,,learn_phase(without_color),496908,black_plus_sign,,,,null,GW/snail.jpg,GW/teeth.jpg,,,,,,,,,,,,
null,,black_cross(without_color),497459,blue,,,,null,GW/snail.jpg,GW/teeth.jpg,,,,,,,,,,,,
null,,rt_plussign_withcolor,497960,blue,,,,null,GW/snail.jpg,GW/teeth.jpg,,,,,,,,,,,,
1457.2999999523163,,rt_thecrossant_black,499414,black_plus_sign,,,,49,,,0.96875,1,,,,,,,,,,
null,,color_black,499515,black_plus_sign,,,,null,,,,,,,,,,,,,,
null,,learn_phase(without_color),501517,black_plus_sign,,,,null,GW/snail.jpg,GW/gong.jpg,,,,,,,,,,,,
null,,black_cross(without_color),502387,blue,,,,null,GW/snail.jpg,GW/gong.jpg,,,,,,,,,,,,
null,,rt_plussign_withcolor,502887,blue,,,,null,GW/snail.jpg,GW/gong.jpg,,,,,,,,,,,,
1285,,rt_thecrossant_black,504021,black_plus_sign,,,,49,,,0.9696969696969697,1,,,,,,,,,,
null,,color_black,504122,black_plus_sign,,,,null,,,,,,,,,,,,,,
null,,learn_phase(without_color),506123,black_plus_sign,,,,null,GW/soldier.jpg,GW/barrel.jpg,,,,,,,,,,,,
null,,black_cross(without_color),506987,blue,,,,null,GW/soldier.jpg,GW/barrel.jpg,,,,,,,,,,,,
null,,rt_plussign_withcolor,507489,blue,,,,null,GW/soldier.jpg,GW/barrel.jpg,,,,,,,,,,,,
1581.7999999523163,,rt_thecrossant_black,508629,black_plus_sign,,,,49,,,0.9705882352941176,1,,,,,,,,,,
null,,color_black,508731,black_plus_sign,,,,null,,,,,,,,,,,,,,
null,,learn_phase(without_color),510733,black_plus_sign,,,,null,GW/barrel.jpg,GW/camera.jpg,,,,,,,,,,,,
null,,black_cross(without_color),511462,green,,,,null,GW/barrel.jpg,GW/camera.jpg,,,,,,,,,,,,
null,,rt_plussign_withcolor,511964,green,,,,null,GW/barrel.jpg,GW/camera.jpg,,,,,,,,,,,,
1820.1000000238419,,rt_thecrossant_black,513239,black_plus_sign,,,,50,,,0.9714285714285714,1,,,,,,,,,,
null,,color_black,513342,black_plus_sign,,,,null,,,,,,,,,,,,,,
null,,learn_phase(without_color),515343,black_plus_sign,,,,null,GW/gong.jpg,GW/hat.jpg,,,,,,,,,,,,
null,,black_cross(without_color),516276,blue,,,,null,GW/gong.jpg,GW/hat.jpg,,,,,,,,,,,,
null,,rt_plussign_withcolor,516778,blue,,,,null,GW/gong.jpg,GW/hat.jpg,,,,,,,,,,,,
1710.6000000238419,,rt_thecrossant_black,517849,black_plus_sign,,,,49,,,0.9722222222222222,1,,,,,,,,,,
null,,color_black,517951,black_plus_sign,,,,null,,,,,,,,,,,,,,
null,,learn_phase(without_color),519953,black_plus_sign,,,,null,GW/soldier.jpg,GW/barrel.jpg,,,,,,,,,,,,
null,,black_cross(without_color),520750,blue,,,,null,GW/soldier.jpg,GW/barrel.jpg,,,,,,,,,,,,
null,,rt_plussign_withcolor,521252,blue,,,,null,GW/soldier.jpg,GW/barrel.jpg,,,,,,,,,,,,
1664,,rt_thecrossant_black,522462,black_plus_sign,,,,49,,,0.972972972972973,1,,,,,,,,,,
null,,color_black,522564,black_plus_sign,,,,null,,,,,,,,,,,,,,
null,,learn_phase(without_color),524566,black_plus_sign,,,,null,GW/jukebox.jpg,GW/hat.jpg,,,,,,,,,,,,
null,,black_cross(without_color),525469,green,,,,null,GW/jukebox.jpg,GW/hat.jpg,,,,,,,,,,,,
null,,rt_plussign_withcolor,525970,green,,,,null,GW/jukebox.jpg,GW/hat.jpg,,,,,,,,,,,,
1618.6000000238419,,rt_thecrossant_black,527071,black_plus_sign,,,,50,,,0.9736842105263158,1,,,,,,,,,,
null,,color_black,527173,black_plus_sign,,,,null,,,,,,,,,,,,,,
null,,learn_phase(without_color),529175,black_plus_sign,,,,null,GW/globe.jpg,GW/gong.jpg,,,,,,,,,,,,
null,,black_cross(without_color),530102,green,,,,null,GW/globe.jpg,GW/gong.jpg,,,,,,,,,,,,
null,,rt_plussign_withcolor,530604,green,,,,null,GW/globe.jpg,GW/gong.jpg,,,,,,,,,,,,
1847,,rt_thecrossant_black,531681,black_plus_sign,,,,50,,,0.9743589743589743,1,,,,,,,,,,
null,,color_black,531783,black_plus_sign,,,,null,,,,,,,,,,,,,,
null,,learn_phase(without_color),533784,black_plus_sign,,,,null,GW/globe.jpg,GW/dustpan.jpg,,,,,,,,,,,,
null,,black_cross(without_color),534516,blue,,,,null,GW/globe.jpg,GW/dustpan.jpg,,,,,,,,,,,,
null,,rt_plussign_withcolor,535017,blue,,,,null,GW/globe.jpg,GW/dustpan.jpg,,,,,,,,,,,,
1741.3999999761581,,rt_thecrossant_black,536289,black_plus_sign,,,,49,,,0.975,1,,,,,,,,,,
null,,color_black,536391,black_plus_sign,,,,null,,,,,,,,,,,,,,
null,,learn_phase(without_color),538393,black_plus_sign,,,,null,GW/jukebox.jpg,GW/hat.jpg,,,,,,,,,,,,
null,,black_cross(without_color),538879,blue,,,,null,GW/jukebox.jpg,GW/hat.jpg,,,,,,,,,,,,
null,,rt_plussign_withcolor,539381,blue,,,,null,GW/jukebox.jpg,GW/hat.jpg,,,,,,,,,,,,
1590.2999999523163,,rt_thecrossant_black,540897,black_plus_sign,,,,49,,,0.975609756097561,1,,,,,,,,,,
null,,color_black,540999,black_plus_sign,,,,null,,,,,,,,,,,,,,
null,,learn_phase(without_color),543001,black_plus_sign,,,,null,GW/basket.jpg,GW/snail.jpg,,,,,,,,,,,,
null,,black_cross(without_color),543923,blue,,,,null,GW/basket.jpg,GW/snail.jpg,,,,,,,,,,,,
null,,rt_plussign_withcolor,544424,blue,,,,null,GW/basket.jpg,GW/snail.jpg,,,,,,,,,,,,
1132.3999999761581,,rt_thecrossant_black,545520,black_plus_sign,,,,49,,,0.9761904761904762,1,,,,,,,,,,
null,,color_black,545623,black_plus_sign,,,,null,,,,,,,,,,,,,,
null,,learn_phase(without_color),547625,black_plus_sign,,,,null,GW/gong.jpg,GW/hat.jpg,,,,,,,,,,,,
null,,black_cross(without_color),548082,blue,,,,null,GW/gong.jpg,GW/hat.jpg,,,,,,,,,,,,
null,,rt_plussign_withcolor,548583,blue,,,,null,GW/gong.jpg,GW/hat.jpg,,,,,,,,,,,,
1859.8000000715256,,rt_thecrossant_black,550140,black_plus_sign,,,,49,,,0.9767441860465116,1,,,,,,,,,,
null,,color_black,550242,black_plus_sign,,,,null,,,,,,,,,,,,,,
null,,learn_phase(without_color),552244,black_plus_sign,,,,null,GW/barrel.jpg,GW/jukebox.jpg,,,,,,,,,,,,
null,,black_cross(without_color),553183,blue,,,,null,GW/barrel.jpg,GW/jukebox.jpg,,,,,,,,,,,,
null,,rt_plussign_withcolor,553685,blue,,,,null,GW/barrel.jpg,GW/jukebox.jpg,,,,,,,,,,,,
1073.3000000715256,,rt_thecrossant_black,554751,black_plus_sign,,,,49,,,0.9772727272727273,1,,,,,,,,,,
null,,color_black,554852,black_plus_sign,,,,null,,,,,,,,,,,,,,
null,,learn_phase(without_color),556854,black_plus_sign,,,,null,GW/gong.jpg,GW/hat.jpg,,,,,,,,,,,,
null,,black_cross(without_color),557684,green,,,,null,GW/gong.jpg,GW/hat.jpg,,,,,,,,,,,,
null,,rt_plussign_withcolor,558186,green,,,,null,GW/gong.jpg,GW/hat.jpg,,,,,,,,,,,,
1766.1000000238419,,rt_thecrossant_black,559361,black_plus_sign,,,,50,,,0.9777777777777777,1,,,,,,,,,,
null,,color_black,559477,black_plus_sign,,,,null,,,,,,,,,,,,,,
null,,learn_phase(without_color),561480,black_plus_sign,,,,null,GW/basket.jpg,GW/snail.jpg,,,,,,,,,,,,
null,,black_cross(without_color),562274,blue,,,,null,GW/basket.jpg,GW/snail.jpg,,,,,,,,,,,,
null,,rt_plussign_withcolor,562776,blue,,,,null,GW/basket.jpg,GW/snail.jpg,,,,,,,,,,,,
1865.8999999761581,,rt_thecrossant_black,563984,black_plus_sign,,,,49,,,0.9782608695652174,1,,,,,,,,,,
null,,color_black,564086,black_plus_sign,,,,null,,,,,,,,,,,,,,
null,,learn_phase(without_color),566089,black_plus_sign,,,,null,GW/jukebox.jpg,GW/hat.jpg,,,,,,,,,,,,
null,,black_cross(without_color),566742,blue,,,,null,GW/jukebox.jpg,GW/hat.jpg,,,,,,,,,,,,
null,,rt_plussign_withcolor,567243,blue,,,,null,GW/jukebox.jpg,GW/hat.jpg,,,,,,,,,,,,
1707.1000000238419,,rt_thecrossant_black,568594,black_plus_sign,,,,49,,,0.9787234042553191,1,,,,,,,,,,
null,,color_black,568696,black_plus_sign,,,,null,,,,,,,,,,,,,,
null,,learn_phase(without_color),570698,black_plus_sign,,,,null,GW/basket.jpg,GW/gong.jpg,,,,,,,,,,,,
null,,black_cross(without_color),571612,blue,,,,null,GW/basket.jpg,GW/gong.jpg,,,,,,,,,,,,
null,,rt_plussign_withcolor,572114,blue,,,,null,GW/basket.jpg,GW/gong.jpg,,,,,,,,,,,,
1552,,rt_thecrossant_black,573203,black_plus_sign,,,,49,,,0.9791666666666666,1,,,,,,,,,,
null,,color_black,573304,black_plus_sign,,,,null,,,,,,,,,,,,,,
null,,learn_phase(without_color),575306,black_plus_sign,,,,null,GW/camera.jpg,GW/paint.jpg,,,,,,,,,,,,
null,,black_cross(without_color),575757,blue,,,,null,GW/camera.jpg,GW/paint.jpg,,,,,,,,,,,,
null,,rt_plussign_withcolor,576259,blue,,,,null,GW/camera.jpg,GW/paint.jpg,,,,,,,,,,,,
1766.8000000715256,,rt_thecrossant_black,577812,black_plus_sign,,,,49,,,0.9795918367346939,1,,,,,,,,,,
null,,color_black,577914,black_plus_sign,,,,null,,,,,,,,,,,,,,
null,,learn_phase(without_color),579916,black_plus_sign,,,,null,GW/barrel.jpg,GW/camera.jpg,,,,,,,,,,,,
null,,black_cross(without_color),580318,green,,,,null,GW/barrel.jpg,GW/camera.jpg,,,,,,,,,,,,
null,,rt_plussign_withcolor,580820,green,,,,null,GW/barrel.jpg,GW/camera.jpg,,,,,,,,,,,,
1357.6999999284744,,rt_thecrossant_black,582420,black_plus_sign,,,,50,,,0.98,1,,,,,,,,,,
null,,color_black,582523,black_plus_sign,,,,null,,,,,,,,,,,,,,
null,,learn_phase(without_color),584524,black_plus_sign,,,,null,GW/globe.jpg,GW/gong.jpg,,,,,,,,,,,,
null,,black_cross(without_color),585582,blue,,,,null,GW/globe.jpg,GW/gong.jpg,,,,,,,,,,,,
null,,rt_plussign_withcolor,586092,blue,,,,null,GW/globe.jpg,GW/gong.jpg,,,,,,,,,,,,
1257.6999999284744,,rt_thecrossant_black,587038,black_plus_sign,,,,49,,,0.9803921568627451,1,,,,,,,,,,
null,,color_black,587140,black_plus_sign,,,,null,,,,,,,,,,,,,,
null,,learn_phase(without_color),589142,black_plus_sign,,,,null,GW/hat.jpg,GW/wheelchair.jpg,,,,,,,,,,,,
null,,black_cross(without_color),590072,green,,,,null,GW/hat.jpg,GW/wheelchair.jpg,,,,,,,,,,,,
null,,rt_plussign_withcolor,590574,green,,,,null,GW/hat.jpg,GW/wheelchair.jpg,,,,,,,,,,,,
1982.1000000238419,,rt_thecrossant_black,591649,black_plus_sign,,,,50,,,0.9807692307692307,1,,,,,,,,,,
null,,color_black,591750,black_plus_sign,,,,null,,,,,,,,,,,,,,
null,,learn_phase(without_color),593752,black_plus_sign,,,,null,GW/jukebox.jpg,GW/basket.jpg,,,,,,,,,,,,
null,,black_cross(without_color),594404,green,,,,null,GW/jukebox.jpg,GW/basket.jpg,,,,,,,,,,,,
null,,rt_plussign_withcolor,594905,green,,,,null,GW/jukebox.jpg,GW/basket.jpg,,,,,,,,,,,,
1914.6000000238419,,rt_thecrossant_black,596257,black_plus_sign,,,,50,,,0.9811320754716981,1,,,,,,,,,,
null,,color_black,596358,black_plus_sign,,,,null,,,,,,,,,,,,,,
null,,learn_phase(without_color),598361,black_plus_sign,,,,null,GW/gong.jpg,GW/hat.jpg,,,,,,,,,,,,
null,,black_cross(without_color),599401,green,,,,null,GW/gong.jpg,GW/hat.jpg,,,,,,,,,,,,
null,,rt_plussign_withcolor,599903,green,,,,null,GW/gong.jpg,GW/hat.jpg,,,,,,,,,,,,
1568.6000000238419,,rt_thecrossant_black,600868,black_plus_sign,,,,50,,,0.9814814814814815,1,,,,,,,,,,
null,,color_black,600970,black_plus_sign,,,,null,,,,,,,,,,,,,,
null,,learn_phase(without_color),602971,black_plus_sign,,,,null,GW/camera.jpg,GW/wheelchair.jpg,,,,,,,,,,,,
null,,black_cross(without_color),603834,green,,,,null,GW/camera.jpg,GW/wheelchair.jpg,,,,,,,,,,,,
null,,rt_plussign_withcolor,604336,green,,,,null,GW/camera.jpg,GW/wheelchair.jpg,,,,,,,,,,,,
2265.899999976158,,rt_thecrossant_black,605476,black_plus_sign,,,,50,,,0.9818181818181818,1,,,,,,,,,,
null,,color_black,605578,black_plus_sign,,,,null,,,,,,,,,,,,,,
null,,learn_phase(without_color),607581,black_plus_sign,,,,null,GW/jukebox.jpg,GW/basket.jpg,,,,,,,,,,,,
null,,black_cross(without_color),608406,green,,,,null,GW/jukebox.jpg,GW/basket.jpg,,,,,,,,,,,,
null,,rt_plussign_withcolor,608908,green,,,,null,GW/jukebox.jpg,GW/basket.jpg,,,,,,,,,,,,
1633,,rt_thecrossant_black,610087,black_plus_sign,,,,50,,,0.9821428571428571,1,,,,,,,,,,
null,,color_black,610202,black_plus_sign,,,,null,,,,,,,,,,,,,,
null,,learn_phase(without_color),612204,black_plus_sign,,,,null,GW/hat.jpg,GW/wheelchair.jpg,,,,,,,,,,,,
null,,black_cross(without_color),613165,blue,,,,null,GW/hat.jpg,GW/wheelchair.jpg,,,,,,,,,,,,
null,,rt_plussign_withcolor,613668,blue,,,,null,GW/hat.jpg,GW/wheelchair.jpg,,,,,,,,,,,,
1577.2999999523163,,rt_thecrossant_black,614710,black_plus_sign,,,,49,,,0.9824561403508771,1,,,,,,,,,,
null,,color_black,614813,black_plus_sign,,,,null,,,,,,,,,,,,,,
null,,learn_phase(without_color),616816,black_plus_sign,,,,null,GW/gong.jpg,GW/hat.jpg,,,,,,,,,,,,
null,,black_cross(without_color),617299,blue,,,,null,GW/gong.jpg,GW/hat.jpg,,,,,,,,,,,,
null,,rt_plussign_withcolor,617800,blue,,,,null,GW/gong.jpg,GW/hat.jpg,,,,,,,,,,,,
1911.3999999761581,,rt_thecrossant_black,619320,black_plus_sign,,,,49,,,0.9827586206896551,1,,,,,,,,,,
null,,color_black,619423,black_plus_sign,,,,null,,,,,,,,,,,,,,
null,,learn_phase(without_color),621425,black_plus_sign,,,,null,GW/basket.jpg,GW/gong.jpg,,,,,,,,,,,,
null,,black_cross(without_color),622525,blue,,,,null,GW/basket.jpg,GW/gong.jpg,,,,,,,,,,,,
null,,rt_plussign_withcolor,623027,blue,,,,null,GW/basket.jpg,GW/gong.jpg,,,,,,,,,,,,
1316.2999999523163,,rt_thecrossant_black,623931,black_plus_sign,,,,49,,,0.9830508474576272,1,,,,,,,,,,
null,,color_black,624033,black_plus_sign,,,,null,,,,,,,,,,,,,,
null,,learn_phase(without_color),626036,black_plus_sign,,,,null,GW/jukebox.jpg,GW/hat.jpg,,,,,,,,,,,,
null,,black_cross(without_color),626623,green,,,,null,GW/jukebox.jpg,GW/hat.jpg,,,,,,,,,,,,
null,,rt_plussign_withcolor,627125,green,,,,null,GW/jukebox.jpg,GW/hat.jpg,,,,,,,,,,,,
1922.8999999761581,,rt_thecrossant_black,628541,black_plus_sign,,,,50,,,0.9833333333333333,1,,,,,,,,,,
null,,color_black,628642,black_plus_sign,,,,null,,,,,,,,,,,,,,
null,,learn_phase(without_color),630645,black_plus_sign,,,,null,GW/snail.jpg,GW/globe.jpg,,,,,,,,,,,,
null,,black_cross(without_color),631078,green,,,,null,GW/snail.jpg,GW/globe.jpg,,,,,,,,,,,,
null,,rt_plussign_withcolor,631580,green,,,,null,GW/snail.jpg,GW/globe.jpg,,,,,,,,,,,,
1792.8999999761581,,rt_thecrossant_black,633150,black_plus_sign,,,,50,,,0.9836065573770492,1,,,,,,,,,,
null,,color_black,633253,black_plus_sign,,,,null,,,,,,,,,,,,,,
null,,learn_phase(without_color),635255,black_plus_sign,,,,null,GW/snail.jpg,GW/teeth.jpg,,,,,,,,,,,,
null,,black_cross(without_color),635671,blue,,,,null,GW/snail.jpg,GW/teeth.jpg,,,,,,,,,,,,
null,,rt_plussign_withcolor,636173,blue,,,,null,GW/snail.jpg,GW/teeth.jpg,,,,,,,,,,,,
1157.8000000715256,,rt_thecrossant_black,637760,black_plus_sign,,,,49,,,0.9838709677419355,1,,,,,,,,,,
null,,color_black,637862,black_plus_sign,,,,null,,,,,,,,,,,,,,
null,,learn_phase(without_color),639864,black_plus_sign,,,,null,GW/camera.jpg,GW/paint.jpg,,,,,,,,,,,,
null,,black_cross(without_color),640572,green,,,,null,GW/camera.jpg,GW/paint.jpg,,,,,,,,,,,,
null,,rt_plussign_withcolor,641074,green,,,,null,GW/camera.jpg,GW/paint.jpg,,,,,,,,,,,,
1310.1000000238419,,rt_thecrossant_black,642370,black_plus_sign,,,,50,,,0.9841269841269841,1,,,,,,,,,,
null,,color_black,642472,black_plus_sign,,,,null,,,,,,,,,,,,,,
null,,learn_phase(without_color),644474,black_plus_sign,,,,null,GW/jukebox.jpg,GW/basket.jpg,,,,,,,,,,,,
null,,black_cross(without_color),645005,blue,,,,null,GW/jukebox.jpg,GW/basket.jpg,,,,,,,,,,,,
null,,rt_plussign_withcolor,645507,blue,,,,null,GW/jukebox.jpg,GW/basket.jpg,,,,,,,,,,,,
1636.3000000715256,,rt_thecrossant_black,646986,black_plus_sign,,,,49,,,0.984375,1,,,,,,,,,,
null,,color_black,647096,black_plus_sign,,,,null,,,,,,,,,,,,,,
null,,learn_phase(without_color),649098,black_plus_sign,,,,null,GW/camera.jpg,GW/wheelchair.jpg,,,,,,,,,,,,
null,,black_cross(without_color),649509,blue,,,,null,GW/camera.jpg,GW/wheelchair.jpg,,,,,,,,,,,,
null,,rt_plussign_withcolor,650010,blue,,,,null,GW/camera.jpg,GW/wheelchair.jpg,,,,,,,,,,,,
1462.6000000238419,,rt_thecrossant_black,651604,black_plus_sign,,,,49,,,0.9846153846153847,1,,,,,,,,,,
null,,color_black,651706,black_plus_sign,,,,null,,,,,,,,,,,,,,
null,,learn_phase(without_color),653708,black_plus_sign,,,,null,GW/snail.jpg,GW/globe.jpg,,,,,,,,,,,,
null,,black_cross(without_color),654704,blue,,,,null,GW/snail.jpg,GW/globe.jpg,,,,,,,,,,,,
null,,rt_plussign_withcolor,655206,blue,,,,null,GW/snail.jpg,GW/globe.jpg,,,,,,,,,,,,
1427.1999999284744,,rt_thecrossant_black,656213,black_plus_sign,,,,49,,,0.9848484848484849,1,,,,,,,,,,
null,,color_black,656315,black_plus_sign,,,,null,,,,,,,,,,,,,,
null,,learn_phase(without_color),658316,black_plus_sign,,,,null,GW/soldier.jpg,GW/barrel.jpg,,,,,,,,,,,,
null,,black_cross(without_color),658788,green,,,,null,GW/soldier.jpg,GW/barrel.jpg,,,,,,,,,,,,
null,,rt_plussign_withcolor,659289,green,,,,null,GW/soldier.jpg,GW/barrel.jpg,,,,,,,,,,,,
1945.1999999284744,,rt_thecrossant_black,660822,black_plus_sign,,,,50,,,0.9850746268656716,1,,,,,,,,,,
null,,color_black,660925,black_plus_sign,,,,null,,,,,,,,,,,,,,
null,,learn_phase(without_color),662927,black_plus_sign,,,,null,GW/globe.jpg,GW/gong.jpg,,,,,,,,,,,,
null,,black_cross(without_color),663834,blue,,,,null,GW/globe.jpg,GW/gong.jpg,,,,,,,,,,,,
null,,rt_plussign_withcolor,664337,blue,,,,null,GW/globe.jpg,GW/gong.jpg,,,,,,,,,,,,
1349,,rt_thecrossant_black,665433,black_plus_sign,,,,49,,,0.9852941176470589,1,,,,,,,,,,
null,,color_black,665536,black_plus_sign,,,,null,,,,,,,,,,,,,,
null,,learn_phase(without_color),667538,black_plus_sign,,,,null,GW/snail.jpg,GW/teeth.jpg,,,,,,,,,,,,
null,,black_cross(without_color),667985,green,,,,null,GW/snail.jpg,GW/teeth.jpg,,,,,,,,,,,,
null,,rt_plussign_withcolor,668487,green,,,,null,GW/snail.jpg,GW/teeth.jpg,,,,,,,,,,,,
1991.1000000238419,,rt_thecrossant_black,670044,black_plus_sign,,,,50,,,0.9855072463768116,1,,,,,,,,,,
null,,color_black,670146,black_plus_sign,,,,null,,,,,,,,,,,,,,
null,,learn_phase(without_color),672148,black_plus_sign,,,,null,GW/basket.jpg,GW/gong.jpg,,,,,,,,,,,,
null,,black_cross(without_color),673143,green,,,,null,GW/basket.jpg,GW/gong.jpg,,,,,,,,,,,,
null,,rt_plussign_withcolor,673645,green,,,,null,GW/basket.jpg,GW/gong.jpg,,,,,,,,,,,,
null,,rt_thecrossant_black,674653,black_plus_sign,,,,null,,,0.9855072463768116,,,,,,,,,,,
null,,color_black,674755,black_plus_sign,,,,null,,,,,,,,,,,,,,
null,,learn_phase(without_color),676757,black_plus_sign,,,,null,GW/camera.jpg,GW/paint.jpg,,,,,,,,,,,,
null,,black_cross(without_color),677800,blue,,,,null,GW/camera.jpg,GW/paint.jpg,,,,,,,,,,,,
null,,rt_plussign_withcolor,678302,blue,,,,null,GW/camera.jpg,GW/paint.jpg,,,,,,,,,,,,
1721.5999999046326,,rt_thecrossant_black,679263,black_plus_sign,,,,49,,,0.9857142857142858,1,,,,,,,,,,
null,,color_black,679365,black_plus_sign,,,,null,,,,,,,,,,,,,,
null,,learn_phase(without_color),681367,black_plus_sign,,,,null,GW/basket.jpg,GW/snail.jpg,,,,,,,,,,,,
null,,black_cross(without_color),681857,blue,,,,null,GW/basket.jpg,GW/snail.jpg,,,,,,,,,,,,
null,,rt_plussign_withcolor,682359,blue,,,,null,GW/basket.jpg,GW/snail.jpg,,,,,,,,,,,,
1845.7999999523163,,rt_thecrossant_black,683873,black_plus_sign,,,,49,,,0.9859154929577465,1,,,,,,,,,,
null,,color_black,683975,black_plus_sign,,,,null,,,,,,,,,,,,,,
null,,learn_phase(without_color),685976,black_plus_sign,,,,null,GW/jukebox.jpg,GW/basket.jpg,,,,,,,,,,,,
null,,black_cross(without_color),686928,blue,,,,null,GW/jukebox.jpg,GW/basket.jpg,,,,,,,,,,,,
null,,rt_plussign_withcolor,687430,blue,,,,null,GW/jukebox.jpg,GW/basket.jpg,,,,,,,,,,,,
1304.2999999523163,,rt_thecrossant_black,688482,black_plus_sign,,,,49,,,0.9861111111111112,1,,,,,,,,,,
null,,color_black,688583,black_plus_sign,,,,null,,,,,,,,,,,,,,
null,,learn_phase(without_color),690586,black_plus_sign,,,,null,GW/barrel.jpg,GW/jukebox.jpg,,,,,,,,,,,,
null,,black_cross(without_color),691442,blue,,,,null,GW/barrel.jpg,GW/jukebox.jpg,,,,,,,,,,,,
null,,rt_plussign_withcolor,691945,blue,,,,null,GW/barrel.jpg,GW/jukebox.jpg,,,,,,,,,,,,
1676.1000000238419,,rt_thecrossant_black,693092,black_plus_sign,,,,49,,,0.9863013698630136,1,,,,,,,,,,
null,,color_black,693194,black_plus_sign,,,,null,,,,,,,,,,,,,,
null,,learn_phase(without_color),695196,black_plus_sign,,,,null,GW/basket.jpg,GW/snail.jpg,,,,,,,,,,,,
null,,black_cross(without_color),695693,green,,,,null,GW/basket.jpg,GW/snail.jpg,,,,,,,,,,,,
null,,rt_plussign_withcolor,696194,green,,,,null,GW/basket.jpg,GW/snail.jpg,,,,,,,,,,,,
1596.3999999761581,,rt_thecrossant_black,697701,black_plus_sign,,,,50,,,0.9864864864864865,1,,,,,,,,,,
null,,color_black,697802,black_plus_sign,,,,null,,,,,,,,,,,,,,
null,,learn_phase(without_color),699804,black_plus_sign,,,,null,GW/hat.jpg,GW/wheelchair.jpg,,,,,,,,,,,,
null,,black_cross(without_color),700344,green,,,,null,GW/hat.jpg,GW/wheelchair.jpg,,,,,,,,,,,,
null,,rt_plussign_withcolor,700845,green,,,,null,GW/hat.jpg,GW/wheelchair.jpg,,,,,,,,,,,,
1336.2000000476837,,rt_thecrossant_black,702320,black_plus_sign,,,,50,,,0.9866666666666667,1,,,,,,,,,,
null,,color_black,702422,black_plus_sign,,,,null,,,,,,,,,,,,,,
null,,learn_phase(without_color),704424,black_plus_sign,,,,null,GW/barrel.jpg,GW/camera.jpg,,,,,,,,,,,,
null,,black_cross(without_color),704979,green,,,,null,GW/barrel.jpg,GW/camera.jpg,,,,,,,,,,,,
null,,rt_plussign_withcolor,705480,green,,,,null,GW/barrel.jpg,GW/camera.jpg,,,,,,,,,,,,
1414.4000000953674,,rt_thecrossant_black,706929,black_plus_sign,,,,50,,,0.9868421052631579,1,,,,,,,,,,
null,,color_black,707031,black_plus_sign,,,,null,,,,,,,,,,,,,,
null,,learn_phase(without_color),709034,black_plus_sign,,,,null,GW/snail.jpg,GW/teeth.jpg,,,,,,,,,,,,
null,,black_cross(without_color),709571,green,,,,null,GW/snail.jpg,GW/teeth.jpg,,,,,,,,,,,,
null,,rt_plussign_withcolor,710072,green,,,,null,GW/snail.jpg,GW/teeth.jpg,,,,,,,,,,,,
1419.7999999523163,,rt_thecrossant_black,711539,black_plus_sign,,,,50,,,0.987012987012987,1,,,,,,,,,,
null,,color_black,711642,black_plus_sign,,,,null,,,,,,,,,,,,,,
null,,learn_phase(without_color),713644,black_plus_sign,,,,null,GW/jukebox.jpg,GW/hat.jpg,,,,,,,,,,,,
null,,black_cross(without_color),714598,green,,,,null,GW/jukebox.jpg,GW/hat.jpg,,,,,,,,,,,,
null,,rt_plussign_withcolor,715099,green,,,,null,GW/jukebox.jpg,GW/hat.jpg,,,,,,,,,,,,
1321,,rt_thecrossant_black,716154,black_plus_sign,,,,50,,,0.9871794871794872,1,,,,,,,,,,
null,,color_black,716257,black_plus_sign,,,,null,,,,,,,,,,,,,,
null,,learn_phase(without_color),718259,black_plus_sign,,,,null,GW/globe.jpg,GW/dustpan.jpg,,,,,,,,,,,,
null,,black_cross(without_color),718749,blue,,,,null,GW/globe.jpg,GW/dustpan.jpg,,,,,,,,,,,,
null,,rt_plussign_withcolor,719257,blue,,,,null,GW/globe.jpg,GW/dustpan.jpg,,,,,,,,,,,,
1642,,rt_thecrossant_black,720771,black_plus_sign,,,,49,,,0.9873417721518988,1,,,,,,,,,,
null,,color_black,720873,black_plus_sign,,,,null,,,,,,,,,,,,,,
null,,learn_phase(without_color),722875,black_plus_sign,,,,null,GW/jukebox.jpg,GW/hat.jpg,,,,,,,,,,,,
null,,black_cross(without_color),723734,green,,,,null,GW/jukebox.jpg,GW/hat.jpg,,,,,,,,,,,,
null,,rt_plussign_withcolor,724236,green,,,,null,GW/jukebox.jpg,GW/hat.jpg,,,,,,,,,,,,
1352.7999999523163,,rt_thecrossant_black,725380,black_plus_sign,,,,50,,,0.9875,1,,,,,,,,,,
null,,color_black,725482,black_plus_sign,,,,null,,,,,,,,,,,,,,
null,,learn_phase(without_color),727483,black_plus_sign,,,,null,GW/hat.jpg,GW/wheelchair.jpg,,,,,,,,,,,,
null,,black_cross(without_color),728479,green,,,,null,GW/hat.jpg,GW/wheelchair.jpg,,,,,,,,,,,,
null,,rt_plussign_withcolor,728990,green,,,,null,GW/hat.jpg,GW/wheelchair.jpg,,,,,,,,,,,,
1521.8999999761581,,rt_thecrossant_black,729998,black_plus_sign,,,,50,,,0.9876543209876543,1,,,,,,,,,,
null,,color_black,730100,black_plus_sign,,,,null,,,,,,,,,,,,,,
null,,learn_phase(without_color),732102,black_plus_sign,,,,null,GW/snail.jpg,GW/globe.jpg,,,,,,,,,,,,
null,,black_cross(without_color),732557,green,,,,null,GW/snail.jpg,GW/globe.jpg,,,,,,,,,,,,
null,,rt_plussign_withcolor,733059,green,,,,null,GW/snail.jpg,GW/globe.jpg,,,,,,,,,,,,
1692,,rt_thecrossant_black,734615,black_plus_sign,,,,50,,,0.9878048780487805,1,,,,,,,,,,
null,,color_black,734717,black_plus_sign,,,,null,,,,,,,,,,,,,,
null,,learn_phase(without_color),736720,black_plus_sign,,,,null,GW/basket.jpg,GW/gong.jpg,,,,,,,,,,,,
null,,black_cross(without_color),737704,blue,,,,null,GW/basket.jpg,GW/gong.jpg,,,,,,,,,,,,
null,,rt_plussign_withcolor,738205,blue,,,,null,GW/basket.jpg,GW/gong.jpg,,,,,,,,,,,,
1184.8000000715256,,rt_thecrossant_black,739229,black_plus_sign,,,,49,,,0.9879518072289156,1,,,,,,,,,,
null,,color_black,739331,black_plus_sign,,,,null,,,,,,,,,,,,,,
null,,learn_phase(without_color),741333,black_plus_sign,,,,null,GW/jukebox.jpg,GW/basket.jpg,,,,,,,,,,,,
null,,black_cross(without_color),741958,green,,,,null,GW/jukebox.jpg,GW/basket.jpg,,,,,,,,,,,,
null,,rt_plussign_withcolor,742460,green,,,,null,GW/jukebox.jpg,GW/basket.jpg,,,,,,,,,,,,
1766.8999999761581,,rt_thecrossant_black,743839,black_plus_sign,,,,50,,,0.9880952380952381,1,,,,,,,,,,
null,,color_black,743941,black_plus_sign,,,,null,,,,,,,,,,,,,,
null,,learn_phase(without_color),745943,black_plus_sign,,,,null,GW/hat.jpg,GW/wheelchair.jpg,,,,,,,,,,,,
null,,black_cross(without_color),746691,blue,,,,null,GW/hat.jpg,GW/wheelchair.jpg,,,,,,,,,,,,
null,,rt_plussign_withcolor,747193,blue,,,,null,GW/hat.jpg,GW/wheelchair.jpg,,,,,,,,,,,,
1334.3999999761581,,rt_thecrossant_black,748449,black_plus_sign,,,,49,,,0.9882352941176471,1,,,,,,,,,,
null,,color_black,748550,black_plus_sign,,,,null,,,,,,,,,,,,,,
null,,learn_phase(without_color),750553,black_plus_sign,,,,null,GW/globe.jpg,GW/gong.jpg,,,,,,,,,,,,
null,,black_cross(without_color),751552,blue,,,,null,GW/globe.jpg,GW/gong.jpg,,,,,,,,,,,,
null,,rt_plussign_withcolor,752054,blue,,,,null,GW/globe.jpg,GW/gong.jpg,,,,,,,,,,,,
1444.1000000238419,,rt_thecrossant_black,753057,black_plus_sign,,,,49,,,0.9883720930232558,1,,,,,,,,,,
null,,color_black,753159,black_plus_sign,,,,null,,,,,,,,,,,,,,
null,,learn_phase(without_color),755162,black_plus_sign,,,,null,GW/basket.jpg,GW/snail.jpg,,,,,,,,,,,,
null,,black_cross(without_color),755621,green,,,,null,GW/basket.jpg,GW/snail.jpg,,,,,,,,,,,,
null,,rt_plussign_withcolor,756123,green,,,,null,GW/basket.jpg,GW/snail.jpg,,,,,,,,,,,,
1723.2000000476837,,rt_thecrossant_black,757668,black_plus_sign,,,,50,,,0.9885057471264368,1,,,,,,,,,,
null,,color_black,757770,black_plus_sign,,,,null,,,,,,,,,,,,,,
null,,learn_phase(without_color),759773,black_plus_sign,,,,null,GW/snail.jpg,GW/gong.jpg,,,,,,,,,,,,
null,,black_cross(without_color),760348,green,,,,null,GW/snail.jpg,GW/gong.jpg,,,,,,,,,,,,
null,,rt_plussign_withcolor,760849,green,,,,null,GW/snail.jpg,GW/gong.jpg,,,,,,,,,,,,
1319.6000000238419,,rt_thecrossant_black,762278,black_plus_sign,,,,50,,,0.9886363636363636,1,,,,,,,,,,
null,,color_black,762380,black_plus_sign,,,,null,,,,,,,,,,,,,,
null,,learn_phase(without_color),764383,black_plus_sign,,,,null,GW/globe.jpg,GW/gong.jpg,,,,,,,,,,,,
null,,black_cross(without_color),765424,green,,,,null,GW/globe.jpg,GW/gong.jpg,,,,,,,,,,,,
null,,rt_plussign_withcolor,765925,green,,,,null,GW/globe.jpg,GW/gong.jpg,,,,,,,,,,,,
null,,rt_thecrossant_black,766887,black_plus_sign,,,,null,,,0.9886363636363636,,,,,,,,,,,
null,,color_black,766990,black_plus_sign,,,,null,,,,,,,,,,,,,,
null,,learn_phase(without_color),768992,black_plus_sign,,,,null,GW/basket.jpg,GW/snail.jpg,,,,,,,,,,,,
null,,black_cross(without_color),769944,blue,,,,null,GW/basket.jpg,GW/snail.jpg,,,,,,,,,,,,
null,,rt_plussign_withcolor,770445,blue,,,,null,GW/basket.jpg,GW/snail.jpg,,,,,,,,,,,,
1932.6000000238419,,rt_thecrossant_black,771496,black_plus_sign,,,,49,,,0.9887640449438202,1,,,,,,,,,,
null,,color_black,771609,black_plus_sign,,,,null,,,,,,,,,,,,,,
null,,learn_phase(without_color),773612,black_plus_sign,,,,null,GW/globe.jpg,GW/dustpan.jpg,,,,,,,,,,,,
null,,black_cross(without_color),774094,green,,,,null,GW/globe.jpg,GW/dustpan.jpg,,,,,,,,,,,,
null,,rt_plussign_withcolor,774596,green,,,,null,GW/globe.jpg,GW/dustpan.jpg,,,,,,,,,,,,
1749.1000000238419,,rt_thecrossant_black,776117,black_plus_sign,,,,50,,,0.9888888888888889,1,,,,,,,,,,
null,,color_black,776219,black_plus_sign,,,,null,,,,,,,,,,,,,,
null,,learn_phase(without_color),778221,black_plus_sign,,,,null,GW/soldier.jpg,GW/barrel.jpg,,,,,,,,,,,,
null,,black_cross(without_color),778961,green,,,,null,GW/soldier.jpg,GW/barrel.jpg,,,,,,,,,,,,
null,,rt_plussign_withcolor,779463,green,,,,null,GW/soldier.jpg,GW/barrel.jpg,,,,,,,,,,,,
1272.1000000238419,,rt_thecrossant_black,780727,black_plus_sign,,,,50,,,0.989010989010989,1,,,,,,,,,,
null,,color_black,780843,black_plus_sign,,,,null,,,,,,,,,,,,,,
null,,learn_phase(without_color),782845,black_plus_sign,,,,null,GW/globe.jpg,GW/dustpan.jpg,,,,,,,,,,,,
null,,black_cross(without_color),783463,green,,,,null,GW/globe.jpg,GW/dustpan.jpg,,,,,,,,,,,,
null,,rt_plussign_withcolor,783964,green,,,,null,GW/globe.jpg,GW/dustpan.jpg,,,,,,,,,,,,
1613,,rt_thecrossant_black,785350,black_plus_sign,,,,50,,,0.9891304347826086,1,,,,,,,,,,
null,,color_black,785452,black_plus_sign,,,,null,,,,,,,,,,,,,,
null,,learn_phase(without_color),787454,black_plus_sign,,,,null,GW/snail.jpg,GW/gong.jpg,,,,,,,,,,,,
null,,black_cross(without_color),787937,blue,,,,null,GW/snail.jpg,GW/gong.jpg,,,,,,,,,,,,
null,,rt_plussign_withcolor,788439,blue,,,,null,GW/snail.jpg,GW/gong.jpg,,,,,,,,,,,,
1368.3999999761581,,rt_thecrossant_black,789959,black_plus_sign,,,,49,,,0.989247311827957,1,,,,,,,,,,
null,,color_black,790061,black_plus_sign,,,,null,,,,,,,,,,,,,,
null,,learn_phase(without_color),792063,black_plus_sign,,,,null,GW/soldier.jpg,GW/barrel.jpg,,,,,,,,,,,,
null,,black_cross(without_color),792691,blue,,,,null,GW/soldier.jpg,GW/barrel.jpg,,,,,,,,,,,,
null,,rt_plussign_withcolor,793193,blue,,,,null,GW/soldier.jpg,GW/barrel.jpg,,,,,,,,,,,,
1287.7000000476837,,rt_thecrossant_black,794569,black_plus_sign,,,,49,,,0.9893617021276596,1,,,,,,,,,,
null,,color_black,794672,black_plus_sign,,,,null,,,,,,,,,,,,,,
null,,learn_phase(without_color),796674,black_plus_sign,,,,null,GW/snail.jpg,GW/gong.jpg,,,,,,,,,,,,
null,,black_cross(without_color),797302,green,,,,null,GW/snail.jpg,GW/gong.jpg,,,,,,,,,,,,
null,,rt_plussign_withcolor,797804,green,,,,null,GW/snail.jpg,GW/gong.jpg,,,,,,,,,,,,
1491.8999999761581,,rt_thecrossant_black,799180,black_plus_sign,,,,50,,,0.9894736842105263,1,,,,,,,,,,
null,,color_black,799282,black_plus_sign,,,,null,,,,,,,,,,,,,,
null,,learn_phase(without_color),801285,black_plus_sign,,,,null,GW/jukebox.jpg,GW/basket.jpg,,,,,,,,,,,,
null,,black_cross(without_color),801713,green,,,,null,GW/jukebox.jpg,GW/basket.jpg,,,,,,,,,,,,
null,,rt_plussign_withcolor,802215,green,,,,null,GW/jukebox.jpg,GW/basket.jpg,,,,,,,,,,,,
1523.6999999284744,,rt_thecrossant_black,803790,black_plus_sign,,,,50,,,0.9895833333333334,1,,,,,,,,,,
null,,color_black,803893,black_plus_sign,,,,null,,,,,,,,,,,,,,
null,,learn_phase(without_color),805896,black_plus_sign,,,,null,GW/globe.jpg,GW/dustpan.jpg,,,,,,,,,,,,
null,,black_cross(without_color),806589,green,,,,null,GW/globe.jpg,GW/dustpan.jpg,,,,,,,,,,,,
null,,rt_plussign_withcolor,807091,green,,,,null,GW/globe.jpg,GW/dustpan.jpg,,,,,,,,,,,,
1231.3000000715256,,rt_thecrossant_black,808409,black_plus_sign,,,,50,,,0.9896907216494846,1,,,,,,,,,,
null,,color_black,808511,black_plus_sign,,,,null,,,,,,,,,,,,,,
null,,learn_phase(without_color),810512,black_plus_sign,,,,null,GW/snail.jpg,GW/gong.jpg,,,,,,,,,,,,
null,,black_cross(without_color),811334,green,,,,null,GW/snail.jpg,GW/gong.jpg,,,,,,,,,,,,
null,,rt_plussign_withcolor,811835,green,,,,null,GW/snail.jpg,GW/gong.jpg,,,,,,,,,,,,
1594.2000000476837,,rt_thecrossant_black,813018,black_plus_sign,,,,50,,,0.9897959183673469,1,,,,,,,,,,
null,,color_black,813120,black_plus_sign,,,,null,,,,,,,,,,,,,,
null,,learn_phase(without_color),815122,black_plus_sign,,,,null,GW/camera.jpg,GW/wheelchair.jpg,,,,,,,,,,,,
null,,black_cross(without_color),815583,blue,,,,null,GW/camera.jpg,GW/wheelchair.jpg,,,,,,,,,,,,
null,,rt_plussign_withcolor,816085,blue,,,,null,GW/camera.jpg,GW/wheelchair.jpg,,,,,,,,,,,,
1613.6000000238419,,rt_thecrossant_black,817636,black_plus_sign,,,,49,,,0.98989898989899,1,,,,,,,,,,
null,,color_black,817741,black_plus_sign,,,,null,,,,,,,,,,,,,,
null,,learn_phase(without_color),819745,black_plus_sign,,,,null,GW/jukebox.jpg,GW/hat.jpg,,,,,,,,,,,,
null,,black_cross(without_color),820645,blue,,,,null,GW/jukebox.jpg,GW/hat.jpg,,,,,,,,,,,,
null,,rt_plussign_withcolor,821157,blue,,,,null,GW/jukebox.jpg,GW/hat.jpg,,,,,,,,,,,,
1260.3000000715256,,rt_thecrossant_black,822260,black_plus_sign,,,,49,,,0.99,1,,,,,,,,,,
null,,color_black,822362,black_plus_sign,,,,null,,,,,,,,,,,,,,
null,,learn_phase(without_color),824364,black_plus_sign,,,,null,GW/globe.jpg,GW/gong.jpg,,,,,,,,,,,,
null,,black_cross(without_color),824916,blue,,,,null,GW/globe.jpg,GW/gong.jpg,,,,,,,,,,,,
null,,rt_plussign_withcolor,825418,blue,,,,null,GW/globe.jpg,GW/gong.jpg,,,,,,,,,,,,
1918.8000000715256,,rt_thecrossant_black,826871,black_plus_sign,,,,49,,,0.9900990099009901,1,,,,,,,,,,
null,,color_black,826973,black_plus_sign,,,,null,,,,,,,,,,,,,,
null,,learn_phase(without_color),828974,black_plus_sign,,,,null,GW/globe.jpg,GW/dustpan.jpg,,,,,,,,,,,,
null,,black_cross(without_color),829777,blue,,,,null,GW/globe.jpg,GW/dustpan.jpg,,,,,,,,,,,,
null,,rt_plussign_withcolor,830279,blue,,,,null,GW/globe.jpg,GW/dustpan.jpg,,,,,,,,,,,,
1338.8999999761581,,rt_thecrossant_black,831483,black_plus_sign,,,,49,,,0.9901960784313726,1,,,,,,,,,,
null,,color_black,831586,black_plus_sign,,,,null,,,,,,,,,,,,,,
null,,learn_phase(without_color),833587,black_plus_sign,,,,null,GW/barrel.jpg,GW/camera.jpg,,,,,,,,,,,,
null,,black_cross(without_color),834372,green,,,,null,GW/barrel.jpg,GW/camera.jpg,,,,,,,,,,,,
null,,rt_plussign_withcolor,834873,green,,,,null,GW/barrel.jpg,GW/camera.jpg,,,,,,,,,,,,
1512.7999999523163,,rt_thecrossant_black,836094,black_plus_sign,,,,50,,,0.9902912621359223,1,,,,,,,,,,
null,,color_black,836196,black_plus_sign,,,,null,,,,,,,,,,,,,,
null,,learn_phase(without_color),838198,black_plus_sign,,,,null,GW/barrel.jpg,GW/jukebox.jpg,,,,,,,,,,,,
null,,black_cross(without_color),839071,green,,,,null,GW/barrel.jpg,GW/jukebox.jpg,,,,,,,,,,,,
null,,rt_plussign_withcolor,839573,green,,,,null,GW/barrel.jpg,GW/jukebox.jpg,,,,,,,,,,,,
1486.6000000238419,,rt_thecrossant_black,840704,black_plus_sign,,,,50,,,0.9903846153846154,1,,,,,,,,,,
null,,color_black,840806,black_plus_sign,,,,null,,,,,,,,,,,,,,
null,,learn_phase(without_color),842808,black_plus_sign,,,,null,GW/soldier.jpg,GW/barrel.jpg,,,,,,,,,,,,
null,,black_cross(without_color),843770,green,,,,null,GW/soldier.jpg,GW/barrel.jpg,,,,,,,,,,,,
null,,rt_plussign_withcolor,844272,green,,,,null,GW/soldier.jpg,GW/barrel.jpg,,,,,,,,,,,,
1804.7000000476837,,rt_thecrossant_black,845314,black_plus_sign,,,,50,,,0.9904761904761905,1,,,,,,,,,,
null,,color_black,845416,black_plus_sign,,,,null,,,,,,,,,,,,,,
null,,learn_phase(without_color),847419,black_plus_sign,,,,null,GW/camera.jpg,GW/wheelchair.jpg,,,,,,,,,,,,
null,,black_cross(without_color),848024,blue,,,,null,GW/camera.jpg,GW/wheelchair.jpg,,,,,,,,,,,,
null,,rt_plussign_withcolor,848526,blue,,,,null,GW/camera.jpg,GW/wheelchair.jpg,,,,,,,,,,,,
1861.7999999523163,,rt_thecrossant_black,849934,black_plus_sign,,,,49,,,0.9905660377358491,1,,,,,,,,,,
null,,color_black,850037,black_plus_sign,,,,null,,,,,,,,,,,,,,
null,,learn_phase(without_color),852039,black_plus_sign,,,,null,GW/snail.jpg,GW/teeth.jpg,,,,,,,,,,,,
null,,black_cross(without_color),852958,blue,,,,null,GW/snail.jpg,GW/teeth.jpg,,,,,,,,,,,,
null,,rt_plussign_withcolor,853460,blue,,,,null,GW/snail.jpg,GW/teeth.jpg,,,,,,,,,,,,
1432.7999999523163,,rt_thecrossant_black,854544,black_plus_sign,,,,49,,,0.9906542056074766,1,,,,,,,,,,
null,,color_black,854646,black_plus_sign,,,,null,,,,,,,,,,,,,,
null,,learn_phase(without_color),856648,black_plus_sign,,,,null,GW/snail.jpg,GW/globe.jpg,,,,,,,,,,,,
null,,black_cross(without_color),857656,green,,,,null,GW/snail.jpg,GW/globe.jpg,,,,,,,,,,,,
null,,rt_plussign_withcolor,858159,green,,,,null,GW/snail.jpg,GW/globe.jpg,,,,,,,,,,,,
2007.8999999761581,,rt_thecrossant_black,859154,black_plus_sign,,,,50,,,0.9907407407407407,1,,,,,,,,,,
null,,color_black,859256,black_plus_sign,,,,null,,,,,,,,,,,,,,
null,,learn_phase(without_color),861258,black_plus_sign,,,,null,GW/barrel.jpg,GW/jukebox.jpg,,,,,,,,,,,,
null,,black_cross(without_color),861799,blue,,,,null,GW/barrel.jpg,GW/jukebox.jpg,,,,,,,,,,,,
null,,rt_plussign_withcolor,862301,blue,,,,null,GW/barrel.jpg,GW/jukebox.jpg,,,,,,,,,,,,
1886.6999999284744,,rt_thecrossant_black,863763,black_plus_sign,,,,49,,,0.9908256880733946,1,,,,,,,,,,
null,,color_black,863866,black_plus_sign,,,,null,,,,,,,,,,,,,,
null,,learn_phase(without_color),865869,black_plus_sign,,,,null,GW/barrel.jpg,GW/camera.jpg,,,,,,,,,,,,
null,,black_cross(without_color),866367,blue,,,,null,GW/barrel.jpg,GW/camera.jpg,,,,,,,,,,,,
null,,rt_plussign_withcolor,866869,blue,,,,null,GW/barrel.jpg,GW/camera.jpg,,,,,,,,,,,,
1331.5999999046326,,rt_thecrossant_black,868375,black_plus_sign,,,,49,,,0.990909090909091,1,,,,,,,,,,
null,,color_black,868477,black_plus_sign,,,,null,,,,,,,,,,,,,,
null,,learn_phase(without_color),870480,black_plus_sign,,,,null,GW/basket.jpg,GW/gong.jpg,,,,,,,,,,,,
null,,black_cross(without_color),871163,green,,,,null,GW/basket.jpg,GW/gong.jpg,,,,,,,,,,,,
null,,rt_plussign_withcolor,871665,green,,,,null,GW/basket.jpg,GW/gong.jpg,,,,,,,,,,,,
1544.7000000476837,,rt_thecrossant_black,872989,black_plus_sign,,,,50,,,0.990990990990991,1,,,,,,,,,,
null,,color_black,873090,black_plus_sign,,,,null,,,,,,,,,,,,,,
null,,learn_phase(without_color),875093,black_plus_sign,,,,null,GW/snail.jpg,GW/globe.jpg,,,,,,,,,,,,
null,,black_cross(without_color),875947,blue,,,,null,GW/snail.jpg,GW/globe.jpg,,,,,,,,,,,,
null,,rt_plussign_withcolor,876448,blue,,,,null,GW/snail.jpg,GW/globe.jpg,,,,,,,,,,,,
1566.8999999761581,,rt_thecrossant_black,877598,black_plus_sign,,,,49,,,0.9910714285714286,1,,,,,,,,,,
null,,color_black,877700,black_plus_sign,,,,null,,,,,,,,,,,,,,
null,,learn_phase(without_color),879702,black_plus_sign,,,,null,GW/camera.jpg,GW/wheelchair.jpg,,,,,,,,,,,,
null,,black_cross(without_color),880366,green,,,,null,GW/camera.jpg,GW/wheelchair.jpg,,,,,,,,,,,,
null,,rt_plussign_withcolor,880868,green,,,,null,GW/camera.jpg,GW/wheelchair.jpg,,,,,,,,,,,,
1653.7000000476837,,rt_thecrossant_black,882208,black_plus_sign,,,,50,,,0.9911504424778761,1,,,,,,,,,,
null,,color_black,882311,black_plus_sign,,,,null,,,,,,,,,,,,,,
null,,learn_phase(without_color),884312,black_plus_sign,,,,null,GW/barrel.jpg,GW/camera.jpg,,,,,,,,,,,,
null,,black_cross(without_color),885083,green,,,,null,GW/barrel.jpg,GW/camera.jpg,,,,,,,,,,,,
null,,rt_plussign_withcolor,885585,green,,,,null,GW/barrel.jpg,GW/camera.jpg,,,,,,,,,,,,
1591.1000000238419,,rt_thecrossant_black,886818,black_plus_sign,,,,50,,,0.9912280701754386,1,,,,,,,,,,
null,,color_black,886920,black_plus_sign,,,,null,,,,,,,,,,,,,,
null,,learn_phase(without_color),888922,black_plus_sign,,,,null,GW/snail.jpg,GW/teeth.jpg,,,,,,,,,,,,
null,,black_cross(without_color),889482,blue,,,,null,GW/snail.jpg,GW/teeth.jpg,,,,,,,,,,,,
null,,rt_plussign_withcolor,889984,blue,,,,null,GW/snail.jpg,GW/teeth.jpg,,,,,,,,,,,,
1708,,rt_thecrossant_black,891428,black_plus_sign,,,,49,,,0.991304347826087,1,,,,,,,,,,
null,,color_black,891530,black_plus_sign,,,,null,,,,,,,,,,,,,,
null,,learn_phase(without_color),893532,black_plus_sign,,,,null,GW/barrel.jpg,GW/camera.jpg,,,,,,,,,,,,
null,,black_cross(without_color),894627,green,,,,null,GW/barrel.jpg,GW/camera.jpg,,,,,,,,,,,,
null,,rt_plussign_withcolor,895129,green,,,,null,GW/barrel.jpg,GW/camera.jpg,,,,,,,,,,,,
1361.6000000238419,,rt_thecrossant_black,896038,black_plus_sign,,,,50,,,0.9913793103448276,1,,,,,,,,,,
null,,color_black,896141,black_plus_sign,,,,null,,,,,,,,,,,,,,
null,,learn_phase(without_color),898143,black_plus_sign,,,,null,GW/basket.jpg,GW/gong.jpg,,,,,,,,,,,,
null,,black_cross(without_color),898982,blue,,,,null,GW/basket.jpg,GW/gong.jpg,,,,,,,,,,,,
null,,rt_plussign_withcolor,899484,blue,,,,null,GW/basket.jpg,GW/gong.jpg,,,,,,,,,,,,
1989.1000000238419,,rt_thecrossant_black,900648,black_plus_sign,,,,49,,,0.9914529914529915,1,,,,,,,,,,
null,,color_black,900750,black_plus_sign,,,,null,,,,,,,,,,,,,,
null,,learn_phase(without_color),902752,black_plus_sign,,,,null,GW/snail.jpg,GW/teeth.jpg,,,,,,,,,,,,
null,,black_cross(without_color),903718,blue,,,,null,GW/snail.jpg,GW/teeth.jpg,,,,,,,,,,,,
null,,rt_plussign_withcolor,904219,blue,,,,null,GW/snail.jpg,GW/teeth.jpg,,,,,,,,,,,,
1751.1000000238419,,rt_thecrossant_black,905257,black_plus_sign,,,,49,,,0.9915254237288136,1,,,,,,,,,,
null,,color_black,905359,black_plus_sign,,,,null,,,,,,,,,,,,,,
null,,learn_phase(without_color),907361,black_plus_sign,,,,null,GW/globe.jpg,GW/gong.jpg,,,,,,,,,,,,
null,,black_cross(without_color),907846,blue,,,,null,GW/globe.jpg,GW/gong.jpg,,,,,,,,,,,,
null,,rt_plussign_withcolor,908348,blue,,,,null,GW/globe.jpg,GW/gong.jpg,,,,,,,,,,,,
1685.1000000238419,,rt_thecrossant_black,909876,black_plus_sign,,,,49,,,0.9915966386554622,1,,,,,,,,,,
null,,color_black,909979,black_plus_sign,,,,null,,,,,,,,,,,,,,
null,,learn_phase(without_color),911981,black_plus_sign,,,,null,GW/soldier.jpg,GW/barrel.jpg,,,,,,,,,,,,
null,,black_cross(without_color),912774,blue,,,,null,GW/soldier.jpg,GW/barrel.jpg,,,,,,,,,,,,
null,,rt_plussign_withcolor,913275,blue,,,,null,GW/soldier.jpg,GW/barrel.jpg,,,,,,,,,,,,
1360.1000000238419,,rt_thecrossant_black,914485,black_plus_sign,,,,49,,,0.9916666666666667,1,,,,,,,,,,
null,,color_black,914587,black_plus_sign,,,,null,,,,,,,,,,,,,,
null,,learn_phase(without_color),916589,black_plus_sign,,,,null,GW/gong.jpg,GW/hat.jpg,,,,,,,,,,,,
null,,black_cross(without_color),917172,blue,,,,null,GW/gong.jpg,GW/hat.jpg,,,,,,,,,,,,
null,,rt_plussign_withcolor,917674,blue,,,,null,GW/gong.jpg,GW/hat.jpg,,,,,,,,,,,,
1553,,rt_thecrossant_black,919095,black_plus_sign,,,,49,,,0.9917355371900827,1,,,,,,,,,,
null,,color_black,919197,black_plus_sign,,,,null,,,,,,,,,,,,,,
null,,learn_phase(without_color),921199,black_plus_sign,,,,null,GW/camera.jpg,GW/wheelchair.jpg,,,,,,,,,,,,
null,,black_cross(without_color),922009,green,,,,null,GW/camera.jpg,GW/wheelchair.jpg,,,,,,,,,,,,
null,,rt_plussign_withcolor,922511,green,,,,null,GW/camera.jpg,GW/wheelchair.jpg,,,,,,,,,,,,
1471.6999999284744,,rt_thecrossant_black,923708,black_plus_sign,,,,50,,,0.9918032786885246,1,,,,,,,,,,
null,,color_black,923811,black_plus_sign,,,,null,,,,,,,,,,,,,,
30794.700000047684,,intro_1,954607,instruct,,0,Start,,,,,,,,,,,,,,,
4726.100000023842,,directmemory_phase,959335,GW/paint.jpg,,,,49,,,1,1,GW/camera.jpg,GW/jukebox.jpg,GW/barrel.jpg,GW/camera.jpg,GW/barrel.jpg,GW/jukebox.jpg,1,,,
null,,html-keyboard-response,960337,<p></p>,,,,null,,,,,,,,,,,,,,
6158.100000023842,,directmemory_phase,966496,GW/wheelchair.jpg,,,,51,,,1,1,GW/snail.jpg,GW/jukebox.jpg,GW/hat.jpg,GW/hat.jpg,GW/jukebox.jpg,GW/snail.jpg,1,,,
null,,html-keyboard-response,967498,<p></p>,,,,null,,,,,,,,,,,,,,
2085.6999999284744,,directmemory_phase,969585,GW/dustpan.jpg,,,,49,,,1,1,GW/globe.jpg,GW/jukebox.jpg,GW/snail.jpg,GW/globe.jpg,GW/snail.jpg,GW/jukebox.jpg,1,,,
null,,html-keyboard-response,970587,<p></p>,,,,null,,,,,,,,,,,,,,
null,,directmemory_phase,977089,GW/hat.jpg,,,,null,,,0.75,0,GW/soldier.jpg,GW/snail.jpg,GW/gong.jpg,GW/gong.jpg,GW/snail.jpg,GW/soldier.jpg,0,,,
null,,html-keyboard-response,978092,<p></p>,,,,null,,,,,,,,,,,,,,
2121.8000000715256,,directmemory_phase,980215,GW/globe.jpg,,,,51,,,0.8,1,GW/camera.jpg,GW/basket.jpg,GW/dustpan.jpg,GW/dustpan.jpg,GW/basket.jpg,GW/camera.jpg,1,,,
null,,html-keyboard-response,981225,<p></p>,,,,null,,,,,,,,,,,,,,
2661.1999999284744,,directmemory_phase,983887,GW/hat.jpg,,,,49,,,0.6666666666666666,0,GW/teeth.jpg,GW/barrel.jpg,GW/wheelchair.jpg,GW/wheelchair.jpg,GW/barrel.jpg,GW/teeth.jpg,0.5,closer,,
null,,html-keyboard-response,984889,<p></p>,,,,null,,,,,,,,,,,,,,
2993.899999976158,,directmemory_phase,987884,GW/gong.jpg,,,,50,,,0.5714285714285714,0,GW/camera.jpg,GW/jukebox.jpg,GW/basket.jpg,GW/basket.jpg,GW/jukebox.jpg,GW/camera.jpg,0.5,closer,,
null,,html-keyboard-response,988886,<p></p>,,,,null,,,,,,,,,,,,,,
3337.9000000953674,,directmemory_phase,992225,GW/camera.jpg,,,,49,,,0.5,0,GW/snail.jpg,GW/hat.jpg,GW/barrel.jpg,GW/barrel.jpg,GW/hat.jpg,GW/snail.jpg,0.5,closer,,
null,,html-keyboard-response,993228,<p></p>,,,,null,,,,,,,,,,,,,,
2611.0999999046326,,directmemory_phase,995840,GW/globe.jpg,,,,51,,,0.5555555555555556,1,GW/camera.jpg,GW/teeth.jpg,GW/gong.jpg,GW/gong.jpg,GW/teeth.jpg,GW/camera.jpg,1,,,
null,,html-keyboard-response,996843,<p></p>,,,,null,,,,,,,,,,,,,,
2153.399999976158,,directmemory_phase,998997,GW/basket.jpg,,,,50,,,0.5,0,GW/jukebox.jpg,GW/paint.jpg,GW/teeth.jpg,GW/jukebox.jpg,GW/teeth.jpg,GW/paint.jpg,0.5,closer,,
null,,html-keyboard-response,999999,<p></p>,,,,null,,,,,,,,,,,,,,
3221.399999976158,,directmemory_phase,1003221,GW/gong.jpg,,,,50,,,0.45454545454545453,0,GW/paint.jpg,GW/jukebox.jpg,GW/globe.jpg,GW/globe.jpg,GW/jukebox.jpg,GW/paint.jpg,0.5,closer,,
null,,html-keyboard-response,1004224,<p></p>,,,,null,,,,,,,,,,,,,,
2490.1999999284744,,directmemory_phase,1006715,GW/barrel.jpg,,,,50,,,0.5,1,GW/hat.jpg,GW/jukebox.jpg,GW/teeth.jpg,GW/jukebox.jpg,GW/hat.jpg,GW/teeth.jpg,1,,,
null,,html-keyboard-response,1007716,<p></p>,,,,null,,,,,,,,,,,,,,
2227.5,,directmemory_phase,1009945,GW/wheelchair.jpg,,,,49,,,0.5384615384615384,1,GW/camera.jpg,GW/snail.jpg,GW/gong.jpg,GW/camera.jpg,GW/gong.jpg,GW/snail.jpg,1,,,
null,,html-keyboard-response,1010946,<p></p>,,,,null,,,,,,,,,,,,,,
3164.3000000715256,,directmemory_phase,1014111,GW/jukebox.jpg,,,,51,,,0.5,0,GW/hat.jpg,GW/dustpan.jpg,GW/soldier.jpg,GW/hat.jpg,GW/soldier.jpg,GW/dustpan.jpg,0.5,closer,,
null,,html-keyboard-response,1015113,<p></p>,,,,null,,,,,,,,,,,,,,
2671.6999999284744,,directmemory_phase,1017785,GW/barrel.jpg,,,,49,,,0.4666666666666667,0,GW/basket.jpg,GW/camera.jpg,GW/snail.jpg,GW/camera.jpg,GW/basket.jpg,GW/snail.jpg,0.5,closer,,
null,,html-keyboard-response,1018787,<p></p>,,,,null,,,,,,,,,,,,,,
1474.8000000715256,,directmemory_phase,1020263,GW/basket.jpg,,,,50,,,0.4375,0,GW/snail.jpg,GW/soldier.jpg,GW/hat.jpg,GW/snail.jpg,GW/hat.jpg,GW/soldier.jpg,0.5,closer,,
null,,html-keyboard-response,1021265,<p></p>,,,,null,,,,,,,,,,,,,,
2254.1999999284744,,directmemory_phase,1023521,GW/hat.jpg,,,,51,,,0.47058823529411764,1,GW/teeth.jpg,GW/basket.jpg,GW/jukebox.jpg,GW/jukebox.jpg,GW/basket.jpg,GW/teeth.jpg,1,,,
null,,html-keyboard-response,1024522,<p></p>,,,,null,,,,,,,,,,,,,,
2061.2999999523163,,directmemory_phase,1026585,GW/snail.jpg,,,,50,,,0.4444444444444444,0,GW/soldier.jpg,GW/jukebox.jpg,GW/teeth.jpg,GW/teeth.jpg,GW/jukebox.jpg,GW/soldier.jpg,0.5,closer,,
null,,html-keyboard-response,1027586,<p></p>,,,,null,,,,,,,,,,,,,,
2593.2999999523163,,directmemory_phase,1030181,GW/jukebox.jpg,,,,51,,,0.42105263157894735,0,GW/barrel.jpg,GW/globe.jpg,GW/wheelchair.jpg,GW/barrel.jpg,GW/wheelchair.jpg,GW/globe.jpg,0.5,closer,,
null,,html-keyboard-response,1031192,<p></p>,,,,null,,,,,,,,,,,,,,
1936.5,,directmemory_phase,1033130,GW/globe.jpg,,,,51,,,0.4,0,GW/snail.jpg,GW/wheelchair.jpg,GW/teeth.jpg,GW/snail.jpg,GW/teeth.jpg,GW/wheelchair.jpg,0.5,closer,,
null,,html-keyboard-response,1034132,<p></p>,,,,null,,,,,,,,,,,,,,
2689,,directmemory_phase,1036822,GW/jukebox.jpg,,,,50,,,0.42857142857142855,1,GW/soldier.jpg,GW/basket.jpg,GW/globe.jpg,GW/basket.jpg,GW/soldier.jpg,GW/globe.jpg,1,,,
null,,html-keyboard-response,1037823,<p></p>,,,,null,,,,,,,,,,,,,,
1780.6000000238419,,directmemory_phase,1039605,GW/camera.jpg,,,,49,,,0.45454545454545453,1,GW/wheelchair.jpg,GW/gong.jpg,GW/hat.jpg,GW/wheelchair.jpg,GW/hat.jpg,GW/gong.jpg,1,,,
null,,html-keyboard-response,1040606,<p></p>,,,,null,,,,,,,,,,,,,,
2824.3000000715256,,directmemory_phase,1043431,GW/snail.jpg,,,,49,,,0.43478260869565216,0,GW/camera.jpg,GW/dustpan.jpg,GW/basket.jpg,GW/basket.jpg,GW/dustpan.jpg,GW/camera.jpg,0.5,closer,,
null,,html-keyboard-response,1044433,<p></p>,,,,null,,,,,,,,,,,,,,
2095.899999976158,,directmemory_phase,1046529,GW/gong.jpg,,,,51,,,0.4583333333333333,1,GW/soldier.jpg,GW/teeth.jpg,GW/hat.jpg,GW/hat.jpg,GW/teeth.jpg,GW/soldier.jpg,1,,,
null,,html-keyboard-response,1047532,<p></p>,,,,null,,,,,,,,,,,,,,
2270.600000023842,,directmemory_phase,1049803,GW/teeth.jpg,,,,51,,,0.44,0,GW/snail.jpg,GW/dustpan.jpg,GW/gong.jpg,GW/snail.jpg,GW/gong.jpg,GW/dustpan.jpg,0.5,closer,,
null,,html-keyboard-response,1050806,<p></p>,,,,null,,,,,,,,,,,,,,
2485.899999976158,,directmemory_phase,1053293,GW/basket.jpg,,,,50,,,0.4230769230769231,0,GW/gong.jpg,GW/camera.jpg,GW/barrel.jpg,GW/gong.jpg,GW/barrel.jpg,GW/camera.jpg,0.5,closer,,
null,,html-keyboard-response,1054295,<p></p>,,,,null,,,,,,,,,,,,,,
3599.899999976158,,directmemory_phase,1057896,GW/snail.jpg,,,,50,,,0.4074074074074074,0,GW/camera.jpg,GW/jukebox.jpg,GW/globe.jpg,GW/globe.jpg,GW/jukebox.jpg,GW/camera.jpg,0.5,closer,,
null,,html-keyboard-response,1058898,<p></p>,,,,null,,,,,,,,,,,,,,
2059.100000023842,,directmemory_phase,1060958,GW/soldier.jpg,,,,49,,,0.42857142857142855,1,GW/barrel.jpg,GW/basket.jpg,GW/jukebox.jpg,GW/barrel.jpg,GW/jukebox.jpg,GW/basket.jpg,1,,,
null,,html-keyboard-response,1061972,<p></p>,,,,null,,,,,,,,,,,,,,
1511.6999999284744,,directmemory_phase,1063484,GW/camera.jpg,,,,50,,,0.4482758620689655,1,GW/soldier.jpg,GW/paint.jpg,GW/basket.jpg,GW/paint.jpg,GW/soldier.jpg,GW/basket.jpg,1,,,
null,,html-keyboard-response,1064486,<p></p>,,,,null,,,,,,,,,,,,,,
1514.5,,directmemory_phase,1066001,GW/barrel.jpg,,,,50,,,0.4666666666666667,1,GW/paint.jpg,GW/soldier.jpg,GW/globe.jpg,GW/soldier.jpg,GW/paint.jpg,GW/globe.jpg,1,,,
null,,html-keyboard-response,1067003,<p></p>,,,,null,,,,,,,,,,,,,,
2050,,directmemory_phase,1069054,GW/snail.jpg,,,,50,,,0.45161290322580644,0,GW/camera.jpg,GW/hat.jpg,GW/gong.jpg,GW/gong.jpg,GW/hat.jpg,GW/camera.jpg,0.5,closer,,
null,,html-keyboard-response,1070056,<p></p>,,,,null,,,,,,,,,,,,,,
4045.100000023842,,directmemory_phase,1074102,,,,,51,,,0.46875,1,,,,,,,0.5,closer,,
null,,html-keyboard-response,1075104,<p></p>,,,,null,,,,,,,,,,,,,,
28685.699999928474,,intro_1,1103791,instruct,,0,,,,,,,,,,,,,,,,
10961,,intro_2,1114753,instruct,,1,Next,,,,,,,,,,,,,,,
6910.600000023842,,intro_3,1121665,instruct,,1,Next,,,,,,,,,,,,,,,
12390.5,,intro_4,1134057,instruct,,1,Next,,,,,,,,,,,,,,,
14532.200000047684,,intro_5,1148591,instruct,,1,Next,,,,,,,,,,,,,,,
18386.5,,intro_6,1166979,instruct,,1,Next,,,,,,,,,,,,,,,
28444.100000023842,,intro_7,1195424,instruct,,1,Next,,,,,,,,,,,,,,,
19903.699999928474,,intro_8,1215329,instruct,,1,Next,,,,,,,,,,,,,,,
5708.399999976158,,shortestpath_phase,1221039,GW/teeth.jpg,,,,50,GW/paint.jpg,GW/basket.jpg,1,1,,,,GW/basket.jpg,,,,,Four Edge Diff,Two Edge Six Edge
null,,html-keyboard-response,1222042,<p></p>,,,,null,,,,,,,,,,,,,,
5066.800000071526,,shortestpath_phase,1227110,GW/paint.jpg,,,,49,GW/dustpan.jpg,GW/globe.jpg,0.5,0,,,,GW/globe.jpg,,,,,One Edge Diff,Five Edge Six Edge
null,,html-keyboard-response,1228111,<p></p>,,,,null,,,,,,,,,,,,,,
3152,,shortestpath_phase,1231265,GW/teeth.jpg,,,,50,GW/soldier.jpg,GW/paint.jpg,0.3333333333333333,0,,,,GW/soldier.jpg,,,,,One Edge Diff,Five Edge Six Edge
null,,html-keyboard-response,1232267,<p></p>,,,,null,,,,,,,,,,,,,,
3507.5999999046326,,shortestpath_phase,1235776,GW/globe.jpg,,,,49,GW/camera.jpg,GW/hat.jpg,0.25,0,,,,GW/hat.jpg,,,,,Two Edge Diff,Two Edge Four Edge
null,,html-keyboard-response,1236778,<p></p>,,,,null,,,,,,,,,,,,,,
2946.2999999523163,,shortestpath_phase,1239725,GW/soldier.jpg,,,,50,GW/globe.jpg,GW/snail.jpg,0.4,1,,,,GW/snail.jpg,,,,,One Edge Diff,Four Edge Five Edge
null,,html-keyboard-response,1240736,<p></p>,,,,null,,,,,,,,,,,,,,
2356.1999999284744,,shortestpath_phase,1243093,GW/hat.jpg,,,,49,GW/soldier.jpg,GW/basket.jpg,0.3333333333333333,0,,,,GW/basket.jpg,,,,,One Edge Diff,Two Edge Three Edge
null,,html-keyboard-response,1244096,<p></p>,,,,null,,,,,,,,,,,,,,
3968.600000023842,,shortestpath_phase,1248065,GW/paint.jpg,,,,49,GW/globe.jpg,GW/barrel.jpg,0.2857142857142857,0,,,,GW/barrel.jpg,,,,,Three Edge Diff,Three Edge Six Edge
null,,html-keyboard-response,1249067,<p></p>,,,,null,,,,,,,,,,,,,,
2898.8000000715256,,shortestpath_phase,1251967,GW/teeth.jpg,,,,50,GW/soldier.jpg,GW/hat.jpg,0.375,1,,,,GW/hat.jpg,,,,,Two Edge Diff,Three Edge Five Edge
null,,html-keyboard-response,1252969,<p></p>,,,,null,,,,,,,,,,,,,,
2456.100000023842,,shortestpath_phase,1255426,GW/paint.jpg,,,,49,GW/barrel.jpg,GW/teeth.jpg,0.4444444444444444,1,,,,GW/barrel.jpg,,,,,Four Edge Diff,Two Edge Six Edge
null,,html-keyboard-response,1256429,<p></p>,,,,null,,,,,,,,,,,,,,
3078,,shortestpath_phase,1259508,GW/teeth.jpg,,,,50,GW/globe.jpg,GW/jukebox.jpg,0.4,0,,,,GW/globe.jpg,,,,,One Edge Diff,Two Edge Three Edge
null,,html-keyboard-response,1260509,<p></p>,,,,null,,,,,,,,,,,,,,
1998.7000000476837,,shortestpath_phase,1262509,GW/paint.jpg,,,,50,GW/globe.jpg,GW/gong.jpg,0.45454545454545453,1,,,,GW/gong.jpg,,,,,One Edge Diff,Four Edge Five Edge
null,,html-keyboard-response,1263525,<p></p>,,,,null,,,,,,,,,,,,,,
3151.7999999523163,,shortestpath_phase,1266678,GW/barrel.jpg,,,,49,GW/hat.jpg,GW/teeth.jpg,0.5,1,,,,GW/hat.jpg,,,,,Two Edge Diff,Two Edge Four Edge
null,,html-keyboard-response,1267680,<p></p>,,,,null,,,,,,,,,,,,,,
3137.7000000476837,,shortestpath_phase,1270819,GW/soldier.jpg,,,,49,GW/globe.jpg,GW/dustpan.jpg,0.5384615384615384,1,,,,GW/globe.jpg,,,,,One Edge Diff,Five Edge Six Edge
null,,html-keyboard-response,1271821,<p></p>,,,,null,,,,,,,,,,,,,,
1687.8000000715256,,shortestpath_phase,1273510,GW/camera.jpg,,,,49,GW/gong.jpg,GW/teeth.jpg,0.5714285714285714,1,,,,GW/gong.jpg,,,,,Two Edge Diff,Three Edge Five Edge
null,,html-keyboard-response,1274513,<p></p>,,,,null,,,,,,,,,,,,,,
1897.2000000476837,,shortestpath_phase,1276411,GW/paint.jpg,,,,49,GW/globe.jpg,GW/soldier.jpg,0.5333333333333333,0,,,,GW/soldier.jpg,,,,,Two Edge Diff,Three Edge Five Edge
null,,html-keyboard-response,1277412,<p></p>,,,,null,,,,,,,,,,,,,,
2504.2999999523163,,shortestpath_phase,1279918,GW/dustpan.jpg,,,,50,GW/barrel.jpg,GW/gong.jpg,0.5625,1,,,,GW/gong.jpg,,,,,Three Edge Diff,Three Edge Six Edge
null,,html-keyboard-response,1280919,<p></p>,,,,null,,,,,,,,,,,,,,
1359.2000000476837,,shortestpath_phase,1282279,GW/soldier.jpg,,,,50,GW/camera.jpg,GW/globe.jpg,0.5294117647058824,0,,,,GW/camera.jpg,,,,,Three Edge Diff,Three Edge Six Edge
null,,html-keyboard-response,1283281,<p></p>,,,,null,,,,,,,,,,,,,,
1479,,shortestpath_phase,1284761,GW/paint.jpg,,,,49,GW/teeth.jpg,GW/wheelchair.jpg,0.5,0,,,,GW/wheelchair.jpg,,,,,Four Edge Diff,Two Edge Six Edge
null,,html-keyboard-response,1285762,<p></p>,,,,null,,,,,,,,,,,,,,
1047.4000000953674,,shortestpath_phase,1286811,GW/snail.jpg,,,,50,GW/hat.jpg,GW/camera.jpg,0.47368421052631576,0,,,,GW/hat.jpg,,,,,Two Edge Diff,Two Edge Four Edge
null,,html-keyboard-response,1287813,<p></p>,,,,null,,,,,,,,,,,,,,
1541.5,,shortestpath_phase,1289355,GW/paint.jpg,,,,50,GW/soldier.jpg,GW/basket.jpg,0.45,0,,,,GW/soldier.jpg,,,,,One Edge Diff,Three Edge Four Edge
null,,html-keyboard-response,1290357,<p></p>,,,,null,,,,,,,,,,,,,,
1421.5999999046326,,shortestpath_phase,1291780,GW/basket.jpg,,,,50,GW/paint.jpg,GW/dustpan.jpg,0.47619047619047616,1,,,,GW/dustpan.jpg,,,,,One Edge Diff,Three Edge Four Edge
null,,html-keyboard-response,1292783,<p></p>,,,,null,,,,,,,,,,,,,,
1562.2000000476837,,shortestpath_phase,1294346,GW/jukebox.jpg,,,,49,GW/globe.jpg,GW/soldier.jpg,0.45454545454545453,0,,,,GW/soldier.jpg,,,,,One Edge Diff,Two Edge Three Edge
null,,html-keyboard-response,1295349,<p></p>,,,,null,,,,,,,,,,,,,,
1820,,shortestpath_phase,1297169,GW/paint.jpg,,,,49,GW/teeth.jpg,GW/basket.jpg,0.43478260869565216,0,,,,GW/basket.jpg,,,,,Two Edge Diff,Four Edge Six Edge
null,,html-keyboard-response,1298172,<p></p>,,,,null,,,,,,,,,,,,,,
1968,,shortestpath_phase,1300141,GW/dustpan.jpg,,,,49,GW/barrel.jpg,GW/jukebox.jpg,0.4166666666666667,0,,,,GW/jukebox.jpg,,,,,One Edge Diff,Four Edge Five Edge
null,,html-keyboard-response,1301144,<p></p>,,,,null,,,,,,,,,,,,,,
1593.1000000238419,,shortestpath_phase,1302738,GW/gong.jpg,,,,50,GW/barrel.jpg,GW/soldier.jpg,0.4,0,,,,GW/barrel.jpg,,,,,One Edge Diff,Three Edge Four Edge
null,,html-keyboard-response,1303740,<p></p>,,,,null,,,,,,,,,,,,,,
1516.5,,shortestpath_phase,1305257,GW/paint.jpg,,,,50,GW/basket.jpg,GW/jukebox.jpg,0.4230769230769231,1,,,,GW/jukebox.jpg,,,,,One Edge Diff,Three Edge Four Edge
null,,html-keyboard-response,1306259,<p></p>,,,,null,,,,,,,,,,,,,,
1765.6999999284744,,shortestpath_phase,1308025,GW/dustpan.jpg,,,,49,GW/wheelchair.jpg,GW/soldier.jpg,0.4444444444444444,1,,,,GW/wheelchair.jpg,,,,,Two Edge Diff,Four Edge Six Edge
null,,html-keyboard-response,1309028,<p></p>,,,,null,,,,,,,,,,,,,,
1717.8000000715256,,shortestpath_phase,1310746,GW/globe.jpg,,,,49,GW/basket.jpg,GW/barrel.jpg,0.4642857142857143,1,,,,GW/basket.jpg,,,,,Two Edge Diff,Two Edge Four Edge
null,,html-keyboard-response,1311748,<p></p>,,,,null,,,,,,,,,,,,,,
1442.3999999761581,,shortestpath_phase,1313192,GW/wheelchair.jpg,,,,49,GW/paint.jpg,GW/snail.jpg,0.4827586206896552,1,,,,GW/paint.jpg,,,,,One Edge Diff,Two Edge Three Edge
null,,html-keyboard-response,1314193,<p></p>,,,,null,,,,,,,,,,,,,,
1494.9000000953674,,shortestpath_phase,1315689,GW/globe.jpg,,,,50,GW/camera.jpg,GW/soldier.jpg,0.4666666666666667,0,,,,GW/camera.jpg,,,,,One Edge Diff,Four Edge Five Edge
null,,html-keyboard-response,1316691,<p></p>,,,,null,,,,,,,,,,,,,,
1761.7000000476837,,shortestpath_phase,1318454,GW/paint.jpg,,,,50,GW/basket.jpg,GW/dustpan.jpg,0.45161290322580644,0,,,,GW/basket.jpg,,,,,Two Edge Diff,Four Edge Six Edge
null,,html-keyboard-response,1319460,<p></p>,,,,null,,,,,,,,,,,,,,
2255.5,,shortestpath_phase,1321717,GW/camera.jpg,,,,49,GW/hat.jpg,GW/teeth.jpg,0.46875,1,,,,GW/hat.jpg,,,,,Three Edge Diff,Three Edge Six Edge
null,,html-keyboard-response,1322725,<p></p>,,,,null,,,,,,,,,,,,,,
1981.8000000715256,,shortestpath_phase,1324707,GW/soldier.jpg,,,,49,GW/dustpan.jpg,GW/teeth.jpg,0.45454545454545453,0,,,,GW/teeth.jpg,,,,,One Edge Diff,Five Edge Six Edge
null,,html-keyboard-response,1325710,<p></p>,,,,null,,,,,,,,,,,,,,
1743.6000000238419,,shortestpath_phase,1327455,GW/paint.jpg,,,,49,GW/gong.jpg,GW/teeth.jpg,0.47058823529411764,1,,,,GW/gong.jpg,,,,,Two Edge Diff,Four Edge Six Edge
null,,html-keyboard-response,1328458,<p></p>,,,,null,,,,,,,,,,,,,,
1032.6000000238419,,shortestpath_phase,1329491,GW/soldier.jpg,,,,49,GW/dustpan.jpg,GW/camera.jpg,0.45714285714285713,0,,,,GW/camera.jpg,,,,,Four Edge Diff,Two Edge Six Edge
null,,html-keyboard-response,1330494,<p></p>,,,,null,,,,,,,,,,,,,,
1623.8999999761581,,shortestpath_phase,1332119,GW/teeth.jpg,,,,50,GW/gong.jpg,GW/paint.jpg,0.4444444444444444,0,,,,GW/gong.jpg,,,,,Four Edge Diff,Two Edge Six Edge
null,,html-keyboard-response,1333121,<p></p>,,,,null,,,,,,,,,,,,,,
1816.6999999284744,,shortestpath_phase,1334939,GW/dustpan.jpg,,,,50,GW/soldier.jpg,GW/barrel.jpg,0.4594594594594595,1,,,,GW/barrel.jpg,,,,,One Edge Diff,Five Edge Six Edge
null,,html-keyboard-response,1335941,<p></p>,,,,null,,,,,,,,,,,,,,
1217.6000000238419,,shortestpath_phase,1337160,GW/teeth.jpg,,,,49,GW/paint.jpg,GW/camera.jpg,0.4473684210526316,0,,,,GW/camera.jpg,,,,,One Edge Diff,Five Edge Six Edge
null,,html-keyboard-response,1338163,<p></p>,,,,null,,,,,,,,,,,,,,
1670.3999999761581,,shortestpath_phase,1339834,GW/snail.jpg,,,,50,GW/paint.jpg,GW/barrel.jpg,0.46153846153846156,1,,,,GW/barrel.jpg,,,,,Two Edge Diff,Three Edge Five Edge
null,,html-keyboard-response,1340836,<p></p>,,,,null,,,,,,,,,,,,,,
1086.1999999284744,,shortestpath_phase,1341924,GW/teeth.jpg,,,,50,GW/wheelchair.jpg,GW/paint.jpg,0.45,0,,,,GW/wheelchair.jpg,,,,,Two Edge Diff,Four Edge Six Edge
null,,html-keyboard-response,1342926,<p></p>,,,,null,,,,,,,,,,,,,,
860.0999999046326,,shortestpath_phase,1343787,GW/paint.jpg,,,,50,GW/snail.jpg,GW/hat.jpg,0.4634146341463415,1,,,,GW/hat.jpg,,,,,Two Edge Diff,Three Edge Five Edge
null,,html-keyboard-response,1344789,<p></p>,,,,null,,,,,,,,,,,,,,
811,,shortestpath_phase,1345601,GW/barrel.jpg,,,,50,GW/wheelchair.jpg,GW/dustpan.jpg,0.4523809523809524,0,,,,GW/wheelchair.jpg,,,,,Three Edge Diff,Two Edge Five Edge
null,,html-keyboard-response,1346604,<p></p>,,,,null,,,,,,,,,,,,,,
1031.5,,shortestpath_phase,1347636,GW/soldier.jpg,,,,49,GW/jukebox.jpg,GW/teeth.jpg,0.46511627906976744,1,,,,GW/jukebox.jpg,,,,,Three Edge Diff,Three Edge Six Edge
null,,html-keyboard-response,1348637,<p></p>,,,,null,,,,,,,,,,,,,,
1204.5,,shortestpath_phase,1349843,GW/teeth.jpg,,,,49,GW/barrel.jpg,GW/paint.jpg,0.4772727272727273,1,,,,GW/barrel.jpg,,,,,Two Edge Diff,Four Edge Six Edge
null,,html-keyboard-response,1350844,<p></p>,,,,null,,,,,,,,,,,,,,
753.6000000238419,,shortestpath_phase,1351599,GW/globe.jpg,,,,49,GW/hat.jpg,GW/soldier.jpg,0.4888888888888889,1,,,,GW/hat.jpg,,,,,Three Edge Diff,Two Edge Five Edge
null,,html-keyboard-response,1352601,<p></p>,,,,null,,,,,,,,,,,,,,
888.6000000238419,,shortestpath_phase,1353491,GW/soldier.jpg,,,,49,GW/jukebox.jpg,GW/dustpan.jpg,0.5,1,,,,GW/jukebox.jpg,,,,,Four Edge Diff,Two Edge Six Edge
null,,html-keyboard-response,1354494,<p></p>,,,,null,,,,,,,,,,,,,,
847.1000000238419,,shortestpath_phase,1355342,GW/paint.jpg,,,,50,GW/snail.jpg,GW/barrel.jpg,0.5106382978723404,1,,,,GW/barrel.jpg,,,,,Three Edge Diff,Two Edge Five Edge
null,,html-keyboard-response,1356344,<p></p>,,,,null,,,,,,,,,,,,,,
998.9000000953674,,shortestpath_phase,1357344,GW/wheelchair.jpg,,,,49,GW/teeth.jpg,GW/globe.jpg,0.5,0,,,,GW/globe.jpg,,,,,One Edge Diff,Three Edge Four Edge
null,,html-keyboard-response,1358349,<p></p>,,,,null,,,,,,,,,,,,,,
1160.3999999761581,,shortestpath_phase,1359510,GW/soldier.jpg,,,,49,GW/hat.jpg,GW/teeth.jpg,0.5102040816326531,1,,,,GW/hat.jpg,,,,,Two Edge Diff,Three Edge Five Edge
null,,html-keyboard-response,1360512,<p></p>,,,,null,,,,,,,,,,,,,,
1032.2000000476837,,shortestpath_phase,1361545,GW/paint.jpg,,,,50,GW/teeth.jpg,GW/snail.jpg,0.52,1,,,,GW/snail.jpg,,,,,One Edge Diff,Five Edge Six Edge
null,,html-keyboard-response,1362546,<p></p>,,,,null,,,,,,,,,,,,,,
1108.8000000715256,,shortestpath_phase,1363656,GW/globe.jpg,,,,50,GW/teeth.jpg,GW/soldier.jpg,0.5098039215686274,0,,,,GW/teeth.jpg,,,,,Three Edge Diff,Two Edge Five Edge
null,,html-keyboard-response,1364659,<p></p>,,,,null,,,,,,,,,,,,,,
960.8000000715256,,shortestpath_phase,1365620,GW/camera.jpg,,,,50,GW/globe.jpg,GW/hat.jpg,0.5192307692307693,1,,,,GW/hat.jpg,,,,,Two Edge Diff,Two Edge Four Edge
null,,html-keyboard-response,1366622,<p></p>,,,,null,,,,,,,,,,,,,,
1041.5,,shortestpath_phase,1367664,GW/soldier.jpg,,,,50,GW/teeth.jpg,GW/gong.jpg,0.5283018867924528,1,,,,GW/gong.jpg,,,,,One Edge Diff,Four Edge Five Edge
null,,html-keyboard-response,1368666,<p></p>,,,,null,,,,,,,,,,,,,,
1041.3999999761581,,shortestpath_phase,1369708,GW/globe.jpg,,,,50,GW/barrel.jpg,GW/paint.jpg,0.5185185185185185,0,,,,GW/barrel.jpg,,,,,One Edge Diff,Four Edge Five Edge
null,,html-keyboard-response,1370710,<p></p>,,,,null,,,,,,,,,,,,,,
1063.6999999284744,,shortestpath_phase,1371774,GW/dustpan.jpg,,,,49,GW/gong.jpg,GW/paint.jpg,0.5272727272727272,1,,,,GW/gong.jpg,,,,,Four Edge Diff,Two Edge Six Edge
null,,html-keyboard-response,1372776,<p></p>,,,,null,,,,,,,,,,,,,,
2092.5999999046326,,shortestpath_phase,1374870,GW/paint.jpg,,,,49,GW/gong.jpg,GW/barrel.jpg,0.5178571428571429,0,,,,GW/barrel.jpg,,,,,Two Edge Diff,Two Edge Four Edge
null,,html-keyboard-response,1375872,<p></p>,,,,null,,,,,,,,,,,,,,
1534.6000000238419,,shortestpath_phase,1377407,GW/camera.jpg,,,,49,GW/dustpan.jpg,GW/snail.jpg,0.5087719298245614,0,,,,GW/snail.jpg,,,,,One Edge Diff,Four Edge Five Edge
null,,html-keyboard-response,1378416,<p></p>,,,,null,,,,,,,,,,,,,,
2159.100000023842,,shortestpath_phase,1380576,GW/globe.jpg,,,,50,GW/hat.jpg,GW/paint.jpg,0.5,0,,,,GW/hat.jpg,,,,,Three Edge Diff,Three Edge Six Edge
null,,html-keyboard-response,1381579,<p></p>,,,,null,,,,,,,,,,,,,,
1569.5,,shortestpath_phase,1383149,GW/barrel.jpg,,,,50,GW/dustpan.jpg,GW/paint.jpg,0.5084745762711864,1,,,,GW/paint.jpg,,,,,Three Edge Diff,Two Edge Five Edge
null,,html-keyboard-response,1384152,<p></p>,,,,null,,,,,,,,,,,,,,
981.9000000953674,,shortestpath_phase,1385135,GW/gong.jpg,,,,50,GW/barrel.jpg,GW/wheelchair.jpg,0.5166666666666667,1,,,,GW/wheelchair.jpg,,,,,One Edge Diff,Two Edge Three Edge
null,,html-keyboard-response,1386138,<p></p>,,,,null,,,,,,,,,,,,,,
2595.899999976158,,shortestpath_phase,1388735,GW/teeth.jpg,,,,50,GW/globe.jpg,GW/camera.jpg,0.5081967213114754,0,,,,GW/globe.jpg,,,,,Three Edge Diff,Three Edge Six Edge
null,,html-keyboard-response,1389737,<p></p>,,,,null,,,,,,,,,,,,,,
960,,shortestpath_phase,1390698,GW/soldier.jpg,,,,50,GW/gong.jpg,GW/dustpan.jpg,0.5,0,,,,GW/gong.jpg,,,,,Two Edge Diff,Four Edge Six Edge
null,,html-keyboard-response,1391701,<p></p>,,,,null,,,,,,,,,,,,,,
1031.8999999761581,,shortestpath_phase,1392734,GW/camera.jpg,,,,50,GW/hat.jpg,GW/snail.jpg,0.49206349206349204,0,,,,GW/hat.jpg,,,,,Two Edge Diff,Two Edge Four Edge
null,,html-keyboard-response,1393736,<p></p>,,,,null,,,,,,,,,,,,,,
863.6000000238419,,shortestpath_phase,1394601,GW/dustpan.jpg,,,,50,GW/barrel.jpg,GW/wheelchair.jpg,0.5,1,,,,GW/wheelchair.jpg,,,,,One Edge Diff,Four Edge Five Edge
null,,html-keyboard-response,1395603,<p></p>,,,,null,,,,,,,,,,,,,,
790.7999999523163,,shortestpath_phase,1396394,GW/snail.jpg,,,,50,GW/paint.jpg,GW/hat.jpg,0.5076923076923077,1,,,,GW/hat.jpg,,,,,Three Edge Diff,Two Edge Five Edge
null,,html-keyboard-response,1397397,<p></p>,,,,null,,,,,,,,,,,,,,
1760.3999999761581,,shortestpath_phase,1399158,GW/dustpan.jpg,,,,50,GW/jukebox.jpg,GW/soldier.jpg,0.5,0,,,,GW/jukebox.jpg,,,,,Two Edge Diff,Four Edge Six Edge
null,,html-keyboard-response,1400166,<p></p>,,,,null,,,,,,,,,,,,,,
865.3999999761581,,shortestpath_phase,1401033,GW/paint.jpg,,,,50,GW/snail.jpg,GW/dustpan.jpg,0.4925373134328358,0,,,,GW/snail.jpg,,,,,One Edge Diff,Five Edge Six Edge
null,,html-keyboard-response,1402036,<p></p>,,,,null,,,,,,,,,,,,,,
867.6000000238419,,shortestpath_phase,1402904,GW/dustpan.jpg,,,,50,GW/wheelchair.jpg,GW/basket.jpg,0.5,1,,,,GW/basket.jpg,,,,,One Edge Diff,Three Edge Four Edge
null,,html-keyboard-response,1403906,<p></p>,,,,null,,,,,,,,,,,,,,
970.5,,shortestpath_phase,1404878,GW/paint.jpg,,,,50,GW/globe.jpg,GW/teeth.jpg,0.4927536231884058,0,,,,GW/globe.jpg,,,,,One Edge Diff,Five Edge Six Edge
null,,html-keyboard-response,1405881,<p></p>,,,,null,,,,,,,,,,,,,,
1352.3999999761581,,shortestpath_phase,1407234,GW/dustpan.jpg,,,,49,GW/hat.jpg,GW/barrel.jpg,0.5,1,,,,GW/hat.jpg,,,,,Two Edge Diff,Three Edge Five Edge
null,,html-keyboard-response,1408237,<p></p>,,,,null,,,,,,,,,,,,,,
1407.7999999523163,,shortestpath_phase,1409646,GW/soldier.jpg,,,,50,GW/wheelchair.jpg,GW/globe.jpg,0.49295774647887325,0,,,,GW/wheelchair.jpg,,,,,Two Edge Diff,Three Edge Five Edge
null,,html-keyboard-response,1410648,<p></p>,,,,null,,,,,,,,,,,,,,
1201.2999999523163,,shortestpath_phase,1411850,GW/teeth.jpg,,,,50,GW/dustpan.jpg,GW/camera.jpg,0.4861111111111111,0,,,,GW/dustpan.jpg,,,,,Two Edge Diff,Three Edge Five Edge
null,,html-keyboard-response,1412853,<p></p>,,,,null,,,,,,,,,,,,,,
930.0999999046326,,shortestpath_phase,1413784,GW/paint.jpg,,,,49,GW/barrel.jpg,GW/snail.jpg,0.4931506849315068,1,,,,GW/barrel.jpg,,,,,Three Edge Diff,Three Edge Six Edge
null,,html-keyboard-response,1414786,<p></p>,,,,null,,,,,,,,,,,,,,
1307.3999999761581,,shortestpath_phase,1416095,GW/dustpan.jpg,,,,49,GW/teeth.jpg,GW/jukebox.jpg,0.5,1,,,,GW/teeth.jpg,,,,,One Edge Diff,Three Edge Four Edge
null,,html-keyboard-response,1417098,<p></p>,,,,null,,,,,,,,,,,,,,
1035,,shortestpath_phase,1418134,GW/paint.jpg,,,,49,GW/wheelchair.jpg,GW/dustpan.jpg,0.5066666666666667,1,,,,GW/wheelchair.jpg,,,,,Four Edge Diff,Two Edge Six Edge
null,,html-keyboard-response,1419137,<p></p>,,,,null,,,,,,,,,,,,,,
1265.6000000238419,,shortestpath_phase,1420404,GW/teeth.jpg,,,,49,GW/globe.jpg,GW/paint.jpg,0.5131578947368421,1,,,,GW/globe.jpg,,,,,Four Edge Diff,Two Edge Six Edge
null,,html-keyboard-response,1421406,<p></p>,,,,null,,,,,,,,,,,,,,
869,,shortestpath_phase,1422276,GW/dustpan.jpg,,,,49,GW/snail.jpg,GW/soldier.jpg,0.5194805194805194,1,,,,GW/snail.jpg,,,,,Four Edge Diff,Two Edge Six Edge
null,,html-keyboard-response,1423278,<p></p>,,,,null,,,,,,,,,,,,,,
1036.2999999523163,,shortestpath_phase,1424315,GW/soldier.jpg,,,,50,GW/gong.jpg,GW/globe.jpg,0.5128205128205128,0,,,,GW/gong.jpg,,,,,One Edge Diff,Four Edge Five Edge
null,,html-keyboard-response,1425317,<p></p>,,,,null,,,,,,,,,,,,,,
1094.7999999523163,,shortestpath_phase,1426413,GW/dustpan.jpg,,,,50,GW/snail.jpg,GW/camera.jpg,0.5063291139240507,0,,,,GW/snail.jpg,,,,,Three Edge Diff,Three Edge Six Edge
null,,html-keyboard-response,1427415,<p></p>,,,,null,,,,,,,,,,,,,,
1010.2999999523163,,shortestpath_phase,1428426,GW/paint.jpg,,,,50,GW/basket.jpg,GW/hat.jpg,0.5125,1,,,,GW/hat.jpg,,,,,One Edge Diff,Three Edge Four Edge
null,,html-keyboard-response,1429428,<p></p>,,,,null,,,,,,,,,,,,,,
797.9000000953674,,shortestpath_phase,1430227,GW/globe.jpg,,,,50,GW/soldier.jpg,GW/jukebox.jpg,0.5185185185185185,1,,,,GW/jukebox.jpg,,,,,Two Edge Diff,Three Edge Five Edge
null,,html-keyboard-response,1431230,<p></p>,,,,null,,,,,,,,,,,,,,
961.2999999523163,,shortestpath_phase,1432193,GW/paint.jpg,,,,50,GW/basket.jpg,GW/wheelchair.jpg,0.524390243902439,1,,,,GW/wheelchair.jpg,,,,,Two Edge Diff,Two Edge Four Edge
null,,html-keyboard-response,1433195,<p></p>,,,,null,,,,,,,,,,,,,,
775.5999999046326,,shortestpath_phase,1433972,GW/dustpan.jpg,,,,50,GW/paint.jpg,GW/jukebox.jpg,0.5301204819277109,1,,,,GW/jukebox.jpg,,,,,Two Edge Diff,Four Edge Six Edge
null,,html-keyboard-response,1434975,<p></p>,,,,null,,,,,,,,,,,,,,
809,,shortestpath_phase,1435784,GW/soldier.jpg,,,,50,GW/snail.jpg,GW/dustpan.jpg,0.5238095238095238,0,,,,GW/snail.jpg,,,,,Two Edge Diff,Four Edge Six Edge
null,,html-keyboard-response,1436787,<p></p>,,,,null,,,,,,,,,,,,,,
694.9000000953674,,shortestpath_phase,1437483,GW/camera.jpg,,,,50,GW/gong.jpg,GW/hat.jpg,0.5294117647058824,1,,,,GW/hat.jpg,,,,,One Edge Diff,Two Edge Three Edge
null,,html-keyboard-response,1438485,<p></p>,,,,null,,,,,,,,,,,,,,
858.3999999761581,,shortestpath_phase,1439344,GW/barrel.jpg,,,,50,GW/basket.jpg,GW/teeth.jpg,0.5232558139534884,0,,,,GW/basket.jpg,,,,,Two Edge Diff,Two Edge Four Edge
null,,html-keyboard-response,1440346,<p></p>,,,,null,,,,,,,,,,,,,,
1045.0999999046326,,shortestpath_phase,1441392,GW/wheelchair.jpg,,,,49,GW/soldier.jpg,GW/dustpan.jpg,0.5287356321839081,1,,,,GW/soldier.jpg,,,,,One Edge Diff,Three Edge Four Edge
null,,html-keyboard-response,1442395,<p></p>,,,,null,,,,,,,,,,,,,,
910.3999999761581,,shortestpath_phase,1443306,GW/dustpan.jpg,,,,50,GW/paint.jpg,GW/snail.jpg,0.5340909090909091,1,,,,GW/snail.jpg,,,,,Four Edge Diff,Two Edge Six Edge
null,,html-keyboard-response,1444308,<p></p>,,,,null,,,,,,,,,,,,,,
999.3000000715256,,shortestpath_phase,1445308,GW/globe.jpg,,,,49,GW/basket.jpg,GW/jukebox.jpg,0.5393258426966292,1,,,,GW/basket.jpg,,,,,One Edge Diff,Two Edge Three Edge
null,,html-keyboard-response,1446310,<p></p>,,,,null,,,,,,,,,,,,,,
928.8999999761581,,shortestpath_phase,1447240,GW/hat.jpg,,,,50,GW/teeth.jpg,GW/snail.jpg,0.5444444444444444,1,,,,GW/snail.jpg,,,,,One Edge Diff,Two Edge Three Edge
null,,html-keyboard-response,1448242,<p></p>,,,,null,,,,,,,,,,,,,,
1103.7999999523163,,shortestpath_phase,1449346,GW/globe.jpg,,,,50,GW/soldier.jpg,GW/teeth.jpg,0.5494505494505495,1,,,,GW/teeth.jpg,,,,,Three Edge Diff,Three Edge Six Edge
null,,html-keyboard-response,1450350,<p></p>,,,,null,,,,,,,,,,,,,,
1033.4000000953674,,shortestpath_phase,1451384,GW/snail.jpg,,,,50,GW/hat.jpg,GW/paint.jpg,0.5434782608695652,0,,,,GW/hat.jpg,,,,,Three Edge Diff,Three Edge Six Edge
null,,html-keyboard-response,1452386,<p></p>,,,,null,,,,,,,,,,,,,,
853.1999999284744,,shortestpath_phase,1453240,GW/jukebox.jpg,,,,50,GW/wheelchair.jpg,GW/teeth.jpg,0.5376344086021505,0,,,,GW/wheelchair.jpg,,,,,One Edge Diff,Two Edge Three Edge
null,,html-keyboard-response,1454243,<p></p>,,,,null,,,,,,,,,,,,,,
1154.4000000953674,,shortestpath_phase,1455398,GW/dustpan.jpg,,,,50,GW/camera.jpg,GW/paint.jpg,0.5319148936170213,0,,,,GW/camera.jpg,,,,,One Edge Diff,Five Edge Six Edge
null,,html-keyboard-response,1456407,<p></p>,,,,null,,,,,,,,,,,,,,
1036.8999999761581,,shortestpath_phase,1457445,GW/globe.jpg,,,,50,GW/barrel.jpg,GW/wheelchair.jpg,0.5368421052631579,1,,,,GW/wheelchair.jpg,,,,,One Edge Diff,Three Edge Four Edge
null,,html-keyboard-response,1458448,<p></p>,,,,null,,,,,,,,,,,,,,
1025.5,,shortestpath_phase,1459474,GW/dustpan.jpg,,,,50,GW/gong.jpg,GW/soldier.jpg,0.53125,0,,,,GW/gong.jpg,,,,,Four Edge Diff,Two Edge Six Edge
null,,html-keyboard-response,1460477,<p></p>,,,,null,,,,,,,,,,,,,,
1351.1000000238419,,shortestpath_phase,1461829,GW/paint.jpg,,,,50,GW/barrel.jpg,GW/dustpan.jpg,0.5257731958762887,0,,,,GW/barrel.jpg,,,,,Four Edge Diff,Two Edge Six Edge
null,,html-keyboard-response,1462832,<p></p>,,,,null,,,,,,,,,,,,,,
1060.1000000238419,,shortestpath_phase,1463893,GW/jukebox.jpg,,,,49,GW/soldier.jpg,GW/dustpan.jpg,0.5306122448979592,1,,,,GW/soldier.jpg,,,,,Two Edge Diff,Two Edge Four Edge
null,,html-keyboard-response,1464895,<p></p>,,,,null,,,,,,,,,,,,,,
1342,,shortestpath_phase,1466238,GW/paint.jpg,,,,49,GW/basket.jpg,GW/snail.jpg,0.5353535353535354,1,,,,GW/basket.jpg,,,,,One Edge Diff,Four Edge Five Edge
null,,html-keyboard-response,1467240,<p></p>,,,,null,,,,,,,,,,,,,,
1983.2999999523163,,shortestpath_phase,1469224,GW/snail.jpg,,,,49,GW/paint.jpg,GW/jukebox.jpg,0.53,0,,,,GW/jukebox.jpg,,,,,Three Edge Diff,Two Edge Five Edge
null,,html-keyboard-response,1470226,<p></p>,,,,null,,,,,,,,,,,,,,
1804.6000000238419,,shortestpath_phase,1472032,GW/teeth.jpg,,,,49,GW/globe.jpg,GW/camera.jpg,0.5346534653465347,1,,,,GW/globe.jpg,,,,,Three Edge Diff,Two Edge Five Edge
null,,html-keyboard-response,1473035,<p></p>,,,,null,,,,,,,,,,,,,,
1550.2000000476837,,shortestpath_phase,1474586,GW/jukebox.jpg,,,,50,GW/paint.jpg,GW/camera.jpg,0.5392156862745098,1,,,,GW/camera.jpg,,,,,One Edge Diff,Two Edge Three Edge
null,,html-keyboard-response,1475588,<p></p>,,,,null,,,,,,,,,,,,,,
2551.100000023842,,shortestpath_phase,1478140,GW/dustpan.jpg,,,,50,GW/snail.jpg,GW/jukebox.jpg,0.5339805825242718,0,,,,GW/snail.jpg,,,,,Two Edge Diff,Two Edge Four Edge
null,,html-keyboard-response,1479143,<p></p>,,,,null,,,,,,,,,,,,,,
1074.1000000238419,,shortestpath_phase,1480218,GW/basket.jpg,,,,50,GW/wheelchair.jpg,GW/paint.jpg,0.5288461538461539,0,,,,GW/wheelchair.jpg,,,,,One Edge Diff,Three Edge Four Edge
null,,html-keyboard-response,1481220,<p></p>,,,,null,,,,,,,,,,,,,,
1735.7000000476837,,shortestpath_phase,1482956,GW/dustpan.jpg,,,,50,GW/paint.jpg,GW/barrel.jpg,0.5333333333333333,1,,,,GW/barrel.jpg,,,,,One Edge Diff,Five Edge Six Edge
null,,html-keyboard-response,1483959,<p></p>,,,,null,,,,,,,,,,,,,,
1442.5,,shortestpath_phase,1485402,GW/camera.jpg,,,,49,GW/jukebox.jpg,GW/teeth.jpg,0.5377358490566038,1,,,,GW/jukebox.jpg,,,,,Three Edge Diff,Two Edge Five Edge
null,,html-keyboard-response,1486404,<p></p>,,,,null,,,,,,,,,,,,,,
993.1999999284744,,shortestpath_phase,1487399,GW/dustpan.jpg,,,,49,GW/wheelchair.jpg,GW/paint.jpg,0.5420560747663551,1,,,,GW/wheelchair.jpg,,,,,Two Edge Diff,Four Edge Six Edge
null,,html-keyboard-response,1488408,<p></p>,,,,null,,,,,,,,,,,,,,
847.5,,shortestpath_phase,1489256,GW/soldier.jpg,,,,49,GW/basket.jpg,GW/camera.jpg,0.5370370370370371,0,,,,GW/camera.jpg,,,,,One Edge Diff,Two Edge Three Edge
null,,html-keyboard-response,1490258,<p></p>,,,,null,,,,,,,,,,,,,,
817.2999999523163,,shortestpath_phase,1491076,GW/dustpan.jpg,,,,49,GW/gong.jpg,GW/camera.jpg,0.5412844036697247,1,,,,GW/gong.jpg,,,,,Three Edge Diff,Two Edge Five Edge
null,,html-keyboard-response,1492078,<p></p>,,,,null,,,,,,,,,,,,,,
834.2000000476837,,shortestpath_phase,1492914,GW/snail.jpg,,,,49,GW/soldier.jpg,GW/paint.jpg,0.5454545454545454,1,,,,GW/soldier.jpg,,,,,One Edge Diff,Four Edge Five Edge
null,,html-keyboard-response,1493916,<p></p>,,,,null,,,,,,,,,,,,,,
932.7000000476837,,shortestpath_phase,1494850,GW/teeth.jpg,,,,49,GW/barrel.jpg,GW/soldier.jpg,0.5495495495495496,1,,,,GW/barrel.jpg,,,,,One Edge Diff,Four Edge Five Edge
null,,html-keyboard-response,1495867,<p></p>,,,,null,,,,,,,,,,,,,,
932.5,,shortestpath_phase,1496801,GW/dustpan.jpg,,,,50,GW/snail.jpg,GW/barrel.jpg,0.5446428571428571,0,,,,GW/snail.jpg,,,,,Three Edge Diff,Three Edge Six Edge
null,,html-keyboard-response,1497804,<p></p>,,,,null,,,,,,,,,,,,,,
1580.1000000238419,,shortestpath_phase,1499385,GW/teeth.jpg,,,,50,GW/wheelchair.jpg,GW/gong.jpg,0.5486725663716814,1,,,,GW/gong.jpg,,,,,Two Edge Diff,Two Edge Four Edge
null,,html-keyboard-response,1500388,<p></p>,,,,null,,,,,,,,,,,,,,
1194.2999999523163,,shortestpath_phase,1501583,GW/soldier.jpg,,,,50,GW/globe.jpg,GW/jukebox.jpg,0.5526315789473685,1,,,,GW/jukebox.jpg,,,,,Three Edge Diff,Two Edge Five Edge
null,,html-keyboard-response,1502586,<p></p>,,,,null,,,,,,,,,,,,,,
940.7999999523163,,shortestpath_phase,1503528,GW/globe.jpg,,,,50,GW/paint.jpg,GW/teeth.jpg,0.5565217391304348,1,,,,GW/teeth.jpg,,,,,Three Edge Diff,Two Edge Five Edge
null,,html-keyboard-response,1504531,<p></p>,,,,null,,,,,,,,,,,,,,
1351,,shortestpath_phase,1505883,GW/wheelchair.jpg,,,,50,GW/dustpan.jpg,GW/snail.jpg,0.5603448275862069,1,,,,GW/snail.jpg,,,,,One Edge Diff,Three Edge Four Edge
null,,html-keyboard-response,1506885,<p></p>,,,,null,,,,,,,,,,,,,,
1028.2999999523163,,shortestpath_phase,1507915,GW/teeth.jpg,,,,50,GW/dustpan.jpg,GW/soldier.jpg,0.5555555555555556,0,,,,GW/dustpan.jpg,,,,,Two Edge Diff,Three Edge Five Edge
null,,html-keyboard-response,1508917,<p></p>,,,,null,,,,,,,,,,,,,,
1202.6999999284744,,shortestpath_phase,1510121,GW/paint.jpg,,,,50,GW/gong.jpg,GW/dustpan.jpg,0.5508474576271186,0,,,,GW/gong.jpg,,,,,Two Edge Diff,Four Edge Six Edge
null,,html-keyboard-response,1511123,<p></p>,,,,null,,,,,,,,,,,,,,
1170.1999999284744,,shortestpath_phase,1512295,GW/wheelchair.jpg,,,,50,GW/snail.jpg,GW/jukebox.jpg,0.5546218487394958,1,,,,GW/jukebox.jpg,,,,,One Edge Diff,Two Edge Three Edge
null,,html-keyboard-response,1513297,<p></p>,,,,null,,,,,,,,,,,,,,
1404,,shortestpath_phase,1514702,GW/dustpan.jpg,,,,50,GW/camera.jpg,GW/soldier.jpg,0.55,0,,,,GW/camera.jpg,,,,,One Edge Diff,Five Edge Six Edge
null,,html-keyboard-response,1515704,<p></p>,,,,null,,,,,,,,,,,,,,
1139.1000000238419,,shortestpath_phase,1516844,GW/barrel.jpg,,,,50,GW/snail.jpg,GW/dustpan.jpg,0.5454545454545454,0,,,,GW/snail.jpg,,,,,Two Edge Diff,Three Edge Five Edge
null,,html-keyboard-response,1517846,<p></p>,,,,null,,,,,,,,,,,,,,
54080.5,,intro_1,1571928,instruct,,0,,,,,,,,,,,,,,,,
49349.200000047684,,intro_2,1621279,instruct,,1,Next,,,,,,,,,,,,,,,
7382.800000071526,,intro_3,1628663,instruct,,1,Next,,,,,,,,,,,,,,,
