rt,responses,trial_type,time_elapsed,stimulus,graphorder,button_pressed,response,key_press,stimulus_left,stimulus_right,cumulative_accuracy,accuracy,stimulus_down_left,stimulus_down_mid,stimulus_down_right,stimulus_correct,stimulus_short,stimulus_far,weighted_accuracy,missedtrial,condition,specific_pairs
15232.5,{worker_id:6691809035e52ca9b2b0f39a},id_enter,15235,id_enter,GW/camera.jpg; GW/gong.jpg; GW/wheelchair.jpg; GW/basket.jpg; GW/snail.jpg; GW/paint.jpg; GW/jukebox.jpg; GW/hat.jpg; GW/dustpan.jpg; GW/soldier.jpg; GW/barrel.jpg; GW/globe.jpg; GW/teeth.jpg,,,,,,,,,,,,,,,,,
19540.399999999907,,fullscreen,34779,fullscreen,,0,,,,,,,,,,,,,,,,
40014.39999999991,,intro_1,74794,instruct,,0,,,,,,,,,,,,,,,,
18918.399999999907,,intro_2,93714,instruct,,1,Next,,,,,,,,,,,,,,,
15095.09999999986,,intro_3,108810,instruct,,1,Next,,,,,,,,,,,,,,,
null,,learn_prac_1,110812,lean_prac_1,,,,null,,,,,,,,,,,,,,
null,,html-keyboard-response,111815,<p></p>,,,,null,,,,,,,,,,,,,,
7313.59999999986,,intro_1,119130,instruct,,0,,,,,,,,,,,,,,,,
7223.09999999986,,intro_2,126354,instruct,,1,Next,,,,,,,,,,,,,,,
null,,learn_prac_2,128356,lean_prac_2,,,,null,,,,,,,,,,,,,,
null,,html-keyboard-response,129359,<p></p>,,,,null,,,,,,,,,,,,,,
3489.600000000093,,intro_1,132850,instruct,,0,,,,,,,,,,,,,,,,
10374.899999999907,,intro_2,143226,instruct,,1,Next,,,,,,,,,,,,,,,
27079,,intro_3,170306,instruct,,1,Next,,,,,,,,,,,,,,,
null,,prac_atten_color_black,170983,black_plus_sign,,,,null,,,,,,,,,,,,,,
null,,prac_atten_color,171711,prac_stop_color,,,,null,,,,,,,,,,,,,,
1796.5,,prac_atten_color_black,173713,black_plus_sign,,,,49,,,,,,,,,,,,,,
null,,prac_atten_color_black,174391,black_plus_sign,,,,null,,,,,,,,,,,,,,
1018.8999999999069,,prac_atten_color,175432,prac_stop_color,,,,50,,,,,,,,,,,,,,
null,,prac_atten_color_black,177435,black_plus_sign,,,,null,,,,,,,,,,,,,,
null,,prac_atten_color_black,177799,black_plus_sign,,,,null,,,,,,,,,,,,,,
null,,prac_atten_color,178758,prac_stop_color,,,,null,,,,,,,,,,,,,,
220.5,,prac_atten_color_black,180760,black_plus_sign,,,,50,,,,,,,,,,,,,,
null,,prac_atten_color_black,181208,black_plus_sign,,,,null,,,,,,,,,,,,,,
401.89999999990687,,prac_atten_color,181901,prac_stop_color,,,,49,,,,,,,,,,,,,,
null,,prac_atten_color_black,183903,black_plus_sign,,,,null,,,,,,,,,,,,,,
null,,prac_atten_color_black,184616,black_plus_sign,,,,null,,,,,,,,,,,,,,
706.3999999999069,,prac_atten_color,185589,prac_stop_color,,,,50,,,,,,,,,,,,,,
null,,prac_atten_color_black,187591,black_plus_sign,,,,null,,,,,,,,,,,,,,
null,,prac_atten_color_black,188024,black_plus_sign,,,,null,,,,,,,,,,,,,,
null,,prac_atten_color,188558,prac_stop_color,,,,null,,,,,,,,,,,,,,
228.5,,prac_atten_color_black,190559,black_plus_sign,,,,50,,,,,,,,,,,,,,
null,,prac_atten_color_black,191431,black_plus_sign,,,,null,,,,,,,,,,,,,,
null,,prac_atten_color,191855,prac_stop_color,,,,null,,,,,,,,,,,,,,
3.8999999999068677,,prac_atten_color_black,193857,black_plus_sign,,,,49,,,,,,,,,,,,,,
null,,prac_atten_color_black,194840,black_plus_sign,,,,null,,,,,,,,,,,,,,
729.5,,prac_atten_color,195666,prac_stop_color,,,,50,,,,,,,,,,,,,,
null,,prac_atten_color_black,197669,black_plus_sign,,,,null,,,,,,,,,,,,,,
null,,prac_atten_color_black,198249,black_plus_sign,,,,null,,,,,,,,,,,,,,
712.6000000000931,,prac_atten_color,199300,prac_stop_color,,,,49,,,,,,,,,,,,,,
null,,prac_atten_color_black,201308,black_plus_sign,,,,null,,,,,,,,,,,,,,
null,,prac_atten_color_black,201662,black_plus_sign,,,,null,,,,,,,,,,,,,,
700.3000000000466,,prac_atten_color,202592,prac_stop_color,,,,50,,,,,,,,,,,,,,
null,,prac_atten_color_black,204595,black_plus_sign,,,,null,,,,,,,,,,,,,,
61101.19999999995,,attentioncheck_feedback,265698,cross_check_feedback,,0,,,,,,,,,,,,,,,,
22049,,last_instruct,287748,instruct,,,,32,,,,,,,,,,,,,,
null,,learn_phase(without_color),289751,black_plus_sign,,,,null,GW/wheelchair.jpg,GW/paint.jpg,,,,,,,,,,,,
null,,black_cross(without_color),290780,green,,,,null,GW/wheelchair.jpg,GW/paint.jpg,,,,,,,,,,,,
null,,rt_plussign_withcolor,291283,green,,,,null,GW/wheelchair.jpg,GW/paint.jpg,,,,,,,,,,,,
null,,rt_thecrossant_black,292259,black_plus_sign,,,,null,,,NaN,,,,,,,,,,,
null,,color_black,292361,black_plus_sign,,,,null,,,,,,,,,,,,,,
null,,learn_phase(without_color),294364,black_plus_sign,,,,null,GW/paint.jpg,GW/dustpan.jpg,,,,,,,,,,,,
null,,black_cross(without_color),295395,blue,,,,null,GW/paint.jpg,GW/dustpan.jpg,,,,,,,,,,,,
null,,rt_plussign_withcolor,295897,blue,,,,null,GW/paint.jpg,GW/dustpan.jpg,,,,,,,,,,,,
null,,rt_thecrossant_black,296874,black_plus_sign,,,,null,,,NaN,,,,,,,,,,,
null,,warning_page,299876,warning,,,,null,,,,,,,,,,,,,,
null,,color_black,299979,black_plus_sign,,,,null,,,,,,,,,,,,,,
null,,learn_phase(without_color),301983,black_plus_sign,,,,null,GW/hat.jpg,GW/soldier.jpg,,,,,,,,,,,,
null,,black_cross(without_color),302684,blue,,,,null,GW/hat.jpg,GW/soldier.jpg,,,,,,,,,,,,
null,,rt_plussign_withcolor,303186,blue,,,,null,GW/hat.jpg,GW/soldier.jpg,,,,,,,,,,,,
2086.1999999999534,,rt_thecrossant_black,304491,black_plus_sign,,,,49,,,1,1,,,,,,,,,,
null,,color_black,304593,black_plus_sign,,,,null,,,,,,,,,,,,,,
null,,learn_phase(without_color),306594,black_plus_sign,,,,null,GW/basket.jpg,GW/snail.jpg,,,,,,,,,,,,
null,,black_cross(without_color),307457,blue,,,,null,GW/basket.jpg,GW/snail.jpg,,,,,,,,,,,,
null,,rt_plussign_withcolor,307959,blue,,,,null,GW/basket.jpg,GW/snail.jpg,,,,,,,,,,,,
null,,rt_thecrossant_black,309102,black_plus_sign,,,,null,,,1,,,,,,,,,,,
null,,color_black,309205,black_plus_sign,,,,null,,,,,,,,,,,,,,
null,,learn_phase(without_color),311208,black_plus_sign,,,,null,GW/wheelchair.jpg,GW/barrel.jpg,,,,,,,,,,,,
null,,black_cross(without_color),312027,green,,,,null,GW/wheelchair.jpg,GW/barrel.jpg,,,,,,,,,,,,
null,,rt_plussign_withcolor,312528,green,,,,null,GW/wheelchair.jpg,GW/barrel.jpg,,,,,,,,,,,,
2073.399999999907,,rt_thecrossant_black,313715,black_plus_sign,,,,50,,,1,1,,,,,,,,,,
null,,color_black,313818,black_plus_sign,,,,null,,,,,,,,,,,,,,
null,,learn_phase(without_color),315821,black_plus_sign,,,,null,GW/paint.jpg,GW/jukebox.jpg,,,,,,,,,,,,
null,,black_cross(without_color),316388,blue,,,,null,GW/paint.jpg,GW/jukebox.jpg,,,,,,,,,,,,
null,,rt_plussign_withcolor,316890,blue,,,,null,GW/paint.jpg,GW/jukebox.jpg,,,,,,,,,,,,
1516.1999999999534,,rt_thecrossant_black,318329,black_plus_sign,,,,49,,,1,1,,,,,,,,,,
null,,color_black,318432,black_plus_sign,,,,null,,,,,,,,,,,,,,
null,,learn_phase(without_color),320435,black_plus_sign,,,,null,GW/jukebox.jpg,GW/teeth.jpg,,,,,,,,,,,,
null,,black_cross(without_color),321121,green,,,,null,GW/jukebox.jpg,GW/teeth.jpg,,,,,,,,,,,,
null,,rt_plussign_withcolor,321624,green,,,,null,GW/jukebox.jpg,GW/teeth.jpg,,,,,,,,,,,,
null,,rt_thecrossant_black,322956,black_plus_sign,,,,null,,,1,,,,,,,,,,,
null,,color_black,323059,black_plus_sign,,,,null,,,,,,,,,,,,,,
null,,learn_phase(without_color),325062,black_plus_sign,,,,null,GW/basket.jpg,GW/globe.jpg,,,,,,,,,,,,
null,,black_cross(without_color),325553,green,,,,null,GW/basket.jpg,GW/globe.jpg,,,,,,,,,,,,
null,,rt_plussign_withcolor,326055,green,,,,null,GW/basket.jpg,GW/globe.jpg,,,,,,,,,,,,
1475.5,,rt_thecrossant_black,327566,black_plus_sign,,,,50,,,1,1,,,,,,,,,,
null,,color_black,327669,black_plus_sign,,,,null,,,,,,,,,,,,,,
null,,learn_phase(without_color),329672,black_plus_sign,,,,null,GW/paint.jpg,GW/jukebox.jpg,,,,,,,,,,,,
null,,black_cross(without_color),330454,blue,,,,null,GW/paint.jpg,GW/jukebox.jpg,,,,,,,,,,,,
null,,rt_plussign_withcolor,330956,blue,,,,null,GW/paint.jpg,GW/jukebox.jpg,,,,,,,,,,,,
1716.1999999999534,,rt_thecrossant_black,332179,black_plus_sign,,,,49,,,1,1,,,,,,,,,,
null,,color_black,332282,black_plus_sign,,,,null,,,,,,,,,,,,,,
null,,learn_phase(without_color),334285,black_plus_sign,,,,null,GW/camera.jpg,GW/gong.jpg,,,,,,,,,,,,
null,,black_cross(without_color),334880,blue,,,,null,GW/camera.jpg,GW/gong.jpg,,,,,,,,,,,,
null,,rt_plussign_withcolor,335382,blue,,,,null,GW/camera.jpg,GW/gong.jpg,,,,,,,,,,,,
1928.9000000001397,,rt_thecrossant_black,336792,black_plus_sign,,,,49,,,1,1,,,,,,,,,,
null,,color_black,336893,black_plus_sign,,,,null,,,,,,,,,,,,,,
null,,learn_phase(without_color),338896,black_plus_sign,,,,null,GW/dustpan.jpg,GW/barrel.jpg,,,,,,,,,,,,
null,,black_cross(without_color),339981,blue,,,,null,GW/dustpan.jpg,GW/barrel.jpg,,,,,,,,,,,,
null,,rt_plussign_withcolor,340484,blue,,,,null,GW/dustpan.jpg,GW/barrel.jpg,,,,,,,,,,,,
842.1999999999534,,rt_thecrossant_black,341404,black_plus_sign,,,,50,,,0.8571428571428571,0,,,,,,,,,,
null,,color_black,341514,black_plus_sign,,,,null,,,,,,,,,,,,,,
null,,learn_phase(without_color),343518,black_plus_sign,,,,null,GW/gong.jpg,GW/wheelchair.jpg,,,,,,,,,,,,
null,,black_cross(without_color),344318,green,,,,null,GW/gong.jpg,GW/wheelchair.jpg,,,,,,,,,,,,
null,,rt_plussign_withcolor,344820,green,,,,null,GW/gong.jpg,GW/wheelchair.jpg,,,,,,,,,,,,
1388.6000000000931,,rt_thecrossant_black,346026,black_plus_sign,,,,50,,,0.875,1,,,,,,,,,,
null,,color_black,346129,black_plus_sign,,,,null,,,,,,,,,,,,,,
null,,learn_phase(without_color),348132,black_plus_sign,,,,null,GW/paint.jpg,GW/dustpan.jpg,,,,,,,,,,,,
null,,black_cross(without_color),348821,blue,,,,null,GW/paint.jpg,GW/dustpan.jpg,,,,,,,,,,,,
null,,rt_plussign_withcolor,349323,blue,,,,null,GW/paint.jpg,GW/dustpan.jpg,,,,,,,,,,,,
1584.2999999998137,,rt_thecrossant_black,350639,black_plus_sign,,,,49,,,0.8888888888888888,1,,,,,,,,,,
null,,color_black,350742,black_plus_sign,,,,null,,,,,,,,,,,,,,
null,,learn_phase(without_color),352745,black_plus_sign,,,,null,GW/basket.jpg,GW/globe.jpg,,,,,,,,,,,,
null,,black_cross(without_color),353730,green,,,,null,GW/basket.jpg,GW/globe.jpg,,,,,,,,,,,,
null,,rt_plussign_withcolor,354232,green,,,,null,GW/basket.jpg,GW/globe.jpg,,,,,,,,,,,,
1012.5,,rt_thecrossant_black,355253,black_plus_sign,,,,50,,,0.9,1,,,,,,,,,,
null,,color_black,355355,black_plus_sign,,,,null,,,,,,,,,,,,,,
null,,learn_phase(without_color),357358,black_plus_sign,,,,null,GW/gong.jpg,GW/basket.jpg,,,,,,,,,,,,
null,,black_cross(without_color),358264,green,,,,null,GW/gong.jpg,GW/basket.jpg,,,,,,,,,,,,
null,,rt_plussign_withcolor,358780,green,,,,null,GW/gong.jpg,GW/basket.jpg,,,,,,,,,,,,
1216.9000000001397,,rt_thecrossant_black,359880,black_plus_sign,,,,50,,,0.9090909090909091,1,,,,,,,,,,
null,,color_black,359983,black_plus_sign,,,,null,,,,,,,,,,,,,,
null,,learn_phase(without_color),361987,black_plus_sign,,,,null,GW/paint.jpg,GW/jukebox.jpg,,,,,,,,,,,,
null,,black_cross(without_color),362663,blue,,,,null,GW/paint.jpg,GW/jukebox.jpg,,,,,,,,,,,,
null,,rt_plussign_withcolor,363165,blue,,,,null,GW/paint.jpg,GW/jukebox.jpg,,,,,,,,,,,,
1328.5,,rt_thecrossant_black,364513,black_plus_sign,,,,49,,,0.9166666666666666,1,,,,,,,,,,
null,,color_black,364616,black_plus_sign,,,,null,,,,,,,,,,,,,,
null,,learn_phase(without_color),366619,black_plus_sign,,,,null,GW/hat.jpg,GW/dustpan.jpg,,,,,,,,,,,,
null,,black_cross(without_color),367235,green,,,,null,GW/hat.jpg,GW/dustpan.jpg,,,,,,,,,,,,
null,,rt_plussign_withcolor,367738,green,,,,null,GW/hat.jpg,GW/dustpan.jpg,,,,,,,,,,,,
1100,,rt_thecrossant_black,369127,black_plus_sign,,,,50,,,0.9230769230769231,1,,,,,,,,,,
null,,color_black,369228,black_plus_sign,,,,null,,,,,,,,,,,,,,
null,,learn_phase(without_color),371232,black_plus_sign,,,,null,GW/paint.jpg,GW/jukebox.jpg,,,,,,,,,,,,
null,,black_cross(without_color),371875,blue,,,,null,GW/paint.jpg,GW/jukebox.jpg,,,,,,,,,,,,
null,,rt_plussign_withcolor,372377,blue,,,,null,GW/paint.jpg,GW/jukebox.jpg,,,,,,,,,,,,
954.8999999999069,,rt_thecrossant_black,373739,black_plus_sign,,,,49,,,0.9285714285714286,1,,,,,,,,,,
null,,color_black,373852,black_plus_sign,,,,null,,,,,,,,,,,,,,
null,,learn_phase(without_color),375855,black_plus_sign,,,,null,GW/basket.jpg,GW/snail.jpg,,,,,,,,,,,,
null,,black_cross(without_color),376561,blue,,,,null,GW/basket.jpg,GW/snail.jpg,,,,,,,,,,,,
null,,rt_plussign_withcolor,377063,blue,,,,null,GW/basket.jpg,GW/snail.jpg,,,,,,,,,,,,
1527.3000000000466,,rt_thecrossant_black,378363,black_plus_sign,,,,49,,,0.9333333333333333,1,,,,,,,,,,
null,,color_black,378466,black_plus_sign,,,,null,,,,,,,,,,,,,,
null,,learn_phase(without_color),380470,black_plus_sign,,,,null,GW/hat.jpg,GW/dustpan.jpg,,,,,,,,,,,,
null,,black_cross(without_color),381109,blue,,,,null,GW/hat.jpg,GW/dustpan.jpg,,,,,,,,,,,,
null,,rt_plussign_withcolor,381611,blue,,,,null,GW/hat.jpg,GW/dustpan.jpg,,,,,,,,,,,,
1410.8000000000466,,rt_thecrossant_black,382976,black_plus_sign,,,,49,,,0.9375,1,,,,,,,,,,
null,,color_black,383078,black_plus_sign,,,,null,,,,,,,,,,,,,,
null,,learn_phase(without_color),385082,black_plus_sign,,,,null,GW/gong.jpg,GW/basket.jpg,,,,,,,,,,,,
null,,black_cross(without_color),386182,green,,,,null,GW/gong.jpg,GW/basket.jpg,,,,,,,,,,,,
null,,rt_plussign_withcolor,386685,green,,,,null,GW/gong.jpg,GW/basket.jpg,,,,,,,,,,,,
893.9000000001397,,rt_thecrossant_black,387589,black_plus_sign,,,,50,,,0.9411764705882353,1,,,,,,,,,,
null,,color_black,387696,black_plus_sign,,,,null,,,,,,,,,,,,,,
null,,learn_phase(without_color),389699,black_plus_sign,,,,null,GW/dustpan.jpg,GW/barrel.jpg,,,,,,,,,,,,
null,,black_cross(without_color),390477,blue,,,,null,GW/dustpan.jpg,GW/barrel.jpg,,,,,,,,,,,,
null,,rt_plussign_withcolor,390979,blue,,,,null,GW/dustpan.jpg,GW/barrel.jpg,,,,,,,,,,,,
1612.6999999999534,,rt_thecrossant_black,392206,black_plus_sign,,,,49,,,0.9444444444444444,1,,,,,,,,,,
null,,color_black,392308,black_plus_sign,,,,null,,,,,,,,,,,,,,
null,,learn_phase(without_color),394311,black_plus_sign,,,,null,GW/paint.jpg,GW/jukebox.jpg,,,,,,,,,,,,
null,,black_cross(without_color),395375,green,,,,null,GW/paint.jpg,GW/jukebox.jpg,,,,,,,,,,,,
null,,rt_plussign_withcolor,395878,green,,,,null,GW/paint.jpg,GW/jukebox.jpg,,,,,,,,,,,,
null,,rt_thecrossant_black,396818,black_plus_sign,,,,null,,,0.9444444444444444,,,,,,,,,,,
null,,color_black,396919,black_plus_sign,,,,null,,,,,,,,,,,,,,
null,,learn_phase(without_color),398923,black_plus_sign,,,,null,GW/jukebox.jpg,GW/dustpan.jpg,,,,,,,,,,,,
null,,black_cross(without_color),399612,blue,,,,null,GW/jukebox.jpg,GW/dustpan.jpg,,,,,,,,,,,,
null,,rt_plussign_withcolor,400114,blue,,,,null,GW/jukebox.jpg,GW/dustpan.jpg,,,,,,,,,,,,
1625.6999999999534,,rt_thecrossant_black,401430,black_plus_sign,,,,49,,,0.9473684210526315,1,,,,,,,,,,
null,,color_black,401532,black_plus_sign,,,,null,,,,,,,,,,,,,,
null,,learn_phase(without_color),403535,black_plus_sign,,,,null,GW/gong.jpg,GW/wheelchair.jpg,,,,,,,,,,,,
null,,black_cross(without_color),404174,blue,,,,null,GW/gong.jpg,GW/wheelchair.jpg,,,,,,,,,,,,
null,,rt_plussign_withcolor,404677,blue,,,,null,GW/gong.jpg,GW/wheelchair.jpg,,,,,,,,,,,,
1207.5,,rt_thecrossant_black,406056,black_plus_sign,,,,49,,,0.95,1,,,,,,,,,,
null,,color_black,406158,black_plus_sign,,,,null,,,,,,,,,,,,,,
null,,learn_phase(without_color),408162,black_plus_sign,,,,null,GW/hat.jpg,GW/dustpan.jpg,,,,,,,,,,,,
null,,black_cross(without_color),409144,green,,,,null,GW/hat.jpg,GW/dustpan.jpg,,,,,,,,,,,,
null,,rt_plussign_withcolor,409646,green,,,,null,GW/hat.jpg,GW/dustpan.jpg,,,,,,,,,,,,
823.5999999998603,,rt_thecrossant_black,410669,black_plus_sign,,,,50,,,0.9523809523809523,1,,,,,,,,,,
null,,color_black,410771,black_plus_sign,,,,null,,,,,,,,,,,,,,
null,,learn_phase(without_color),412774,black_plus_sign,,,,null,GW/jukebox.jpg,GW/dustpan.jpg,,,,,,,,,,,,
null,,black_cross(without_color),413702,green,,,,null,GW/jukebox.jpg,GW/dustpan.jpg,,,,,,,,,,,,
null,,rt_plussign_withcolor,414206,green,,,,null,GW/jukebox.jpg,GW/dustpan.jpg,,,,,,,,,,,,
1780.1999999999534,,rt_thecrossant_black,415282,black_plus_sign,,,,50,,,0.9545454545454546,1,,,,,,,,,,
null,,color_black,415385,black_plus_sign,,,,null,,,,,,,,,,,,,,
null,,learn_phase(without_color),417388,black_plus_sign,,,,null,GW/barrel.jpg,GW/globe.jpg,,,,,,,,,,,,
null,,black_cross(without_color),418421,blue,,,,null,GW/barrel.jpg,GW/globe.jpg,,,,,,,,,,,,
null,,rt_plussign_withcolor,418924,blue,,,,null,GW/barrel.jpg,GW/globe.jpg,,,,,,,,,,,,
null,,rt_thecrossant_black,419897,black_plus_sign,,,,null,,,0.9545454545454546,,,,,,,,,,,
null,,color_black,419999,black_plus_sign,,,,null,,,,,,,,,,,,,,
null,,learn_phase(without_color),422004,black_plus_sign,,,,null,GW/gong.jpg,GW/wheelchair.jpg,,,,,,,,,,,,
null,,black_cross(without_color),422974,green,,,,null,GW/gong.jpg,GW/wheelchair.jpg,,,,,,,,,,,,
428,,rt_plussign_withcolor,423476,green,,,,50,GW/gong.jpg,GW/wheelchair.jpg,,,,,,,,,,,,
null,,rt_thecrossant_black,424510,black_plus_sign,,,,null,,,0.9565217391304348,1,,,,,,,,,,
null,,color_black,424612,black_plus_sign,,,,null,,,,,,,,,,,,,,
null,,learn_phase(without_color),426616,black_plus_sign,,,,null,GW/camera.jpg,GW/gong.jpg,,,,,,,,,,,,
null,,black_cross(without_color),427113,green,,,,null,GW/camera.jpg,GW/gong.jpg,,,,,,,,,,,,
null,,rt_plussign_withcolor,427615,green,,,,null,GW/camera.jpg,GW/gong.jpg,,,,,,,,,,,,
1870.6000000000931,,rt_thecrossant_black,429123,black_plus_sign,,,,50,,,0.9583333333333334,1,,,,,,,,,,
null,,color_black,429225,black_plus_sign,,,,null,,,,,,,,,,,,,,
null,,learn_phase(without_color),431228,black_plus_sign,,,,null,GW/paint.jpg,GW/dustpan.jpg,,,,,,,,,,,,
null,,black_cross(without_color),432016,green,,,,null,GW/paint.jpg,GW/dustpan.jpg,,,,,,,,,,,,
null,,rt_plussign_withcolor,432529,green,,,,null,GW/paint.jpg,GW/dustpan.jpg,,,,,,,,,,,,
1243.6999999999534,,rt_thecrossant_black,433748,black_plus_sign,,,,50,,,0.96,1,,,,,,,,,,
null,,color_black,433859,black_plus_sign,,,,null,,,,,,,,,,,,,,
null,,learn_phase(without_color),435862,black_plus_sign,,,,null,GW/gong.jpg,GW/wheelchair.jpg,,,,,,,,,,,,
null,,black_cross(without_color),436906,green,,,,null,GW/gong.jpg,GW/wheelchair.jpg,,,,,,,,,,,,
null,,rt_plussign_withcolor,437419,green,,,,null,GW/gong.jpg,GW/wheelchair.jpg,,,,,,,,,,,,
1827.1000000000931,,rt_thecrossant_black,438379,black_plus_sign,,,,50,,,0.9615384615384616,1,,,,,,,,,,
null,,color_black,438482,black_plus_sign,,,,null,,,,,,,,,,,,,,
null,,learn_phase(without_color),440485,black_plus_sign,,,,null,GW/basket.jpg,GW/globe.jpg,,,,,,,,,,,,
null,,black_cross(without_color),440933,blue,,,,null,GW/basket.jpg,GW/globe.jpg,,,,,,,,,,,,
null,,rt_plussign_withcolor,441435,blue,,,,null,GW/basket.jpg,GW/globe.jpg,,,,,,,,,,,,
null,,rt_thecrossant_black,442994,black_plus_sign,,,,null,,,0.9615384615384616,,,,,,,,,,,
null,,color_black,443096,black_plus_sign,,,,null,,,,,,,,,,,,,,
null,,learn_phase(without_color),445099,black_plus_sign,,,,null,GW/jukebox.jpg,GW/hat.jpg,,,,,,,,,,,,
null,,black_cross(without_color),445776,green,,,,null,GW/jukebox.jpg,GW/hat.jpg,,,,,,,,,,,,
null,,rt_plussign_withcolor,446278,green,,,,null,GW/jukebox.jpg,GW/hat.jpg,,,,,,,,,,,,
null,,rt_thecrossant_black,447607,black_plus_sign,,,,null,,,0.9615384615384616,,,,,,,,,,,
null,,warning_page,450610,warning,,,,null,,,,,,,,,,,,,,
null,,color_black,450712,black_plus_sign,,,,null,,,,,,,,,,,,,,
null,,learn_phase(without_color),452714,black_plus_sign,,,,null,GW/barrel.jpg,GW/globe.jpg,,,,,,,,,,,,
null,,black_cross(without_color),453772,blue,,,,null,GW/barrel.jpg,GW/globe.jpg,,,,,,,,,,,,
null,,rt_plussign_withcolor,454274,blue,,,,null,GW/barrel.jpg,GW/globe.jpg,,,,,,,,,,,,
934,,rt_thecrossant_black,455221,black_plus_sign,,,,49,,,0.9629629629629629,1,,,,,,,,,,
null,,color_black,455324,black_plus_sign,,,,null,,,,,,,,,,,,,,
null,,learn_phase(without_color),457328,black_plus_sign,,,,null,GW/basket.jpg,GW/snail.jpg,,,,,,,,,,,,
null,,black_cross(without_color),458160,blue,,,,null,GW/basket.jpg,GW/snail.jpg,,,,,,,,,,,,
null,,rt_plussign_withcolor,458661,blue,,,,null,GW/basket.jpg,GW/snail.jpg,,,,,,,,,,,,
1592.5,,rt_thecrossant_black,459836,black_plus_sign,,,,49,,,0.9642857142857143,1,,,,,,,,,,
null,,color_black,459938,black_plus_sign,,,,null,,,,,,,,,,,,,,
null,,learn_phase(without_color),461942,black_plus_sign,,,,null,GW/gong.jpg,GW/basket.jpg,,,,,,,,,,,,
null,,black_cross(without_color),462888,blue,,,,null,GW/gong.jpg,GW/basket.jpg,,,,,,,,,,,,
null,,rt_plussign_withcolor,463390,blue,,,,null,GW/gong.jpg,GW/basket.jpg,,,,,,,,,,,,
null,,rt_thecrossant_black,464449,black_plus_sign,,,,null,,,0.9642857142857143,,,,,,,,,,,
null,,color_black,464551,black_plus_sign,,,,null,,,,,,,,,,,,,,
null,,learn_phase(without_color),466555,black_plus_sign,,,,null,GW/wheelchair.jpg,GW/barrel.jpg,,,,,,,,,,,,
null,,black_cross(without_color),467587,blue,,,,null,GW/wheelchair.jpg,GW/barrel.jpg,,,,,,,,,,,,
null,,rt_plussign_withcolor,468089,blue,,,,null,GW/wheelchair.jpg,GW/barrel.jpg,,,,,,,,,,,,
1549,,rt_thecrossant_black,469061,black_plus_sign,,,,49,,,0.9655172413793104,1,,,,,,,,,,
null,,color_black,469164,black_plus_sign,,,,null,,,,,,,,,,,,,,
null,,learn_phase(without_color),471168,black_plus_sign,,,,null,GW/wheelchair.jpg,GW/paint.jpg,,,,,,,,,,,,
null,,black_cross(without_color),472130,blue,,,,null,GW/wheelchair.jpg,GW/paint.jpg,,,,,,,,,,,,
null,,rt_plussign_withcolor,472632,blue,,,,null,GW/wheelchair.jpg,GW/paint.jpg,,,,,,,,,,,,
1324.0999999998603,,rt_thecrossant_black,473675,black_plus_sign,,,,49,,,0.9666666666666667,1,,,,,,,,,,
null,,color_black,473778,black_plus_sign,,,,null,,,,,,,,,,,,,,
null,,learn_phase(without_color),475781,black_plus_sign,,,,null,GW/dustpan.jpg,GW/barrel.jpg,,,,,,,,,,,,
null,,black_cross(without_color),476287,blue,,,,null,GW/dustpan.jpg,GW/barrel.jpg,,,,,,,,,,,,
null,,rt_plussign_withcolor,476789,blue,,,,null,GW/dustpan.jpg,GW/barrel.jpg,,,,,,,,,,,,
1279.5999999998603,,rt_thecrossant_black,478290,black_plus_sign,,,,49,,,0.967741935483871,1,,,,,,,,,,
null,,color_black,478392,black_plus_sign,,,,null,,,,,,,,,,,,,,
null,,learn_phase(without_color),480395,black_plus_sign,,,,null,GW/hat.jpg,GW/soldier.jpg,,,,,,,,,,,,
null,,black_cross(without_color),481165,blue,,,,null,GW/hat.jpg,GW/soldier.jpg,,,,,,,,,,,,
null,,rt_plussign_withcolor,481668,blue,,,,null,GW/hat.jpg,GW/soldier.jpg,,,,,,,,,,,,
905.1999999999534,,rt_thecrossant_black,482905,black_plus_sign,,,,49,,,0.96875,1,,,,,,,,,,
null,,color_black,483008,black_plus_sign,,,,null,,,,,,,,,,,,,,
null,,learn_phase(without_color),485012,black_plus_sign,,,,null,GW/jukebox.jpg,GW/teeth.jpg,,,,,,,,,,,,
null,,black_cross(without_color),485510,blue,,,,null,GW/jukebox.jpg,GW/teeth.jpg,,,,,,,,,,,,
484.0999999998603,,rt_plussign_withcolor,486013,blue,,,,49,GW/jukebox.jpg,GW/teeth.jpg,,,,,,,,,,,,
null,,rt_thecrossant_black,487521,black_plus_sign,,,,null,,,0.9696969696969697,1,,,,,,,,,,
null,,color_black,487624,black_plus_sign,,,,null,,,,,,,,,,,,,,
null,,learn_phase(without_color),489628,black_plus_sign,,,,null,GW/basket.jpg,GW/snail.jpg,,,,,,,,,,,,
null,,black_cross(without_color),490362,blue,,,,null,GW/basket.jpg,GW/snail.jpg,,,,,,,,,,,,
null,,rt_plussign_withcolor,490864,blue,,,,null,GW/basket.jpg,GW/snail.jpg,,,,,,,,,,,,
941.9000000001397,,rt_thecrossant_black,492150,black_plus_sign,,,,49,,,0.9705882352941176,1,,,,,,,,,,
null,,color_black,492254,black_plus_sign,,,,null,,,,,,,,,,,,,,
null,,learn_phase(without_color),494258,black_plus_sign,,,,null,GW/paint.jpg,GW/dustpan.jpg,,,,,,,,,,,,
null,,black_cross(without_color),495251,blue,,,,null,GW/paint.jpg,GW/dustpan.jpg,,,,,,,,,,,,
null,,rt_plussign_withcolor,495752,blue,,,,null,GW/paint.jpg,GW/dustpan.jpg,,,,,,,,,,,,
1352.5,,rt_thecrossant_black,496765,black_plus_sign,,,,49,,,0.9714285714285714,1,,,,,,,,,,
null,,color_black,496868,black_plus_sign,,,,null,,,,,,,,,,,,,,
null,,learn_phase(without_color),498872,black_plus_sign,,,,null,GW/camera.jpg,GW/gong.jpg,,,,,,,,,,,,
null,,black_cross(without_color),499350,green,,,,null,GW/camera.jpg,GW/gong.jpg,,,,,,,,,,,,
null,,rt_plussign_withcolor,499851,green,,,,null,GW/camera.jpg,GW/gong.jpg,,,,,,,,,,,,
1543.7999999998137,,rt_thecrossant_black,501380,black_plus_sign,,,,50,,,0.9722222222222222,1,,,,,,,,,,
null,,color_black,501483,black_plus_sign,,,,null,,,,,,,,,,,,,,
null,,learn_phase(without_color),503486,black_plus_sign,,,,null,GW/wheelchair.jpg,GW/barrel.jpg,,,,,,,,,,,,
null,,black_cross(without_color),504293,blue,,,,null,GW/wheelchair.jpg,GW/barrel.jpg,,,,,,,,,,,,
null,,rt_plussign_withcolor,504795,blue,,,,null,GW/wheelchair.jpg,GW/barrel.jpg,,,,,,,,,,,,
1741.7999999998137,,rt_thecrossant_black,505994,black_plus_sign,,,,50,,,0.9459459459459459,0,,,,,,,,,,
null,,color_black,506096,black_plus_sign,,,,null,,,,,,,,,,,,,,
null,,learn_phase(without_color),508100,black_plus_sign,,,,null,GW/jukebox.jpg,GW/hat.jpg,,,,,,,,,,,,
null,,black_cross(without_color),508970,blue,,,,null,GW/jukebox.jpg,GW/hat.jpg,,,,,,,,,,,,
null,,rt_plussign_withcolor,509472,blue,,,,null,GW/jukebox.jpg,GW/hat.jpg,,,,,,,,,,,,
1954.0999999998603,,rt_thecrossant_black,510608,black_plus_sign,,,,49,,,0.9473684210526315,1,,,,,,,,,,
null,,color_black,510710,black_plus_sign,,,,null,,,,,,,,,,,,,,
null,,learn_phase(without_color),512714,black_plus_sign,,,,null,GW/dustpan.jpg,GW/barrel.jpg,,,,,,,,,,,,
null,,black_cross(without_color),513336,green,,,,null,GW/dustpan.jpg,GW/barrel.jpg,,,,,,,,,,,,
null,,rt_plussign_withcolor,513838,green,,,,null,GW/dustpan.jpg,GW/barrel.jpg,,,,,,,,,,,,
1098.1000000000931,,rt_thecrossant_black,515224,black_plus_sign,,,,50,,,0.9487179487179487,1,,,,,,,,,,
null,,color_black,515326,black_plus_sign,,,,null,,,,,,,,,,,,,,
null,,learn_phase(without_color),517329,black_plus_sign,,,,null,GW/hat.jpg,GW/soldier.jpg,,,,,,,,,,,,
null,,black_cross(without_color),518286,green,,,,null,GW/hat.jpg,GW/soldier.jpg,,,,,,,,,,,,
null,,rt_plussign_withcolor,518788,green,,,,null,GW/hat.jpg,GW/soldier.jpg,,,,,,,,,,,,
885.5999999998603,,rt_thecrossant_black,519837,black_plus_sign,,,,50,,,0.95,1,,,,,,,,,,
null,,color_black,519940,black_plus_sign,,,,null,,,,,,,,,,,,,,
null,,learn_phase(without_color),521944,black_plus_sign,,,,null,GW/jukebox.jpg,GW/hat.jpg,,,,,,,,,,,,
null,,black_cross(without_color),522965,blue,,,,null,GW/jukebox.jpg,GW/hat.jpg,,,,,,,,,,,,
null,,rt_plussign_withcolor,523467,blue,,,,null,GW/jukebox.jpg,GW/hat.jpg,,,,,,,,,,,,
1275.8999999999069,,rt_thecrossant_black,524452,black_plus_sign,,,,49,,,0.9512195121951219,1,,,,,,,,,,
null,,color_black,524554,black_plus_sign,,,,null,,,,,,,,,,,,,,
null,,learn_phase(without_color),526559,black_plus_sign,,,,null,GW/basket.jpg,GW/globe.jpg,,,,,,,,,,,,
null,,black_cross(without_color),527366,blue,,,,null,GW/basket.jpg,GW/globe.jpg,,,,,,,,,,,,
null,,rt_plussign_withcolor,527868,blue,,,,null,GW/basket.jpg,GW/globe.jpg,,,,,,,,,,,,
1467.5999999998603,,rt_thecrossant_black,529066,black_plus_sign,,,,50,,,0.9285714285714286,0,,,,,,,,,,
null,,color_black,529170,black_plus_sign,,,,null,,,,,,,,,,,,,,
null,,learn_phase(without_color),531174,black_plus_sign,,,,null,GW/barrel.jpg,GW/globe.jpg,,,,,,,,,,,,
null,,black_cross(without_color),531578,green,,,,null,GW/barrel.jpg,GW/globe.jpg,,,,,,,,,,,,
433.19999999995343,,rt_plussign_withcolor,532080,green,,,,49,GW/barrel.jpg,GW/globe.jpg,,,,,,,,,,,,
null,,rt_thecrossant_black,533682,black_plus_sign,,,,50,,,0.9069767441860465,0,,,,,,,,,,
null,,warning_page,536683,warning,,,,null,,,,,,,,,,,,,,
null,,color_black,536785,black_plus_sign,,,,null,,,,,,,,,,,,,,
null,,learn_phase(without_color),538788,black_plus_sign,,,,null,GW/jukebox.jpg,GW/dustpan.jpg,,,,,,,,,,,,
null,,black_cross(without_color),539539,green,,,,null,GW/jukebox.jpg,GW/dustpan.jpg,,,,,,,,,,,,
null,,rt_plussign_withcolor,540042,green,,,,null,GW/jukebox.jpg,GW/dustpan.jpg,,,,,,,,,,,,
861.1000000000931,,rt_thecrossant_black,541297,black_plus_sign,,,,50,,,0.9090909090909091,1,,,,,,,,,,
null,,color_black,541400,black_plus_sign,,,,null,,,,,,,,,,,,,,
null,,learn_phase(without_color),543404,black_plus_sign,,,,null,GW/camera.jpg,GW/gong.jpg,,,,,,,,,,,,
null,,black_cross(without_color),543944,blue,,,,null,GW/camera.jpg,GW/gong.jpg,,,,,,,,,,,,
null,,rt_plussign_withcolor,544446,blue,,,,null,GW/camera.jpg,GW/gong.jpg,,,,,,,,,,,,
1564.4000000001397,,rt_thecrossant_black,545911,black_plus_sign,,,,49,,,0.9111111111111111,1,,,,,,,,,,
null,,color_black,546014,black_plus_sign,,,,null,,,,,,,,,,,,,,
null,,learn_phase(without_color),548017,black_plus_sign,,,,null,GW/gong.jpg,GW/wheelchair.jpg,,,,,,,,,,,,
null,,black_cross(without_color),548977,green,,,,null,GW/gong.jpg,GW/wheelchair.jpg,,,,,,,,,,,,
null,,rt_plussign_withcolor,549479,green,,,,null,GW/gong.jpg,GW/wheelchair.jpg,,,,,,,,,,,,
976.6999999999534,,rt_thecrossant_black,550524,black_plus_sign,,,,50,,,0.9130434782608695,1,,,,,,,,,,
null,,color_black,550627,black_plus_sign,,,,null,,,,,,,,,,,,,,
null,,learn_phase(without_color),552630,black_plus_sign,,,,null,GW/camera.jpg,GW/gong.jpg,,,,,,,,,,,,
null,,black_cross(without_color),553226,green,,,,null,GW/camera.jpg,GW/gong.jpg,,,,,,,,,,,,
null,,rt_plussign_withcolor,553727,green,,,,null,GW/camera.jpg,GW/gong.jpg,,,,,,,,,,,,
1573.1000000000931,,rt_thecrossant_black,555136,black_plus_sign,,,,50,,,0.9148936170212766,1,,,,,,,,,,
null,,color_black,555239,black_plus_sign,,,,null,,,,,,,,,,,,,,
null,,learn_phase(without_color),557243,black_plus_sign,,,,null,GW/hat.jpg,GW/soldier.jpg,,,,,,,,,,,,
null,,black_cross(without_color),558267,blue,,,,null,GW/hat.jpg,GW/soldier.jpg,,,,,,,,,,,,
null,,rt_plussign_withcolor,558769,blue,,,,null,GW/hat.jpg,GW/soldier.jpg,,,,,,,,,,,,
1582,,rt_thecrossant_black,559749,black_plus_sign,,,,49,,,0.9166666666666666,1,,,,,,,,,,
null,,color_black,559859,black_plus_sign,,,,null,,,,,,,,,,,,,,
null,,learn_phase(without_color),561863,black_plus_sign,,,,null,GW/basket.jpg,GW/globe.jpg,,,,,,,,,,,,
null,,black_cross(without_color),562495,blue,,,,null,GW/basket.jpg,GW/globe.jpg,,,,,,,,,,,,
null,,rt_plussign_withcolor,562997,blue,,,,null,GW/basket.jpg,GW/globe.jpg,,,,,,,,,,,,
1502.6000000000931,,rt_thecrossant_black,564372,black_plus_sign,,,,49,,,0.9183673469387755,1,,,,,,,,,,
null,,color_black,564474,black_plus_sign,,,,null,,,,,,,,,,,,,,
null,,learn_phase(without_color),566478,black_plus_sign,,,,null,GW/jukebox.jpg,GW/dustpan.jpg,,,,,,,,,,,,
null,,black_cross(without_color),567132,green,,,,null,GW/jukebox.jpg,GW/dustpan.jpg,,,,,,,,,,,,
null,,rt_plussign_withcolor,567634,green,,,,null,GW/jukebox.jpg,GW/dustpan.jpg,,,,,,,,,,,,
982,,rt_thecrossant_black,568986,black_plus_sign,,,,50,,,0.92,1,,,,,,,,,,
null,,color_black,569090,black_plus_sign,,,,null,,,,,,,,,,,,,,
null,,learn_phase(without_color),571093,black_plus_sign,,,,null,GW/wheelchair.jpg,GW/barrel.jpg,,,,,,,,,,,,
null,,black_cross(without_color),571903,green,,,,null,GW/wheelchair.jpg,GW/barrel.jpg,,,,,,,,,,,,
null,,rt_plussign_withcolor,572405,green,,,,null,GW/wheelchair.jpg,GW/barrel.jpg,,,,,,,,,,,,
1603.2999999998137,,rt_thecrossant_black,573601,black_plus_sign,,,,50,,,0.9215686274509803,1,,,,,,,,,,
null,,color_black,573703,black_plus_sign,,,,null,,,,,,,,,,,,,,
null,,learn_phase(without_color),575705,black_plus_sign,,,,null,GW/paint.jpg,GW/jukebox.jpg,,,,,,,,,,,,
null,,black_cross(without_color),576118,blue,,,,null,GW/paint.jpg,GW/jukebox.jpg,,,,,,,,,,,,
null,,rt_plussign_withcolor,576621,blue,,,,null,GW/paint.jpg,GW/jukebox.jpg,,,,,,,,,,,,
1159.5,,rt_thecrossant_black,578212,black_plus_sign,,,,49,,,0.9230769230769231,1,,,,,,,,,,
null,,color_black,578315,black_plus_sign,,,,null,,,,,,,,,,,,,,
null,,learn_phase(without_color),580319,black_plus_sign,,,,null,GW/jukebox.jpg,GW/dustpan.jpg,,,,,,,,,,,,
null,,black_cross(without_color),581020,blue,,,,null,GW/jukebox.jpg,GW/dustpan.jpg,,,,,,,,,,,,
null,,rt_plussign_withcolor,581521,blue,,,,null,GW/jukebox.jpg,GW/dustpan.jpg,,,,,,,,,,,,
1174.4000000001397,,rt_thecrossant_black,582826,black_plus_sign,,,,49,,,0.9245283018867925,1,,,,,,,,,,
null,,color_black,582930,black_plus_sign,,,,null,,,,,,,,,,,,,,
null,,learn_phase(without_color),584934,black_plus_sign,,,,null,GW/hat.jpg,GW/soldier.jpg,,,,,,,,,,,,
null,,black_cross(without_color),585477,blue,,,,null,GW/hat.jpg,GW/soldier.jpg,,,,,,,,,,,,
null,,rt_plussign_withcolor,585979,blue,,,,null,GW/hat.jpg,GW/soldier.jpg,,,,,,,,,,,,
1221.3000000000466,,rt_thecrossant_black,587441,black_plus_sign,,,,50,,,0.9074074074074074,0,,,,,,,,,,
null,,color_black,587544,black_plus_sign,,,,null,,,,,,,,,,,,,,
null,,learn_phase(without_color),589548,black_plus_sign,,,,null,GW/jukebox.jpg,GW/hat.jpg,,,,,,,,,,,,
null,,black_cross(without_color),589962,green,,,,null,GW/jukebox.jpg,GW/hat.jpg,,,,,,,,,,,,
null,,rt_plussign_withcolor,590465,green,,,,null,GW/jukebox.jpg,GW/hat.jpg,,,,,,,,,,,,
792.8000000000466,,rt_thecrossant_black,592056,black_plus_sign,,,,50,,,0.9090909090909091,1,,,,,,,,,,
null,,color_black,592158,black_plus_sign,,,,null,,,,,,,,,,,,,,
null,,learn_phase(without_color),594161,black_plus_sign,,,,null,GW/jukebox.jpg,GW/dustpan.jpg,,,,,,,,,,,,
null,,black_cross(without_color),595074,blue,,,,null,GW/jukebox.jpg,GW/dustpan.jpg,,,,,,,,,,,,
null,,rt_plussign_withcolor,595576,blue,,,,null,GW/jukebox.jpg,GW/dustpan.jpg,,,,,,,,,,,,
1144.1999999999534,,rt_thecrossant_black,596669,black_plus_sign,,,,49,,,0.9107142857142857,1,,,,,,,,,,
null,,color_black,596772,black_plus_sign,,,,null,,,,,,,,,,,,,,
null,,learn_phase(without_color),598777,black_plus_sign,,,,null,GW/jukebox.jpg,GW/teeth.jpg,,,,,,,,,,,,
null,,black_cross(without_color),599281,blue,,,,null,GW/jukebox.jpg,GW/teeth.jpg,,,,,,,,,,,,
null,,rt_plussign_withcolor,599783,blue,,,,null,GW/jukebox.jpg,GW/teeth.jpg,,,,,,,,,,,,
2069.8000000000466,,rt_thecrossant_black,601285,black_plus_sign,,,,49,,,0.9122807017543859,1,,,,,,,,,,
null,,color_black,601387,black_plus_sign,,,,null,,,,,,,,,,,,,,
null,,learn_phase(without_color),603391,black_plus_sign,,,,null,GW/wheelchair.jpg,GW/paint.jpg,,,,,,,,,,,,
null,,black_cross(without_color),603853,blue,,,,null,GW/wheelchair.jpg,GW/paint.jpg,,,,,,,,,,,,
null,,rt_plussign_withcolor,604355,blue,,,,null,GW/wheelchair.jpg,GW/paint.jpg,,,,,,,,,,,,
1655.0999999998603,,rt_thecrossant_black,605908,black_plus_sign,,,,50,,,0.896551724137931,0,,,,,,,,,,
null,,color_black,606011,black_plus_sign,,,,null,,,,,,,,,,,,,,
null,,learn_phase(without_color),608014,black_plus_sign,,,,null,GW/hat.jpg,GW/dustpan.jpg,,,,,,,,,,,,
null,,black_cross(without_color),608791,green,,,,null,GW/hat.jpg,GW/dustpan.jpg,,,,,,,,,,,,
null,,rt_plussign_withcolor,609293,green,,,,null,GW/hat.jpg,GW/dustpan.jpg,,,,,,,,,,,,
1091.4000000001397,,rt_thecrossant_black,610522,black_plus_sign,,,,50,,,0.8983050847457628,1,,,,,,,,,,
null,,color_black,610624,black_plus_sign,,,,null,,,,,,,,,,,,,,
null,,learn_phase(without_color),612629,black_plus_sign,,,,null,GW/dustpan.jpg,GW/barrel.jpg,,,,,,,,,,,,
null,,black_cross(without_color),613424,blue,,,,null,GW/dustpan.jpg,GW/barrel.jpg,,,,,,,,,,,,
null,,rt_plussign_withcolor,613926,blue,,,,null,GW/dustpan.jpg,GW/barrel.jpg,,,,,,,,,,,,
1334,,rt_thecrossant_black,615138,black_plus_sign,,,,49,,,0.9,1,,,,,,,,,,
null,,color_black,615241,black_plus_sign,,,,null,,,,,,,,,,,,,,
null,,learn_phase(without_color),617244,black_plus_sign,,,,null,GW/hat.jpg,GW/soldier.jpg,,,,,,,,,,,,
null,,black_cross(without_color),618018,green,,,,null,GW/hat.jpg,GW/soldier.jpg,,,,,,,,,,,,
null,,rt_plussign_withcolor,618519,green,,,,null,GW/hat.jpg,GW/soldier.jpg,,,,,,,,,,,,
1030.3000000000466,,rt_thecrossant_black,619752,black_plus_sign,,,,50,,,0.9016393442622951,1,,,,,,,,,,
null,,color_black,619854,black_plus_sign,,,,null,,,,,,,,,,,,,,
null,,learn_phase(without_color),621856,black_plus_sign,,,,null,GW/basket.jpg,GW/snail.jpg,,,,,,,,,,,,
null,,black_cross(without_color),622660,blue,,,,null,GW/basket.jpg,GW/snail.jpg,,,,,,,,,,,,
null,,rt_plussign_withcolor,623162,blue,,,,null,GW/basket.jpg,GW/snail.jpg,,,,,,,,,,,,
932.9000000001397,,rt_thecrossant_black,624364,black_plus_sign,,,,49,,,0.9032258064516129,1,,,,,,,,,,
null,,color_black,624468,black_plus_sign,,,,null,,,,,,,,,,,,,,
null,,learn_phase(without_color),626472,black_plus_sign,,,,null,GW/hat.jpg,GW/soldier.jpg,,,,,,,,,,,,
null,,black_cross(without_color),627255,green,,,,null,GW/hat.jpg,GW/soldier.jpg,,,,,,,,,,,,
null,,rt_plussign_withcolor,627757,green,,,,null,GW/hat.jpg,GW/soldier.jpg,,,,,,,,,,,,
1178.6000000000931,,rt_thecrossant_black,628980,black_plus_sign,,,,50,,,0.9047619047619048,1,,,,,,,,,,
null,,color_black,629082,black_plus_sign,,,,null,,,,,,,,,,,,,,
null,,learn_phase(without_color),631087,black_plus_sign,,,,null,GW/barrel.jpg,GW/globe.jpg,,,,,,,,,,,,
null,,black_cross(without_color),631570,green,,,,null,GW/barrel.jpg,GW/globe.jpg,,,,,,,,,,,,
null,,rt_plussign_withcolor,632073,green,,,,null,GW/barrel.jpg,GW/globe.jpg,,,,,,,,,,,,
1289.5,,rt_thecrossant_black,633596,black_plus_sign,,,,50,,,0.90625,1,,,,,,,,,,
null,,color_black,633699,black_plus_sign,,,,null,,,,,,,,,,,,,,
null,,learn_phase(without_color),635703,black_plus_sign,,,,null,GW/basket.jpg,GW/snail.jpg,,,,,,,,,,,,
null,,black_cross(without_color),636129,blue,,,,null,GW/basket.jpg,GW/snail.jpg,,,,,,,,,,,,
null,,rt_plussign_withcolor,636630,blue,,,,null,GW/basket.jpg,GW/snail.jpg,,,,,,,,,,,,
1759.9000000001397,,rt_thecrossant_black,638209,black_plus_sign,,,,50,,,0.8923076923076924,0,,,,,,,,,,
null,,color_black,638311,black_plus_sign,,,,null,,,,,,,,,,,,,,
null,,learn_phase(without_color),640316,black_plus_sign,,,,null,GW/basket.jpg,GW/globe.jpg,,,,,,,,,,,,
null,,black_cross(without_color),641408,green,,,,null,GW/basket.jpg,GW/globe.jpg,,,,,,,,,,,,
null,,rt_plussign_withcolor,641909,green,,,,null,GW/basket.jpg,GW/globe.jpg,,,,,,,,,,,,
1095.1999999999534,,rt_thecrossant_black,642824,black_plus_sign,,,,50,,,0.8939393939393939,1,,,,,,,,,,
null,,color_black,642927,black_plus_sign,,,,null,,,,,,,,,,,,,,
null,,learn_phase(without_color),644931,black_plus_sign,,,,null,GW/camera.jpg,GW/gong.jpg,,,,,,,,,,,,
null,,black_cross(without_color),645890,green,,,,null,GW/camera.jpg,GW/gong.jpg,,,,,,,,,,,,
null,,rt_plussign_withcolor,646394,green,,,,null,GW/camera.jpg,GW/gong.jpg,,,,,,,,,,,,
1409.8000000000466,,rt_thecrossant_black,647440,black_plus_sign,,,,50,,,0.8955223880597015,1,,,,,,,,,,
null,,color_black,647543,black_plus_sign,,,,null,,,,,,,,,,,,,,
null,,learn_phase(without_color),649547,black_plus_sign,,,,null,GW/hat.jpg,GW/soldier.jpg,,,,,,,,,,,,
null,,black_cross(without_color),650060,blue,,,,null,GW/hat.jpg,GW/soldier.jpg,,,,,,,,,,,,
null,,rt_plussign_withcolor,650562,blue,,,,null,GW/hat.jpg,GW/soldier.jpg,,,,,,,,,,,,
1831.5,,rt_thecrossant_black,652054,black_plus_sign,,,,49,,,0.8970588235294118,1,,,,,,,,,,
null,,color_black,652157,black_plus_sign,,,,null,,,,,,,,,,,,,,
null,,learn_phase(without_color),654161,black_plus_sign,,,,null,GW/wheelchair.jpg,GW/barrel.jpg,,,,,,,,,,,,
null,,black_cross(without_color),654876,blue,,,,null,GW/wheelchair.jpg,GW/barrel.jpg,,,,,,,,,,,,
null,,rt_plussign_withcolor,655383,blue,,,,null,GW/wheelchair.jpg,GW/barrel.jpg,,,,,,,,,,,,
869.8000000000466,,rt_thecrossant_black,656673,black_plus_sign,,,,49,,,0.8985507246376812,1,,,,,,,,,,
null,,color_black,656776,black_plus_sign,,,,null,,,,,,,,,,,,,,
null,,learn_phase(without_color),658780,black_plus_sign,,,,null,GW/hat.jpg,GW/dustpan.jpg,,,,,,,,,,,,
null,,black_cross(without_color),659640,green,,,,null,GW/hat.jpg,GW/dustpan.jpg,,,,,,,,,,,,
null,,rt_plussign_withcolor,660143,green,,,,null,GW/hat.jpg,GW/dustpan.jpg,,,,,,,,,,,,
968,,rt_thecrossant_black,661288,black_plus_sign,,,,50,,,0.9,1,,,,,,,,,,
null,,color_black,661394,black_plus_sign,,,,null,,,,,,,,,,,,,,
null,,learn_phase(without_color),663398,black_plus_sign,,,,null,GW/gong.jpg,GW/basket.jpg,,,,,,,,,,,,
null,,black_cross(without_color),664194,green,,,,null,GW/gong.jpg,GW/basket.jpg,,,,,,,,,,,,
null,,rt_plussign_withcolor,664697,green,,,,null,GW/gong.jpg,GW/basket.jpg,,,,,,,,,,,,
null,,rt_thecrossant_black,665905,black_plus_sign,,,,null,,,0.9,,,,,,,,,,,
null,,color_black,666006,black_plus_sign,,,,null,,,,,,,,,,,,,,
null,,learn_phase(without_color),668011,black_plus_sign,,,,null,GW/gong.jpg,GW/wheelchair.jpg,,,,,,,,,,,,
null,,black_cross(without_color),668786,blue,,,,null,GW/gong.jpg,GW/wheelchair.jpg,,,,,,,,,,,,
null,,rt_plussign_withcolor,669289,blue,,,,null,GW/gong.jpg,GW/wheelchair.jpg,,,,,,,,,,,,
942.5,,rt_thecrossant_black,670519,black_plus_sign,,,,49,,,0.9014084507042254,1,,,,,,,,,,
null,,color_black,670636,black_plus_sign,,,,null,,,,,,,,,,,,,,
null,,learn_phase(without_color),672640,black_plus_sign,,,,null,GW/jukebox.jpg,GW/dustpan.jpg,,,,,,,,,,,,
null,,black_cross(without_color),673228,green,,,,null,GW/jukebox.jpg,GW/dustpan.jpg,,,,,,,,,,,,
null,,rt_plussign_withcolor,673731,green,,,,null,GW/jukebox.jpg,GW/dustpan.jpg,,,,,,,,,,,,
1239.3000000000466,,rt_thecrossant_black,675149,black_plus_sign,,,,50,,,0.9027777777777778,1,,,,,,,,,,
null,,color_black,675254,black_plus_sign,,,,null,,,,,,,,,,,,,,
null,,learn_phase(without_color),677258,black_plus_sign,,,,null,GW/jukebox.jpg,GW/teeth.jpg,,,,,,,,,,,,
null,,black_cross(without_color),677910,blue,,,,null,GW/jukebox.jpg,GW/teeth.jpg,,,,,,,,,,,,
null,,rt_plussign_withcolor,678411,blue,,,,null,GW/jukebox.jpg,GW/teeth.jpg,,,,,,,,,,,,
899.3000000000466,,rt_thecrossant_black,679765,black_plus_sign,,,,49,,,0.9041095890410958,1,,,,,,,,,,
null,,color_black,679869,black_plus_sign,,,,null,,,,,,,,,,,,,,
null,,learn_phase(without_color),681873,black_plus_sign,,,,null,GW/jukebox.jpg,GW/hat.jpg,,,,,,,,,,,,
null,,black_cross(without_color),682386,green,,,,null,GW/jukebox.jpg,GW/hat.jpg,,,,,,,,,,,,
null,,rt_plussign_withcolor,682889,green,,,,null,GW/jukebox.jpg,GW/hat.jpg,,,,,,,,,,,,
1261.3999999999069,,rt_thecrossant_black,684382,black_plus_sign,,,,50,,,0.9054054054054054,1,,,,,,,,,,
null,,color_black,684485,black_plus_sign,,,,null,,,,,,,,,,,,,,
null,,learn_phase(without_color),686489,black_plus_sign,,,,null,GW/gong.jpg,GW/basket.jpg,,,,,,,,,,,,
null,,black_cross(without_color),687524,green,,,,null,GW/gong.jpg,GW/basket.jpg,,,,,,,,,,,,
null,,rt_plussign_withcolor,688026,green,,,,null,GW/gong.jpg,GW/basket.jpg,,,,,,,,,,,,
null,,rt_thecrossant_black,688996,black_plus_sign,,,,null,,,0.9054054054054054,,,,,,,,,,,
null,,color_black,689099,black_plus_sign,,,,null,,,,,,,,,,,,,,
null,,learn_phase(without_color),691101,black_plus_sign,,,,null,GW/basket.jpg,GW/snail.jpg,,,,,,,,,,,,
null,,black_cross(without_color),692006,green,,,,null,GW/basket.jpg,GW/snail.jpg,,,,,,,,,,,,
null,,rt_plussign_withcolor,692508,green,,,,null,GW/basket.jpg,GW/snail.jpg,,,,,,,,,,,,
1290.6999999999534,,rt_thecrossant_black,693608,black_plus_sign,,,,50,,,0.9066666666666666,1,,,,,,,,,,
null,,color_black,693710,black_plus_sign,,,,null,,,,,,,,,,,,,,
null,,learn_phase(without_color),695713,black_plus_sign,,,,null,GW/barrel.jpg,GW/globe.jpg,,,,,,,,,,,,
null,,black_cross(without_color),696429,blue,,,,null,GW/barrel.jpg,GW/globe.jpg,,,,,,,,,,,,
null,,rt_plussign_withcolor,696931,blue,,,,null,GW/barrel.jpg,GW/globe.jpg,,,,,,,,,,,,
1430.9000000001397,,rt_thecrossant_black,698247,black_plus_sign,,,,49,,,0.9078947368421053,1,,,,,,,,,,
null,,color_black,698349,black_plus_sign,,,,null,,,,,,,,,,,,,,
null,,learn_phase(without_color),700352,black_plus_sign,,,,null,GW/gong.jpg,GW/basket.jpg,,,,,,,,,,,,
null,,black_cross(without_color),701450,green,,,,null,GW/gong.jpg,GW/basket.jpg,,,,,,,,,,,,
null,,rt_plussign_withcolor,701952,green,,,,null,GW/gong.jpg,GW/basket.jpg,,,,,,,,,,,,
890.5999999998603,,rt_thecrossant_black,702860,black_plus_sign,,,,50,,,0.9090909090909091,1,,,,,,,,,,
null,,color_black,702963,black_plus_sign,,,,null,,,,,,,,,,,,,,
null,,learn_phase(without_color),704968,black_plus_sign,,,,null,GW/wheelchair.jpg,GW/barrel.jpg,,,,,,,,,,,,
null,,black_cross(without_color),705683,green,,,,null,GW/wheelchair.jpg,GW/barrel.jpg,,,,,,,,,,,,
null,,rt_plussign_withcolor,706185,green,,,,null,GW/wheelchair.jpg,GW/barrel.jpg,,,,,,,,,,,,
1899.1999999999534,,rt_thecrossant_black,707476,black_plus_sign,,,,50,,,0.9102564102564102,1,,,,,,,,,,
null,,color_black,707579,black_plus_sign,,,,null,,,,,,,,,,,,,,
null,,learn_phase(without_color),709583,black_plus_sign,,,,null,GW/wheelchair.jpg,GW/paint.jpg,,,,,,,,,,,,
null,,black_cross(without_color),710104,blue,,,,null,GW/wheelchair.jpg,GW/paint.jpg,,,,,,,,,,,,
null,,rt_plussign_withcolor,710606,blue,,,,null,GW/wheelchair.jpg,GW/paint.jpg,,,,,,,,,,,,
null,,rt_thecrossant_black,712092,black_plus_sign,,,,null,,,0.9102564102564102,,,,,,,,,,,
null,,color_black,712195,black_plus_sign,,,,null,,,,,,,,,,,,,,
null,,learn_phase(without_color),714199,black_plus_sign,,,,null,GW/camera.jpg,GW/gong.jpg,,,,,,,,,,,,
null,,black_cross(without_color),714771,green,,,,null,GW/camera.jpg,GW/gong.jpg,,,,,,,,,,,,
null,,rt_plussign_withcolor,715274,green,,,,null,GW/camera.jpg,GW/gong.jpg,,,,,,,,,,,,
848.8999999999069,,rt_thecrossant_black,716708,black_plus_sign,,,,50,,,0.9113924050632911,1,,,,,,,,,,
null,,color_black,716821,black_plus_sign,,,,null,,,,,,,,,,,,,,
null,,learn_phase(without_color),718826,black_plus_sign,,,,null,GW/wheelchair.jpg,GW/barrel.jpg,,,,,,,,,,,,
null,,black_cross(without_color),719259,green,,,,null,GW/wheelchair.jpg,GW/barrel.jpg,,,,,,,,,,,,
null,,rt_plussign_withcolor,719761,green,,,,null,GW/wheelchair.jpg,GW/barrel.jpg,,,,,,,,,,,,
1373.6999999999534,,rt_thecrossant_black,721335,black_plus_sign,,,,50,,,0.9125,1,,,,,,,,,,
null,,color_black,721438,black_plus_sign,,,,null,,,,,,,,,,,,,,
null,,learn_phase(without_color),723443,black_plus_sign,,,,null,GW/dustpan.jpg,GW/barrel.jpg,,,,,,,,,,,,
null,,black_cross(without_color),724034,green,,,,null,GW/dustpan.jpg,GW/barrel.jpg,,,,,,,,,,,,
null,,rt_plussign_withcolor,724536,green,,,,null,GW/dustpan.jpg,GW/barrel.jpg,,,,,,,,,,,,
723,,rt_thecrossant_black,725953,black_plus_sign,,,,50,,,0.9135802469135802,1,,,,,,,,,,
null,,color_black,726056,black_plus_sign,,,,null,,,,,,,,,,,,,,
null,,learn_phase(without_color),728059,black_plus_sign,,,,null,GW/hat.jpg,GW/dustpan.jpg,,,,,,,,,,,,
null,,black_cross(without_color),728552,blue,,,,null,GW/hat.jpg,GW/dustpan.jpg,,,,,,,,,,,,
null,,rt_plussign_withcolor,729054,blue,,,,null,GW/hat.jpg,GW/dustpan.jpg,,,,,,,,,,,,
1027.2000000001863,,rt_thecrossant_black,730582,black_plus_sign,,,,49,,,0.9146341463414634,1,,,,,,,,,,
null,,color_black,730686,black_plus_sign,,,,null,,,,,,,,,,,,,,
null,,learn_phase(without_color),732690,black_plus_sign,,,,null,GW/paint.jpg,GW/jukebox.jpg,,,,,,,,,,,,
null,,black_cross(without_color),733552,green,,,,null,GW/paint.jpg,GW/jukebox.jpg,,,,,,,,,,,,
null,,rt_plussign_withcolor,734054,green,,,,null,GW/paint.jpg,GW/jukebox.jpg,,,,,,,,,,,,
874.5,,rt_thecrossant_black,735198,black_plus_sign,,,,50,,,0.9156626506024096,1,,,,,,,,,,
null,,color_black,735310,black_plus_sign,,,,null,,,,,,,,,,,,,,
null,,learn_phase(without_color),737314,black_plus_sign,,,,null,GW/jukebox.jpg,GW/teeth.jpg,,,,,,,,,,,,
null,,black_cross(without_color),738406,green,,,,null,GW/jukebox.jpg,GW/teeth.jpg,,,,,,,,,,,,
null,,rt_plussign_withcolor,738914,green,,,,null,GW/jukebox.jpg,GW/teeth.jpg,,,,,,,,,,,,
1567.1000000000931,,rt_thecrossant_black,739829,black_plus_sign,,,,50,,,0.9166666666666666,1,,,,,,,,,,
null,,color_black,739932,black_plus_sign,,,,null,,,,,,,,,,,,,,
null,,learn_phase(without_color),741936,black_plus_sign,,,,null,GW/jukebox.jpg,GW/dustpan.jpg,,,,,,,,,,,,
null,,black_cross(without_color),742789,blue,,,,null,GW/jukebox.jpg,GW/dustpan.jpg,,,,,,,,,,,,
null,,rt_plussign_withcolor,743292,blue,,,,null,GW/jukebox.jpg,GW/dustpan.jpg,,,,,,,,,,,,
null,,rt_thecrossant_black,744445,black_plus_sign,,,,null,,,0.9166666666666666,,,,,,,,,,,
null,,color_black,744548,black_plus_sign,,,,null,,,,,,,,,,,,,,
null,,learn_phase(without_color),746552,black_plus_sign,,,,null,GW/gong.jpg,GW/basket.jpg,,,,,,,,,,,,
null,,black_cross(without_color),747270,blue,,,,null,GW/gong.jpg,GW/basket.jpg,,,,,,,,,,,,
null,,rt_plussign_withcolor,747771,blue,,,,null,GW/gong.jpg,GW/basket.jpg,,,,,,,,,,,,
1675.6999999999534,,rt_thecrossant_black,749060,black_plus_sign,,,,50,,,0.9058823529411765,0,,,,,,,,,,
null,,warning_page,752063,warning,,,,null,,,,,,,,,,,,,,
null,,color_black,752169,black_plus_sign,,,,null,,,,,,,,,,,,,,
null,,learn_phase(without_color),754173,black_plus_sign,,,,null,GW/wheelchair.jpg,GW/paint.jpg,,,,,,,,,,,,
null,,black_cross(without_color),754935,blue,,,,null,GW/wheelchair.jpg,GW/paint.jpg,,,,,,,,,,,,
null,,rt_plussign_withcolor,755450,blue,,,,null,GW/wheelchair.jpg,GW/paint.jpg,,,,,,,,,,,,
1150.7999999998137,,rt_thecrossant_black,756694,black_plus_sign,,,,49,,,0.9069767441860465,1,,,,,,,,,,
null,,color_black,756797,black_plus_sign,,,,null,,,,,,,,,,,,,,
null,,learn_phase(without_color),758801,black_plus_sign,,,,null,GW/basket.jpg,GW/globe.jpg,,,,,,,,,,,,
null,,black_cross(without_color),759875,blue,,,,null,GW/basket.jpg,GW/globe.jpg,,,,,,,,,,,,
null,,rt_plussign_withcolor,760377,blue,,,,null,GW/basket.jpg,GW/globe.jpg,,,,,,,,,,,,
1459.6000000000931,,rt_thecrossant_black,761311,black_plus_sign,,,,49,,,0.9080459770114943,1,,,,,,,,,,
null,,color_black,761414,black_plus_sign,,,,null,,,,,,,,,,,,,,
null,,learn_phase(without_color),763419,black_plus_sign,,,,null,GW/paint.jpg,GW/dustpan.jpg,,,,,,,,,,,,
null,,black_cross(without_color),764367,blue,,,,null,GW/paint.jpg,GW/dustpan.jpg,,,,,,,,,,,,
null,,rt_plussign_withcolor,764869,blue,,,,null,GW/paint.jpg,GW/dustpan.jpg,,,,,,,,,,,,
1445.8999999999069,,rt_thecrossant_black,765927,black_plus_sign,,,,49,,,0.9090909090909091,1,,,,,,,,,,
null,,color_black,766030,black_plus_sign,,,,null,,,,,,,,,,,,,,
null,,learn_phase(without_color),768034,black_plus_sign,,,,null,GW/wheelchair.jpg,GW/paint.jpg,,,,,,,,,,,,
null,,black_cross(without_color),768959,blue,,,,null,GW/wheelchair.jpg,GW/paint.jpg,,,,,,,,,,,,
null,,rt_plussign_withcolor,769461,blue,,,,null,GW/wheelchair.jpg,GW/paint.jpg,,,,,,,,,,,,
1521.3999999999069,,rt_thecrossant_black,770544,black_plus_sign,,,,49,,,0.9101123595505618,1,,,,,,,,,,
null,,color_black,770646,black_plus_sign,,,,null,,,,,,,,,,,,,,
null,,learn_phase(without_color),772650,black_plus_sign,,,,null,GW/gong.jpg,GW/wheelchair.jpg,,,,,,,,,,,,
null,,black_cross(without_color),773468,blue,,,,null,GW/gong.jpg,GW/wheelchair.jpg,,,,,,,,,,,,
null,,rt_plussign_withcolor,773970,blue,,,,null,GW/gong.jpg,GW/wheelchair.jpg,,,,,,,,,,,,
1180.5,,rt_thecrossant_black,775159,black_plus_sign,,,,49,,,0.9111111111111111,1,,,,,,,,,,
null,,color_black,775266,black_plus_sign,,,,null,,,,,,,,,,,,,,
null,,learn_phase(without_color),777270,black_plus_sign,,,,null,GW/basket.jpg,GW/globe.jpg,,,,,,,,,,,,
null,,black_cross(without_color),778058,blue,,,,null,GW/basket.jpg,GW/globe.jpg,,,,,,,,,,,,
null,,rt_plussign_withcolor,778561,blue,,,,null,GW/basket.jpg,GW/globe.jpg,,,,,,,,,,,,
1027.3999999999069,,rt_thecrossant_black,779780,black_plus_sign,,,,49,,,0.9120879120879121,1,,,,,,,,,,
null,,color_black,779883,black_plus_sign,,,,null,,,,,,,,,,,,,,
null,,learn_phase(without_color),781888,black_plus_sign,,,,null,GW/dustpan.jpg,GW/barrel.jpg,,,,,,,,,,,,
null,,black_cross(without_color),782422,green,,,,null,GW/dustpan.jpg,GW/barrel.jpg,,,,,,,,,,,,
null,,rt_plussign_withcolor,782924,green,,,,null,GW/dustpan.jpg,GW/barrel.jpg,,,,,,,,,,,,
1178.6999999999534,,rt_thecrossant_black,784397,black_plus_sign,,,,50,,,0.9130434782608695,1,,,,,,,,,,
null,,color_black,784500,black_plus_sign,,,,null,,,,,,,,,,,,,,
null,,learn_phase(without_color),786505,black_plus_sign,,,,null,GW/jukebox.jpg,GW/teeth.jpg,,,,,,,,,,,,
null,,black_cross(without_color),787151,blue,,,,null,GW/jukebox.jpg,GW/teeth.jpg,,,,,,,,,,,,
null,,rt_plussign_withcolor,787654,blue,,,,null,GW/jukebox.jpg,GW/teeth.jpg,,,,,,,,,,,,
850.3000000000466,,rt_thecrossant_black,789014,black_plus_sign,,,,49,,,0.9139784946236559,1,,,,,,,,,,
null,,color_black,789117,black_plus_sign,,,,null,,,,,,,,,,,,,,
null,,learn_phase(without_color),791121,black_plus_sign,,,,null,GW/hat.jpg,GW/dustpan.jpg,,,,,,,,,,,,
null,,black_cross(without_color),792014,green,,,,null,GW/hat.jpg,GW/dustpan.jpg,,,,,,,,,,,,
null,,rt_plussign_withcolor,792516,green,,,,null,GW/hat.jpg,GW/dustpan.jpg,,,,,,,,,,,,
765.0999999998603,,rt_thecrossant_black,793631,black_plus_sign,,,,50,,,0.9148936170212766,1,,,,,,,,,,
null,,color_black,793734,black_plus_sign,,,,null,,,,,,,,,,,,,,
null,,learn_phase(without_color),795739,black_plus_sign,,,,null,GW/gong.jpg,GW/basket.jpg,,,,,,,,,,,,
null,,black_cross(without_color),796162,green,,,,null,GW/gong.jpg,GW/basket.jpg,,,,,,,,,,,,
null,,rt_plussign_withcolor,796664,green,,,,null,GW/gong.jpg,GW/basket.jpg,,,,,,,,,,,,
1606.5,,rt_thecrossant_black,798247,black_plus_sign,,,,50,,,0.9157894736842105,1,,,,,,,,,,
null,,color_black,798351,black_plus_sign,,,,null,,,,,,,,,,,,,,
null,,learn_phase(without_color),800355,black_plus_sign,,,,null,GW/gong.jpg,GW/wheelchair.jpg,,,,,,,,,,,,
null,,black_cross(without_color),801446,green,,,,null,GW/gong.jpg,GW/wheelchair.jpg,,,,,,,,,,,,
null,,rt_plussign_withcolor,801948,green,,,,null,GW/gong.jpg,GW/wheelchair.jpg,,,,,,,,,,,,
636.8000000000466,,rt_thecrossant_black,802863,black_plus_sign,,,,50,,,0.9166666666666666,1,,,,,,,,,,
null,,color_black,802966,black_plus_sign,,,,null,,,,,,,,,,,,,,
null,,learn_phase(without_color),804970,black_plus_sign,,,,null,GW/wheelchair.jpg,GW/paint.jpg,,,,,,,,,,,,
null,,black_cross(without_color),805966,blue,,,,null,GW/wheelchair.jpg,GW/paint.jpg,,,,,,,,,,,,
null,,rt_plussign_withcolor,806469,blue,,,,null,GW/wheelchair.jpg,GW/paint.jpg,,,,,,,,,,,,
1272.1999999999534,,rt_thecrossant_black,807479,black_plus_sign,,,,49,,,0.9175257731958762,1,,,,,,,,,,
null,,color_black,807582,black_plus_sign,,,,null,,,,,,,,,,,,,,
null,,learn_phase(without_color),809586,black_plus_sign,,,,null,GW/jukebox.jpg,GW/teeth.jpg,,,,,,,,,,,,
null,,black_cross(without_color),810689,green,,,,null,GW/jukebox.jpg,GW/teeth.jpg,,,,,,,,,,,,
null,,rt_plussign_withcolor,811190,green,,,,null,GW/jukebox.jpg,GW/teeth.jpg,,,,,,,,,,,,
1490.1000000000931,,rt_thecrossant_black,812093,black_plus_sign,,,,49,,,0.9081632653061225,0,,,,,,,,,,
null,,color_black,812199,black_plus_sign,,,,null,,,,,,,,,,,,,,
null,,learn_phase(without_color),814203,black_plus_sign,,,,null,GW/wheelchair.jpg,GW/barrel.jpg,,,,,,,,,,,,
null,,black_cross(without_color),814675,blue,,,,null,GW/wheelchair.jpg,GW/barrel.jpg,,,,,,,,,,,,
null,,rt_plussign_withcolor,815178,blue,,,,null,GW/wheelchair.jpg,GW/barrel.jpg,,,,,,,,,,,,
1669,,rt_thecrossant_black,816713,black_plus_sign,,,,49,,,0.9090909090909091,1,,,,,,,,,,
null,,color_black,816814,black_plus_sign,,,,null,,,,,,,,,,,,,,
null,,learn_phase(without_color),818817,black_plus_sign,,,,null,GW/barrel.jpg,GW/globe.jpg,,,,,,,,,,,,
null,,black_cross(without_color),819533,blue,,,,null,GW/barrel.jpg,GW/globe.jpg,,,,,,,,,,,,
null,,rt_plussign_withcolor,820035,blue,,,,null,GW/barrel.jpg,GW/globe.jpg,,,,,,,,,,,,
895.5,,rt_thecrossant_black,821325,black_plus_sign,,,,49,,,0.91,1,,,,,,,,,,
null,,color_black,821428,black_plus_sign,,,,null,,,,,,,,,,,,,,
null,,learn_phase(without_color),823432,black_plus_sign,,,,null,GW/jukebox.jpg,GW/teeth.jpg,,,,,,,,,,,,
null,,black_cross(without_color),824354,blue,,,,null,GW/jukebox.jpg,GW/teeth.jpg,,,,,,,,,,,,
null,,rt_plussign_withcolor,824858,blue,,,,null,GW/jukebox.jpg,GW/teeth.jpg,,,,,,,,,,,,
964.8999999999069,,rt_thecrossant_black,825948,black_plus_sign,,,,49,,,0.9108910891089109,1,,,,,,,,,,
null,,color_black,826052,black_plus_sign,,,,null,,,,,,,,,,,,,,
null,,learn_phase(without_color),828056,black_plus_sign,,,,null,GW/wheelchair.jpg,GW/paint.jpg,,,,,,,,,,,,
null,,black_cross(without_color),828744,green,,,,null,GW/wheelchair.jpg,GW/paint.jpg,,,,,,,,,,,,
null,,rt_plussign_withcolor,829247,green,,,,null,GW/wheelchair.jpg,GW/paint.jpg,,,,,,,,,,,,
1044.5,,rt_thecrossant_black,830565,black_plus_sign,,,,50,,,0.9117647058823529,1,,,,,,,,,,
null,,color_black,830668,black_plus_sign,,,,null,,,,,,,,,,,,,,
null,,learn_phase(without_color),832671,black_plus_sign,,,,null,GW/dustpan.jpg,GW/barrel.jpg,,,,,,,,,,,,
null,,black_cross(without_color),833405,green,,,,null,GW/dustpan.jpg,GW/barrel.jpg,,,,,,,,,,,,
null,,rt_plussign_withcolor,833907,green,,,,null,GW/dustpan.jpg,GW/barrel.jpg,,,,,,,,,,,,
879.1000000000931,,rt_thecrossant_black,835181,black_plus_sign,,,,50,,,0.912621359223301,1,,,,,,,,,,
null,,color_black,835284,black_plus_sign,,,,null,,,,,,,,,,,,,,
null,,learn_phase(without_color),837289,black_plus_sign,,,,null,GW/paint.jpg,GW/dustpan.jpg,,,,,,,,,,,,
null,,black_cross(without_color),838005,blue,,,,null,GW/paint.jpg,GW/dustpan.jpg,,,,,,,,,,,,
null,,rt_plussign_withcolor,838507,blue,,,,null,GW/paint.jpg,GW/dustpan.jpg,,,,,,,,,,,,
1148.5999999998603,,rt_thecrossant_black,839797,black_plus_sign,,,,49,,,0.9134615384615384,1,,,,,,,,,,
null,,color_black,839900,black_plus_sign,,,,null,,,,,,,,,,,,,,
null,,learn_phase(without_color),841905,black_plus_sign,,,,null,GW/jukebox.jpg,GW/hat.jpg,,,,,,,,,,,,
null,,black_cross(without_color),842425,green,,,,null,GW/jukebox.jpg,GW/hat.jpg,,,,,,,,,,,,
null,,rt_plussign_withcolor,842944,green,,,,null,GW/jukebox.jpg,GW/hat.jpg,,,,,,,,,,,,
1391,,rt_thecrossant_black,844438,black_plus_sign,,,,50,,,0.9142857142857143,1,,,,,,,,,,
null,,color_black,844541,black_plus_sign,,,,null,,,,,,,,,,,,,,
null,,learn_phase(without_color),846545,black_plus_sign,,,,null,GW/hat.jpg,GW/dustpan.jpg,,,,,,,,,,,,
null,,black_cross(without_color),847404,green,,,,null,GW/hat.jpg,GW/dustpan.jpg,,,,,,,,,,,,
null,,rt_plussign_withcolor,847906,green,,,,null,GW/hat.jpg,GW/dustpan.jpg,,,,,,,,,,,,
991.9000000001397,,rt_thecrossant_black,849059,black_plus_sign,,,,50,,,0.9150943396226415,1,,,,,,,,,,
null,,color_black,849169,black_plus_sign,,,,null,,,,,,,,,,,,,,
null,,learn_phase(without_color),851173,black_plus_sign,,,,null,GW/paint.jpg,GW/dustpan.jpg,,,,,,,,,,,,
null,,black_cross(without_color),851683,blue,,,,null,GW/paint.jpg,GW/dustpan.jpg,,,,,,,,,,,,
null,,rt_plussign_withcolor,852186,blue,,,,null,GW/paint.jpg,GW/dustpan.jpg,,,,,,,,,,,,
1443.8999999999069,,rt_thecrossant_black,853683,black_plus_sign,,,,49,,,0.9158878504672897,1,,,,,,,,,,
null,,color_black,853786,black_plus_sign,,,,null,,,,,,,,,,,,,,
null,,learn_phase(without_color),855790,black_plus_sign,,,,null,GW/jukebox.jpg,GW/hat.jpg,,,,,,,,,,,,
null,,black_cross(without_color),856763,blue,,,,null,GW/jukebox.jpg,GW/hat.jpg,,,,,,,,,,,,
null,,rt_plussign_withcolor,857267,blue,,,,null,GW/jukebox.jpg,GW/hat.jpg,,,,,,,,,,,,
1484.9000000001397,,rt_thecrossant_black,858299,black_plus_sign,,,,49,,,0.9166666666666666,1,,,,,,,,,,
null,,color_black,858402,black_plus_sign,,,,null,,,,,,,,,,,,,,
null,,learn_phase(without_color),860406,black_plus_sign,,,,null,GW/paint.jpg,GW/dustpan.jpg,,,,,,,,,,,,
null,,black_cross(without_color),861433,blue,,,,null,GW/paint.jpg,GW/dustpan.jpg,,,,,,,,,,,,
null,,rt_plussign_withcolor,861935,blue,,,,null,GW/paint.jpg,GW/dustpan.jpg,,,,,,,,,,,,
1440.4000000001397,,rt_thecrossant_black,862914,black_plus_sign,,,,49,,,0.9174311926605505,1,,,,,,,,,,
null,,color_black,863017,black_plus_sign,,,,null,,,,,,,,,,,,,,
null,,learn_phase(without_color),865021,black_plus_sign,,,,null,GW/basket.jpg,GW/snail.jpg,,,,,,,,,,,,
null,,black_cross(without_color),866111,blue,,,,null,GW/basket.jpg,GW/snail.jpg,,,,,,,,,,,,
null,,rt_plussign_withcolor,866613,blue,,,,null,GW/basket.jpg,GW/snail.jpg,,,,,,,,,,,,
1464.6000000000931,,rt_thecrossant_black,867529,black_plus_sign,,,,49,,,0.9181818181818182,1,,,,,,,,,,
null,,color_black,867632,black_plus_sign,,,,null,,,,,,,,,,,,,,
null,,learn_phase(without_color),869636,black_plus_sign,,,,null,GW/jukebox.jpg,GW/hat.jpg,,,,,,,,,,,,
null,,black_cross(without_color),870682,blue,,,,null,GW/jukebox.jpg,GW/hat.jpg,,,,,,,,,,,,
null,,rt_plussign_withcolor,871187,blue,,,,null,GW/jukebox.jpg,GW/hat.jpg,,,,,,,,,,,,
1376.8000000000466,,rt_thecrossant_black,872148,black_plus_sign,,,,49,,,0.918918918918919,1,,,,,,,,,,
null,,color_black,872251,black_plus_sign,,,,null,,,,,,,,,,,,,,
null,,learn_phase(without_color),874256,black_plus_sign,,,,null,GW/camera.jpg,GW/gong.jpg,,,,,,,,,,,,
null,,black_cross(without_color),874733,green,,,,null,GW/camera.jpg,GW/gong.jpg,,,,,,,,,,,,
null,,rt_plussign_withcolor,875235,green,,,,null,GW/camera.jpg,GW/gong.jpg,,,,,,,,,,,,
1188.9000000001397,,rt_thecrossant_black,876763,black_plus_sign,,,,50,,,0.9196428571428571,1,,,,,,,,,,
null,,color_black,876864,black_plus_sign,,,,null,,,,,,,,,,,,,,
null,,learn_phase(without_color),878866,black_plus_sign,,,,null,GW/barrel.jpg,GW/globe.jpg,,,,,,,,,,,,
null,,black_cross(without_color),879330,blue,,,,null,GW/barrel.jpg,GW/globe.jpg,,,,,,,,,,,,
null,,rt_plussign_withcolor,879832,blue,,,,null,GW/barrel.jpg,GW/globe.jpg,,,,,,,,,,,,
990.3999999999069,,rt_thecrossant_black,881388,black_plus_sign,,,,49,,,0.9203539823008849,1,,,,,,,,,,
null,,color_black,881491,black_plus_sign,,,,null,,,,,,,,,,,,,,
null,,learn_phase(without_color),883495,black_plus_sign,,,,null,GW/barrel.jpg,GW/globe.jpg,,,,,,,,,,,,
null,,black_cross(without_color),884274,green,,,,null,GW/barrel.jpg,GW/globe.jpg,,,,,,,,,,,,
null,,rt_plussign_withcolor,884776,green,,,,null,GW/barrel.jpg,GW/globe.jpg,,,,,,,,,,,,
572.6000000000931,,rt_thecrossant_black,886010,black_plus_sign,,,,50,,,0.9210526315789473,1,,,,,,,,,,
null,,color_black,886114,black_plus_sign,,,,null,,,,,,,,,,,,,,
null,,learn_phase(without_color),888118,black_plus_sign,,,,null,GW/paint.jpg,GW/jukebox.jpg,,,,,,,,,,,,
null,,black_cross(without_color),888652,green,,,,null,GW/paint.jpg,GW/jukebox.jpg,,,,,,,,,,,,
null,,rt_plussign_withcolor,889154,green,,,,null,GW/paint.jpg,GW/jukebox.jpg,,,,,,,,,,,,
1467.5,,rt_thecrossant_black,890627,black_plus_sign,,,,50,,,0.9217391304347826,1,,,,,,,,,,
null,,color_black,890731,black_plus_sign,,,,null,,,,,,,,,,,,,,
29747.90000000014,,intro_1,920482,instruct,,0,Start,,,,,,,,,,,,,,,
3807.8000000000466,,directmemory_phase,924292,GW/jukebox.jpg,,,,51,,,1,1,GW/basket.jpg,GW/soldier.jpg,GW/paint.jpg,GW/paint.jpg,GW/soldier.jpg,GW/basket.jpg,1,,,
null,,html-keyboard-response,925297,<p></p>,,,,null,,,,,,,,,,,,,,
3248.3000000002794,,directmemory_phase,928548,GW/hat.jpg,,,,51,,,0.5,0,GW/dustpan.jpg,GW/gong.jpg,GW/paint.jpg,GW/dustpan.jpg,GW/paint.jpg,GW/gong.jpg,0.5,closer,,
null,,html-keyboard-response,929552,<p></p>,,,,null,,,,,,,,,,,,,,
3113.8000000002794,,directmemory_phase,932668,GW/jukebox.jpg,,,,49,,,0.6666666666666666,1,GW/teeth.jpg,GW/basket.jpg,GW/soldier.jpg,GW/teeth.jpg,GW/soldier.jpg,GW/basket.jpg,1,,,
null,,html-keyboard-response,933672,<p></p>,,,,null,,,,,,,,,,,,,,
2112.399999999907,,directmemory_phase,935788,GW/dustpan.jpg,,,,51,,,0.75,1,GW/basket.jpg,GW/wheelchair.jpg,GW/paint.jpg,GW/paint.jpg,GW/wheelchair.jpg,GW/basket.jpg,1,,,
null,,html-keyboard-response,936792,<p></p>,,,,null,,,,,,,,,,,,,,
2610.7999999998137,,directmemory_phase,939404,GW/jukebox.jpg,,,,51,,,0.8,1,GW/globe.jpg,GW/soldier.jpg,GW/hat.jpg,GW/hat.jpg,GW/soldier.jpg,GW/globe.jpg,1,,,
null,,html-keyboard-response,940409,<p></p>,,,,null,,,,,,,,,,,,,,
3793.2000000001863,,directmemory_phase,944204,GW/basket.jpg,,,,51,,,0.6666666666666666,0,GW/globe.jpg,GW/hat.jpg,GW/wheelchair.jpg,GW/globe.jpg,GW/wheelchair.jpg,GW/hat.jpg,0.5,closer,,
null,,html-keyboard-response,945209,<p></p>,,,,null,,,,,,,,,,,,,,
1808.7000000001863,,directmemory_phase,947020,GW/teeth.jpg,,,,51,,,0.7142857142857143,1,GW/barrel.jpg,GW/paint.jpg,GW/jukebox.jpg,GW/jukebox.jpg,GW/paint.jpg,GW/barrel.jpg,1,,,
null,,html-keyboard-response,948024,<p></p>,,,,null,,,,,,,,,,,,,,
2888.100000000093,,directmemory_phase,950914,GW/globe.jpg,,,,51,,,0.75,1,GW/hat.jpg,GW/gong.jpg,GW/basket.jpg,GW/basket.jpg,GW/gong.jpg,GW/hat.jpg,1,,,
null,,html-keyboard-response,951916,<p></p>,,,,null,,,,,,,,,,,,,,
3581.399999999907,,directmemory_phase,955500,GW/paint.jpg,,,,49,,,0.6666666666666666,0,GW/gong.jpg,GW/wheelchair.jpg,GW/camera.jpg,GW/wheelchair.jpg,GW/gong.jpg,GW/camera.jpg,0.5,closer,,
null,,html-keyboard-response,956504,<p></p>,,,,null,,,,,,,,,,,,,,
4727.800000000279,,directmemory_phase,961234,GW/basket.jpg,,,,50,,,0.6,0,GW/hat.jpg,GW/wheelchair.jpg,GW/gong.jpg,GW/gong.jpg,GW/wheelchair.jpg,GW/hat.jpg,0.5,closer,,
null,,html-keyboard-response,962236,<p></p>,,,,null,,,,,,,,,,,,,,
3982,,directmemory_phase,966220,GW/barrel.jpg,,,,49,,,0.5454545454545454,0,GW/teeth.jpg,GW/basket.jpg,GW/wheelchair.jpg,GW/wheelchair.jpg,GW/basket.jpg,GW/teeth.jpg,0.5,closer,,
null,,html-keyboard-response,967224,<p></p>,,,,null,,,,,,,,,,,,,,
4377.5,,directmemory_phase,971604,GW/basket.jpg,,,,49,,,0.5,0,GW/dustpan.jpg,GW/wheelchair.jpg,GW/snail.jpg,GW/snail.jpg,GW/wheelchair.jpg,GW/dustpan.jpg,0.5,closer,,
null,,html-keyboard-response,972608,<p></p>,,,,null,,,,,,,,,,,,,,
3481.5,,directmemory_phase,976092,GW/wheelchair.jpg,,,,51,,,0.5384615384615384,1,GW/snail.jpg,GW/camera.jpg,GW/paint.jpg,GW/paint.jpg,GW/camera.jpg,GW/snail.jpg,1,,,
null,,html-keyboard-response,977096,<p></p>,,,,null,,,,,,,,,,,,,,
3841.2999999998137,,directmemory_phase,980940,GW/hat.jpg,,,,50,,,0.5,0,GW/soldier.jpg,GW/basket.jpg,GW/barrel.jpg,GW/soldier.jpg,GW/barrel.jpg,GW/basket.jpg,0.5,closer,,
null,,html-keyboard-response,981945,<p></p>,,,,null,,,,,,,,,,,,,,
2504.600000000093,,directmemory_phase,984452,GW/paint.jpg,,,,49,,,0.5333333333333333,1,GW/dustpan.jpg,GW/basket.jpg,GW/barrel.jpg,GW/dustpan.jpg,GW/barrel.jpg,GW/basket.jpg,1,,,
null,,html-keyboard-response,985455,<p></p>,,,,null,,,,,,,,,,,,,,
2666,,directmemory_phase,988123,GW/soldier.jpg,,,,49,,,0.5625,1,GW/hat.jpg,GW/wheelchair.jpg,GW/dustpan.jpg,GW/hat.jpg,GW/dustpan.jpg,GW/wheelchair.jpg,1,,,
null,,html-keyboard-response,989128,<p></p>,,,,null,,,,,,,,,,,,,,
3457.7000000001863,,directmemory_phase,992588,GW/dustpan.jpg,,,,50,,,0.5882352941176471,1,GW/soldier.jpg,GW/barrel.jpg,GW/gong.jpg,GW/barrel.jpg,GW/soldier.jpg,GW/gong.jpg,1,,,
null,,html-keyboard-response,993592,<p></p>,,,,null,,,,,,,,,,,,,,
3953.0999999996275,,directmemory_phase,997548,GW/gong.jpg,,,,49,,,0.6111111111111112,1,GW/camera.jpg,GW/jukebox.jpg,GW/snail.jpg,GW/camera.jpg,GW/snail.jpg,GW/jukebox.jpg,1,,,
null,,html-keyboard-response,998552,<p></p>,,,,null,,,,,,,,,,,,,,
4401.200000000186,,directmemory_phase,1002956,GW/dustpan.jpg,,,,51,,,0.631578947368421,1,GW/gong.jpg,GW/soldier.jpg,GW/hat.jpg,GW/hat.jpg,GW/soldier.jpg,GW/gong.jpg,1,,,
null,,html-keyboard-response,1003960,<p></p>,,,,null,,,,,,,,,,,,,,
5041,,directmemory_phase,1009004,GW/gong.jpg,,,,51,,,0.6,0,GW/barrel.jpg,GW/basket.jpg,GW/dustpan.jpg,GW/basket.jpg,GW/barrel.jpg,GW/dustpan.jpg,0.5,closer,,
null,,html-keyboard-response,1010008,<p></p>,,,,null,,,,,,,,,,,,,,
4081.399999999907,,directmemory_phase,1014092,GW/dustpan.jpg,,,,50,,,0.5714285714285714,0,GW/snail.jpg,GW/globe.jpg,GW/jukebox.jpg,GW/jukebox.jpg,GW/globe.jpg,GW/snail.jpg,0.5,closer,,
null,,html-keyboard-response,1015096,<p></p>,,,,null,,,,,,,,,,,,,,
3345.100000000093,,directmemory_phase,1018444,GW/wheelchair.jpg,,,,50,,,0.5454545454545454,0,GW/barrel.jpg,GW/hat.jpg,GW/dustpan.jpg,GW/barrel.jpg,GW/dustpan.jpg,GW/hat.jpg,0.5,closer,,
null,,html-keyboard-response,1019448,<p></p>,,,,null,,,,,,,,,,,,,,
1617.4000000003725,,directmemory_phase,1021068,GW/hat.jpg,,,,50,,,0.5217391304347826,0,GW/basket.jpg,GW/paint.jpg,GW/jukebox.jpg,GW/jukebox.jpg,GW/paint.jpg,GW/basket.jpg,0.5,closer,,
null,,html-keyboard-response,1022071,<p></p>,,,,null,,,,,,,,,,,,,,
4011,,directmemory_phase,1026084,GW/barrel.jpg,,,,50,,,0.5416666666666666,1,GW/basket.jpg,GW/dustpan.jpg,GW/soldier.jpg,GW/dustpan.jpg,GW/basket.jpg,GW/soldier.jpg,1,,,
null,,html-keyboard-response,1027088,<p></p>,,,,null,,,,,,,,,,,,,,
3000.399999999907,,directmemory_phase,1030091,GW/paint.jpg,,,,49,,,0.56,1,GW/jukebox.jpg,GW/globe.jpg,GW/gong.jpg,GW/jukebox.jpg,GW/gong.jpg,GW/globe.jpg,1,,,
null,,html-keyboard-response,1031094,<p></p>,,,,null,,,,,,,,,,,,,,
4523.4000000003725,,directmemory_phase,1035620,GW/barrel.jpg,,,,51,,,0.5769230769230769,1,GW/camera.jpg,GW/jukebox.jpg,GW/globe.jpg,GW/globe.jpg,GW/jukebox.jpg,GW/camera.jpg,1,,,
null,,html-keyboard-response,1036624,<p></p>,,,,null,,,,,,,,,,,,,,
4161.399999999907,,directmemory_phase,1040788,GW/jukebox.jpg,,,,51,,,0.5925925925925926,1,GW/globe.jpg,GW/barrel.jpg,GW/dustpan.jpg,GW/dustpan.jpg,GW/barrel.jpg,GW/globe.jpg,1,,,
null,,html-keyboard-response,1041793,<p></p>,,,,null,,,,,,,,,,,,,,
1721.7000000001863,,directmemory_phase,1043516,GW/snail.jpg,,,,51,,,0.5714285714285714,0,GW/basket.jpg,GW/camera.jpg,GW/gong.jpg,GW/basket.jpg,GW/gong.jpg,GW/camera.jpg,0.5,closer,,
null,,html-keyboard-response,1044520,<p></p>,,,,null,,,,,,,,,,,,,,
3529.600000000093,,directmemory_phase,1048052,GW/gong.jpg,,,,50,,,0.5862068965517241,1,GW/barrel.jpg,GW/wheelchair.jpg,GW/teeth.jpg,GW/wheelchair.jpg,GW/barrel.jpg,GW/teeth.jpg,1,,,
null,,html-keyboard-response,1049057,<p></p>,,,,null,,,,,,,,,,,,,,
3993,,directmemory_phase,1053052,GW/globe.jpg,,,,51,,,0.6,1,GW/jukebox.jpg,GW/dustpan.jpg,GW/barrel.jpg,GW/barrel.jpg,GW/dustpan.jpg,GW/jukebox.jpg,1,,,
null,,html-keyboard-response,1054056,<p></p>,,,,null,,,,,,,,,,,,,,
2120.399999999907,,directmemory_phase,1056180,GW/camera.jpg,,,,49,,,0.6129032258064516,1,GW/gong.jpg,GW/paint.jpg,GW/wheelchair.jpg,GW/gong.jpg,GW/wheelchair.jpg,GW/paint.jpg,1,,,
null,,html-keyboard-response,1057184,<p></p>,,,,null,,,,,,,,,,,,,,
null,,directmemory_phase,1063687,,,,,null,,,0.59375,0,,,,,,,0,,,
null,,html-keyboard-response,1064690,<p></p>,,,,null,,,,,,,,,,,,,,
53895.40000000037,,intro_1,1118586,instruct,,0,,,,,,,,,,,,,,,,
18318,,intro_2,1136906,instruct,,1,Next,,,,,,,,,,,,,,,
21302.5,,intro_3,1158210,instruct,,1,Next,,,,,,,,,,,,,,,
17942.19999999972,,intro_4,1176153,instruct,,1,Next,,,,,,,,,,,,,,,
35166.60000000009,,intro_5,1211322,instruct,,1,Next,,,,,,,,,,,,,,,
106710.6000000001,,intro_6,1318034,instruct,,1,Next,,,,,,,,,,,,,,,
53254,,intro_7,1371290,instruct,,1,Next,,,,,,,,,,,,,,,
12070.399999999907,,intro_8,1383362,instruct,,1,Next,,,,,,,,,,,,,,,
2888,,shortestpath_phase,1386252,GW/teeth.jpg,,,,50,GW/globe.jpg,GW/wheelchair.jpg,1,1,,,,GW/wheelchair.jpg,,,,,One Edge Diff,Three Edge Four Edge
null,,html-keyboard-response,1387257,<p></p>,,,,null,,,,,,,,,,,,,,
4975.899999999907,,shortestpath_phase,1392235,GW/camera.jpg,,,,49,GW/soldier.jpg,GW/jukebox.jpg,0.5,0,,,,GW/jukebox.jpg,,,,,Two Edge Diff,Four Edge Six Edge
null,,html-keyboard-response,1393239,<p></p>,,,,null,,,,,,,,,,,,,,
1897.5,,shortestpath_phase,1395140,GW/wheelchair.jpg,,,,50,GW/soldier.jpg,GW/teeth.jpg,0.6666666666666666,1,,,,GW/teeth.jpg,,,,,One Edge Diff,Three Edge Four Edge
null,,html-keyboard-response,1396143,<p></p>,,,,null,,,,,,,,,,,,,,
2369.8000000002794,,shortestpath_phase,1398516,GW/jukebox.jpg,,,,50,GW/snail.jpg,GW/basket.jpg,0.75,1,,,,GW/basket.jpg,,,,,One Edge Diff,Four Edge Five Edge
null,,html-keyboard-response,1399520,<p></p>,,,,null,,,,,,,,,,,,,,
4353.299999999814,,shortestpath_phase,1403876,GW/hat.jpg,,,,49,GW/wheelchair.jpg,GW/snail.jpg,0.8,1,,,,GW/wheelchair.jpg,,,,,Two Edge Diff,Three Edge Five Edge
null,,html-keyboard-response,1404880,<p></p>,,,,null,,,,,,,,,,,,,,
2041.2000000001863,,shortestpath_phase,1406924,GW/teeth.jpg,,,,50,GW/camera.jpg,GW/globe.jpg,0.8333333333333334,1,,,,GW/globe.jpg,,,,,One Edge Diff,Four Edge Five Edge
null,,html-keyboard-response,1407928,<p></p>,,,,null,,,,,,,,,,,,,,
3464.5,,shortestpath_phase,1411395,GW/basket.jpg,,,,50,GW/teeth.jpg,GW/jukebox.jpg,0.8571428571428571,1,,,,GW/jukebox.jpg,,,,,One Edge Diff,Four Edge Five Edge
null,,html-keyboard-response,1412400,<p></p>,,,,null,,,,,,,,,,,,,,
3400.5,,shortestpath_phase,1415803,GW/globe.jpg,,,,49,GW/paint.jpg,GW/wheelchair.jpg,0.75,0,,,,GW/wheelchair.jpg,,,,,One Edge Diff,Two Edge Three Edge
null,,html-keyboard-response,1416807,<p></p>,,,,null,,,,,,,,,,,,,,
4499.299999999814,,shortestpath_phase,1421308,GW/hat.jpg,,,,50,GW/camera.jpg,GW/gong.jpg,0.7777777777777778,1,,,,GW/gong.jpg,,,,,One Edge Diff,Four Edge Five Edge
null,,html-keyboard-response,1422312,<p></p>,,,,null,,,,,,,,,,,,,,
1656.6999999997206,,shortestpath_phase,1423971,GW/teeth.jpg,,,,50,GW/gong.jpg,GW/wheelchair.jpg,0.8,1,,,,GW/wheelchair.jpg,,,,,One Edge Diff,Three Edge Four Edge
null,,html-keyboard-response,1424976,<p></p>,,,,null,,,,,,,,,,,,,,
1953.1000000000931,,shortestpath_phase,1426931,GW/camera.jpg,,,,49,GW/globe.jpg,GW/teeth.jpg,0.8181818181818182,1,,,,GW/globe.jpg,,,,,Two Edge Diff,Three Edge Five Edge
null,,html-keyboard-response,1427935,<p></p>,,,,null,,,,,,,,,,,,,,
1810.1000000000931,,shortestpath_phase,1429747,GW/hat.jpg,,,,50,GW/snail.jpg,GW/paint.jpg,0.8333333333333334,1,,,,GW/paint.jpg,,,,,Three Edge Diff,Three Edge Six Edge
null,,html-keyboard-response,1430752,<p></p>,,,,null,,,,,,,,,,,,,,
3257.399999999907,,shortestpath_phase,1434012,GW/snail.jpg,,,,50,GW/globe.jpg,GW/soldier.jpg,0.7692307692307693,0,,,,GW/globe.jpg,,,,,Four Edge Diff,Two Edge Six Edge
null,,html-keyboard-response,1435017,<p></p>,,,,null,,,,,,,,,,,,,,
1599.3999999999069,,shortestpath_phase,1436619,GW/camera.jpg,,,,50,GW/hat.jpg,GW/wheelchair.jpg,0.7857142857142857,1,,,,GW/wheelchair.jpg,,,,,Three Edge Diff,Two Edge Five Edge
null,,html-keyboard-response,1437623,<p></p>,,,,null,,,,,,,,,,,,,,
1753.9000000003725,,shortestpath_phase,1439380,GW/hat.jpg,,,,50,GW/wheelchair.jpg,GW/teeth.jpg,0.8,1,,,,GW/teeth.jpg,,,,,One Edge Diff,Two Edge Three Edge
null,,html-keyboard-response,1440384,<p></p>,,,,null,,,,,,,,,,,,,,
3097.100000000093,,shortestpath_phase,1443484,GW/basket.jpg,,,,49,GW/wheelchair.jpg,GW/soldier.jpg,0.8125,1,,,,GW/wheelchair.jpg,,,,,Three Edge Diff,Two Edge Five Edge
null,,html-keyboard-response,1444488,<p></p>,,,,null,,,,,,,,,,,,,,
2521.6999999997206,,shortestpath_phase,1447012,GW/camera.jpg,,,,50,GW/teeth.jpg,GW/soldier.jpg,0.7647058823529411,0,,,,GW/teeth.jpg,,,,,One Edge Diff,Five Edge Six Edge
null,,html-keyboard-response,1448017,<p></p>,,,,null,,,,,,,,,,,,,,
3632,,shortestpath_phase,1451652,GW/paint.jpg,,,,49,GW/barrel.jpg,GW/basket.jpg,0.7777777777777778,1,,,,GW/barrel.jpg,,,,,One Edge Diff,Two Edge Three Edge
null,,html-keyboard-response,1452656,<p></p>,,,,null,,,,,,,,,,,,,,
2176.7999999998137,,shortestpath_phase,1454836,GW/jukebox.jpg,,,,50,GW/snail.jpg,GW/wheelchair.jpg,0.7894736842105263,1,,,,GW/wheelchair.jpg,,,,,Three Edge Diff,Two Edge Five Edge
null,,html-keyboard-response,1455840,<p></p>,,,,null,,,,,,,,,,,,,,
2233.2999999998137,,shortestpath_phase,1458076,GW/teeth.jpg,,,,49,GW/basket.jpg,GW/barrel.jpg,0.75,0,,,,GW/barrel.jpg,,,,,Two Edge Diff,Three Edge Five Edge
null,,html-keyboard-response,1459080,<p></p>,,,,null,,,,,,,,,,,,,,
2225,,shortestpath_phase,1461308,GW/soldier.jpg,,,,50,GW/globe.jpg,GW/basket.jpg,0.7142857142857143,0,,,,GW/globe.jpg,,,,,One Edge Diff,Four Edge Five Edge
null,,html-keyboard-response,1462312,<p></p>,,,,null,,,,,,,,,,,,,,
3296.7000000001863,,shortestpath_phase,1465612,GW/gong.jpg,,,,50,GW/jukebox.jpg,GW/hat.jpg,0.6818181818181818,0,,,,GW/jukebox.jpg,,,,,One Edge Diff,Three Edge Four Edge
null,,html-keyboard-response,1466617,<p></p>,,,,null,,,,,,,,,,,,,,
3072.899999999907,,shortestpath_phase,1469692,GW/camera.jpg,,,,50,GW/dustpan.jpg,GW/hat.jpg,0.6521739130434783,0,,,,GW/dustpan.jpg,,,,,One Edge Diff,Four Edge Five Edge
null,,html-keyboard-response,1470696,<p></p>,,,,null,,,,,,,,,,,,,,
2617.100000000093,,shortestpath_phase,1473316,GW/teeth.jpg,,,,50,GW/camera.jpg,GW/gong.jpg,0.6666666666666666,1,,,,GW/gong.jpg,,,,,One Edge Diff,Four Edge Five Edge
null,,html-keyboard-response,1474320,<p></p>,,,,null,,,,,,,,,,,,,,
2199.100000000093,,shortestpath_phase,1476521,GW/dustpan.jpg,,,,50,GW/camera.jpg,GW/wheelchair.jpg,0.68,1,,,,GW/wheelchair.jpg,,,,,Two Edge Diff,Two Edge Four Edge
null,,html-keyboard-response,1477525,<p></p>,,,,null,,,,,,,,,,,,,,
2996.5,,shortestpath_phase,1480524,GW/camera.jpg,,,,50,GW/hat.jpg,GW/soldier.jpg,0.6538461538461539,0,,,,GW/hat.jpg,,,,,One Edge Diff,Five Edge Six Edge
null,,html-keyboard-response,1481529,<p></p>,,,,null,,,,,,,,,,,,,,
3848.5,,shortestpath_phase,1485380,GW/gong.jpg,,,,50,GW/teeth.jpg,GW/soldier.jpg,0.6296296296296297,0,,,,GW/teeth.jpg,,,,,One Edge Diff,Four Edge Five Edge
null,,html-keyboard-response,1486384,<p></p>,,,,null,,,,,,,,,,,,,,
1904.7000000001863,,shortestpath_phase,1488292,GW/camera.jpg,,,,49,GW/wheelchair.jpg,GW/barrel.jpg,0.6428571428571429,1,,,,GW/wheelchair.jpg,,,,,One Edge Diff,Two Edge Three Edge
null,,html-keyboard-response,1489297,<p></p>,,,,null,,,,,,,,,,,,,,
1969.3000000002794,,shortestpath_phase,1491268,GW/hat.jpg,,,,49,GW/paint.jpg,GW/gong.jpg,0.6551724137931034,1,,,,GW/paint.jpg,,,,,Two Edge Diff,Two Edge Four Edge
null,,html-keyboard-response,1492274,<p></p>,,,,null,,,,,,,,,,,,,,
3295.100000000093,,shortestpath_phase,1495571,GW/globe.jpg,,,,50,GW/snail.jpg,GW/camera.jpg,0.6333333333333333,0,,,,GW/snail.jpg,,,,,One Edge Diff,Two Edge Three Edge
null,,html-keyboard-response,1496575,<p></p>,,,,null,,,,,,,,,,,,,,
2546.100000000093,,shortestpath_phase,1499123,GW/basket.jpg,,,,49,GW/hat.jpg,GW/soldier.jpg,0.6451612903225806,1,,,,GW/hat.jpg,,,,,One Edge Diff,Four Edge Five Edge
null,,html-keyboard-response,1500129,<p></p>,,,,null,,,,,,,,,,,,,,
3385,,shortestpath_phase,1503516,GW/snail.jpg,,,,49,GW/globe.jpg,GW/jukebox.jpg,0.65625,1,,,,GW/globe.jpg,,,,,Three Edge Diff,Three Edge Six Edge
null,,html-keyboard-response,1504520,<p></p>,,,,null,,,,,,,,,,,,,,
2673.1999999997206,,shortestpath_phase,1507195,GW/teeth.jpg,,,,50,GW/snail.jpg,GW/hat.jpg,0.6666666666666666,1,,,,GW/hat.jpg,,,,,Four Edge Diff,Two Edge Six Edge
null,,html-keyboard-response,1508199,<p></p>,,,,null,,,,,,,,,,,,,,
2585.8000000002794,,shortestpath_phase,1510788,GW/soldier.jpg,,,,49,GW/snail.jpg,GW/dustpan.jpg,0.6470588235294118,0,,,,GW/dustpan.jpg,,,,,Four Edge Diff,Two Edge Six Edge
null,,html-keyboard-response,1511791,<p></p>,,,,null,,,,,,,,,,,,,,
3842.0999999996275,,shortestpath_phase,1515636,GW/teeth.jpg,,,,49,GW/hat.jpg,GW/gong.jpg,0.6571428571428571,1,,,,GW/hat.jpg,,,,,Two Edge Diff,Two Edge Four Edge
null,,html-keyboard-response,1516640,<p></p>,,,,null,,,,,,,,,,,,,,
2712.2999999998137,,shortestpath_phase,1519356,GW/snail.jpg,,,,50,GW/soldier.jpg,GW/dustpan.jpg,0.6666666666666666,1,,,,GW/dustpan.jpg,,,,,Two Edge Diff,Four Edge Six Edge
null,,html-keyboard-response,1520359,<p></p>,,,,null,,,,,,,,,,,,,,
1721.3999999999069,,shortestpath_phase,1522082,GW/teeth.jpg,,,,50,GW/basket.jpg,GW/paint.jpg,0.6756756756756757,1,,,,GW/paint.jpg,,,,,Three Edge Diff,Three Edge Six Edge
null,,html-keyboard-response,1523086,<p></p>,,,,null,,,,,,,,,,,,,,
2618.9000000003725,,shortestpath_phase,1525708,GW/globe.jpg,,,,50,GW/dustpan.jpg,GW/soldier.jpg,0.6578947368421053,0,,,,GW/dustpan.jpg,,,,,Two Edge Diff,Two Edge Four Edge
null,,html-keyboard-response,1526712,<p></p>,,,,null,,,,,,,,,,,,,,
3273.1999999997206,,shortestpath_phase,1529988,GW/snail.jpg,,,,49,GW/paint.jpg,GW/hat.jpg,0.6666666666666666,1,,,,GW/paint.jpg,,,,,One Edge Diff,Four Edge Five Edge
null,,html-keyboard-response,1530992,<p></p>,,,,null,,,,,,,,,,,,,,
3513.5,,shortestpath_phase,1534507,GW/barrel.jpg,,,,50,GW/camera.jpg,GW/jukebox.jpg,0.675,1,,,,GW/jukebox.jpg,,,,,One Edge Diff,Two Edge Three Edge
null,,html-keyboard-response,1535512,<p></p>,,,,null,,,,,,,,,,,,,,
1718.8999999999069,,shortestpath_phase,1537233,GW/teeth.jpg,,,,49,GW/basket.jpg,GW/soldier.jpg,0.6585365853658537,0,,,,GW/soldier.jpg,,,,,Two Edge Diff,Three Edge Five Edge
null,,html-keyboard-response,1538236,<p></p>,,,,null,,,,,,,,,,,,,,
1652.6999999997206,,shortestpath_phase,1539889,GW/snail.jpg,,,,50,GW/barrel.jpg,GW/jukebox.jpg,0.6428571428571429,0,,,,GW/barrel.jpg,,,,,Two Edge Diff,Three Edge Five Edge
null,,html-keyboard-response,1540894,<p></p>,,,,null,,,,,,,,,,,,,,
3931.600000000093,,shortestpath_phase,1544828,GW/soldier.jpg,,,,50,GW/jukebox.jpg,GW/basket.jpg,0.627906976744186,0,,,,GW/jukebox.jpg,,,,,Three Edge Diff,Three Edge Six Edge
null,,html-keyboard-response,1545831,<p></p>,,,,null,,,,,,,,,,,,,,
2090.1999999997206,,shortestpath_phase,1547924,GW/camera.jpg,,,,50,GW/basket.jpg,GW/hat.jpg,0.6136363636363636,0,,,,GW/basket.jpg,,,,,Three Edge Diff,Three Edge Six Edge
null,,html-keyboard-response,1548929,<p></p>,,,,null,,,,,,,,,,,,,,
1912.0999999996275,,shortestpath_phase,1550843,GW/soldier.jpg,,,,50,GW/camera.jpg,GW/jukebox.jpg,0.6222222222222222,1,,,,GW/jukebox.jpg,,,,,Four Edge Diff,Two Edge Six Edge
null,,html-keyboard-response,1551848,<p></p>,,,,null,,,,,,,,,,,,,,
2817,,shortestpath_phase,1554668,GW/globe.jpg,,,,50,GW/teeth.jpg,GW/snail.jpg,0.6304347826086957,1,,,,GW/snail.jpg,,,,,Two Edge Diff,Two Edge Four Edge
null,,html-keyboard-response,1555672,<p></p>,,,,null,,,,,,,,,,,,,,
4584.899999999907,,shortestpath_phase,1560260,GW/soldier.jpg,,,,50,GW/wheelchair.jpg,GW/camera.jpg,0.6170212765957447,0,,,,GW/wheelchair.jpg,,,,,Two Edge Diff,Four Edge Six Edge
null,,html-keyboard-response,1561264,<p></p>,,,,null,,,,,,,,,,,,,,
2616.7999999998137,,shortestpath_phase,1563883,GW/snail.jpg,,,,49,GW/teeth.jpg,GW/globe.jpg,0.6041666666666666,0,,,,GW/globe.jpg,,,,,Four Edge Diff,Two Edge Six Edge
null,,html-keyboard-response,1564887,<p></p>,,,,null,,,,,,,,,,,,,,
2497.399999999907,,shortestpath_phase,1567387,GW/soldier.jpg,,,,50,GW/basket.jpg,GW/camera.jpg,0.5918367346938775,0,,,,GW/basket.jpg,,,,,One Edge Diff,Five Edge Six Edge
null,,html-keyboard-response,1568392,<p></p>,,,,null,,,,,,,,,,,,,,
4617.699999999721,,shortestpath_phase,1573012,GW/camera.jpg,,,,50,GW/soldier.jpg,GW/dustpan.jpg,0.6,1,,,,GW/dustpan.jpg,,,,,Two Edge Diff,Four Edge Six Edge
null,,html-keyboard-response,1574026,<p></p>,,,,null,,,,,,,,,,,,,,
1869.6000000000931,,shortestpath_phase,1575897,GW/hat.jpg,,,,49,GW/paint.jpg,GW/basket.jpg,0.6078431372549019,1,,,,GW/paint.jpg,,,,,Two Edge Diff,Two Edge Four Edge
null,,html-keyboard-response,1576901,<p></p>,,,,null,,,,,,,,,,,,,,
2612.100000000093,,shortestpath_phase,1579516,GW/teeth.jpg,,,,49,GW/dustpan.jpg,GW/basket.jpg,0.6153846153846154,1,,,,GW/dustpan.jpg,,,,,Three Edge Diff,Three Edge Six Edge
null,,html-keyboard-response,1580520,<p></p>,,,,null,,,,,,,,,,,,,,
2720.899999999907,,shortestpath_phase,1583244,GW/camera.jpg,,,,49,GW/basket.jpg,GW/hat.jpg,0.6226415094339622,1,,,,GW/basket.jpg,,,,,Three Edge Diff,Two Edge Five Edge
null,,html-keyboard-response,1584248,<p></p>,,,,null,,,,,,,,,,,,,,
1768.6999999997206,,shortestpath_phase,1586019,GW/wheelchair.jpg,,,,49,GW/dustpan.jpg,GW/soldier.jpg,0.6296296296296297,1,,,,GW/dustpan.jpg,,,,,Two Edge Diff,Two Edge Four Edge
null,,html-keyboard-response,1587024,<p></p>,,,,null,,,,,,,,,,,,,,
2952.8000000002794,,shortestpath_phase,1589980,GW/hat.jpg,,,,49,GW/camera.jpg,GW/globe.jpg,0.6181818181818182,0,,,,GW/globe.jpg,,,,,Two Edge Diff,Three Edge Five Edge
null,,html-keyboard-response,1590984,<p></p>,,,,null,,,,,,,,,,,,,,
2817.100000000093,,shortestpath_phase,1593804,GW/gong.jpg,,,,50,GW/soldier.jpg,GW/jukebox.jpg,0.625,1,,,,GW/jukebox.jpg,,,,,Two Edge Diff,Three Edge Five Edge
null,,html-keyboard-response,1594809,<p></p>,,,,null,,,,,,,,,,,,,,
1430.6000000000931,,shortestpath_phase,1596241,GW/hat.jpg,,,,49,GW/paint.jpg,GW/globe.jpg,0.631578947368421,1,,,,GW/paint.jpg,,,,,One Edge Diff,Two Edge Three Edge
null,,html-keyboard-response,1597243,<p></p>,,,,null,,,,,,,,,,,,,,
1710.6000000000931,,shortestpath_phase,1598956,GW/gong.jpg,,,,49,GW/jukebox.jpg,GW/globe.jpg,0.6206896551724138,0,,,,GW/globe.jpg,,,,,One Edge Diff,Two Edge Three Edge
null,,html-keyboard-response,1599960,<p></p>,,,,null,,,,,,,,,,,,,,
1392.6000000000931,,shortestpath_phase,1601356,GW/hat.jpg,,,,49,GW/paint.jpg,GW/camera.jpg,0.6271186440677966,1,,,,GW/paint.jpg,,,,,Three Edge Diff,Two Edge Five Edge
null,,html-keyboard-response,1602360,<p></p>,,,,null,,,,,,,,,,,,,,
1504.8999999999069,,shortestpath_phase,1603868,GW/camera.jpg,,,,50,GW/soldier.jpg,GW/basket.jpg,0.6333333333333333,1,,,,GW/basket.jpg,,,,,Four Edge Diff,Two Edge Six Edge
null,,html-keyboard-response,1604872,<p></p>,,,,null,,,,,,,,,,,,,,
3288.2999999998137,,shortestpath_phase,1608163,GW/snail.jpg,,,,50,GW/teeth.jpg,GW/paint.jpg,0.639344262295082,1,,,,GW/paint.jpg,,,,,Two Edge Diff,Four Edge Six Edge
null,,html-keyboard-response,1609168,<p></p>,,,,null,,,,,,,,,,,,,,
4072.7000000001863,,shortestpath_phase,1613243,GW/gong.jpg,,,,49,GW/hat.jpg,GW/globe.jpg,0.6290322580645161,0,,,,GW/globe.jpg,,,,,Two Edge Diff,Two Edge Four Edge
null,,html-keyboard-response,1614247,<p></p>,,,,null,,,,,,,,,,,,,,
2258.1999999997206,,shortestpath_phase,1616508,GW/snail.jpg,,,,49,GW/teeth.jpg,GW/jukebox.jpg,0.6190476190476191,0,,,,GW/jukebox.jpg,,,,,One Edge Diff,Five Edge Six Edge
null,,html-keyboard-response,1617512,<p></p>,,,,null,,,,,,,,,,,,,,
3096.5,,shortestpath_phase,1620612,GW/camera.jpg,,,,49,GW/paint.jpg,GW/dustpan.jpg,0.625,1,,,,GW/paint.jpg,,,,,One Edge Diff,Three Edge Four Edge
null,,html-keyboard-response,1621616,<p></p>,,,,null,,,,,,,,,,,,,,
3049.399999999907,,shortestpath_phase,1624668,GW/snail.jpg,,,,49,GW/gong.jpg,GW/jukebox.jpg,0.6307692307692307,1,,,,GW/gong.jpg,,,,,Three Edge Diff,Three Edge Six Edge
null,,html-keyboard-response,1625672,<p></p>,,,,null,,,,,,,,,,,,,,
3073.399999999907,,shortestpath_phase,1628748,GW/camera.jpg,,,,49,GW/basket.jpg,GW/teeth.jpg,0.6363636363636364,1,,,,GW/basket.jpg,,,,,Three Edge Diff,Three Edge Six Edge
null,,html-keyboard-response,1629753,<p></p>,,,,null,,,,,,,,,,,,,,
4072.399999999907,,shortestpath_phase,1633828,GW/snail.jpg,,,,49,GW/hat.jpg,GW/soldier.jpg,0.6417910447761194,1,,,,GW/hat.jpg,,,,,One Edge Diff,Five Edge Six Edge
null,,html-keyboard-response,1634832,<p></p>,,,,null,,,,,,,,,,,,,,
3321.1999999997206,,shortestpath_phase,1638156,GW/soldier.jpg,,,,50,GW/gong.jpg,GW/teeth.jpg,0.6470588235294118,1,,,,GW/teeth.jpg,,,,,Two Edge Diff,Three Edge Five Edge
null,,html-keyboard-response,1639163,<p></p>,,,,null,,,,,,,,,,,,,,
2374.5,,shortestpath_phase,1641540,GW/snail.jpg,,,,50,GW/soldier.jpg,GW/paint.jpg,0.6521739130434783,1,,,,GW/paint.jpg,,,,,Two Edge Diff,Four Edge Six Edge
null,,html-keyboard-response,1642544,<p></p>,,,,null,,,,,,,,,,,,,,
2648.6999999997206,,shortestpath_phase,1645196,GW/teeth.jpg,,,,50,GW/soldier.jpg,GW/dustpan.jpg,0.6571428571428571,1,,,,GW/dustpan.jpg,,,,,One Edge Diff,Two Edge Three Edge
null,,html-keyboard-response,1646200,<p></p>,,,,null,,,,,,,,,,,,,,
2344.899999999907,,shortestpath_phase,1648548,GW/snail.jpg,,,,49,GW/gong.jpg,GW/soldier.jpg,0.6619718309859155,1,,,,GW/gong.jpg,,,,,Four Edge Diff,Two Edge Six Edge
null,,html-keyboard-response,1649552,<p></p>,,,,null,,,,,,,,,,,,,,
1568.6000000000931,,shortestpath_phase,1651123,GW/jukebox.jpg,,,,49,GW/barrel.jpg,GW/snail.jpg,0.6666666666666666,1,,,,GW/barrel.jpg,,,,,Three Edge Diff,Two Edge Five Edge
null,,html-keyboard-response,1652128,<p></p>,,,,null,,,,,,,,,,,,,,
4191.299999999814,,shortestpath_phase,1656322,GW/camera.jpg,,,,50,GW/basket.jpg,GW/barrel.jpg,0.6575342465753424,0,,,,GW/basket.jpg,,,,,One Edge Diff,Two Edge Three Edge
null,,html-keyboard-response,1657324,<p></p>,,,,null,,,,,,,,,,,,,,
2868.5999999996275,,shortestpath_phase,1660196,GW/globe.jpg,,,,50,GW/jukebox.jpg,GW/wheelchair.jpg,0.6621621621621622,1,,,,GW/wheelchair.jpg,,,,,One Edge Diff,Two Edge Three Edge
null,,html-keyboard-response,1661202,<p></p>,,,,null,,,,,,,,,,,,,,
3727.2999999998137,,shortestpath_phase,1664932,GW/jukebox.jpg,,,,49,GW/basket.jpg,GW/barrel.jpg,0.6533333333333333,0,,,,GW/barrel.jpg,,,,,Two Edge Diff,Two Edge Four Edge
null,,html-keyboard-response,1665936,<p></p>,,,,null,,,,,,,,,,,,,,
1984.8999999999069,,shortestpath_phase,1667924,GW/basket.jpg,,,,50,GW/dustpan.jpg,GW/soldier.jpg,0.6447368421052632,0,,,,GW/dustpan.jpg,,,,,Two Edge Diff,Three Edge Five Edge
null,,html-keyboard-response,1668929,<p></p>,,,,null,,,,,,,,,,,,,,
3968,,shortestpath_phase,1672900,GW/soldier.jpg,,,,49,GW/globe.jpg,GW/barrel.jpg,0.6363636363636364,0,,,,GW/barrel.jpg,,,,,One Edge Diff,Three Edge Four Edge
null,,html-keyboard-response,1673904,<p></p>,,,,null,,,,,,,,,,,,,,
2823,,shortestpath_phase,1676729,GW/snail.jpg,,,,49,GW/hat.jpg,GW/globe.jpg,0.6282051282051282,0,,,,GW/globe.jpg,,,,,Three Edge Diff,Two Edge Five Edge
null,,html-keyboard-response,1677732,<p></p>,,,,null,,,,,,,,,,,,,,
1661.4000000003725,,shortestpath_phase,1679396,GW/teeth.jpg,,,,50,GW/snail.jpg,GW/basket.jpg,0.6329113924050633,1,,,,GW/basket.jpg,,,,,One Edge Diff,Five Edge Six Edge
null,,html-keyboard-response,1680401,<p></p>,,,,null,,,,,,,,,,,,,,
3158.3000000002794,,shortestpath_phase,1683561,GW/dustpan.jpg,,,,49,GW/wheelchair.jpg,GW/snail.jpg,0.6375,1,,,,GW/wheelchair.jpg,,,,,Two Edge Diff,Two Edge Four Edge
null,,html-keyboard-response,1684564,<p></p>,,,,null,,,,,,,,,,,,,,
3404.4000000003725,,shortestpath_phase,1687971,GW/soldier.jpg,,,,50,GW/camera.jpg,GW/gong.jpg,0.6419753086419753,1,,,,GW/gong.jpg,,,,,One Edge Diff,Five Edge Six Edge
null,,html-keyboard-response,1688976,<p></p>,,,,null,,,,,,,,,,,,,,
1817.1000000000931,,shortestpath_phase,1690796,GW/basket.jpg,,,,49,GW/hat.jpg,GW/teeth.jpg,0.6463414634146342,1,,,,GW/hat.jpg,,,,,One Edge Diff,Four Edge Five Edge
null,,html-keyboard-response,1691802,<p></p>,,,,null,,,,,,,,,,,,,,
3727.100000000093,,shortestpath_phase,1695532,GW/snail.jpg,,,,50,GW/teeth.jpg,GW/gong.jpg,0.6506024096385542,1,,,,GW/gong.jpg,,,,,Four Edge Diff,Two Edge Six Edge
null,,html-keyboard-response,1696537,<p></p>,,,,null,,,,,,,,,,,,,,
2144.2999999998137,,shortestpath_phase,1698684,GW/teeth.jpg,,,,49,GW/snail.jpg,GW/globe.jpg,0.6428571428571429,0,,,,GW/globe.jpg,,,,,Two Edge Diff,Four Edge Six Edge
null,,html-keyboard-response,1699689,<p></p>,,,,null,,,,,,,,,,,,,,
2519.600000000093,,shortestpath_phase,1702212,GW/soldier.jpg,,,,49,GW/snail.jpg,GW/jukebox.jpg,0.6352941176470588,0,,,,GW/jukebox.jpg,,,,,Four Edge Diff,Two Edge Six Edge
null,,html-keyboard-response,1703216,<p></p>,,,,null,,,,,,,,,,,,,,
2489.2000000001863,,shortestpath_phase,1705708,GW/teeth.jpg,,,,50,GW/hat.jpg,GW/camera.jpg,0.627906976744186,0,,,,GW/hat.jpg,,,,,Three Edge Diff,Two Edge Five Edge
null,,html-keyboard-response,1706712,<p></p>,,,,null,,,,,,,,,,,,,,
1817.2999999998137,,shortestpath_phase,1708532,GW/soldier.jpg,,,,49,GW/camera.jpg,GW/globe.jpg,0.6206896551724138,0,,,,GW/globe.jpg,,,,,Two Edge Diff,Four Edge Six Edge
null,,html-keyboard-response,1709536,<p></p>,,,,null,,,,,,,,,,,,,,
1616.3999999999069,,shortestpath_phase,1711156,GW/dustpan.jpg,,,,50,GW/camera.jpg,GW/basket.jpg,0.625,1,,,,GW/basket.jpg,,,,,One Edge Diff,Three Edge Four Edge
null,,html-keyboard-response,1712161,<p></p>,,,,null,,,,,,,,,,,,,,
1936.2000000001863,,shortestpath_phase,1714100,GW/soldier.jpg,,,,50,GW/snail.jpg,GW/wheelchair.jpg,0.6292134831460674,1,,,,GW/wheelchair.jpg,,,,,Two Edge Diff,Four Edge Six Edge
null,,html-keyboard-response,1715105,<p></p>,,,,null,,,,,,,,,,,,,,
2536,,shortestpath_phase,1717644,GW/snail.jpg,,,,49,GW/paint.jpg,GW/barrel.jpg,0.6222222222222222,0,,,,GW/barrel.jpg,,,,,One Edge Diff,Three Edge Four Edge
null,,html-keyboard-response,1718648,<p></p>,,,,null,,,,,,,,,,,,,,
4096.699999999721,,shortestpath_phase,1722748,GW/soldier.jpg,,,,49,GW/snail.jpg,GW/basket.jpg,0.6153846153846154,0,,,,GW/basket.jpg,,,,,One Edge Diff,Five Edge Six Edge
null,,html-keyboard-response,1723753,<p></p>,,,,null,,,,,,,,,,,,,,
2480.3000000002794,,shortestpath_phase,1726236,GW/teeth.jpg,,,,49,GW/hat.jpg,GW/camera.jpg,0.6195652173913043,1,,,,GW/hat.jpg,,,,,Three Edge Diff,Three Edge Six Edge
null,,html-keyboard-response,1727241,<p></p>,,,,null,,,,,,,,,,,,,,
4264.100000000093,,shortestpath_phase,1731507,GW/soldier.jpg,,,,50,GW/snail.jpg,GW/gong.jpg,0.6236559139784946,1,,,,GW/gong.jpg,,,,,One Edge Diff,Five Edge Six Edge
null,,html-keyboard-response,1732512,<p></p>,,,,null,,,,,,,,,,,,,,
2505.1999999997206,,shortestpath_phase,1735020,GW/dustpan.jpg,,,,49,GW/teeth.jpg,GW/snail.jpg,0.6276595744680851,1,,,,GW/teeth.jpg,,,,,Two Edge Diff,Two Edge Four Edge
null,,html-keyboard-response,1736024,<p></p>,,,,null,,,,,,,,,,,,,,
1457.3999999999069,,shortestpath_phase,1737484,GW/camera.jpg,,,,50,GW/hat.jpg,GW/wheelchair.jpg,0.631578947368421,1,,,,GW/wheelchair.jpg,,,,,Three Edge Diff,Three Edge Six Edge
null,,html-keyboard-response,1738491,<p></p>,,,,null,,,,,,,,,,,,,,
1949.7000000001863,,shortestpath_phase,1740443,GW/teeth.jpg,,,,50,GW/snail.jpg,GW/paint.jpg,0.6354166666666666,1,,,,GW/paint.jpg,,,,,Four Edge Diff,Two Edge Six Edge
null,,html-keyboard-response,1741448,<p></p>,,,,null,,,,,,,,,,,,,,
4239.199999999721,,shortestpath_phase,1745690,GW/snail.jpg,,,,50,GW/dustpan.jpg,GW/teeth.jpg,0.6288659793814433,0,,,,GW/dustpan.jpg,,,,,Two Edge Diff,Four Edge Six Edge
null,,html-keyboard-response,1746692,<p></p>,,,,null,,,,,,,,,,,,,,
2260.899999999907,,shortestpath_phase,1748956,GW/teeth.jpg,,,,49,GW/gong.jpg,GW/snail.jpg,0.6326530612244898,1,,,,GW/gong.jpg,,,,,Two Edge Diff,Four Edge Six Edge
null,,html-keyboard-response,1749960,<p></p>,,,,null,,,,,,,,,,,,,,
3224.600000000093,,shortestpath_phase,1753188,GW/basket.jpg,,,,49,GW/teeth.jpg,GW/dustpan.jpg,0.6262626262626263,0,,,,GW/dustpan.jpg,,,,,Two Edge Diff,Three Edge Five Edge
null,,html-keyboard-response,1754192,<p></p>,,,,null,,,,,,,,,,,,,,
1688.5999999996275,,shortestpath_phase,1755884,GW/gong.jpg,,,,49,GW/hat.jpg,GW/soldier.jpg,0.63,1,,,,GW/hat.jpg,,,,,One Edge Diff,Four Edge Five Edge
null,,html-keyboard-response,1756888,<p></p>,,,,null,,,,,,,,,,,,,,
1256.7000000001863,,shortestpath_phase,1758147,GW/teeth.jpg,,,,49,GW/dustpan.jpg,GW/snail.jpg,0.6336633663366337,1,,,,GW/dustpan.jpg,,,,,Four Edge Diff,Two Edge Six Edge
null,,html-keyboard-response,1759152,<p></p>,,,,null,,,,,,,,,,,,,,
1449.4000000003725,,shortestpath_phase,1760604,GW/basket.jpg,,,,50,GW/soldier.jpg,GW/camera.jpg,0.6372549019607843,1,,,,GW/camera.jpg,,,,,Three Edge Diff,Three Edge Six Edge
null,,html-keyboard-response,1761609,<p></p>,,,,null,,,,,,,,,,,,,,
4184.199999999721,,shortestpath_phase,1765796,GW/hat.jpg,,,,49,GW/basket.jpg,GW/wheelchair.jpg,0.6310679611650486,0,,,,GW/wheelchair.jpg,,,,,One Edge Diff,Three Edge Four Edge
null,,html-keyboard-response,1766800,<p></p>,,,,null,,,,,,,,,,,,,,
2081.100000000093,,shortestpath_phase,1768883,GW/camera.jpg,,,,50,GW/snail.jpg,GW/hat.jpg,0.625,0,,,,GW/snail.jpg,,,,,Two Edge Diff,Three Edge Five Edge
null,,html-keyboard-response,1769888,<p></p>,,,,null,,,,,,,,,,,,,,
3336.7999999998137,,shortestpath_phase,1773228,GW/teeth.jpg,,,,50,GW/wheelchair.jpg,GW/basket.jpg,0.6190476190476191,0,,,,GW/wheelchair.jpg,,,,,Two Edge Diff,Three Edge Five Edge
null,,html-keyboard-response,1774233,<p></p>,,,,null,,,,,,,,,,,,,,
1463.1999999997206,,shortestpath_phase,1775699,GW/hat.jpg,,,,49,GW/paint.jpg,GW/snail.jpg,0.6226415094339622,1,,,,GW/paint.jpg,,,,,Three Edge Diff,Two Edge Five Edge
null,,html-keyboard-response,1776702,<p></p>,,,,null,,,,,,,,,,,,,,
1995.1000000000931,,shortestpath_phase,1778699,GW/soldier.jpg,,,,50,GW/teeth.jpg,GW/globe.jpg,0.616822429906542,0,,,,GW/teeth.jpg,,,,,One Edge Diff,Three Edge Four Edge
null,,html-keyboard-response,1779704,<p></p>,,,,null,,,,,,,,,,,,,,
1800.3999999999069,,shortestpath_phase,1781507,GW/gong.jpg,,,,49,GW/teeth.jpg,GW/snail.jpg,0.6111111111111112,0,,,,GW/snail.jpg,,,,,Two Edge Diff,Two Edge Four Edge
null,,html-keyboard-response,1782512,<p></p>,,,,null,,,,,,,,,,,,,,
1393,,shortestpath_phase,1783908,GW/teeth.jpg,,,,50,GW/paint.jpg,GW/wheelchair.jpg,0.6055045871559633,0,,,,GW/paint.jpg,,,,,One Edge Diff,Two Edge Three Edge
null,,html-keyboard-response,1784912,<p></p>,,,,null,,,,,,,,,,,,,,
3112.899999999907,,shortestpath_phase,1788027,GW/globe.jpg,,,,50,GW/hat.jpg,GW/soldier.jpg,0.6,0,,,,GW/hat.jpg,,,,,One Edge Diff,Three Edge Four Edge
null,,html-keyboard-response,1789031,<p></p>,,,,null,,,,,,,,,,,,,,
3001.5,,shortestpath_phase,1792036,GW/teeth.jpg,,,,50,GW/snail.jpg,GW/camera.jpg,0.6036036036036037,1,,,,GW/camera.jpg,,,,,One Edge Diff,Five Edge Six Edge
null,,html-keyboard-response,1793040,<p></p>,,,,null,,,,,,,,,,,,,,
1457.5,,shortestpath_phase,1794500,GW/snail.jpg,,,,49,GW/hat.jpg,GW/teeth.jpg,0.6071428571428571,1,,,,GW/hat.jpg,,,,,One Edge Diff,Five Edge Six Edge
null,,html-keyboard-response,1795504,<p></p>,,,,null,,,,,,,,,,,,,,
1304.8000000002794,,shortestpath_phase,1796811,GW/teeth.jpg,,,,50,GW/basket.jpg,GW/paint.jpg,0.6106194690265486,1,,,,GW/paint.jpg,,,,,Three Edge Diff,Two Edge Five Edge
null,,html-keyboard-response,1797816,<p></p>,,,,null,,,,,,,,,,,,,,
3280.6999999997206,,shortestpath_phase,1801100,GW/camera.jpg,,,,49,GW/wheelchair.jpg,GW/soldier.jpg,0.6140350877192983,1,,,,GW/wheelchair.jpg,,,,,Four Edge Diff,Two Edge Six Edge
null,,html-keyboard-response,1802104,<p></p>,,,,null,,,,,,,,,,,,,,
1384.6999999997206,,shortestpath_phase,1803492,GW/teeth.jpg,,,,50,GW/camera.jpg,GW/paint.jpg,0.6173913043478261,1,,,,GW/paint.jpg,,,,,Three Edge Diff,Two Edge Five Edge
null,,html-keyboard-response,1804496,<p></p>,,,,null,,,,,,,,,,,,,,
2770.5,,shortestpath_phase,1807268,GW/camera.jpg,,,,49,GW/wheelchair.jpg,GW/teeth.jpg,0.6206896551724138,1,,,,GW/wheelchair.jpg,,,,,Three Edge Diff,Three Edge Six Edge
null,,html-keyboard-response,1808273,<p></p>,,,,null,,,,,,,,,,,,,,
3623.8000000002794,,shortestpath_phase,1811900,GW/soldier.jpg,,,,50,GW/globe.jpg,GW/snail.jpg,0.6153846153846154,0,,,,GW/globe.jpg,,,,,Two Edge Diff,Four Edge Six Edge
null,,html-keyboard-response,1812905,<p></p>,,,,null,,,,,,,,,,,,,,
2663.9000000003725,,shortestpath_phase,1815572,GW/basket.jpg,,,,50,GW/barrel.jpg,GW/teeth.jpg,0.6101694915254238,0,,,,GW/barrel.jpg,,,,,Three Edge Diff,Two Edge Five Edge
null,,html-keyboard-response,1816577,<p></p>,,,,null,,,,,,,,,,,,,,
2512.7000000001863,,shortestpath_phase,1819092,GW/soldier.jpg,,,,50,GW/camera.jpg,GW/dustpan.jpg,0.6134453781512605,1,,,,GW/dustpan.jpg,,,,,Four Edge Diff,Two Edge Six Edge
null,,html-keyboard-response,1820097,<p></p>,,,,null,,,,,,,,,,,,,,
1840.0999999996275,,shortestpath_phase,1821940,GW/snail.jpg,,,,49,GW/jukebox.jpg,GW/soldier.jpg,0.6166666666666667,1,,,,GW/jukebox.jpg,,,,,One Edge Diff,Five Edge Six Edge
null,,html-keyboard-response,1822944,<p></p>,,,,null,,,,,,,,,,,,,,
null,,shortestpath_phase,1830450,,,,,null,,,0.6115702479338843,0,,,,,,,,,One Edge Diff,Three Edge Four Edge
null,,html-keyboard-response,1831456,<p></p>,,,,null,,,,,,,,,,,,,,
25256.19999999972,,intro_1,1856714,instruct,,0,,,,,,,,,,,,,,,,
10366.099999999627,,intro_2,1867082,instruct,,0,Previous,,,,,,,,,,,,,,,
18190.30000000028,,intro_1,1885274,instruct,,0,,,,,,,,,,,,,,,,
40302.30000000028,,intro_2,1925577,instruct,,1,Next,,,,,,,,,,,,,,,
6094.100000000093,,intro_3,1931673,instruct,,1,Next,,,,,,,,,,,,,,,
