rt,responses,trial_type,time_elapsed,stimulus,graphorder,button_pressed,response,key_press,stimulus_left,stimulus_right,accuracy,cumulative_accuracy,stimulus_down_left,stimulus_down_mid,stimulus_down_right,stimulus_correct,stimulus_short,stimulus_far,weighted_accuracy,missedtrial,condition,specific_pairs
76947.20000004768,{worker_id:67db5618164a0fc0678e84d6},id_enter,76949,id_enter,GW/camera.jpg; GW/snail.jpg; GW/paint.jpg; GW/wheelchair.jpg; GW/soldier.jpg; GW/basket.jpg; GW/gong.jpg; GW/teeth.jpg; GW/jukebox.jpg; GW/dustpan.jpg; GW/globe.jpg; GW/barrel.jpg; GW/hat.jpg,,,,,,,,,,,,,,,,,
27762.200000047684,,fullscreen,104725,fullscreen,,0,,,,,,,,,,,,,,,,
15022.599999904633,,intro_1,119750,instruct,,0,,,,,,,,,,,,,,,,
28469.5,,intro_2,148222,instruct,,1,Next,,,,,,,,,,,,,,,
44801.700000047684,,intro_3,193025,instruct,,1,Next,,,,,,,,,,,,,,,
null,,learn_prac_1,195031,lean_prac_1,,,,null,,,,,,,,,,,,,,
null,,html-keyboard-response,196033,<p></p>,,,,null,,,,,,,,,,,,,,
5261.100000023842,,intro_1,201295,instruct,,0,,,,,,,,,,,,,,,,
13308.199999928474,,intro_2,214605,instruct,,1,Next,,,,,,,,,,,,,,,
null,,learn_prac_2,216607,lean_prac_2,,,,null,,,,,,,,,,,,,,
null,,html-keyboard-response,217609,<p></p>,,,,null,,,,,,,,,,,,,,
5234.899999976158,,intro_1,222845,instruct,,0,,,,,,,,,,,,,,,,
30548.799999952316,,intro_2,253395,instruct,,1,Next,,,,,,,,,,,,,,,
62402.700000047684,,intro_3,315800,instruct,,1,Next,,,,,,,,,,,,,,,
null,,prac_atten_color_black,316368,black_plus_sign,,,,null,,,,,,,,,,,,,,
369.6999999284744,,prac_atten_color,317205,prac_stop_color,,,,49,,,,,,,,,,,,,,
null,,prac_atten_color_black,319206,black_plus_sign,,,,null,,,,,,,,,,,,,,
null,,prac_atten_color_black,319775,black_plus_sign,,,,null,,,,,,,,,,,,,,
481.2000000476837,,prac_atten_color,320829,prac_stop_color,,,,50,,,,,,,,,,,,,,
null,,prac_atten_color_black,322830,black_plus_sign,,,,null,,,,,,,,,,,,,,
null,,prac_atten_color_black,323183,black_plus_sign,,,,null,,,,,,,,,,,,,,
497.60000002384186,,prac_atten_color,323815,prac_stop_color,,,,50,,,,,,,,,,,,,,
null,,prac_atten_color_black,325816,black_plus_sign,,,,null,,,,,,,,,,,,,,
null,,prac_atten_color_black,326589,black_plus_sign,,,,null,,,,,,,,,,,,,,
null,,prac_atten_color,327059,prac_stop_color,,,,null,,,,,,,,,,,,,,
54.09999990463257,,prac_atten_color_black,329061,black_plus_sign,,,,49,,,,,,,,,,,,,,
null,,prac_atten_color_black,330007,black_plus_sign,,,,null,,,,,,,,,,,,,,
495.8000000715256,,prac_atten_color,330879,prac_stop_color,,,,50,,,,,,,,,,,,,,
null,,prac_atten_color_black,332882,black_plus_sign,,,,null,,,,,,,,,,,,,,
null,,prac_atten_color_black,333415,black_plus_sign,,,,null,,,,,,,,,,,,,,
null,,prac_atten_color,333818,prac_stop_color,,,,null,,,,,,,,,,,,,,
213.70000004768372,,prac_atten_color_black,335819,black_plus_sign,,,,50,,,,,,,,,,,,,,
null,,prac_atten_color_black,336822,black_plus_sign,,,,null,,,,,,,,,,,,,,
520.1000000238419,,prac_atten_color,337430,prac_stop_color,,,,49,,,,,,,,,,,,,,
null,,prac_atten_color_black,339432,black_plus_sign,,,,null,,,,,,,,,,,,,,
null,,prac_atten_color_black,340229,black_plus_sign,,,,null,,,,,,,,,,,,,,
null,,prac_atten_color,340659,prac_stop_color,,,,null,,,,,,,,,,,,,,
130.89999997615814,,prac_atten_color_black,342661,black_plus_sign,,,,50,,,,,,,,,,,,,,
null,,prac_atten_color_black,343635,black_plus_sign,,,,null,,,,,,,,,,,,,,
718.1000000238419,,prac_atten_color,344470,prac_stop_color,,,,49,,,,,,,,,,,,,,
null,,prac_atten_color_black,346481,black_plus_sign,,,,null,,,,,,,,,,,,,,
null,,prac_atten_color_black,347059,black_plus_sign,,,,null,,,,,,,,,,,,,,
741.7999999523163,,prac_atten_color,348040,prac_stop_color,,,,49,,,,,,,,,,,,,,
null,,prac_atten_color_black,350041,black_plus_sign,,,,null,,,,,,,,,,,,,,
7484.700000047684,,attentioncheck_feedback,357528,cross_check_feedback,,0,,,,,,,,,,,,,,,,
18575.100000023842,,last_instruct,376104,instruct,,,,32,,,,,,,,,,,,,,
null,,learn_phase(without_color),378107,black_plus_sign,,,,null,GW/camera.jpg,GW/snail.jpg,,,,,,,,,,,,
null,,black_cross(without_color),378971,blue,,,,null,GW/camera.jpg,GW/snail.jpg,,,,,,,,,,,,
null,,rt_plussign_withcolor,379472,blue,,,,null,GW/camera.jpg,GW/snail.jpg,,,,,,,,,,,,
995.5999999046326,,rt_thecrossant_black,380611,black_plus_sign,,,,49,,,1,1,,,,,,,,,,
null,,color_black,380715,black_plus_sign,,,,null,,,,,,,,,,,,,,
null,,learn_phase(without_color),382719,black_plus_sign,,,,null,GW/jukebox.jpg,GW/globe.jpg,,,,,,,,,,,,
null,,black_cross(without_color),383243,green,,,,null,GW/jukebox.jpg,GW/globe.jpg,,,,,,,,,,,,
null,,rt_plussign_withcolor,383744,green,,,,null,GW/jukebox.jpg,GW/globe.jpg,,,,,,,,,,,,
1095.6000000238419,,rt_thecrossant_black,385230,black_plus_sign,,,,50,,,1,1,,,,,,,,,,
null,,color_black,385332,black_plus_sign,,,,null,,,,,,,,,,,,,,
null,,learn_phase(without_color),387334,black_plus_sign,,,,null,GW/basket.jpg,GW/jukebox.jpg,,,,,,,,,,,,
null,,black_cross(without_color),387868,green,,,,null,GW/basket.jpg,GW/jukebox.jpg,,,,,,,,,,,,
null,,rt_plussign_withcolor,388369,green,,,,null,GW/basket.jpg,GW/jukebox.jpg,,,,,,,,,,,,
624,,rt_thecrossant_black,389846,black_plus_sign,,,,50,,,1,1,,,,,,,,,,
null,,color_black,389948,black_plus_sign,,,,null,,,,,,,,,,,,,,
null,,learn_phase(without_color),391951,black_plus_sign,,,,null,GW/paint.jpg,GW/globe.jpg,,,,,,,,,,,,
null,,black_cross(without_color),392863,green,,,,null,GW/paint.jpg,GW/globe.jpg,,,,,,,,,,,,
null,,rt_plussign_withcolor,393364,green,,,,null,GW/paint.jpg,GW/globe.jpg,,,,,,,,,,,,
773.7000000476837,,rt_thecrossant_black,394456,black_plus_sign,,,,50,,,1,1,,,,,,,,,,
null,,color_black,394559,black_plus_sign,,,,null,,,,,,,,,,,,,,
null,,learn_phase(without_color),396562,black_plus_sign,,,,null,GW/jukebox.jpg,GW/globe.jpg,,,,,,,,,,,,
null,,black_cross(without_color),397091,blue,,,,null,GW/jukebox.jpg,GW/globe.jpg,,,,,,,,,,,,
null,,rt_plussign_withcolor,397593,blue,,,,null,GW/jukebox.jpg,GW/globe.jpg,,,,,,,,,,,,
1011,,rt_thecrossant_black,399068,black_plus_sign,,,,49,,,1,1,,,,,,,,,,
null,,color_black,399170,black_plus_sign,,,,null,,,,,,,,,,,,,,
null,,learn_phase(without_color),401172,black_plus_sign,,,,null,GW/teeth.jpg,GW/dustpan.jpg,,,,,,,,,,,,
null,,black_cross(without_color),401583,blue,,,,null,GW/teeth.jpg,GW/dustpan.jpg,,,,,,,,,,,,
null,,rt_plussign_withcolor,402085,blue,,,,null,GW/teeth.jpg,GW/dustpan.jpg,,,,,,,,,,,,
723.7999999523163,,rt_thecrossant_black,403677,black_plus_sign,,,,49,,,1,1,,,,,,,,,,
null,,color_black,403780,black_plus_sign,,,,null,,,,,,,,,,,,,,
null,,learn_phase(without_color),405782,black_plus_sign,,,,null,GW/wheelchair.jpg,GW/soldier.jpg,,,,,,,,,,,,
null,,black_cross(without_color),406447,blue,,,,null,GW/wheelchair.jpg,GW/soldier.jpg,,,,,,,,,,,,
455.89999997615814,,rt_plussign_withcolor,406950,blue,,,,49,GW/wheelchair.jpg,GW/soldier.jpg,,,,,,,,,,,,
null,,rt_thecrossant_black,408290,black_plus_sign,,,,null,,,1,1,,,,,,,,,,
null,,color_black,408391,black_plus_sign,,,,null,,,,,,,,,,,,,,
null,,learn_phase(without_color),410394,black_plus_sign,,,,null,GW/paint.jpg,GW/basket.jpg,,,,,,,,,,,,
null,,black_cross(without_color),410828,green,,,,null,GW/paint.jpg,GW/basket.jpg,,,,,,,,,,,,
null,,rt_plussign_withcolor,411330,green,,,,null,GW/paint.jpg,GW/basket.jpg,,,,,,,,,,,,
824.7999999523163,,rt_thecrossant_black,412900,black_plus_sign,,,,50,,,1,1,,,,,,,,,,
null,,color_black,413002,black_plus_sign,,,,null,,,,,,,,,,,,,,
null,,learn_phase(without_color),415003,black_plus_sign,,,,null,GW/wheelchair.jpg,GW/barrel.jpg,,,,,,,,,,,,
null,,black_cross(without_color),415594,green,,,,null,GW/wheelchair.jpg,GW/barrel.jpg,,,,,,,,,,,,
null,,rt_plussign_withcolor,416095,green,,,,null,GW/wheelchair.jpg,GW/barrel.jpg,,,,,,,,,,,,
671,,rt_thecrossant_black,417509,black_plus_sign,,,,50,,,1,1,,,,,,,,,,
null,,color_black,417611,black_plus_sign,,,,null,,,,,,,,,,,,,,
null,,learn_phase(without_color),419613,black_plus_sign,,,,null,GW/paint.jpg,GW/basket.jpg,,,,,,,,,,,,
null,,black_cross(without_color),420667,green,,,,null,GW/paint.jpg,GW/basket.jpg,,,,,,,,,,,,
null,,rt_plussign_withcolor,421169,green,,,,null,GW/paint.jpg,GW/basket.jpg,,,,,,,,,,,,
725.0999999046326,,rt_thecrossant_black,422120,black_plus_sign,,,,50,,,1,1,,,,,,,,,,
null,,color_black,422222,black_plus_sign,,,,null,,,,,,,,,,,,,,
null,,learn_phase(without_color),424224,black_plus_sign,,,,null,GW/gong.jpg,GW/hat.jpg,,,,,,,,,,,,
null,,black_cross(without_color),425302,green,,,,null,GW/gong.jpg,GW/hat.jpg,,,,,,,,,,,,
null,,rt_plussign_withcolor,425803,green,,,,null,GW/gong.jpg,GW/hat.jpg,,,,,,,,,,,,
1151.3000000715256,,rt_thecrossant_black,426729,black_plus_sign,,,,50,,,1,1,,,,,,,,,,
null,,color_black,426832,black_plus_sign,,,,null,,,,,,,,,,,,,,
null,,learn_phase(without_color),428835,black_plus_sign,,,,null,GW/paint.jpg,GW/globe.jpg,,,,,,,,,,,,
null,,black_cross(without_color),429909,blue,,,,null,GW/paint.jpg,GW/globe.jpg,,,,,,,,,,,,
402.2999999523163,,rt_plussign_withcolor,430411,blue,,,,49,GW/paint.jpg,GW/globe.jpg,,,,,,,,,,,,
null,,rt_thecrossant_black,431341,black_plus_sign,,,,null,,,1,1,,,,,,,,,,
null,,color_black,431444,black_plus_sign,,,,null,,,,,,,,,,,,,,
null,,learn_phase(without_color),433446,black_plus_sign,,,,null,GW/camera.jpg,GW/snail.jpg,,,,,,,,,,,,
null,,black_cross(without_color),433919,green,,,,null,GW/camera.jpg,GW/snail.jpg,,,,,,,,,,,,
null,,rt_plussign_withcolor,434421,green,,,,null,GW/camera.jpg,GW/snail.jpg,,,,,,,,,,,,
1219.5999999046326,,rt_thecrossant_black,435951,black_plus_sign,,,,50,,,1,1,,,,,,,,,,
null,,color_black,436053,black_plus_sign,,,,null,,,,,,,,,,,,,,
null,,learn_phase(without_color),438056,black_plus_sign,,,,null,GW/basket.jpg,GW/gong.jpg,,,,,,,,,,,,
null,,black_cross(without_color),439078,blue,,,,null,GW/basket.jpg,GW/gong.jpg,,,,,,,,,,,,
480.2999999523163,,rt_plussign_withcolor,439580,blue,,,,49,GW/basket.jpg,GW/gong.jpg,,,,,,,,,,,,
null,,rt_thecrossant_black,440561,black_plus_sign,,,,null,,,1,1,,,,,,,,,,
null,,color_black,440663,black_plus_sign,,,,null,,,,,,,,,,,,,,
null,,learn_phase(without_color),442666,black_plus_sign,,,,null,GW/snail.jpg,GW/wheelchair.jpg,,,,,,,,,,,,
null,,black_cross(without_color),443598,green,,,,null,GW/snail.jpg,GW/wheelchair.jpg,,,,,,,,,,,,
null,,rt_plussign_withcolor,444109,green,,,,null,GW/snail.jpg,GW/wheelchair.jpg,,,,,,,,,,,,
1252.9000000953674,,rt_thecrossant_black,445181,black_plus_sign,,,,50,,,1,1,,,,,,,,,,
null,,color_black,445283,black_plus_sign,,,,null,,,,,,,,,,,,,,
null,,learn_phase(without_color),447286,black_plus_sign,,,,null,GW/teeth.jpg,GW/jukebox.jpg,,,,,,,,,,,,
null,,black_cross(without_color),447759,green,,,,null,GW/teeth.jpg,GW/jukebox.jpg,,,,,,,,,,,,
null,,rt_plussign_withcolor,448261,green,,,,null,GW/teeth.jpg,GW/jukebox.jpg,,,,,,,,,,,,
1070.9000000953674,,rt_thecrossant_black,449791,black_plus_sign,,,,50,,,1,1,,,,,,,,,,
null,,color_black,449893,black_plus_sign,,,,null,,,,,,,,,,,,,,
null,,learn_phase(without_color),451896,black_plus_sign,,,,null,GW/teeth.jpg,GW/dustpan.jpg,,,,,,,,,,,,
null,,black_cross(without_color),452942,green,,,,null,GW/teeth.jpg,GW/dustpan.jpg,,,,,,,,,,,,
null,,rt_plussign_withcolor,453444,green,,,,null,GW/teeth.jpg,GW/dustpan.jpg,,,,,,,,,,,,
584.3999999761581,,rt_thecrossant_black,454402,black_plus_sign,,,,50,,,1,1,,,,,,,,,,
null,,color_black,454516,black_plus_sign,,,,null,,,,,,,,,,,,,,
null,,learn_phase(without_color),456519,black_plus_sign,,,,null,GW/snail.jpg,GW/wheelchair.jpg,,,,,,,,,,,,
null,,black_cross(without_color),457456,green,,,,null,GW/snail.jpg,GW/wheelchair.jpg,,,,,,,,,,,,
null,,rt_plussign_withcolor,457964,green,,,,null,GW/snail.jpg,GW/wheelchair.jpg,,,,,,,,,,,,
1165.5999999046326,,rt_thecrossant_black,459030,black_plus_sign,,,,50,,,1,1,,,,,,,,,,
null,,color_black,459132,black_plus_sign,,,,null,,,,,,,,,,,,,,
null,,learn_phase(without_color),461134,black_plus_sign,,,,null,GW/teeth.jpg,GW/dustpan.jpg,,,,,,,,,,,,
null,,black_cross(without_color),461981,blue,,,,null,GW/teeth.jpg,GW/dustpan.jpg,,,,,,,,,,,,
null,,rt_plussign_withcolor,462483,blue,,,,null,GW/teeth.jpg,GW/dustpan.jpg,,,,,,,,,,,,
1282.6000000238419,,rt_thecrossant_black,463640,black_plus_sign,,,,49,,,1,1,,,,,,,,,,
null,,color_black,463743,black_plus_sign,,,,null,,,,,,,,,,,,,,
null,,learn_phase(without_color),465745,black_plus_sign,,,,null,GW/basket.jpg,GW/gong.jpg,,,,,,,,,,,,
null,,black_cross(without_color),466155,blue,,,,null,GW/basket.jpg,GW/gong.jpg,,,,,,,,,,,,
null,,rt_plussign_withcolor,466658,blue,,,,null,GW/basket.jpg,GW/gong.jpg,,,,,,,,,,,,
974,,rt_thecrossant_black,468252,black_plus_sign,,,,50,,,0,0.95,,,,,,,,,,
null,,color_black,468368,black_plus_sign,,,,null,,,,,,,,,,,,,,
null,,learn_phase(without_color),470370,black_plus_sign,,,,null,GW/wheelchair.jpg,GW/soldier.jpg,,,,,,,,,,,,
null,,black_cross(without_color),471244,green,,,,null,GW/wheelchair.jpg,GW/soldier.jpg,,,,,,,,,,,,
null,,rt_plussign_withcolor,471746,green,,,,null,GW/wheelchair.jpg,GW/soldier.jpg,,,,,,,,,,,,
760.3999999761581,,rt_thecrossant_black,472875,black_plus_sign,,,,50,,,1,0.9523809523809523,,,,,,,,,,
null,,color_black,472977,black_plus_sign,,,,null,,,,,,,,,,,,,,
null,,learn_phase(without_color),474978,black_plus_sign,,,,null,GW/teeth.jpg,GW/dustpan.jpg,,,,,,,,,,,,
null,,black_cross(without_color),475795,blue,,,,null,GW/teeth.jpg,GW/dustpan.jpg,,,,,,,,,,,,
null,,rt_plussign_withcolor,476296,blue,,,,null,GW/teeth.jpg,GW/dustpan.jpg,,,,,,,,,,,,
1300.5999999046326,,rt_thecrossant_black,477498,black_plus_sign,,,,49,,,1,0.9545454545454546,,,,,,,,,,
null,,color_black,477600,black_plus_sign,,,,null,,,,,,,,,,,,,,
null,,learn_phase(without_color),479602,black_plus_sign,,,,null,GW/teeth.jpg,GW/jukebox.jpg,,,,,,,,,,,,
null,,black_cross(without_color),480561,blue,,,,null,GW/teeth.jpg,GW/jukebox.jpg,,,,,,,,,,,,
null,,rt_plussign_withcolor,481062,blue,,,,null,GW/teeth.jpg,GW/jukebox.jpg,,,,,,,,,,,,
1200.6999999284744,,rt_thecrossant_black,482108,black_plus_sign,,,,49,,,1,0.9565217391304348,,,,,,,,,,
null,,color_black,482210,black_plus_sign,,,,null,,,,,,,,,,,,,,
null,,learn_phase(without_color),484212,black_plus_sign,,,,null,GW/globe.jpg,GW/barrel.jpg,,,,,,,,,,,,
null,,black_cross(without_color),485182,blue,,,,null,GW/globe.jpg,GW/barrel.jpg,,,,,,,,,,,,
null,,rt_plussign_withcolor,485683,blue,,,,null,GW/globe.jpg,GW/barrel.jpg,,,,,,,,,,,,
1163.1000000238419,,rt_thecrossant_black,486718,black_plus_sign,,,,49,,,1,0.9583333333333334,,,,,,,,,,
null,,color_black,486821,black_plus_sign,,,,null,,,,,,,,,,,,,,
null,,learn_phase(without_color),488823,black_plus_sign,,,,null,GW/wheelchair.jpg,GW/barrel.jpg,,,,,,,,,,,,
null,,black_cross(without_color),489603,blue,,,,null,GW/wheelchair.jpg,GW/barrel.jpg,,,,,,,,,,,,
null,,rt_plussign_withcolor,490104,blue,,,,null,GW/wheelchair.jpg,GW/barrel.jpg,,,,,,,,,,,,
1177.7000000476837,,rt_thecrossant_black,491329,black_plus_sign,,,,49,,,1,0.96,,,,,,,,,,
null,,color_black,491431,black_plus_sign,,,,null,,,,,,,,,,,,,,
null,,learn_phase(without_color),493434,black_plus_sign,,,,null,GW/snail.jpg,GW/wheelchair.jpg,,,,,,,,,,,,
null,,black_cross(without_color),494193,green,,,,null,GW/snail.jpg,GW/wheelchair.jpg,,,,,,,,,,,,
null,,rt_plussign_withcolor,494694,green,,,,null,GW/snail.jpg,GW/wheelchair.jpg,,,,,,,,,,,,
1030.2000000476837,,rt_thecrossant_black,495940,black_plus_sign,,,,50,,,1,0.9615384615384616,,,,,,,,,,
null,,color_black,496042,black_plus_sign,,,,null,,,,,,,,,,,,,,
null,,learn_phase(without_color),498045,black_plus_sign,,,,null,GW/jukebox.jpg,GW/globe.jpg,,,,,,,,,,,,
null,,black_cross(without_color),498690,blue,,,,null,GW/jukebox.jpg,GW/globe.jpg,,,,,,,,,,,,
null,,rt_plussign_withcolor,499191,blue,,,,null,GW/jukebox.jpg,GW/globe.jpg,,,,,,,,,,,,
1106.6999999284744,,rt_thecrossant_black,500551,black_plus_sign,,,,49,,,1,0.9629629629629629,,,,,,,,,,
null,,color_black,500652,black_plus_sign,,,,null,,,,,,,,,,,,,,
null,,learn_phase(without_color),502655,black_plus_sign,,,,null,GW/snail.jpg,GW/wheelchair.jpg,,,,,,,,,,,,
null,,black_cross(without_color),503202,blue,,,,null,GW/snail.jpg,GW/wheelchair.jpg,,,,,,,,,,,,
null,,rt_plussign_withcolor,503704,blue,,,,null,GW/snail.jpg,GW/wheelchair.jpg,,,,,,,,,,,,
1097.6999999284744,,rt_thecrossant_black,505161,black_plus_sign,,,,49,,,1,0.9642857142857143,,,,,,,,,,
null,,color_black,505263,black_plus_sign,,,,null,,,,,,,,,,,,,,
null,,learn_phase(without_color),507266,black_plus_sign,,,,null,GW/paint.jpg,GW/globe.jpg,,,,,,,,,,,,
null,,black_cross(without_color),507994,blue,,,,null,GW/paint.jpg,GW/globe.jpg,,,,,,,,,,,,
null,,rt_plussign_withcolor,508496,blue,,,,null,GW/paint.jpg,GW/globe.jpg,,,,,,,,,,,,
807.2000000476837,,rt_thecrossant_black,509773,black_plus_sign,,,,49,,,1,0.9655172413793104,,,,,,,,,,
null,,color_black,509886,black_plus_sign,,,,null,,,,,,,,,,,,,,
null,,learn_phase(without_color),511888,black_plus_sign,,,,null,GW/teeth.jpg,GW/dustpan.jpg,,,,,,,,,,,,
null,,black_cross(without_color),512290,blue,,,,null,GW/teeth.jpg,GW/dustpan.jpg,,,,,,,,,,,,
null,,rt_plussign_withcolor,512791,blue,,,,null,GW/teeth.jpg,GW/dustpan.jpg,,,,,,,,,,,,
1017,,rt_thecrossant_black,514393,black_plus_sign,,,,49,,,1,0.9666666666666667,,,,,,,,,,
null,,color_black,514495,black_plus_sign,,,,null,,,,,,,,,,,,,,
null,,learn_phase(without_color),516497,black_plus_sign,,,,null,GW/globe.jpg,GW/barrel.jpg,,,,,,,,,,,,
null,,black_cross(without_color),517310,green,,,,null,GW/globe.jpg,GW/barrel.jpg,,,,,,,,,,,,
null,,rt_plussign_withcolor,517812,green,,,,null,GW/globe.jpg,GW/barrel.jpg,,,,,,,,,,,,
835.3999999761581,,rt_thecrossant_black,519003,black_plus_sign,,,,50,,,1,0.967741935483871,,,,,,,,,,
null,,color_black,519105,black_plus_sign,,,,null,,,,,,,,,,,,,,
null,,learn_phase(without_color),521108,black_plus_sign,,,,null,GW/jukebox.jpg,GW/globe.jpg,,,,,,,,,,,,
null,,black_cross(without_color),521720,blue,,,,null,GW/jukebox.jpg,GW/globe.jpg,,,,,,,,,,,,
null,,rt_plussign_withcolor,522222,blue,,,,null,GW/jukebox.jpg,GW/globe.jpg,,,,,,,,,,,,
1030.8999999761581,,rt_thecrossant_black,523616,black_plus_sign,,,,49,,,1,0.96875,,,,,,,,,,
null,,color_black,523718,black_plus_sign,,,,null,,,,,,,,,,,,,,
null,,learn_phase(without_color),525722,black_plus_sign,,,,null,GW/wheelchair.jpg,GW/barrel.jpg,,,,,,,,,,,,
null,,black_cross(without_color),526746,green,,,,null,GW/wheelchair.jpg,GW/barrel.jpg,,,,,,,,,,,,
null,,rt_plussign_withcolor,527261,green,,,,null,GW/wheelchair.jpg,GW/barrel.jpg,,,,,,,,,,,,
1020.6999999284744,,rt_thecrossant_black,528248,black_plus_sign,,,,50,,,1,0.9696969696969697,,,,,,,,,,
null,,color_black,528350,black_plus_sign,,,,null,,,,,,,,,,,,,,
null,,learn_phase(without_color),530352,black_plus_sign,,,,null,GW/gong.jpg,GW/hat.jpg,,,,,,,,,,,,
null,,black_cross(without_color),531291,green,,,,null,GW/gong.jpg,GW/hat.jpg,,,,,,,,,,,,
null,,rt_plussign_withcolor,531793,green,,,,null,GW/gong.jpg,GW/hat.jpg,,,,,,,,,,,,
1424,,rt_thecrossant_black,532859,black_plus_sign,,,,50,,,1,0.9705882352941176,,,,,,,,,,
null,,color_black,532961,black_plus_sign,,,,null,,,,,,,,,,,,,,
null,,learn_phase(without_color),534964,black_plus_sign,,,,null,GW/jukebox.jpg,GW/globe.jpg,,,,,,,,,,,,
null,,black_cross(without_color),535723,green,,,,null,GW/jukebox.jpg,GW/globe.jpg,,,,,,,,,,,,
null,,rt_plussign_withcolor,536225,green,,,,null,GW/jukebox.jpg,GW/globe.jpg,,,,,,,,,,,,
1188.3999999761581,,rt_thecrossant_black,537470,black_plus_sign,,,,50,,,1,0.9714285714285714,,,,,,,,,,
null,,color_black,537572,black_plus_sign,,,,null,,,,,,,,,,,,,,
null,,learn_phase(without_color),539575,black_plus_sign,,,,null,GW/paint.jpg,GW/globe.jpg,,,,,,,,,,,,
null,,black_cross(without_color),540630,green,,,,null,GW/paint.jpg,GW/globe.jpg,,,,,,,,,,,,
null,,rt_plussign_withcolor,541133,green,,,,null,GW/paint.jpg,GW/globe.jpg,,,,,,,,,,,,
1092.5999999046326,,rt_thecrossant_black,542081,black_plus_sign,,,,50,,,1,0.9722222222222222,,,,,,,,,,
null,,color_black,542184,black_plus_sign,,,,null,,,,,,,,,,,,,,
null,,learn_phase(without_color),544186,black_plus_sign,,,,null,GW/basket.jpg,GW/jukebox.jpg,,,,,,,,,,,,
null,,black_cross(without_color),545225,blue,,,,null,GW/basket.jpg,GW/jukebox.jpg,,,,,,,,,,,,
null,,rt_plussign_withcolor,545727,blue,,,,null,GW/basket.jpg,GW/jukebox.jpg,,,,,,,,,,,,
1457.1000000238419,,rt_thecrossant_black,546692,black_plus_sign,,,,49,,,1,0.972972972972973,,,,,,,,,,
null,,color_black,546803,black_plus_sign,,,,null,,,,,,,,,,,,,,
null,,learn_phase(without_color),548806,black_plus_sign,,,,null,GW/gong.jpg,GW/teeth.jpg,,,,,,,,,,,,
null,,black_cross(without_color),549622,green,,,,null,GW/gong.jpg,GW/teeth.jpg,,,,,,,,,,,,
null,,rt_plussign_withcolor,550123,green,,,,null,GW/gong.jpg,GW/teeth.jpg,,,,,,,,,,,,
1517.6000000238419,,rt_thecrossant_black,551317,black_plus_sign,,,,50,,,1,0.9736842105263158,,,,,,,,,,
null,,color_black,551419,black_plus_sign,,,,null,,,,,,,,,,,,,,
null,,learn_phase(without_color),553423,black_plus_sign,,,,null,GW/teeth.jpg,GW/jukebox.jpg,,,,,,,,,,,,
null,,black_cross(without_color),553882,blue,,,,null,GW/teeth.jpg,GW/jukebox.jpg,,,,,,,,,,,,
null,,rt_plussign_withcolor,554384,blue,,,,null,GW/teeth.jpg,GW/jukebox.jpg,,,,,,,,,,,,
1135.3999999761581,,rt_thecrossant_black,555928,black_plus_sign,,,,49,,,1,0.9743589743589743,,,,,,,,,,
null,,color_black,556030,black_plus_sign,,,,null,,,,,,,,,,,,,,
null,,learn_phase(without_color),558032,black_plus_sign,,,,null,GW/gong.jpg,GW/jukebox.jpg,,,,,,,,,,,,
null,,black_cross(without_color),558527,blue,,,,null,GW/gong.jpg,GW/jukebox.jpg,,,,,,,,,,,,
null,,rt_plussign_withcolor,559030,blue,,,,null,GW/gong.jpg,GW/jukebox.jpg,,,,,,,,,,,,
890.8999999761581,,rt_thecrossant_black,560549,black_plus_sign,,,,49,,,1,0.975,,,,,,,,,,
null,,color_black,560651,black_plus_sign,,,,null,,,,,,,,,,,,,,
null,,learn_phase(without_color),562654,black_plus_sign,,,,null,GW/gong.jpg,GW/hat.jpg,,,,,,,,,,,,
null,,black_cross(without_color),563409,green,,,,null,GW/gong.jpg,GW/hat.jpg,,,,,,,,,,,,
null,,rt_plussign_withcolor,563911,green,,,,null,GW/gong.jpg,GW/hat.jpg,,,,,,,,,,,,
795.8999999761581,,rt_thecrossant_black,565162,black_plus_sign,,,,50,,,1,0.975609756097561,,,,,,,,,,
null,,color_black,565264,black_plus_sign,,,,null,,,,,,,,,,,,,,
null,,learn_phase(without_color),567267,black_plus_sign,,,,null,GW/paint.jpg,GW/basket.jpg,,,,,,,,,,,,
null,,black_cross(without_color),568322,green,,,,null,GW/paint.jpg,GW/basket.jpg,,,,,,,,,,,,
null,,rt_plussign_withcolor,568824,green,,,,null,GW/paint.jpg,GW/basket.jpg,,,,,,,,,,,,
1131.4000000953674,,rt_thecrossant_black,569775,black_plus_sign,,,,50,,,1,0.9761904761904762,,,,,,,,,,
null,,color_black,569877,black_plus_sign,,,,null,,,,,,,,,,,,,,
null,,learn_phase(without_color),571879,black_plus_sign,,,,null,GW/globe.jpg,GW/barrel.jpg,,,,,,,,,,,,
null,,black_cross(without_color),572559,green,,,,null,GW/globe.jpg,GW/barrel.jpg,,,,,,,,,,,,
null,,rt_plussign_withcolor,573061,green,,,,null,GW/globe.jpg,GW/barrel.jpg,,,,,,,,,,,,
1407.9000000953674,,rt_thecrossant_black,574397,black_plus_sign,,,,50,,,1,0.9767441860465116,,,,,,,,,,
null,,color_black,574500,black_plus_sign,,,,null,,,,,,,,,,,,,,
null,,learn_phase(without_color),576502,black_plus_sign,,,,null,GW/paint.jpg,GW/globe.jpg,,,,,,,,,,,,
null,,black_cross(without_color),577450,blue,,,,null,GW/paint.jpg,GW/globe.jpg,,,,,,,,,,,,
null,,rt_plussign_withcolor,577952,blue,,,,null,GW/paint.jpg,GW/globe.jpg,,,,,,,,,,,,
1105.3999999761581,,rt_thecrossant_black,579019,black_plus_sign,,,,49,,,1,0.9772727272727273,,,,,,,,,,
null,,color_black,579122,black_plus_sign,,,,null,,,,,,,,,,,,,,
null,,learn_phase(without_color),581125,black_plus_sign,,,,null,GW/globe.jpg,GW/barrel.jpg,,,,,,,,,,,,
null,,black_cross(without_color),582205,blue,,,,null,GW/globe.jpg,GW/barrel.jpg,,,,,,,,,,,,
null,,rt_plussign_withcolor,582706,blue,,,,null,GW/globe.jpg,GW/barrel.jpg,,,,,,,,,,,,
1347.1000000238419,,rt_thecrossant_black,583631,black_plus_sign,,,,49,,,1,0.9777777777777777,,,,,,,,,,
null,,color_black,583734,black_plus_sign,,,,null,,,,,,,,,,,,,,
null,,learn_phase(without_color),585737,black_plus_sign,,,,null,GW/gong.jpg,GW/hat.jpg,,,,,,,,,,,,
null,,black_cross(without_color),586737,blue,,,,null,GW/gong.jpg,GW/hat.jpg,,,,,,,,,,,,
null,,rt_plussign_withcolor,587238,blue,,,,null,GW/gong.jpg,GW/hat.jpg,,,,,,,,,,,,
1538,,rt_thecrossant_black,588242,black_plus_sign,,,,49,,,1,0.9782608695652174,,,,,,,,,,
null,,color_black,588350,black_plus_sign,,,,null,,,,,,,,,,,,,,
null,,learn_phase(without_color),590353,black_plus_sign,,,,null,GW/paint.jpg,GW/basket.jpg,,,,,,,,,,,,
null,,black_cross(without_color),591285,green,,,,null,GW/paint.jpg,GW/basket.jpg,,,,,,,,,,,,
null,,rt_plussign_withcolor,591786,green,,,,null,GW/paint.jpg,GW/basket.jpg,,,,,,,,,,,,
1430.6000000238419,,rt_thecrossant_black,592858,black_plus_sign,,,,50,,,1,0.9787234042553191,,,,,,,,,,
null,,color_black,592961,black_plus_sign,,,,null,,,,,,,,,,,,,,
null,,learn_phase(without_color),594963,black_plus_sign,,,,null,GW/snail.jpg,GW/paint.jpg,,,,,,,,,,,,
null,,black_cross(without_color),595546,green,,,,null,GW/snail.jpg,GW/paint.jpg,,,,,,,,,,,,
null,,rt_plussign_withcolor,596047,green,,,,null,GW/snail.jpg,GW/paint.jpg,,,,,,,,,,,,
1385.7000000476837,,rt_thecrossant_black,597469,black_plus_sign,,,,50,,,1,0.9791666666666666,,,,,,,,,,
null,,color_black,597571,black_plus_sign,,,,null,,,,,,,,,,,,,,
null,,learn_phase(without_color),599574,black_plus_sign,,,,null,GW/basket.jpg,GW/jukebox.jpg,,,,,,,,,,,,
null,,black_cross(without_color),600525,blue,,,,null,GW/basket.jpg,GW/jukebox.jpg,,,,,,,,,,,,
null,,rt_plussign_withcolor,601027,blue,,,,null,GW/basket.jpg,GW/jukebox.jpg,,,,,,,,,,,,
1007.3000000715256,,rt_thecrossant_black,602082,black_plus_sign,,,,49,,,1,0.9795918367346939,,,,,,,,,,
null,,color_black,602185,black_plus_sign,,,,null,,,,,,,,,,,,,,
null,,learn_phase(without_color),604188,black_plus_sign,,,,null,GW/basket.jpg,GW/gong.jpg,,,,,,,,,,,,
null,,black_cross(without_color),604797,blue,,,,null,GW/basket.jpg,GW/gong.jpg,,,,,,,,,,,,
null,,rt_plussign_withcolor,605299,blue,,,,null,GW/basket.jpg,GW/gong.jpg,,,,,,,,,,,,
1437.8000000715256,,rt_thecrossant_black,606692,black_plus_sign,,,,49,,,1,0.98,,,,,,,,,,
null,,color_black,606795,black_plus_sign,,,,null,,,,,,,,,,,,,,
null,,learn_phase(without_color),608797,black_plus_sign,,,,null,GW/camera.jpg,GW/snail.jpg,,,,,,,,,,,,
null,,black_cross(without_color),609596,green,,,,null,GW/camera.jpg,GW/snail.jpg,,,,,,,,,,,,
null,,rt_plussign_withcolor,610098,green,,,,null,GW/camera.jpg,GW/snail.jpg,,,,,,,,,,,,
1149.5,,rt_thecrossant_black,611303,black_plus_sign,,,,50,,,1,0.9803921568627451,,,,,,,,,,
null,,color_black,611413,black_plus_sign,,,,null,,,,,,,,,,,,,,
null,,learn_phase(without_color),613416,black_plus_sign,,,,null,GW/teeth.jpg,GW/dustpan.jpg,,,,,,,,,,,,
null,,black_cross(without_color),614191,blue,,,,null,GW/teeth.jpg,GW/dustpan.jpg,,,,,,,,,,,,
null,,rt_plussign_withcolor,614692,blue,,,,null,GW/teeth.jpg,GW/dustpan.jpg,,,,,,,,,,,,
1304.2000000476837,,rt_thecrossant_black,615930,black_plus_sign,,,,49,,,1,0.9807692307692307,,,,,,,,,,
null,,color_black,616032,black_plus_sign,,,,null,,,,,,,,,,,,,,
null,,learn_phase(without_color),618035,black_plus_sign,,,,null,GW/paint.jpg,GW/globe.jpg,,,,,,,,,,,,
null,,black_cross(without_color),618993,blue,,,,null,GW/paint.jpg,GW/globe.jpg,,,,,,,,,,,,
null,,rt_plussign_withcolor,619495,blue,,,,null,GW/paint.jpg,GW/globe.jpg,,,,,,,,,,,,
1270.7000000476837,,rt_thecrossant_black,620543,black_plus_sign,,,,49,,,1,0.9811320754716981,,,,,,,,,,
null,,color_black,620654,black_plus_sign,,,,null,,,,,,,,,,,,,,
null,,learn_phase(without_color),622657,black_plus_sign,,,,null,GW/jukebox.jpg,GW/globe.jpg,,,,,,,,,,,,
null,,black_cross(without_color),623751,green,,,,null,GW/jukebox.jpg,GW/globe.jpg,,,,,,,,,,,,
null,,rt_plussign_withcolor,624252,green,,,,null,GW/jukebox.jpg,GW/globe.jpg,,,,,,,,,,,,
1421.8999999761581,,rt_thecrossant_black,625163,black_plus_sign,,,,50,,,1,0.9814814814814815,,,,,,,,,,
null,,color_black,625265,black_plus_sign,,,,null,,,,,,,,,,,,,,
null,,learn_phase(without_color),627269,black_plus_sign,,,,null,GW/basket.jpg,GW/jukebox.jpg,,,,,,,,,,,,
null,,black_cross(without_color),627939,blue,,,,null,GW/basket.jpg,GW/jukebox.jpg,,,,,,,,,,,,
null,,rt_plussign_withcolor,628441,blue,,,,null,GW/basket.jpg,GW/jukebox.jpg,,,,,,,,,,,,
1539.8999999761581,,rt_thecrossant_black,629776,black_plus_sign,,,,49,,,1,0.9818181818181818,,,,,,,,,,
null,,color_black,629878,black_plus_sign,,,,null,,,,,,,,,,,,,,
null,,learn_phase(without_color),631881,black_plus_sign,,,,null,GW/jukebox.jpg,GW/globe.jpg,,,,,,,,,,,,
null,,black_cross(without_color),632376,green,,,,null,GW/jukebox.jpg,GW/globe.jpg,,,,,,,,,,,,
null,,rt_plussign_withcolor,632877,green,,,,null,GW/jukebox.jpg,GW/globe.jpg,,,,,,,,,,,,
1083.3999999761581,,rt_thecrossant_black,634387,black_plus_sign,,,,50,,,1,0.9821428571428571,,,,,,,,,,
null,,color_black,634489,black_plus_sign,,,,null,,,,,,,,,,,,,,
null,,learn_phase(without_color),636492,black_plus_sign,,,,null,GW/gong.jpg,GW/teeth.jpg,,,,,,,,,,,,
null,,black_cross(without_color),637039,green,,,,null,GW/gong.jpg,GW/teeth.jpg,,,,,,,,,,,,
null,,rt_plussign_withcolor,637540,green,,,,null,GW/gong.jpg,GW/teeth.jpg,,,,,,,,,,,,
895.1000000238419,,rt_thecrossant_black,638999,black_plus_sign,,,,50,,,1,0.9824561403508771,,,,,,,,,,
null,,color_black,639102,black_plus_sign,,,,null,,,,,,,,,,,,,,
null,,learn_phase(without_color),641105,black_plus_sign,,,,null,GW/basket.jpg,GW/jukebox.jpg,,,,,,,,,,,,
null,,black_cross(without_color),641744,green,,,,null,GW/basket.jpg,GW/jukebox.jpg,,,,,,,,,,,,
null,,rt_plussign_withcolor,642246,green,,,,null,GW/basket.jpg,GW/jukebox.jpg,,,,,,,,,,,,
958.1999999284744,,rt_thecrossant_black,643611,black_plus_sign,,,,50,,,1,0.9827586206896551,,,,,,,,,,
null,,color_black,643714,black_plus_sign,,,,null,,,,,,,,,,,,,,
null,,learn_phase(without_color),645716,black_plus_sign,,,,null,GW/globe.jpg,GW/barrel.jpg,,,,,,,,,,,,
null,,black_cross(without_color),646486,blue,,,,null,GW/globe.jpg,GW/barrel.jpg,,,,,,,,,,,,
null,,rt_plussign_withcolor,646987,blue,,,,null,GW/globe.jpg,GW/barrel.jpg,,,,,,,,,,,,
1076.5,,rt_thecrossant_black,648230,black_plus_sign,,,,49,,,1,0.9830508474576272,,,,,,,,,,
null,,color_black,648332,black_plus_sign,,,,null,,,,,,,,,,,,,,
null,,learn_phase(without_color),650333,black_plus_sign,,,,null,GW/teeth.jpg,GW/jukebox.jpg,,,,,,,,,,,,
null,,black_cross(without_color),650735,blue,,,,null,GW/teeth.jpg,GW/jukebox.jpg,,,,,,,,,,,,
null,,rt_plussign_withcolor,651237,blue,,,,null,GW/teeth.jpg,GW/jukebox.jpg,,,,,,,,,,,,
1220,,rt_thecrossant_black,652837,black_plus_sign,,,,49,,,1,0.9833333333333333,,,,,,,,,,
null,,color_black,652940,black_plus_sign,,,,null,,,,,,,,,,,,,,
null,,learn_phase(without_color),654942,black_plus_sign,,,,null,GW/basket.jpg,GW/jukebox.jpg,,,,,,,,,,,,
null,,black_cross(without_color),655980,green,,,,null,GW/basket.jpg,GW/jukebox.jpg,,,,,,,,,,,,
null,,rt_plussign_withcolor,656482,green,,,,null,GW/basket.jpg,GW/jukebox.jpg,,,,,,,,,,,,
811.1000000238419,,rt_thecrossant_black,657450,black_plus_sign,,,,50,,,1,0.9836065573770492,,,,,,,,,,
null,,color_black,657552,black_plus_sign,,,,null,,,,,,,,,,,,,,
null,,learn_phase(without_color),659561,black_plus_sign,,,,null,GW/snail.jpg,GW/paint.jpg,,,,,,,,,,,,
null,,black_cross(without_color),660373,green,,,,null,GW/snail.jpg,GW/paint.jpg,,,,,,,,,,,,
null,,rt_plussign_withcolor,660875,green,,,,null,GW/snail.jpg,GW/paint.jpg,,,,,,,,,,,,
1466.8999999761581,,rt_thecrossant_black,662067,black_plus_sign,,,,50,,,1,0.9838709677419355,,,,,,,,,,
null,,color_black,662169,black_plus_sign,,,,null,,,,,,,,,,,,,,
null,,learn_phase(without_color),664171,black_plus_sign,,,,null,GW/camera.jpg,GW/snail.jpg,,,,,,,,,,,,
null,,black_cross(without_color),664736,blue,,,,null,GW/camera.jpg,GW/snail.jpg,,,,,,,,,,,,
null,,rt_plussign_withcolor,665238,blue,,,,null,GW/camera.jpg,GW/snail.jpg,,,,,,,,,,,,
1177.3999999761581,,rt_thecrossant_black,666678,black_plus_sign,,,,49,,,1,0.9841269841269841,,,,,,,,,,
null,,color_black,666779,black_plus_sign,,,,null,,,,,,,,,,,,,,
null,,learn_phase(without_color),668781,black_plus_sign,,,,null,GW/snail.jpg,GW/paint.jpg,,,,,,,,,,,,
null,,black_cross(without_color),669639,green,,,,null,GW/snail.jpg,GW/paint.jpg,,,,,,,,,,,,
null,,rt_plussign_withcolor,670146,green,,,,null,GW/snail.jpg,GW/paint.jpg,,,,,,,,,,,,
839.8999999761581,,rt_thecrossant_black,671299,black_plus_sign,,,,50,,,1,0.984375,,,,,,,,,,
null,,color_black,671402,black_plus_sign,,,,null,,,,,,,,,,,,,,
null,,learn_phase(without_color),673405,black_plus_sign,,,,null,GW/wheelchair.jpg,GW/barrel.jpg,,,,,,,,,,,,
null,,black_cross(without_color),674141,green,,,,null,GW/wheelchair.jpg,GW/barrel.jpg,,,,,,,,,,,,
null,,rt_plussign_withcolor,674643,green,,,,null,GW/wheelchair.jpg,GW/barrel.jpg,,,,,,,,,,,,
1239.0999999046326,,rt_thecrossant_black,675911,black_plus_sign,,,,50,,,1,0.9846153846153847,,,,,,,,,,
null,,color_black,676013,black_plus_sign,,,,null,,,,,,,,,,,,,,
null,,learn_phase(without_color),678015,black_plus_sign,,,,null,GW/basket.jpg,GW/gong.jpg,,,,,,,,,,,,
null,,black_cross(without_color),678831,blue,,,,null,GW/basket.jpg,GW/gong.jpg,,,,,,,,,,,,
null,,rt_plussign_withcolor,679333,blue,,,,null,GW/basket.jpg,GW/gong.jpg,,,,,,,,,,,,
1150.8999999761581,,rt_thecrossant_black,680522,black_plus_sign,,,,49,,,1,0.9848484848484849,,,,,,,,,,
null,,color_black,680624,black_plus_sign,,,,null,,,,,,,,,,,,,,
null,,learn_phase(without_color),682626,black_plus_sign,,,,null,GW/gong.jpg,GW/hat.jpg,,,,,,,,,,,,
null,,black_cross(without_color),683263,green,,,,null,GW/gong.jpg,GW/hat.jpg,,,,,,,,,,,,
null,,rt_plussign_withcolor,683764,green,,,,null,GW/gong.jpg,GW/hat.jpg,,,,,,,,,,,,
1257.3999999761581,,rt_thecrossant_black,685131,black_plus_sign,,,,50,,,1,0.9850746268656716,,,,,,,,,,
null,,color_black,685234,black_plus_sign,,,,null,,,,,,,,,,,,,,
null,,learn_phase(without_color),687237,black_plus_sign,,,,null,GW/teeth.jpg,GW/jukebox.jpg,,,,,,,,,,,,
null,,black_cross(without_color),688152,blue,,,,null,GW/teeth.jpg,GW/jukebox.jpg,,,,,,,,,,,,
null,,rt_plussign_withcolor,688654,blue,,,,null,GW/teeth.jpg,GW/jukebox.jpg,,,,,,,,,,,,
950.7999999523163,,rt_thecrossant_black,689749,black_plus_sign,,,,49,,,1,0.9852941176470589,,,,,,,,,,
null,,color_black,689850,black_plus_sign,,,,null,,,,,,,,,,,,,,
null,,learn_phase(without_color),691852,black_plus_sign,,,,null,GW/jukebox.jpg,GW/globe.jpg,,,,,,,,,,,,
null,,black_cross(without_color),692414,green,,,,null,GW/jukebox.jpg,GW/globe.jpg,,,,,,,,,,,,
null,,rt_plussign_withcolor,692915,green,,,,null,GW/jukebox.jpg,GW/globe.jpg,,,,,,,,,,,,
1290.6000000238419,,rt_thecrossant_black,694358,black_plus_sign,,,,50,,,1,0.9855072463768116,,,,,,,,,,
null,,color_black,694461,black_plus_sign,,,,null,,,,,,,,,,,,,,
null,,learn_phase(without_color),696465,black_plus_sign,,,,null,GW/gong.jpg,GW/teeth.jpg,,,,,,,,,,,,
null,,black_cross(without_color),697327,green,,,,null,GW/gong.jpg,GW/teeth.jpg,,,,,,,,,,,,
null,,rt_plussign_withcolor,697828,green,,,,null,GW/gong.jpg,GW/teeth.jpg,,,,,,,,,,,,
1046.2000000476837,,rt_thecrossant_black,698972,black_plus_sign,,,,50,,,1,0.9857142857142858,,,,,,,,,,
null,,color_black,699074,black_plus_sign,,,,null,,,,,,,,,,,,,,
null,,learn_phase(without_color),701077,black_plus_sign,,,,null,GW/paint.jpg,GW/basket.jpg,,,,,,,,,,,,
null,,black_cross(without_color),701902,blue,,,,null,GW/paint.jpg,GW/basket.jpg,,,,,,,,,,,,
null,,rt_plussign_withcolor,702403,blue,,,,null,GW/paint.jpg,GW/basket.jpg,,,,,,,,,,,,
1438.6000000238419,,rt_thecrossant_black,703596,black_plus_sign,,,,49,,,1,0.9859154929577465,,,,,,,,,,
null,,color_black,703698,black_plus_sign,,,,null,,,,,,,,,,,,,,
null,,learn_phase(without_color),705701,black_plus_sign,,,,null,GW/snail.jpg,GW/paint.jpg,,,,,,,,,,,,
null,,black_cross(without_color),706462,green,,,,null,GW/snail.jpg,GW/paint.jpg,,,,,,,,,,,,
null,,rt_plussign_withcolor,706965,green,,,,null,GW/snail.jpg,GW/paint.jpg,,,,,,,,,,,,
1335.2999999523163,,rt_thecrossant_black,708209,black_plus_sign,,,,50,,,1,0.9861111111111112,,,,,,,,,,
null,,color_black,708311,black_plus_sign,,,,null,,,,,,,,,,,,,,
null,,learn_phase(without_color),710314,black_plus_sign,,,,null,GW/wheelchair.jpg,GW/soldier.jpg,,,,,,,,,,,,
null,,black_cross(without_color),711180,green,,,,null,GW/wheelchair.jpg,GW/soldier.jpg,,,,,,,,,,,,
null,,rt_plussign_withcolor,711682,green,,,,null,GW/wheelchair.jpg,GW/soldier.jpg,,,,,,,,,,,,
1199.6000000238419,,rt_thecrossant_black,712831,black_plus_sign,,,,50,,,1,0.9863013698630136,,,,,,,,,,
null,,color_black,712934,black_plus_sign,,,,null,,,,,,,,,,,,,,
null,,learn_phase(without_color),714937,black_plus_sign,,,,null,GW/basket.jpg,GW/gong.jpg,,,,,,,,,,,,
null,,black_cross(without_color),715839,green,,,,null,GW/basket.jpg,GW/gong.jpg,,,,,,,,,,,,
null,,rt_plussign_withcolor,716341,green,,,,null,GW/basket.jpg,GW/gong.jpg,,,,,,,,,,,,
1284.4000000953674,,rt_thecrossant_black,717444,black_plus_sign,,,,50,,,1,0.9864864864864865,,,,,,,,,,
null,,color_black,717546,black_plus_sign,,,,null,,,,,,,,,,,,,,
null,,learn_phase(without_color),719549,black_plus_sign,,,,null,GW/gong.jpg,GW/hat.jpg,,,,,,,,,,,,
null,,black_cross(without_color),720027,blue,,,,null,GW/gong.jpg,GW/hat.jpg,,,,,,,,,,,,
null,,rt_plussign_withcolor,720532,blue,,,,null,GW/gong.jpg,GW/hat.jpg,,,,,,,,,,,,
1313.5,,rt_thecrossant_black,722061,black_plus_sign,,,,49,,,1,0.9866666666666667,,,,,,,,,,
null,,color_black,722163,black_plus_sign,,,,null,,,,,,,,,,,,,,
null,,learn_phase(without_color),724166,black_plus_sign,,,,null,GW/gong.jpg,GW/jukebox.jpg,,,,,,,,,,,,
null,,black_cross(without_color),724984,green,,,,null,GW/gong.jpg,GW/jukebox.jpg,,,,,,,,,,,,
null,,rt_plussign_withcolor,725487,green,,,,null,GW/gong.jpg,GW/jukebox.jpg,,,,,,,,,,,,
862.5999999046326,,rt_thecrossant_black,726672,black_plus_sign,,,,50,,,1,0.9868421052631579,,,,,,,,,,
null,,color_black,726775,black_plus_sign,,,,null,,,,,,,,,,,,,,
null,,learn_phase(without_color),728777,black_plus_sign,,,,null,GW/gong.jpg,GW/teeth.jpg,,,,,,,,,,,,
null,,black_cross(without_color),729567,green,,,,null,GW/gong.jpg,GW/teeth.jpg,,,,,,,,,,,,
null,,rt_plussign_withcolor,730069,green,,,,null,GW/gong.jpg,GW/teeth.jpg,,,,,,,,,,,,
1236.9000000953674,,rt_thecrossant_black,731283,black_plus_sign,,,,50,,,1,0.987012987012987,,,,,,,,,,
null,,color_black,731385,black_plus_sign,,,,null,,,,,,,,,,,,,,
null,,learn_phase(without_color),733398,black_plus_sign,,,,null,GW/teeth.jpg,GW/jukebox.jpg,,,,,,,,,,,,
null,,black_cross(without_color),734165,green,,,,null,GW/teeth.jpg,GW/jukebox.jpg,,,,,,,,,,,,
null,,rt_plussign_withcolor,734669,green,,,,null,GW/teeth.jpg,GW/jukebox.jpg,,,,,,,,,,,,
1047.8000000715256,,rt_thecrossant_black,735919,black_plus_sign,,,,50,,,1,0.9871794871794872,,,,,,,,,,
null,,color_black,736022,black_plus_sign,,,,null,,,,,,,,,,,,,,
null,,learn_phase(without_color),738025,black_plus_sign,,,,null,GW/wheelchair.jpg,GW/barrel.jpg,,,,,,,,,,,,
null,,black_cross(without_color),738648,blue,,,,null,GW/wheelchair.jpg,GW/barrel.jpg,,,,,,,,,,,,
null,,rt_plussign_withcolor,739150,blue,,,,null,GW/wheelchair.jpg,GW/barrel.jpg,,,,,,,,,,,,
1103.7000000476837,,rt_thecrossant_black,740532,black_plus_sign,,,,49,,,1,0.9873417721518988,,,,,,,,,,
null,,color_black,740634,black_plus_sign,,,,null,,,,,,,,,,,,,,
null,,learn_phase(without_color),742635,black_plus_sign,,,,null,GW/snail.jpg,GW/wheelchair.jpg,,,,,,,,,,,,
null,,black_cross(without_color),743485,green,,,,null,GW/snail.jpg,GW/wheelchair.jpg,,,,,,,,,,,,
null,,rt_plussign_withcolor,743987,green,,,,null,GW/snail.jpg,GW/wheelchair.jpg,,,,,,,,,,,,
1032.3999999761581,,rt_thecrossant_black,745140,black_plus_sign,,,,50,,,1,0.9875,,,,,,,,,,
null,,color_black,745243,black_plus_sign,,,,null,,,,,,,,,,,,,,
null,,learn_phase(without_color),747245,black_plus_sign,,,,null,GW/teeth.jpg,GW/jukebox.jpg,,,,,,,,,,,,
null,,black_cross(without_color),748132,green,,,,null,GW/teeth.jpg,GW/jukebox.jpg,,,,,,,,,,,,
null,,rt_plussign_withcolor,748633,green,,,,null,GW/teeth.jpg,GW/jukebox.jpg,,,,,,,,,,,,
1416.1999999284744,,rt_thecrossant_black,749751,black_plus_sign,,,,50,,,1,0.9876543209876543,,,,,,,,,,
null,,color_black,749853,black_plus_sign,,,,null,,,,,,,,,,,,,,
null,,learn_phase(without_color),751855,black_plus_sign,,,,null,GW/snail.jpg,GW/paint.jpg,,,,,,,,,,,,
null,,black_cross(without_color),752512,blue,,,,null,GW/snail.jpg,GW/paint.jpg,,,,,,,,,,,,
null,,rt_plussign_withcolor,753014,blue,,,,null,GW/snail.jpg,GW/paint.jpg,,,,,,,,,,,,
1389.8999999761581,,rt_thecrossant_black,754362,black_plus_sign,,,,49,,,1,0.9878048780487805,,,,,,,,,,
null,,color_black,754466,black_plus_sign,,,,null,,,,,,,,,,,,,,
null,,learn_phase(without_color),756469,black_plus_sign,,,,null,GW/snail.jpg,GW/wheelchair.jpg,,,,,,,,,,,,
null,,black_cross(without_color),757067,blue,,,,null,GW/snail.jpg,GW/wheelchair.jpg,,,,,,,,,,,,
null,,rt_plussign_withcolor,757579,blue,,,,null,GW/snail.jpg,GW/wheelchair.jpg,,,,,,,,,,,,
1207.6000000238419,,rt_thecrossant_black,758999,black_plus_sign,,,,49,,,1,0.9879518072289156,,,,,,,,,,
null,,color_black,759101,black_plus_sign,,,,null,,,,,,,,,,,,,,
null,,learn_phase(without_color),761104,black_plus_sign,,,,null,GW/gong.jpg,GW/jukebox.jpg,,,,,,,,,,,,
null,,black_cross(without_color),761735,green,,,,null,GW/gong.jpg,GW/jukebox.jpg,,,,,,,,,,,,
null,,rt_plussign_withcolor,762239,green,,,,null,GW/gong.jpg,GW/jukebox.jpg,,,,,,,,,,,,
1143.3999999761581,,rt_thecrossant_black,763613,black_plus_sign,,,,50,,,1,0.9880952380952381,,,,,,,,,,
null,,color_black,763716,black_plus_sign,,,,null,,,,,,,,,,,,,,
null,,learn_phase(without_color),765719,black_plus_sign,,,,null,GW/basket.jpg,GW/gong.jpg,,,,,,,,,,,,
null,,black_cross(without_color),766350,blue,,,,null,GW/basket.jpg,GW/gong.jpg,,,,,,,,,,,,
null,,rt_plussign_withcolor,766851,blue,,,,null,GW/basket.jpg,GW/gong.jpg,,,,,,,,,,,,
1173.3999999761581,,rt_thecrossant_black,768225,black_plus_sign,,,,49,,,1,0.9882352941176471,,,,,,,,,,
null,,color_black,768327,black_plus_sign,,,,null,,,,,,,,,,,,,,
null,,learn_phase(without_color),770333,black_plus_sign,,,,null,GW/snail.jpg,GW/paint.jpg,,,,,,,,,,,,
null,,black_cross(without_color),771030,green,,,,null,GW/snail.jpg,GW/paint.jpg,,,,,,,,,,,,
null,,rt_plussign_withcolor,771531,green,,,,null,GW/snail.jpg,GW/paint.jpg,,,,,,,,,,,,
1164.3000000715256,,rt_thecrossant_black,772839,black_plus_sign,,,,50,,,1,0.9883720930232558,,,,,,,,,,
null,,color_black,772942,black_plus_sign,,,,null,,,,,,,,,,,,,,
null,,learn_phase(without_color),774944,black_plus_sign,,,,null,GW/basket.jpg,GW/gong.jpg,,,,,,,,,,,,
null,,black_cross(without_color),775947,green,,,,null,GW/basket.jpg,GW/gong.jpg,,,,,,,,,,,,
null,,rt_plussign_withcolor,776449,green,,,,null,GW/basket.jpg,GW/gong.jpg,,,,,,,,,,,,
1245.3000000715256,,rt_thecrossant_black,777452,black_plus_sign,,,,50,,,1,0.9885057471264368,,,,,,,,,,
null,,color_black,777562,black_plus_sign,,,,null,,,,,,,,,,,,,,
null,,learn_phase(without_color),779565,black_plus_sign,,,,null,GW/teeth.jpg,GW/dustpan.jpg,,,,,,,,,,,,
null,,black_cross(without_color),780606,blue,,,,null,GW/teeth.jpg,GW/dustpan.jpg,,,,,,,,,,,,
null,,rt_plussign_withcolor,781121,blue,,,,null,GW/teeth.jpg,GW/dustpan.jpg,,,,,,,,,,,,
1464.1000000238419,,rt_thecrossant_black,782084,black_plus_sign,,,,49,,,1,0.9886363636363636,,,,,,,,,,
null,,color_black,782188,black_plus_sign,,,,null,,,,,,,,,,,,,,
null,,learn_phase(without_color),784192,black_plus_sign,,,,null,GW/paint.jpg,GW/basket.jpg,,,,,,,,,,,,
null,,black_cross(without_color),784649,blue,,,,null,GW/paint.jpg,GW/basket.jpg,,,,,,,,,,,,
null,,rt_plussign_withcolor,785150,blue,,,,null,GW/paint.jpg,GW/basket.jpg,,,,,,,,,,,,
1443.2000000476837,,rt_thecrossant_black,786696,black_plus_sign,,,,49,,,1,0.9887640449438202,,,,,,,,,,
null,,color_black,786799,black_plus_sign,,,,null,,,,,,,,,,,,,,
null,,learn_phase(without_color),788801,black_plus_sign,,,,null,GW/gong.jpg,GW/jukebox.jpg,,,,,,,,,,,,
null,,black_cross(without_color),789388,blue,,,,null,GW/gong.jpg,GW/jukebox.jpg,,,,,,,,,,,,
null,,rt_plussign_withcolor,789890,blue,,,,null,GW/gong.jpg,GW/jukebox.jpg,,,,,,,,,,,,
1004.5,,rt_thecrossant_black,791307,black_plus_sign,,,,49,,,1,0.9888888888888889,,,,,,,,,,
null,,color_black,791409,black_plus_sign,,,,null,,,,,,,,,,,,,,
null,,learn_phase(without_color),793411,black_plus_sign,,,,null,GW/gong.jpg,GW/teeth.jpg,,,,,,,,,,,,
null,,black_cross(without_color),794188,green,,,,null,GW/gong.jpg,GW/teeth.jpg,,,,,,,,,,,,
null,,rt_plussign_withcolor,794690,green,,,,null,GW/gong.jpg,GW/teeth.jpg,,,,,,,,,,,,
1173.1999999284744,,rt_thecrossant_black,795917,black_plus_sign,,,,50,,,1,0.989010989010989,,,,,,,,,,
null,,color_black,796019,black_plus_sign,,,,null,,,,,,,,,,,,,,
null,,learn_phase(without_color),798036,black_plus_sign,,,,null,GW/globe.jpg,GW/barrel.jpg,,,,,,,,,,,,
null,,black_cross(without_color),799035,blue,,,,null,GW/globe.jpg,GW/barrel.jpg,,,,,,,,,,,,
null,,rt_plussign_withcolor,799537,blue,,,,null,GW/globe.jpg,GW/barrel.jpg,,,,,,,,,,,,
1257.2999999523163,,rt_thecrossant_black,800542,black_plus_sign,,,,49,,,1,0.9891304347826086,,,,,,,,,,
null,,color_black,800644,black_plus_sign,,,,null,,,,,,,,,,,,,,
null,,learn_phase(without_color),802647,black_plus_sign,,,,null,GW/basket.jpg,GW/jukebox.jpg,,,,,,,,,,,,
null,,black_cross(without_color),803547,blue,,,,null,GW/basket.jpg,GW/jukebox.jpg,,,,,,,,,,,,
null,,rt_plussign_withcolor,804049,blue,,,,null,GW/basket.jpg,GW/jukebox.jpg,,,,,,,,,,,,
1544.7999999523163,,rt_thecrossant_black,805154,black_plus_sign,,,,49,,,1,0.989247311827957,,,,,,,,,,
null,,color_black,805257,black_plus_sign,,,,null,,,,,,,,,,,,,,
null,,learn_phase(without_color),807260,black_plus_sign,,,,null,GW/camera.jpg,GW/snail.jpg,,,,,,,,,,,,
null,,black_cross(without_color),808351,green,,,,null,GW/camera.jpg,GW/snail.jpg,,,,,,,,,,,,
null,,rt_plussign_withcolor,808853,green,,,,null,GW/camera.jpg,GW/snail.jpg,,,,,,,,,,,,
1460.5,,rt_thecrossant_black,809765,black_plus_sign,,,,50,,,1,0.9893617021276596,,,,,,,,,,
null,,color_black,809868,black_plus_sign,,,,null,,,,,,,,,,,,,,
null,,learn_phase(without_color),811870,black_plus_sign,,,,null,GW/wheelchair.jpg,GW/soldier.jpg,,,,,,,,,,,,
null,,black_cross(without_color),812735,blue,,,,null,GW/wheelchair.jpg,GW/soldier.jpg,,,,,,,,,,,,
null,,rt_plussign_withcolor,813236,blue,,,,null,GW/wheelchair.jpg,GW/soldier.jpg,,,,,,,,,,,,
1551.6000000238419,,rt_thecrossant_black,814376,black_plus_sign,,,,49,,,1,0.9894736842105263,,,,,,,,,,
null,,color_black,814477,black_plus_sign,,,,null,,,,,,,,,,,,,,
null,,learn_phase(without_color),816480,black_plus_sign,,,,null,GW/camera.jpg,GW/snail.jpg,,,,,,,,,,,,
null,,black_cross(without_color),817315,green,,,,null,GW/camera.jpg,GW/snail.jpg,,,,,,,,,,,,
null,,rt_plussign_withcolor,817817,green,,,,null,GW/camera.jpg,GW/snail.jpg,,,,,,,,,,,,
1407,,rt_thecrossant_black,818987,black_plus_sign,,,,50,,,1,0.9895833333333334,,,,,,,,,,
null,,color_black,819089,black_plus_sign,,,,null,,,,,,,,,,,,,,
null,,learn_phase(without_color),821092,black_plus_sign,,,,null,GW/teeth.jpg,GW/dustpan.jpg,,,,,,,,,,,,
null,,black_cross(without_color),822043,blue,,,,null,GW/teeth.jpg,GW/dustpan.jpg,,,,,,,,,,,,
null,,rt_plussign_withcolor,822545,blue,,,,null,GW/teeth.jpg,GW/dustpan.jpg,,,,,,,,,,,,
1427.2000000476837,,rt_thecrossant_black,823599,black_plus_sign,,,,49,,,1,0.9896907216494846,,,,,,,,,,
null,,color_black,823701,black_plus_sign,,,,null,,,,,,,,,,,,,,
null,,learn_phase(without_color),825704,black_plus_sign,,,,null,GW/teeth.jpg,GW/jukebox.jpg,,,,,,,,,,,,
null,,black_cross(without_color),826443,green,,,,null,GW/teeth.jpg,GW/jukebox.jpg,,,,,,,,,,,,
null,,rt_plussign_withcolor,826944,green,,,,null,GW/teeth.jpg,GW/jukebox.jpg,,,,,,,,,,,,
1362.6000000238419,,rt_thecrossant_black,828210,black_plus_sign,,,,50,,,1,0.9897959183673469,,,,,,,,,,
null,,color_black,828313,black_plus_sign,,,,null,,,,,,,,,,,,,,
null,,learn_phase(without_color),830316,black_plus_sign,,,,null,GW/gong.jpg,GW/jukebox.jpg,,,,,,,,,,,,
null,,black_cross(without_color),830783,green,,,,null,GW/gong.jpg,GW/jukebox.jpg,,,,,,,,,,,,
null,,rt_plussign_withcolor,831284,green,,,,null,GW/gong.jpg,GW/jukebox.jpg,,,,,,,,,,,,
1235.0999999046326,,rt_thecrossant_black,832822,black_plus_sign,,,,50,,,1,0.98989898989899,,,,,,,,,,
null,,color_black,832924,black_plus_sign,,,,null,,,,,,,,,,,,,,
null,,learn_phase(without_color),834927,black_plus_sign,,,,null,GW/gong.jpg,GW/teeth.jpg,,,,,,,,,,,,
null,,black_cross(without_color),835576,green,,,,null,GW/gong.jpg,GW/teeth.jpg,,,,,,,,,,,,
null,,rt_plussign_withcolor,836077,green,,,,null,GW/gong.jpg,GW/teeth.jpg,,,,,,,,,,,,
788.3000000715256,,rt_thecrossant_black,837434,black_plus_sign,,,,50,,,1,0.99,,,,,,,,,,
null,,color_black,837537,black_plus_sign,,,,null,,,,,,,,,,,,,,
null,,learn_phase(without_color),839540,black_plus_sign,,,,null,GW/basket.jpg,GW/jukebox.jpg,,,,,,,,,,,,
null,,black_cross(without_color),840504,blue,,,,null,GW/basket.jpg,GW/jukebox.jpg,,,,,,,,,,,,
null,,rt_plussign_withcolor,841007,blue,,,,null,GW/basket.jpg,GW/jukebox.jpg,,,,,,,,,,,,
945.7000000476837,,rt_thecrossant_black,842046,black_plus_sign,,,,49,,,1,0.9900990099009901,,,,,,,,,,
null,,color_black,842149,black_plus_sign,,,,null,,,,,,,,,,,,,,
null,,learn_phase(without_color),844151,black_plus_sign,,,,null,GW/wheelchair.jpg,GW/barrel.jpg,,,,,,,,,,,,
null,,black_cross(without_color),845148,blue,,,,null,GW/wheelchair.jpg,GW/barrel.jpg,,,,,,,,,,,,
null,,rt_plussign_withcolor,845650,blue,,,,null,GW/wheelchair.jpg,GW/barrel.jpg,,,,,,,,,,,,
1420.3000000715256,,rt_thecrossant_black,846658,black_plus_sign,,,,49,,,1,0.9901960784313726,,,,,,,,,,
null,,color_black,846760,black_plus_sign,,,,null,,,,,,,,,,,,,,
null,,learn_phase(without_color),848763,black_plus_sign,,,,null,GW/camera.jpg,GW/snail.jpg,,,,,,,,,,,,
null,,black_cross(without_color),849630,blue,,,,null,GW/camera.jpg,GW/snail.jpg,,,,,,,,,,,,
null,,rt_plussign_withcolor,850133,blue,,,,null,GW/camera.jpg,GW/snail.jpg,,,,,,,,,,,,
1488.1000000238419,,rt_thecrossant_black,851286,black_plus_sign,,,,49,,,1,0.9902912621359223,,,,,,,,,,
null,,color_black,851387,black_plus_sign,,,,null,,,,,,,,,,,,,,
null,,learn_phase(without_color),853389,black_plus_sign,,,,null,GW/gong.jpg,GW/hat.jpg,,,,,,,,,,,,
null,,black_cross(without_color),853895,blue,,,,null,GW/gong.jpg,GW/hat.jpg,,,,,,,,,,,,
null,,rt_plussign_withcolor,854396,blue,,,,null,GW/gong.jpg,GW/hat.jpg,,,,,,,,,,,,
1384.3999999761581,,rt_thecrossant_black,855900,black_plus_sign,,,,49,,,1,0.9903846153846154,,,,,,,,,,
null,,color_black,856001,black_plus_sign,,,,null,,,,,,,,,,,,,,
null,,learn_phase(without_color),858004,black_plus_sign,,,,null,GW/paint.jpg,GW/basket.jpg,,,,,,,,,,,,
null,,black_cross(without_color),858916,blue,,,,null,GW/paint.jpg,GW/basket.jpg,,,,,,,,,,,,
null,,rt_plussign_withcolor,859418,blue,,,,null,GW/paint.jpg,GW/basket.jpg,,,,,,,,,,,,
896.5,,rt_thecrossant_black,860512,black_plus_sign,,,,49,,,1,0.9904761904761905,,,,,,,,,,
null,,color_black,860616,black_plus_sign,,,,null,,,,,,,,,,,,,,
null,,learn_phase(without_color),862619,black_plus_sign,,,,null,GW/gong.jpg,GW/jukebox.jpg,,,,,,,,,,,,
null,,black_cross(without_color),863659,blue,,,,null,GW/gong.jpg,GW/jukebox.jpg,,,,,,,,,,,,
null,,rt_plussign_withcolor,864161,blue,,,,null,GW/gong.jpg,GW/jukebox.jpg,,,,,,,,,,,,
1265.3000000715256,,rt_thecrossant_black,865125,black_plus_sign,,,,49,,,1,0.9905660377358491,,,,,,,,,,
null,,color_black,865227,black_plus_sign,,,,null,,,,,,,,,,,,,,
null,,learn_phase(without_color),867229,black_plus_sign,,,,null,GW/snail.jpg,GW/paint.jpg,,,,,,,,,,,,
null,,black_cross(without_color),867677,green,,,,null,GW/snail.jpg,GW/paint.jpg,,,,,,,,,,,,
null,,rt_plussign_withcolor,868179,green,,,,null,GW/snail.jpg,GW/paint.jpg,,,,,,,,,,,,
1475.9000000953674,,rt_thecrossant_black,869735,black_plus_sign,,,,50,,,1,0.9906542056074766,,,,,,,,,,
null,,color_black,869838,black_plus_sign,,,,null,,,,,,,,,,,,,,
null,,learn_phase(without_color),871841,black_plus_sign,,,,null,GW/basket.jpg,GW/gong.jpg,,,,,,,,,,,,
null,,black_cross(without_color),872525,green,,,,null,GW/basket.jpg,GW/gong.jpg,,,,,,,,,,,,
null,,rt_plussign_withcolor,873027,green,,,,null,GW/basket.jpg,GW/gong.jpg,,,,,,,,,,,,
896.8999999761581,,rt_thecrossant_black,874348,black_plus_sign,,,,50,,,1,0.9907407407407407,,,,,,,,,,
null,,color_black,874451,black_plus_sign,,,,null,,,,,,,,,,,,,,
null,,learn_phase(without_color),876454,black_plus_sign,,,,null,GW/wheelchair.jpg,GW/barrel.jpg,,,,,,,,,,,,
null,,black_cross(without_color),877322,green,,,,null,GW/wheelchair.jpg,GW/barrel.jpg,,,,,,,,,,,,
null,,rt_plussign_withcolor,877823,green,,,,null,GW/wheelchair.jpg,GW/barrel.jpg,,,,,,,,,,,,
1058.3999999761581,,rt_thecrossant_black,878959,black_plus_sign,,,,50,,,1,0.9908256880733946,,,,,,,,,,
null,,color_black,879062,black_plus_sign,,,,null,,,,,,,,,,,,,,
null,,learn_phase(without_color),881064,black_plus_sign,,,,null,GW/globe.jpg,GW/barrel.jpg,,,,,,,,,,,,
null,,black_cross(without_color),881619,green,,,,null,GW/globe.jpg,GW/barrel.jpg,,,,,,,,,,,,
null,,rt_plussign_withcolor,882121,green,,,,null,GW/globe.jpg,GW/barrel.jpg,,,,,,,,,,,,
1273.2000000476837,,rt_thecrossant_black,883571,black_plus_sign,,,,50,,,1,0.990909090909091,,,,,,,,,,
null,,color_black,883673,black_plus_sign,,,,null,,,,,,,,,,,,,,
null,,learn_phase(without_color),885676,black_plus_sign,,,,null,GW/gong.jpg,GW/jukebox.jpg,,,,,,,,,,,,
null,,black_cross(without_color),886662,green,,,,null,GW/gong.jpg,GW/jukebox.jpg,,,,,,,,,,,,
null,,rt_plussign_withcolor,887164,green,,,,null,GW/gong.jpg,GW/jukebox.jpg,,,,,,,,,,,,
1029.3999999761581,,rt_thecrossant_black,888194,black_plus_sign,,,,50,,,1,0.990990990990991,,,,,,,,,,
null,,color_black,888296,black_plus_sign,,,,null,,,,,,,,,,,,,,
null,,learn_phase(without_color),890298,black_plus_sign,,,,null,GW/gong.jpg,GW/hat.jpg,,,,,,,,,,,,
null,,black_cross(without_color),891075,green,,,,null,GW/gong.jpg,GW/hat.jpg,,,,,,,,,,,,
null,,rt_plussign_withcolor,891577,green,,,,null,GW/gong.jpg,GW/hat.jpg,,,,,,,,,,,,
1174.2999999523163,,rt_thecrossant_black,892805,black_plus_sign,,,,50,,,1,0.9910714285714286,,,,,,,,,,
null,,color_black,892907,black_plus_sign,,,,null,,,,,,,,,,,,,,
null,,learn_phase(without_color),894909,black_plus_sign,,,,null,GW/snail.jpg,GW/wheelchair.jpg,,,,,,,,,,,,
null,,black_cross(without_color),895917,green,,,,null,GW/snail.jpg,GW/wheelchair.jpg,,,,,,,,,,,,
null,,rt_plussign_withcolor,896419,green,,,,null,GW/snail.jpg,GW/wheelchair.jpg,,,,,,,,,,,,
1227.8999999761581,,rt_thecrossant_black,897416,black_plus_sign,,,,50,,,1,0.9911504424778761,,,,,,,,,,
null,,color_black,897519,black_plus_sign,,,,null,,,,,,,,,,,,,,
null,,learn_phase(without_color),899522,black_plus_sign,,,,null,GW/paint.jpg,GW/globe.jpg,,,,,,,,,,,,
null,,black_cross(without_color),900580,green,,,,null,GW/paint.jpg,GW/globe.jpg,,,,,,,,,,,,
null,,rt_plussign_withcolor,901082,green,,,,null,GW/paint.jpg,GW/globe.jpg,,,,,,,,,,,,
1494.1999999284744,,rt_thecrossant_black,902028,black_plus_sign,,,,50,,,1,0.9912280701754386,,,,,,,,,,
null,,color_black,902131,black_plus_sign,,,,null,,,,,,,,,,,,,,
null,,learn_phase(without_color),904134,black_plus_sign,,,,null,GW/wheelchair.jpg,GW/soldier.jpg,,,,,,,,,,,,
null,,black_cross(without_color),904862,blue,,,,null,GW/wheelchair.jpg,GW/soldier.jpg,,,,,,,,,,,,
null,,rt_plussign_withcolor,905364,blue,,,,null,GW/wheelchair.jpg,GW/soldier.jpg,,,,,,,,,,,,
1372.8999999761581,,rt_thecrossant_black,906640,black_plus_sign,,,,49,,,1,0.991304347826087,,,,,,,,,,
null,,color_black,906744,black_plus_sign,,,,null,,,,,,,,,,,,,,
null,,learn_phase(without_color),908746,black_plus_sign,,,,null,GW/wheelchair.jpg,GW/barrel.jpg,,,,,,,,,,,,
null,,black_cross(without_color),909188,blue,,,,null,GW/wheelchair.jpg,GW/barrel.jpg,,,,,,,,,,,,
null,,rt_plussign_withcolor,909690,blue,,,,null,GW/wheelchair.jpg,GW/barrel.jpg,,,,,,,,,,,,
1100,,rt_thecrossant_black,911254,black_plus_sign,,,,49,,,1,0.9913793103448276,,,,,,,,,,
null,,color_black,911356,black_plus_sign,,,,null,,,,,,,,,,,,,,
null,,learn_phase(without_color),913358,black_plus_sign,,,,null,GW/globe.jpg,GW/barrel.jpg,,,,,,,,,,,,
null,,black_cross(without_color),914202,green,,,,null,GW/globe.jpg,GW/barrel.jpg,,,,,,,,,,,,
null,,rt_plussign_withcolor,914704,green,,,,null,GW/globe.jpg,GW/barrel.jpg,,,,,,,,,,,,
802.7999999523163,,rt_thecrossant_black,915865,black_plus_sign,,,,50,,,1,0.9914529914529915,,,,,,,,,,
null,,color_black,915968,black_plus_sign,,,,null,,,,,,,,,,,,,,
null,,learn_phase(without_color),917970,black_plus_sign,,,,null,GW/wheelchair.jpg,GW/soldier.jpg,,,,,,,,,,,,
null,,black_cross(without_color),918990,green,,,,null,GW/wheelchair.jpg,GW/soldier.jpg,,,,,,,,,,,,
null,,rt_plussign_withcolor,919492,green,,,,null,GW/wheelchair.jpg,GW/soldier.jpg,,,,,,,,,,,,
1259.1000000238419,,rt_thecrossant_black,920475,black_plus_sign,,,,50,,,1,0.9915254237288136,,,,,,,,,,
null,,color_black,920577,black_plus_sign,,,,null,,,,,,,,,,,,,,
null,,learn_phase(without_color),922580,black_plus_sign,,,,null,GW/gong.jpg,GW/jukebox.jpg,,,,,,,,,,,,
null,,black_cross(without_color),923328,blue,,,,null,GW/gong.jpg,GW/jukebox.jpg,,,,,,,,,,,,
null,,rt_plussign_withcolor,923830,blue,,,,null,GW/gong.jpg,GW/jukebox.jpg,,,,,,,,,,,,
1505.2999999523163,,rt_thecrossant_black,925087,black_plus_sign,,,,49,,,1,0.9915966386554622,,,,,,,,,,
null,,color_black,925189,black_plus_sign,,,,null,,,,,,,,,,,,,,
null,,learn_phase(without_color),927192,black_plus_sign,,,,null,GW/camera.jpg,GW/snail.jpg,,,,,,,,,,,,
null,,black_cross(without_color),927696,green,,,,null,GW/camera.jpg,GW/snail.jpg,,,,,,,,,,,,
null,,rt_plussign_withcolor,928205,green,,,,null,GW/camera.jpg,GW/snail.jpg,,,,,,,,,,,,
1365.2999999523163,,rt_thecrossant_black,929719,black_plus_sign,,,,50,,,1,0.9916666666666667,,,,,,,,,,
null,,color_black,929823,black_plus_sign,,,,null,,,,,,,,,,,,,,
null,,learn_phase(without_color),931825,black_plus_sign,,,,null,GW/gong.jpg,GW/teeth.jpg,,,,,,,,,,,,
null,,black_cross(without_color),932494,green,,,,null,GW/gong.jpg,GW/teeth.jpg,,,,,,,,,,,,
null,,rt_plussign_withcolor,932997,green,,,,null,GW/gong.jpg,GW/teeth.jpg,,,,,,,,,,,,
764.6999999284744,,rt_thecrossant_black,934332,black_plus_sign,,,,50,,,1,0.9917355371900827,,,,,,,,,,
null,,color_black,934434,black_plus_sign,,,,null,,,,,,,,,,,,,,
null,,learn_phase(without_color),936437,black_plus_sign,,,,null,GW/wheelchair.jpg,GW/soldier.jpg,,,,,,,,,,,,
null,,black_cross(without_color),937457,blue,,,,null,GW/wheelchair.jpg,GW/soldier.jpg,,,,,,,,,,,,
null,,rt_plussign_withcolor,937958,blue,,,,null,GW/wheelchair.jpg,GW/soldier.jpg,,,,,,,,,,,,
1012.6000000238419,,rt_thecrossant_black,938944,black_plus_sign,,,,49,,,1,0.9918032786885246,,,,,,,,,,
null,,color_black,939047,black_plus_sign,,,,null,,,,,,,,,,,,,,
null,,learn_phase(without_color),941051,black_plus_sign,,,,null,GW/snail.jpg,GW/wheelchair.jpg,,,,,,,,,,,,
null,,black_cross(without_color),941887,green,,,,null,GW/snail.jpg,GW/wheelchair.jpg,,,,,,,,,,,,
null,,rt_plussign_withcolor,942389,green,,,,null,GW/snail.jpg,GW/wheelchair.jpg,,,,,,,,,,,,
1369.8999999761581,,rt_thecrossant_black,943560,black_plus_sign,,,,50,,,1,0.991869918699187,,,,,,,,,,
null,,color_black,943663,black_plus_sign,,,,null,,,,,,,,,,,,,,
null,,learn_phase(without_color),945666,black_plus_sign,,,,null,GW/gong.jpg,GW/teeth.jpg,,,,,,,,,,,,
null,,black_cross(without_color),946336,blue,,,,null,GW/gong.jpg,GW/teeth.jpg,,,,,,,,,,,,
null,,rt_plussign_withcolor,946837,blue,,,,null,GW/gong.jpg,GW/teeth.jpg,,,,,,,,,,,,
1196.3000000715256,,rt_thecrossant_black,948178,black_plus_sign,,,,49,,,1,0.9919354838709677,,,,,,,,,,
null,,color_black,948280,black_plus_sign,,,,null,,,,,,,,,,,,,,
null,,learn_phase(without_color),950283,black_plus_sign,,,,null,GW/snail.jpg,GW/paint.jpg,,,,,,,,,,,,
null,,black_cross(without_color),951153,green,,,,null,GW/snail.jpg,GW/paint.jpg,,,,,,,,,,,,
null,,rt_plussign_withcolor,951656,green,,,,null,GW/snail.jpg,GW/paint.jpg,,,,,,,,,,,,
891.5,,rt_thecrossant_black,952790,black_plus_sign,,,,50,,,1,0.992,,,,,,,,,,
null,,color_black,952893,black_plus_sign,,,,null,,,,,,,,,,,,,,
null,,learn_phase(without_color),954897,black_plus_sign,,,,null,GW/wheelchair.jpg,GW/soldier.jpg,,,,,,,,,,,,
null,,black_cross(without_color),955993,blue,,,,null,GW/wheelchair.jpg,GW/soldier.jpg,,,,,,,,,,,,
null,,rt_plussign_withcolor,956494,blue,,,,null,GW/wheelchair.jpg,GW/soldier.jpg,,,,,,,,,,,,
1110.3000000715256,,rt_thecrossant_black,957403,black_plus_sign,,,,49,,,1,0.9920634920634921,,,,,,,,,,
null,,color_black,957505,black_plus_sign,,,,null,,,,,,,,,,,,,,
null,,learn_phase(without_color),959518,black_plus_sign,,,,null,GW/paint.jpg,GW/basket.jpg,,,,,,,,,,,,
null,,black_cross(without_color),959965,blue,,,,null,GW/paint.jpg,GW/basket.jpg,,,,,,,,,,,,
null,,rt_plussign_withcolor,960466,blue,,,,null,GW/paint.jpg,GW/basket.jpg,,,,,,,,,,,,
1313.7999999523163,,rt_thecrossant_black,962023,black_plus_sign,,,,49,,,1,0.9921259842519685,,,,,,,,,,
null,,color_black,962127,black_plus_sign,,,,null,,,,,,,,,,,,,,
null,,learn_phase(without_color),964130,black_plus_sign,,,,null,GW/paint.jpg,GW/globe.jpg,,,,,,,,,,,,
null,,black_cross(without_color),965101,blue,,,,null,GW/paint.jpg,GW/globe.jpg,,,,,,,,,,,,
null,,rt_plussign_withcolor,965603,blue,,,,null,GW/paint.jpg,GW/globe.jpg,,,,,,,,,,,,
727.5999999046326,,rt_thecrossant_black,966637,black_plus_sign,,,,49,,,1,0.9921875,,,,,,,,,,
null,,color_black,966739,black_plus_sign,,,,null,,,,,,,,,,,,,,
244444.60000002384,,intro_1,1211186,instruct,,0,Start,,,,,,,,,,,,,,,
1503.1999999284744,,directmemory_phase,1212691,GW/globe.jpg,,,,49,,,0,0,GW/teeth.jpg,GW/paint.jpg,GW/camera.jpg,GW/paint.jpg,GW/teeth.jpg,GW/camera.jpg,0.5,closer,,
null,,html-keyboard-response,1213710,<p></p>,,,,null,,,,,,,,,,,,,,
1615.4000000953674,,directmemory_phase,1215328,GW/basket.jpg,,,,50,,,0,0,GW/gong.jpg,GW/barrel.jpg,GW/snail.jpg,GW/gong.jpg,GW/snail.jpg,GW/barrel.jpg,0.5,closer,,
null,,html-keyboard-response,1216333,<p></p>,,,,null,,,,,,,,,,,,,,
1804.7000000476837,,directmemory_phase,1218139,GW/teeth.jpg,,,,49,,,0,0,GW/barrel.jpg,GW/basket.jpg,GW/jukebox.jpg,GW/jukebox.jpg,GW/basket.jpg,GW/barrel.jpg,0.5,closer,,
null,,html-keyboard-response,1219143,<p></p>,,,,null,,,,,,,,,,,,,,
1665.3999999761581,,directmemory_phase,1220810,GW/paint.jpg,,,,51,,,0,0,GW/gong.jpg,GW/snail.jpg,GW/hat.jpg,GW/snail.jpg,GW/gong.jpg,GW/hat.jpg,0.5,closer,,
null,,html-keyboard-response,1221813,<p></p>,,,,null,,,,,,,,,,,,,,
1488.3000000715256,,directmemory_phase,1223303,GW/soldier.jpg,,,,50,,,0,0,GW/wheelchair.jpg,GW/globe.jpg,GW/snail.jpg,GW/wheelchair.jpg,GW/snail.jpg,GW/globe.jpg,0.5,closer,,
null,,html-keyboard-response,1224307,<p></p>,,,,null,,,,,,,,,,,,,,
1580.6000000238419,,directmemory_phase,1225889,GW/snail.jpg,,,,49,,,0,0,GW/teeth.jpg,GW/globe.jpg,GW/paint.jpg,GW/paint.jpg,GW/globe.jpg,GW/teeth.jpg,0.5,closer,,
null,,html-keyboard-response,1226893,<p></p>,,,,null,,,,,,,,,,,,,,
1705.1999999284744,,directmemory_phase,1228600,GW/barrel.jpg,,,,49,,,1,0.14285714285714285,GW/wheelchair.jpg,GW/dustpan.jpg,GW/snail.jpg,GW/wheelchair.jpg,GW/snail.jpg,GW/dustpan.jpg,1,,,
null,,html-keyboard-response,1229603,<p></p>,,,,null,,,,,,,,,,,,,,
1885.5,,directmemory_phase,1231491,GW/teeth.jpg,,,,49,,,1,0.25,GW/dustpan.jpg,GW/wheelchair.jpg,GW/hat.jpg,GW/dustpan.jpg,GW/hat.jpg,GW/wheelchair.jpg,1,,,
null,,html-keyboard-response,1232494,<p></p>,,,,null,,,,,,,,,,,,,,
1850.6999999284744,,directmemory_phase,1234347,GW/paint.jpg,,,,50,,,0,0.2222222222222222,GW/soldier.jpg,GW/jukebox.jpg,GW/basket.jpg,GW/basket.jpg,GW/jukebox.jpg,GW/soldier.jpg,0.5,closer,,
null,,html-keyboard-response,1235351,<p></p>,,,,null,,,,,,,,,,,,,,
1545.8000000715256,,directmemory_phase,1236899,GW/jukebox.jpg,,,,51,,,0,0.2,GW/teeth.jpg,GW/camera.jpg,GW/paint.jpg,GW/teeth.jpg,GW/paint.jpg,GW/camera.jpg,0.5,closer,,
null,,html-keyboard-response,1237903,<p></p>,,,,null,,,,,,,,,,,,,,
2298.7000000476837,,directmemory_phase,1240204,GW/barrel.jpg,,,,51,,,0,0.18181818181818182,GW/globe.jpg,GW/hat.jpg,GW/soldier.jpg,GW/globe.jpg,GW/soldier.jpg,GW/hat.jpg,0.5,closer,,
null,,html-keyboard-response,1241219,<p></p>,,,,null,,,,,,,,,,,,,,
1602.6000000238419,,directmemory_phase,1242824,GW/teeth.jpg,,,,50,,,0,0.16666666666666666,GW/snail.jpg,GW/basket.jpg,GW/gong.jpg,GW/gong.jpg,GW/basket.jpg,GW/snail.jpg,0.5,closer,,
null,,html-keyboard-response,1243826,<p></p>,,,,null,,,,,,,,,,,,,,
1563.1999999284744,,directmemory_phase,1245391,GW/globe.jpg,,,,49,,,1,0.23076923076923078,GW/jukebox.jpg,GW/dustpan.jpg,GW/teeth.jpg,GW/jukebox.jpg,GW/teeth.jpg,GW/dustpan.jpg,1,,,
null,,html-keyboard-response,1246396,<p></p>,,,,null,,,,,,,,,,,,,,
1303.1000000238419,,directmemory_phase,1247702,GW/snail.jpg,,,,50,,,0,0.21428571428571427,GW/hat.jpg,GW/globe.jpg,GW/wheelchair.jpg,GW/wheelchair.jpg,GW/globe.jpg,GW/hat.jpg,0.5,closer,,
null,,html-keyboard-response,1248706,<p></p>,,,,null,,,,,,,,,,,,,,
1977.2999999523163,,directmemory_phase,1250685,GW/basket.jpg,,,,51,,,1,0.26666666666666666,GW/camera.jpg,GW/teeth.jpg,GW/jukebox.jpg,GW/jukebox.jpg,GW/teeth.jpg,GW/camera.jpg,1,,,
null,,html-keyboard-response,1251688,<p></p>,,,,null,,,,,,,,,,,,,,
2267.5,,directmemory_phase,1253957,GW/snail.jpg,,,,50,,,0,0.25,GW/camera.jpg,GW/gong.jpg,GW/globe.jpg,GW/camera.jpg,GW/globe.jpg,GW/gong.jpg,0.5,closer,,
null,,html-keyboard-response,1254963,<p></p>,,,,null,,,,,,,,,,,,,,
1545.3999999761581,,directmemory_phase,1256511,GW/dustpan.jpg,,,,49,,,0,0.23529411764705882,GW/barrel.jpg,GW/jukebox.jpg,GW/teeth.jpg,GW/teeth.jpg,GW/jukebox.jpg,GW/barrel.jpg,0.5,closer,,
null,,html-keyboard-response,1257515,<p></p>,,,,null,,,,,,,,,,,,,,
2122.7999999523163,,directmemory_phase,1259639,GW/camera.jpg,,,,49,,,0,0.2222222222222222,GW/paint.jpg,GW/snail.jpg,GW/barrel.jpg,GW/snail.jpg,GW/paint.jpg,GW/barrel.jpg,0.5,closer,,
null,,html-keyboard-response,1260644,<p></p>,,,,null,,,,,,,,,,,,,,
2485.7000000476837,,directmemory_phase,1263132,GW/wheelchair.jpg,,,,50,,,0,0.21052631578947367,GW/barrel.jpg,GW/basket.jpg,GW/globe.jpg,GW/barrel.jpg,GW/globe.jpg,GW/basket.jpg,0.5,closer,,
null,,html-keyboard-response,1264136,<p></p>,,,,null,,,,,,,,,,,,,,
1973.1999999284744,,directmemory_phase,1266111,GW/jukebox.jpg,,,,51,,,1,0.25,GW/camera.jpg,GW/hat.jpg,GW/basket.jpg,GW/basket.jpg,GW/hat.jpg,GW/camera.jpg,1,,,
null,,html-keyboard-response,1267114,<p></p>,,,,null,,,,,,,,,,,,,,
2080,,directmemory_phase,1269196,GW/wheelchair.jpg,,,,49,,,1,0.2857142857142857,GW/soldier.jpg,GW/teeth.jpg,GW/paint.jpg,GW/soldier.jpg,GW/paint.jpg,GW/teeth.jpg,1,,,
null,,html-keyboard-response,1270199,<p></p>,,,,null,,,,,,,,,,,,,,
2059.5,,directmemory_phase,1272260,GW/hat.jpg,,,,50,,,1,0.3181818181818182,GW/teeth.jpg,GW/gong.jpg,GW/paint.jpg,GW/gong.jpg,GW/teeth.jpg,GW/paint.jpg,1,,,
null,,html-keyboard-response,1273264,<p></p>,,,,null,,,,,,,,,,,,,,
1536.7999999523163,,directmemory_phase,1274803,GW/basket.jpg,,,,49,,,0,0.30434782608695654,GW/wheelchair.jpg,GW/hat.jpg,GW/paint.jpg,GW/paint.jpg,GW/hat.jpg,GW/wheelchair.jpg,0.5,closer,,
null,,html-keyboard-response,1275808,<p></p>,,,,null,,,,,,,,,,,,,,
1638.6999999284744,,directmemory_phase,1277449,GW/gong.jpg,,,,50,,,1,0.3333333333333333,GW/paint.jpg,GW/jukebox.jpg,GW/barrel.jpg,GW/jukebox.jpg,GW/paint.jpg,GW/barrel.jpg,1,,,
null,,html-keyboard-response,1278453,<p></p>,,,,null,,,,,,,,,,,,,,
1203.3999999761581,,directmemory_phase,1279658,GW/wheelchair.jpg,,,,51,,,1,0.36,GW/basket.jpg,GW/paint.jpg,GW/snail.jpg,GW/snail.jpg,GW/paint.jpg,GW/basket.jpg,1,,,
null,,html-keyboard-response,1280661,<p></p>,,,,null,,,,,,,,,,,,,,
1377,,directmemory_phase,1282041,GW/paint.jpg,,,,50,,,0,0.34615384615384615,GW/teeth.jpg,GW/jukebox.jpg,GW/globe.jpg,GW/globe.jpg,GW/jukebox.jpg,GW/teeth.jpg,0.5,closer,,
null,,html-keyboard-response,1283044,<p></p>,,,,null,,,,,,,,,,,,,,
1039.1999999284744,,directmemory_phase,1284086,GW/gong.jpg,,,,51,,,1,0.37037037037037035,GW/wheelchair.jpg,GW/paint.jpg,GW/basket.jpg,GW/basket.jpg,GW/paint.jpg,GW/wheelchair.jpg,1,,,
null,,html-keyboard-response,1285089,<p></p>,,,,null,,,,,,,,,,,,,,
1178.3000000715256,,directmemory_phase,1286270,GW/jukebox.jpg,,,,49,,,0,0.35714285714285715,GW/camera.jpg,GW/paint.jpg,GW/globe.jpg,GW/globe.jpg,GW/paint.jpg,GW/camera.jpg,0.5,closer,,
null,,html-keyboard-response,1287274,<p></p>,,,,null,,,,,,,,,,,,,,
1605.7000000476837,,directmemory_phase,1288882,GW/gong.jpg,,,,50,,,0,0.3448275862068966,GW/snail.jpg,GW/globe.jpg,GW/hat.jpg,GW/hat.jpg,GW/globe.jpg,GW/snail.jpg,0.5,closer,,
null,,html-keyboard-response,1289890,<p></p>,,,,null,,,,,,,,,,,,,,
1836.1999999284744,,directmemory_phase,1291729,GW/globe.jpg,,,,51,,,0,0.3333333333333333,GW/barrel.jpg,GW/soldier.jpg,GW/wheelchair.jpg,GW/barrel.jpg,GW/wheelchair.jpg,GW/soldier.jpg,0.5,closer,,
null,,html-keyboard-response,1292733,<p></p>,,,,null,,,,,,,,,,,,,,
2275,,directmemory_phase,1295011,GW/gong.jpg,,,,49,,,0,0.3225806451612903,GW/camera.jpg,GW/dustpan.jpg,GW/teeth.jpg,GW/teeth.jpg,GW/dustpan.jpg,GW/camera.jpg,0.5,closer,,
null,,html-keyboard-response,1296015,<p></p>,,,,null,,,,,,,,,,,,,,
3903.899999976158,,directmemory_phase,1299921,,,,,50,,,1,0.34375,,,,,,,0.5,closer,,
null,,html-keyboard-response,1300925,<p></p>,,,,null,,,,,,,,,,,,,,
18241.799999952316,,intro_1,1319169,instruct,,0,,,,,,,,,,,,,,,,
11139.700000047684,,intro_2,1330312,instruct,,1,Next,,,,,,,,,,,,,,,
5122.100000023842,,intro_3,1335438,instruct,,1,Next,,,,,,,,,,,,,,,
8924.799999952316,,intro_4,1344368,instruct,,1,Next,,,,,,,,,,,,,,,
14100.200000047684,,intro_5,1358471,instruct,,1,Next,,,,,,,,,,,,,,,
9231.299999952316,,intro_6,1367706,instruct,,1,Next,,,,,,,,,,,,,,,
10758.5,,intro_7,1378467,instruct,,1,Next,,,,,,,,,,,,,,,
26723.799999952316,,intro_8,1405195,instruct,,1,Next,,,,,,,,,,,,,,,
1982.1000000238419,,shortestpath_phase,1407181,GW/snail.jpg,,,,49,GW/gong.jpg,GW/soldier.jpg,0,0,,,,GW/soldier.jpg,,,,,One Edge Diff,Two Edge Three Edge
null,,html-keyboard-response,1408186,<p></p>,,,,null,,,,,,,,,,,,,,
1788.2000000476837,,shortestpath_phase,1409977,GW/teeth.jpg,,,,50,GW/hat.jpg,GW/camera.jpg,0,0,,,,GW/hat.jpg,,,,,Three Edge Diff,Two Edge Five Edge
null,,html-keyboard-response,1410980,<p></p>,,,,null,,,,,,,,,,,,,,
1486.0999999046326,,shortestpath_phase,1412469,GW/gong.jpg,,,,50,GW/snail.jpg,GW/camera.jpg,0,0,,,,GW/snail.jpg,,,,,One Edge Diff,Three Edge Four Edge
null,,html-keyboard-response,1413473,<p></p>,,,,null,,,,,,,,,,,,,,
2054.6999999284744,,shortestpath_phase,1415530,GW/hat.jpg,,,,49,GW/dustpan.jpg,GW/teeth.jpg,0,0,,,,GW/teeth.jpg,,,,,One Edge Diff,Two Edge Three Edge
null,,html-keyboard-response,1416534,<p></p>,,,,null,,,,,,,,,,,,,,
1485.6000000238419,,shortestpath_phase,1418023,GW/soldier.jpg,,,,50,GW/barrel.jpg,GW/hat.jpg,0,0,,,,GW/barrel.jpg,,,,,Four Edge Diff,Two Edge Six Edge
null,,html-keyboard-response,1419025,<p></p>,,,,null,,,,,,,,,,,,,,
3044.7000000476837,,shortestpath_phase,1422072,GW/gong.jpg,,,,49,GW/wheelchair.jpg,GW/soldier.jpg,1,0.16666666666666666,,,,GW/wheelchair.jpg,,,,,One Edge Diff,Four Edge Five Edge
null,,html-keyboard-response,1423076,<p></p>,,,,null,,,,,,,,,,,,,,
1979.3000000715256,,shortestpath_phase,1425057,GW/hat.jpg,,,,49,GW/teeth.jpg,GW/camera.jpg,1,0.2857142857142857,,,,GW/teeth.jpg,,,,,Three Edge Diff,Two Edge Five Edge
null,,html-keyboard-response,1426061,<p></p>,,,,null,,,,,,,,,,,,,,
1650,,shortestpath_phase,1427714,GW/camera.jpg,,,,50,GW/gong.jpg,GW/basket.jpg,1,0.375,,,,GW/basket.jpg,,,,,One Edge Diff,Three Edge Four Edge
null,,html-keyboard-response,1428717,<p></p>,,,,null,,,,,,,,,,,,,,
2128.3000000715256,,shortestpath_phase,1430847,GW/soldier.jpg,,,,50,GW/teeth.jpg,GW/hat.jpg,0,0.3333333333333333,,,,GW/teeth.jpg,,,,,One Edge Diff,Five Edge Six Edge
null,,html-keyboard-response,1431850,<p></p>,,,,null,,,,,,,,,,,,,,
1707.0999999046326,,shortestpath_phase,1433559,GW/jukebox.jpg,,,,49,GW/snail.jpg,GW/paint.jpg,0,0.3,,,,GW/paint.jpg,,,,,One Edge Diff,Two Edge Three Edge
null,,html-keyboard-response,1434563,<p></p>,,,,null,,,,,,,,,,,,,,
1491.2999999523163,,shortestpath_phase,1436057,GW/teeth.jpg,,,,50,GW/soldier.jpg,GW/wheelchair.jpg,1,0.36363636363636365,,,,GW/wheelchair.jpg,,,,,One Edge Diff,Four Edge Five Edge
null,,html-keyboard-response,1437062,<p></p>,,,,null,,,,,,,,,,,,,,
1190.8999999761581,,shortestpath_phase,1438255,GW/hat.jpg,,,,49,GW/camera.jpg,GW/jukebox.jpg,0,0.3333333333333333,,,,GW/jukebox.jpg,,,,,Three Edge Diff,Two Edge Five Edge
null,,html-keyboard-response,1439258,<p></p>,,,,null,,,,,,,,,,,,,,
947.7999999523163,,shortestpath_phase,1440208,GW/soldier.jpg,,,,50,GW/teeth.jpg,GW/paint.jpg,1,0.38461538461538464,,,,GW/paint.jpg,,,,,Two Edge Diff,Three Edge Five Edge
null,,html-keyboard-response,1441212,<p></p>,,,,null,,,,,,,,,,,,,,
982,,shortestpath_phase,1442196,GW/jukebox.jpg,,,,49,GW/soldier.jpg,GW/wheelchair.jpg,0,0.35714285714285715,,,,GW/wheelchair.jpg,,,,,One Edge Diff,Three Edge Four Edge
null,,html-keyboard-response,1443201,<p></p>,,,,null,,,,,,,,,,,,,,
709.5,,shortestpath_phase,1443912,GW/dustpan.jpg,,,,50,GW/paint.jpg,GW/soldier.jpg,0,0.3333333333333333,,,,GW/paint.jpg,,,,,Two Edge Diff,Four Edge Six Edge
null,,html-keyboard-response,1444916,<p></p>,,,,null,,,,,,,,,,,,,,
880.2000000476837,,shortestpath_phase,1445798,GW/wheelchair.jpg,,,,49,GW/gong.jpg,GW/globe.jpg,0,0.3125,,,,GW/globe.jpg,,,,,Two Edge Diff,Two Edge Four Edge
null,,html-keyboard-response,1446802,<p></p>,,,,null,,,,,,,,,,,,,,
754.6000000238419,,shortestpath_phase,1447558,GW/paint.jpg,,,,50,GW/soldier.jpg,GW/jukebox.jpg,1,0.35294117647058826,,,,GW/jukebox.jpg,,,,,One Edge Diff,Two Edge Three Edge
null,,html-keyboard-response,1448562,<p></p>,,,,null,,,,,,,,,,,,,,
845,,shortestpath_phase,1449410,GW/dustpan.jpg,,,,50,GW/snail.jpg,GW/camera.jpg,0,0.3333333333333333,,,,GW/snail.jpg,,,,,One Edge Diff,Five Edge Six Edge
null,,html-keyboard-response,1450413,<p></p>,,,,null,,,,,,,,,,,,,,
692.2000000476837,,shortestpath_phase,1451107,GW/wheelchair.jpg,,,,49,GW/paint.jpg,GW/dustpan.jpg,1,0.3684210526315789,,,,GW/paint.jpg,,,,,Three Edge Diff,Three Edge Six Edge
null,,html-keyboard-response,1452110,<p></p>,,,,null,,,,,,,,,,,,,,
980.3999999761581,,shortestpath_phase,1453092,GW/camera.jpg,,,,50,GW/dustpan.jpg,GW/jukebox.jpg,1,0.4,,,,GW/jukebox.jpg,,,,,Two Edge Diff,Four Edge Six Edge
null,,html-keyboard-response,1454097,<p></p>,,,,null,,,,,,,,,,,,,,
948.1000000238419,,shortestpath_phase,1455047,GW/barrel.jpg,,,,50,GW/hat.jpg,GW/snail.jpg,1,0.42857142857142855,,,,GW/snail.jpg,,,,,Two Edge Diff,Two Edge Four Edge
null,,html-keyboard-response,1456051,<p></p>,,,,null,,,,,,,,,,,,,,
854.1000000238419,,shortestpath_phase,1456908,GW/hat.jpg,,,,49,GW/wheelchair.jpg,GW/soldier.jpg,1,0.45454545454545453,,,,GW/wheelchair.jpg,,,,,One Edge Diff,Five Edge Six Edge
null,,html-keyboard-response,1457912,<p></p>,,,,null,,,,,,,,,,,,,,
804.2999999523163,,shortestpath_phase,1458718,GW/barrel.jpg,,,,50,GW/dustpan.jpg,GW/basket.jpg,1,0.4782608695652174,,,,GW/basket.jpg,,,,,One Edge Diff,Three Edge Four Edge
null,,html-keyboard-response,1459721,<p></p>,,,,null,,,,,,,,,,,,,,
994.7000000476837,,shortestpath_phase,1460718,GW/wheelchair.jpg,,,,49,GW/paint.jpg,GW/hat.jpg,1,0.5,,,,GW/paint.jpg,,,,,Three Edge Diff,Two Edge Five Edge
null,,html-keyboard-response,1461721,<p></p>,,,,null,,,,,,,,,,,,,,
1601.7000000476837,,shortestpath_phase,1463324,GW/soldier.jpg,,,,49,GW/dustpan.jpg,GW/basket.jpg,0,0.48,,,,GW/basket.jpg,,,,,Two Edge Diff,Four Edge Six Edge
null,,html-keyboard-response,1464327,<p></p>,,,,null,,,,,,,,,,,,,,
841.3999999761581,,shortestpath_phase,1465171,GW/dustpan.jpg,,,,49,GW/gong.jpg,GW/snail.jpg,1,0.5,,,,GW/gong.jpg,,,,,Three Edge Diff,Three Edge Six Edge
null,,html-keyboard-response,1466174,<p></p>,,,,null,,,,,,,,,,,,,,
729.6000000238419,,shortestpath_phase,1466906,GW/soldier.jpg,,,,50,GW/jukebox.jpg,GW/barrel.jpg,1,0.5185185185185185,,,,GW/barrel.jpg,,,,,Two Edge Diff,Two Edge Four Edge
null,,html-keyboard-response,1467908,<p></p>,,,,null,,,,,,,,,,,,,,
525.8999999761581,,shortestpath_phase,1468436,GW/hat.jpg,,,,49,GW/wheelchair.jpg,GW/basket.jpg,0,0.5,,,,GW/basket.jpg,,,,,Three Edge Diff,Two Edge Five Edge
null,,html-keyboard-response,1469440,<p></p>,,,,null,,,,,,,,,,,,,,
922.7999999523163,,shortestpath_phase,1470365,GW/dustpan.jpg,,,,50,GW/wheelchair.jpg,GW/camera.jpg,0,0.4827586206896552,,,,GW/wheelchair.jpg,,,,,One Edge Diff,Five Edge Six Edge
null,,html-keyboard-response,1471369,<p></p>,,,,null,,,,,,,,,,,,,,
462.59999990463257,,shortestpath_phase,1471834,GW/hat.jpg,,,,49,GW/dustpan.jpg,GW/jukebox.jpg,0,0.4666666666666667,,,,GW/jukebox.jpg,,,,,One Edge Diff,Two Edge Three Edge
null,,html-keyboard-response,1472850,<p></p>,,,,null,,,,,,,,,,,,,,
682.3999999761581,,shortestpath_phase,1473534,GW/soldier.jpg,,,,50,GW/dustpan.jpg,GW/teeth.jpg,1,0.4838709677419355,,,,GW/teeth.jpg,,,,,One Edge Diff,Five Edge Six Edge
null,,html-keyboard-response,1474538,<p></p>,,,,null,,,,,,,,,,,,,,
1209.3000000715256,,shortestpath_phase,1475750,GW/camera.jpg,,,,49,GW/dustpan.jpg,GW/hat.jpg,0,0.46875,,,,GW/hat.jpg,,,,,One Edge Diff,Five Edge Six Edge
null,,html-keyboard-response,1476755,<p></p>,,,,null,,,,,,,,,,,,,,
667.2999999523163,,shortestpath_phase,1477424,GW/teeth.jpg,,,,50,GW/soldier.jpg,GW/paint.jpg,1,0.48484848484848486,,,,GW/paint.jpg,,,,,Two Edge Diff,Three Edge Five Edge
null,,html-keyboard-response,1478427,<p></p>,,,,null,,,,,,,,,,,,,,
600.9000000953674,,shortestpath_phase,1479031,GW/soldier.jpg,,,,49,GW/dustpan.jpg,GW/jukebox.jpg,0,0.47058823529411764,,,,GW/jukebox.jpg,,,,,Two Edge Diff,Four Edge Six Edge
null,,html-keyboard-response,1480035,<p></p>,,,,null,,,,,,,,,,,,,,
795.7000000476837,,shortestpath_phase,1480833,GW/hat.jpg,,,,50,GW/soldier.jpg,GW/teeth.jpg,1,0.4857142857142857,,,,GW/teeth.jpg,,,,,Four Edge Diff,Two Edge Six Edge
null,,html-keyboard-response,1481837,<p></p>,,,,null,,,,,,,,,,,,,,
531.3000000715256,,shortestpath_phase,1482370,GW/camera.jpg,,,,49,GW/teeth.jpg,GW/paint.jpg,0,0.4722222222222222,,,,GW/paint.jpg,,,,,Three Edge Diff,Two Edge Five Edge
null,,html-keyboard-response,1483375,<p></p>,,,,null,,,,,,,,,,,,,,
844.3999999761581,,shortestpath_phase,1484221,GW/hat.jpg,,,,49,GW/soldier.jpg,GW/snail.jpg,0,0.4594594594594595,,,,GW/snail.jpg,,,,,Two Edge Diff,Four Edge Six Edge
null,,html-keyboard-response,1485225,<p></p>,,,,null,,,,,,,,,,,,,,
625.1999999284744,,shortestpath_phase,1485852,GW/basket.jpg,,,,50,GW/dustpan.jpg,GW/teeth.jpg,1,0.47368421052631576,,,,GW/teeth.jpg,,,,,One Edge Diff,Two Edge Three Edge
null,,html-keyboard-response,1486855,<p></p>,,,,null,,,,,,,,,,,,,,
691.3999999761581,,shortestpath_phase,1487549,GW/dustpan.jpg,,,,49,GW/gong.jpg,GW/soldier.jpg,1,0.48717948717948717,,,,GW/gong.jpg,,,,,Four Edge Diff,Two Edge Six Edge
null,,html-keyboard-response,1488552,<p></p>,,,,null,,,,,,,,,,,,,,
597.2999999523163,,shortestpath_phase,1489151,GW/hat.jpg,,,,49,GW/basket.jpg,GW/camera.jpg,1,0.5,,,,GW/basket.jpg,,,,,Three Edge Diff,Three Edge Six Edge
null,,html-keyboard-response,1490156,<p></p>,,,,null,,,,,,,,,,,,,,
904.1999999284744,,shortestpath_phase,1491062,GW/soldier.jpg,,,,50,GW/camera.jpg,GW/gong.jpg,0,0.4878048780487805,,,,GW/camera.jpg,,,,,Two Edge Diff,Three Edge Five Edge
null,,html-keyboard-response,1492069,<p></p>,,,,null,,,,,,,,,,,,,,
945.6000000238419,,shortestpath_phase,1493017,GW/teeth.jpg,,,,50,GW/barrel.jpg,GW/hat.jpg,1,0.5,,,,GW/hat.jpg,,,,,One Edge Diff,Two Edge Three Edge
null,,html-keyboard-response,1494023,<p></p>,,,,null,,,,,,,,,,,,,,
1585,,shortestpath_phase,1495611,GW/wheelchair.jpg,,,,50,GW/paint.jpg,GW/dustpan.jpg,0,0.4883720930232558,,,,GW/paint.jpg,,,,,Three Edge Diff,Two Edge Five Edge
null,,html-keyboard-response,1496615,<p></p>,,,,null,,,,,,,,,,,,,,
976.2000000476837,,shortestpath_phase,1497593,GW/dustpan.jpg,,,,49,GW/jukebox.jpg,GW/wheelchair.jpg,1,0.5,,,,GW/jukebox.jpg,,,,,Three Edge Diff,Three Edge Six Edge
null,,html-keyboard-response,1498597,<p></p>,,,,null,,,,,,,,,,,,,,
879.5,,shortestpath_phase,1499479,GW/camera.jpg,,,,49,GW/basket.jpg,GW/wheelchair.jpg,0,0.4888888888888889,,,,GW/wheelchair.jpg,,,,,One Edge Diff,Two Edge Three Edge
null,,html-keyboard-response,1500482,<p></p>,,,,null,,,,,,,,,,,,,,
742.8999999761581,,shortestpath_phase,1501227,GW/dustpan.jpg,,,,50,GW/soldier.jpg,GW/jukebox.jpg,1,0.5,,,,GW/jukebox.jpg,,,,,Four Edge Diff,Two Edge Six Edge
null,,html-keyboard-response,1502232,<p></p>,,,,null,,,,,,,,,,,,,,
777.2999999523163,,shortestpath_phase,1503011,GW/hat.jpg,,,,50,GW/snail.jpg,GW/camera.jpg,0,0.48936170212765956,,,,GW/snail.jpg,,,,,One Edge Diff,Four Edge Five Edge
null,,html-keyboard-response,1504014,<p></p>,,,,null,,,,,,,,,,,,,,
639.8999999761581,,shortestpath_phase,1504656,GW/wheelchair.jpg,,,,49,GW/dustpan.jpg,GW/jukebox.jpg,0,0.4791666666666667,,,,GW/jukebox.jpg,,,,,Two Edge Diff,Three Edge Five Edge
null,,html-keyboard-response,1505660,<p></p>,,,,null,,,,,,,,,,,,,,
503.8000000715256,,shortestpath_phase,1506166,GW/gong.jpg,,,,50,GW/soldier.jpg,GW/barrel.jpg,1,0.4897959183673469,,,,GW/barrel.jpg,,,,,Two Edge Diff,Three Edge Five Edge
null,,html-keyboard-response,1507170,<p></p>,,,,null,,,,,,,,,,,,,,
516.5,,shortestpath_phase,1507689,GW/camera.jpg,,,,50,GW/paint.jpg,GW/gong.jpg,0,0.48,,,,GW/paint.jpg,,,,,Two Edge Diff,Two Edge Four Edge
null,,html-keyboard-response,1508692,<p></p>,,,,null,,,,,,,,,,,,,,
490,,shortestpath_phase,1509184,GW/gong.jpg,,,,49,GW/wheelchair.jpg,GW/barrel.jpg,0,0.47058823529411764,,,,GW/barrel.jpg,,,,,One Edge Diff,Three Edge Four Edge
null,,html-keyboard-response,1510191,<p></p>,,,,null,,,,,,,,,,,,,,
703.2999999523163,,shortestpath_phase,1510896,GW/hat.jpg,,,,49,GW/basket.jpg,GW/snail.jpg,1,0.4807692307692308,,,,GW/basket.jpg,,,,,Two Edge Diff,Two Edge Four Edge
null,,html-keyboard-response,1511900,<p></p>,,,,null,,,,,,,,,,,,,,
547,,shortestpath_phase,1512448,GW/soldier.jpg,,,,50,GW/jukebox.jpg,GW/gong.jpg,0,0.4716981132075472,,,,GW/jukebox.jpg,,,,,One Edge Diff,Four Edge Five Edge
null,,html-keyboard-response,1513452,<p></p>,,,,null,,,,,,,,,,,,,,
570.8999999761581,,shortestpath_phase,1514026,GW/teeth.jpg,,,,49,GW/soldier.jpg,GW/basket.jpg,0,0.46296296296296297,,,,GW/basket.jpg,,,,,Three Edge Diff,Three Edge Six Edge
null,,html-keyboard-response,1515029,<p></p>,,,,null,,,,,,,,,,,,,,
637.7000000476837,,shortestpath_phase,1515668,GW/dustpan.jpg,,,,50,GW/camera.jpg,GW/jukebox.jpg,1,0.4727272727272727,,,,GW/jukebox.jpg,,,,,Four Edge Diff,Two Edge Six Edge
null,,html-keyboard-response,1516673,<p></p>,,,,null,,,,,,,,,,,,,,
1121.8000000715256,,shortestpath_phase,1517796,GW/hat.jpg,,,,50,GW/soldier.jpg,GW/barrel.jpg,1,0.48214285714285715,,,,GW/barrel.jpg,,,,,Two Edge Diff,Four Edge Six Edge
null,,html-keyboard-response,1518799,<p></p>,,,,null,,,,,,,,,,,,,,
569.1999999284744,,shortestpath_phase,1519371,GW/dustpan.jpg,,,,49,GW/snail.jpg,GW/soldier.jpg,1,0.49122807017543857,,,,GW/snail.jpg,,,,,One Edge Diff,Five Edge Six Edge
null,,html-keyboard-response,1520376,<p></p>,,,,null,,,,,,,,,,,,,,
635.3999999761581,,shortestpath_phase,1521015,GW/soldier.jpg,,,,50,GW/barrel.jpg,GW/gong.jpg,0,0.4827586206896552,,,,GW/barrel.jpg,,,,,Three Edge Diff,Two Edge Five Edge
null,,html-keyboard-response,1522020,<p></p>,,,,null,,,,,,,,,,,,,,
531.7000000476837,,shortestpath_phase,1522553,GW/teeth.jpg,,,,49,GW/basket.jpg,GW/camera.jpg,1,0.4915254237288136,,,,GW/basket.jpg,,,,,Three Edge Diff,Two Edge Five Edge
null,,html-keyboard-response,1523557,<p></p>,,,,null,,,,,,,,,,,,,,
556.2999999523163,,shortestpath_phase,1524115,GW/camera.jpg,,,,49,GW/globe.jpg,GW/hat.jpg,1,0.5,,,,GW/globe.jpg,,,,,Two Edge Diff,Three Edge Five Edge
null,,html-keyboard-response,1525120,<p></p>,,,,null,,,,,,,,,,,,,,
631.5,,shortestpath_phase,1525753,GW/soldier.jpg,,,,50,GW/gong.jpg,GW/snail.jpg,1,0.5081967213114754,,,,GW/snail.jpg,,,,,Three Edge Diff,Three Edge Six Edge
null,,html-keyboard-response,1526758,<p></p>,,,,null,,,,,,,,,,,,,,
632.7999999523163,,shortestpath_phase,1527392,GW/hat.jpg,,,,49,GW/basket.jpg,GW/camera.jpg,1,0.5161290322580645,,,,GW/basket.jpg,,,,,Three Edge Diff,Two Edge Five Edge
null,,html-keyboard-response,1528397,<p></p>,,,,null,,,,,,,,,,,,,,
730.1000000238419,,shortestpath_phase,1529130,GW/camera.jpg,,,,50,GW/paint.jpg,GW/dustpan.jpg,0,0.5079365079365079,,,,GW/paint.jpg,,,,,Four Edge Diff,Two Edge Six Edge
null,,html-keyboard-response,1530134,<p></p>,,,,null,,,,,,,,,,,,,,
456.8000000715256,,shortestpath_phase,1530593,GW/soldier.jpg,,,,49,GW/hat.jpg,GW/snail.jpg,0,0.5,,,,GW/snail.jpg,,,,,Four Edge Diff,Two Edge Six Edge
null,,html-keyboard-response,1531598,<p></p>,,,,null,,,,,,,,,,,,,,
1315.3999999761581,,shortestpath_phase,1532916,GW/hat.jpg,,,,50,GW/camera.jpg,GW/globe.jpg,1,0.5076923076923077,,,,GW/globe.jpg,,,,,Two Edge Diff,Three Edge Five Edge
null,,html-keyboard-response,1533920,<p></p>,,,,null,,,,,,,,,,,,,,
869.5,,shortestpath_phase,1534792,GW/gong.jpg,,,,50,GW/barrel.jpg,GW/camera.jpg,0,0.5,,,,GW/barrel.jpg,,,,,One Edge Diff,Three Edge Four Edge
null,,html-keyboard-response,1535796,<p></p>,,,,null,,,,,,,,,,,,,,
625.6000000238419,,shortestpath_phase,1536424,GW/hat.jpg,,,,49,GW/teeth.jpg,GW/snail.jpg,1,0.5074626865671642,,,,GW/teeth.jpg,,,,,Two Edge Diff,Two Edge Four Edge
null,,html-keyboard-response,1537431,<p></p>,,,,null,,,,,,,,,,,,,,
747.1000000238419,,shortestpath_phase,1538181,GW/gong.jpg,,,,50,GW/dustpan.jpg,GW/camera.jpg,0,0.5,,,,GW/dustpan.jpg,,,,,Two Edge Diff,Two Edge Four Edge
null,,html-keyboard-response,1539186,<p></p>,,,,null,,,,,,,,,,,,,,
871.3999999761581,,shortestpath_phase,1540059,GW/teeth.jpg,,,,50,GW/snail.jpg,GW/soldier.jpg,0,0.4927536231884058,,,,GW/snail.jpg,,,,,One Edge Diff,Four Edge Five Edge
null,,html-keyboard-response,1541064,<p></p>,,,,null,,,,,,,,,,,,,,
1471.1000000238419,,shortestpath_phase,1542538,GW/wheelchair.jpg,,,,50,GW/teeth.jpg,GW/basket.jpg,1,0.5,,,,GW/basket.jpg,,,,,One Edge Diff,Three Edge Four Edge
null,,html-keyboard-response,1543541,<p></p>,,,,null,,,,,,,,,,,,,,
1157,,shortestpath_phase,1544701,GW/jukebox.jpg,,,,49,GW/snail.jpg,GW/camera.jpg,1,0.5070422535211268,,,,GW/snail.jpg,,,,,One Edge Diff,Three Edge Four Edge
null,,html-keyboard-response,1545704,<p></p>,,,,null,,,,,,,,,,,,,,
1343.6999999284744,,shortestpath_phase,1547050,GW/teeth.jpg,,,,50,GW/camera.jpg,GW/hat.jpg,1,0.5138888888888888,,,,GW/hat.jpg,,,,,Three Edge Diff,Three Edge Six Edge
null,,html-keyboard-response,1548054,<p></p>,,,,null,,,,,,,,,,,,,,
1242.8999999761581,,shortestpath_phase,1549298,GW/soldier.jpg,,,,49,GW/gong.jpg,GW/dustpan.jpg,1,0.5205479452054794,,,,GW/gong.jpg,,,,,One Edge Diff,Five Edge Six Edge
null,,html-keyboard-response,1550302,<p></p>,,,,null,,,,,,,,,,,,,,
1684.8999999761581,,shortestpath_phase,1551990,GW/snail.jpg,,,,50,GW/dustpan.jpg,GW/teeth.jpg,1,0.527027027027027,,,,GW/teeth.jpg,,,,,One Edge Diff,Four Edge Five Edge
null,,html-keyboard-response,1552994,<p></p>,,,,null,,,,,,,,,,,,,,
795.2999999523163,,shortestpath_phase,1553791,GW/camera.jpg,,,,49,GW/gong.jpg,GW/dustpan.jpg,1,0.5333333333333333,,,,GW/gong.jpg,,,,,Two Edge Diff,Four Edge Six Edge
null,,html-keyboard-response,1554795,<p></p>,,,,null,,,,,,,,,,,,,,
963.8999999761581,,shortestpath_phase,1555762,GW/dustpan.jpg,,,,49,GW/paint.jpg,GW/camera.jpg,1,0.5394736842105263,,,,GW/paint.jpg,,,,,Two Edge Diff,Four Edge Six Edge
null,,html-keyboard-response,1556765,<p></p>,,,,null,,,,,,,,,,,,,,
1139,,shortestpath_phase,1557905,GW/hat.jpg,,,,49,GW/soldier.jpg,GW/basket.jpg,0,0.5324675324675324,,,,GW/basket.jpg,,,,,Four Edge Diff,Two Edge Six Edge
null,,html-keyboard-response,1558909,<p></p>,,,,null,,,,,,,,,,,,,,
1023.1000000238419,,shortestpath_phase,1559935,GW/dustpan.jpg,,,,50,GW/camera.jpg,GW/gong.jpg,1,0.5384615384615384,,,,GW/gong.jpg,,,,,Four Edge Diff,Two Edge Six Edge
null,,html-keyboard-response,1560937,<p></p>,,,,null,,,,,,,,,,,,,,
1732.8999999761581,,shortestpath_phase,1562673,GW/teeth.jpg,,,,50,GW/wheelchair.jpg,GW/camera.jpg,0,0.5316455696202531,,,,GW/wheelchair.jpg,,,,,One Edge Diff,Four Edge Five Edge
null,,html-keyboard-response,1563678,<p></p>,,,,null,,,,,,,,,,,,,,
1319.0999999046326,,shortestpath_phase,1564999,GW/soldier.jpg,,,,49,GW/hat.jpg,GW/gong.jpg,0,0.525,,,,GW/gong.jpg,,,,,One Edge Diff,Five Edge Six Edge
null,,html-keyboard-response,1566007,<p></p>,,,,null,,,,,,,,,,,,,,
1309.7999999523163,,shortestpath_phase,1567319,GW/dustpan.jpg,,,,50,GW/jukebox.jpg,GW/barrel.jpg,0,0.5185185185185185,,,,GW/jukebox.jpg,,,,,Two Edge Diff,Two Edge Four Edge
null,,html-keyboard-response,1568323,<p></p>,,,,null,,,,,,,,,,,,,,
1619,,shortestpath_phase,1569945,GW/soldier.jpg,,,,50,GW/dustpan.jpg,GW/barrel.jpg,1,0.524390243902439,,,,GW/barrel.jpg,,,,,Four Edge Diff,Two Edge Six Edge
null,,html-keyboard-response,1570950,<p></p>,,,,null,,,,,,,,,,,,,,
1859.2000000476837,,shortestpath_phase,1572810,GW/gong.jpg,,,,49,GW/soldier.jpg,GW/dustpan.jpg,0,0.5180722891566265,,,,GW/dustpan.jpg,,,,,Three Edge Diff,Three Edge Six Edge
null,,html-keyboard-response,1573814,<p></p>,,,,null,,,,,,,,,,,,,,
1213.1000000238419,,shortestpath_phase,1575029,GW/soldier.jpg,,,,49,GW/basket.jpg,GW/gong.jpg,1,0.5238095238095238,,,,GW/basket.jpg,,,,,One Edge Diff,Four Edge Five Edge
null,,html-keyboard-response,1576032,<p></p>,,,,null,,,,,,,,,,,,,,
1200.7999999523163,,shortestpath_phase,1577235,GW/gong.jpg,,,,49,GW/snail.jpg,GW/globe.jpg,0,0.5176470588235295,,,,GW/globe.jpg,,,,,One Edge Diff,Two Edge Three Edge
null,,html-keyboard-response,1578240,<p></p>,,,,null,,,,,,,,,,,,,,
817.6999999284744,,shortestpath_phase,1579060,GW/soldier.jpg,,,,49,GW/teeth.jpg,GW/jukebox.jpg,0,0.5116279069767442,,,,GW/jukebox.jpg,,,,,One Edge Diff,Four Edge Five Edge
null,,html-keyboard-response,1580064,<p></p>,,,,null,,,,,,,,,,,,,,
474.10000002384186,,shortestpath_phase,1580542,GW/dustpan.jpg,,,,50,GW/wheelchair.jpg,GW/soldier.jpg,0,0.5057471264367817,,,,GW/wheelchair.jpg,,,,,One Edge Diff,Five Edge Six Edge
null,,html-keyboard-response,1581545,<p></p>,,,,null,,,,,,,,,,,,,,
532.2000000476837,,shortestpath_phase,1582078,GW/paint.jpg,,,,50,GW/dustpan.jpg,GW/jukebox.jpg,1,0.5113636363636364,,,,GW/jukebox.jpg,,,,,Two Edge Diff,Two Edge Four Edge
null,,html-keyboard-response,1583082,<p></p>,,,,null,,,,,,,,,,,,,,
456.60000002384186,,shortestpath_phase,1583541,GW/hat.jpg,,,,49,GW/barrel.jpg,GW/globe.jpg,0,0.5056179775280899,,,,GW/globe.jpg,,,,,One Edge Diff,Three Edge Four Edge
null,,html-keyboard-response,1584545,<p></p>,,,,null,,,,,,,,,,,,,,
587.0999999046326,,shortestpath_phase,1585134,GW/soldier.jpg,,,,49,GW/hat.jpg,GW/jukebox.jpg,0,0.5,,,,GW/jukebox.jpg,,,,,Two Edge Diff,Four Edge Six Edge
null,,html-keyboard-response,1586138,<p></p>,,,,null,,,,,,,,,,,,,,
486.10000002384186,,shortestpath_phase,1586627,GW/dustpan.jpg,,,,50,GW/basket.jpg,GW/paint.jpg,0,0.4945054945054945,,,,GW/basket.jpg,,,,,One Edge Diff,Three Edge Four Edge
null,,html-keyboard-response,1587633,<p></p>,,,,null,,,,,,,,,,,,,,
523.7999999523163,,shortestpath_phase,1588159,GW/soldier.jpg,,,,49,GW/paint.jpg,GW/gong.jpg,1,0.5,,,,GW/paint.jpg,,,,,Two Edge Diff,Three Edge Five Edge
null,,html-keyboard-response,1589162,<p></p>,,,,null,,,,,,,,,,,,,,
552.3999999761581,,shortestpath_phase,1589717,GW/camera.jpg,,,,50,GW/wheelchair.jpg,GW/hat.jpg,0,0.4946236559139785,,,,GW/wheelchair.jpg,,,,,Three Edge Diff,Three Edge Six Edge
null,,html-keyboard-response,1590721,<p></p>,,,,null,,,,,,,,,,,,,,
520.1999999284744,,shortestpath_phase,1591243,GW/soldier.jpg,,,,49,GW/barrel.jpg,GW/basket.jpg,1,0.5,,,,GW/barrel.jpg,,,,,Two Edge Diff,Two Edge Four Edge
null,,html-keyboard-response,1592248,<p></p>,,,,null,,,,,,,,,,,,,,
457.10000002384186,,shortestpath_phase,1592707,GW/hat.jpg,,,,50,GW/globe.jpg,GW/teeth.jpg,1,0.5052631578947369,,,,GW/teeth.jpg,,,,,One Edge Diff,Two Edge Three Edge
null,,html-keyboard-response,1593717,<p></p>,,,,null,,,,,,,,,,,,,,
851.8000000715256,,shortestpath_phase,1594572,GW/soldier.jpg,,,,49,GW/hat.jpg,GW/basket.jpg,0,0.5,,,,GW/basket.jpg,,,,,Two Edge Diff,Four Edge Six Edge
null,,html-keyboard-response,1595575,<p></p>,,,,null,,,,,,,,,,,,,,
417.89999997615814,,shortestpath_phase,1595995,GW/wheelchair.jpg,,,,50,GW/globe.jpg,GW/basket.jpg,0,0.4948453608247423,,,,GW/globe.jpg,,,,,One Edge Diff,Two Edge Three Edge
null,,html-keyboard-response,1597000,<p></p>,,,,null,,,,,,,,,,,,,,
975.0999999046326,,shortestpath_phase,1597977,GW/dustpan.jpg,,,,49,GW/barrel.jpg,GW/soldier.jpg,1,0.5,,,,GW/barrel.jpg,,,,,Two Edge Diff,Four Edge Six Edge
null,,html-keyboard-response,1598982,<p></p>,,,,null,,,,,,,,,,,,,,
488.5,,shortestpath_phase,1599473,GW/wheelchair.jpg,,,,50,GW/teeth.jpg,GW/hat.jpg,0,0.494949494949495,,,,GW/teeth.jpg,,,,,One Edge Diff,Four Edge Five Edge
null,,html-keyboard-response,1600480,<p></p>,,,,null,,,,,,,,,,,,,,
818,,shortestpath_phase,1601300,GW/dustpan.jpg,,,,50,GW/barrel.jpg,GW/camera.jpg,0,0.49,,,,GW/barrel.jpg,,,,,Two Edge Diff,Four Edge Six Edge
null,,html-keyboard-response,1602303,<p></p>,,,,null,,,,,,,,,,,,,,
481.2000000476837,,shortestpath_phase,1602786,GW/snail.jpg,,,,49,GW/dustpan.jpg,GW/hat.jpg,0,0.48514851485148514,,,,GW/hat.jpg,,,,,One Edge Diff,Four Edge Five Edge
null,,html-keyboard-response,1603791,<p></p>,,,,null,,,,,,,,,,,,,,
390.5,,shortestpath_phase,1604184,GW/soldier.jpg,,,,50,GW/teeth.jpg,GW/barrel.jpg,1,0.49019607843137253,,,,GW/barrel.jpg,,,,,Three Edge Diff,Three Edge Six Edge
null,,html-keyboard-response,1605188,<p></p>,,,,null,,,,,,,,,,,,,,
561.5,,shortestpath_phase,1605751,GW/dustpan.jpg,,,,49,GW/globe.jpg,GW/snail.jpg,1,0.49514563106796117,,,,GW/globe.jpg,,,,,Two Edge Diff,Three Edge Five Edge
null,,html-keyboard-response,1606755,<p></p>,,,,null,,,,,,,,,,,,,,
746,,shortestpath_phase,1607503,GW/hat.jpg,,,,50,GW/wheelchair.jpg,GW/barrel.jpg,1,0.5,,,,GW/barrel.jpg,,,,,One Edge Diff,Four Edge Five Edge
null,,html-keyboard-response,1608508,<p></p>,,,,null,,,,,,,,,,,,,,
644.1999999284744,,shortestpath_phase,1609156,GW/camera.jpg,,,,49,GW/wheelchair.jpg,GW/dustpan.jpg,1,0.5047619047619047,,,,GW/wheelchair.jpg,,,,,Four Edge Diff,Two Edge Six Edge
null,,html-keyboard-response,1610167,<p></p>,,,,null,,,,,,,,,,,,,,
612.8999999761581,,shortestpath_phase,1610782,GW/snail.jpg,,,,50,GW/hat.jpg,GW/basket.jpg,1,0.5094339622641509,,,,GW/basket.jpg,,,,,Two Edge Diff,Two Edge Four Edge
null,,html-keyboard-response,1611785,<p></p>,,,,null,,,,,,,,,,,,,,
651.5,,shortestpath_phase,1612440,GW/hat.jpg,,,,49,GW/soldier.jpg,GW/camera.jpg,0,0.5046728971962616,,,,GW/camera.jpg,,,,,One Edge Diff,Five Edge Six Edge
null,,html-keyboard-response,1613444,<p></p>,,,,null,,,,,,,,,,,,,,
559.4000000953674,,shortestpath_phase,1614006,GW/teeth.jpg,,,,50,GW/soldier.jpg,GW/basket.jpg,1,0.5092592592592593,,,,GW/basket.jpg,,,,,Three Edge Diff,Two Edge Five Edge
null,,html-keyboard-response,1615009,<p></p>,,,,null,,,,,,,,,,,,,,
909.2999999523163,,shortestpath_phase,1615921,GW/soldier.jpg,,,,50,GW/snail.jpg,GW/dustpan.jpg,0,0.5045871559633027,,,,GW/snail.jpg,,,,,Four Edge Diff,Two Edge Six Edge
null,,html-keyboard-response,1616926,<p></p>,,,,null,,,,,,,,,,,,,,
767.9000000953674,,shortestpath_phase,1617696,GW/wheelchair.jpg,,,,49,GW/dustpan.jpg,GW/camera.jpg,0,0.5,,,,GW/camera.jpg,,,,,Three Edge Diff,Three Edge Six Edge
null,,html-keyboard-response,1618699,<p></p>,,,,null,,,,,,,,,,,,,,
455.39999997615814,,shortestpath_phase,1619157,GW/hat.jpg,,,,50,GW/soldier.jpg,GW/jukebox.jpg,1,0.5045045045045045,,,,GW/jukebox.jpg,,,,,Four Edge Diff,Two Edge Six Edge
null,,html-keyboard-response,1620169,<p></p>,,,,null,,,,,,,,,,,,,,
510.5,,shortestpath_phase,1620683,GW/wheelchair.jpg,,,,49,GW/hat.jpg,GW/globe.jpg,0,0.5,,,,GW/globe.jpg,,,,,Three Edge Diff,Three Edge Six Edge
null,,html-keyboard-response,1621688,<p></p>,,,,null,,,,,,,,,,,,,,
700.1000000238419,,shortestpath_phase,1622391,GW/jukebox.jpg,,,,49,GW/snail.jpg,GW/soldier.jpg,1,0.504424778761062,,,,GW/snail.jpg,,,,,One Edge Diff,Three Edge Four Edge
null,,html-keyboard-response,1623395,<p></p>,,,,null,,,,,,,,,,,,,,
503.40000009536743,,shortestpath_phase,1623901,GW/paint.jpg,,,,50,GW/dustpan.jpg,GW/teeth.jpg,1,0.5087719298245614,,,,GW/teeth.jpg,,,,,One Edge Diff,Three Edge Four Edge
null,,html-keyboard-response,1624903,<p></p>,,,,null,,,,,,,,,,,,,,
542.1999999284744,,shortestpath_phase,1625449,GW/camera.jpg,,,,50,GW/hat.jpg,GW/basket.jpg,1,0.5130434782608696,,,,GW/basket.jpg,,,,,Two Edge Diff,Three Edge Five Edge
null,,html-keyboard-response,1626452,<p></p>,,,,null,,,,,,,,,,,,,,
621.2000000476837,,shortestpath_phase,1627075,GW/dustpan.jpg,,,,49,GW/globe.jpg,GW/wheelchair.jpg,1,0.5172413793103449,,,,GW/globe.jpg,,,,,Two Edge Diff,Three Edge Five Edge
null,,html-keyboard-response,1628079,<p></p>,,,,null,,,,,,,,,,,,,,
383.5,,shortestpath_phase,1628464,GW/camera.jpg,,,,50,GW/dustpan.jpg,GW/teeth.jpg,1,0.5213675213675214,,,,GW/teeth.jpg,,,,,One Edge Diff,Five Edge Six Edge
null,,html-keyboard-response,1629468,<p></p>,,,,null,,,,,,,,,,,,,,
604.3999999761581,,shortestpath_phase,1630076,GW/gong.jpg,,,,50,GW/dustpan.jpg,GW/soldier.jpg,0,0.5169491525423728,,,,GW/dustpan.jpg,,,,,Three Edge Diff,Two Edge Five Edge
null,,html-keyboard-response,1631079,<p></p>,,,,null,,,,,,,,,,,,,,
1413,,shortestpath_phase,1632494,GW/soldier.jpg,,,,49,GW/snail.jpg,GW/jukebox.jpg,1,0.5210084033613446,,,,GW/snail.jpg,,,,,Two Edge Diff,Two Edge Four Edge
null,,html-keyboard-response,1633506,<p></p>,,,,null,,,,,,,,,,,,,,
905.3999999761581,,shortestpath_phase,1634414,GW/hat.jpg,,,,49,GW/wheelchair.jpg,GW/dustpan.jpg,0,0.5166666666666667,,,,GW/dustpan.jpg,,,,,Two Edge Diff,Three Edge Five Edge
null,,html-keyboard-response,1635418,<p></p>,,,,null,,,,,,,,,,,,,,
689.6999999284744,,shortestpath_phase,1636110,GW/barrel.jpg,,,,49,GW/snail.jpg,GW/teeth.jpg,1,0.5206611570247934,,,,GW/snail.jpg,,,,,One Edge Diff,Two Edge Three Edge
null,,html-keyboard-response,1637113,<p></p>,,,,null,,,,,,,,,,,,,,
38924.39999997616,,intro_1,1676039,instruct,,0,,,,,,,,,,,,,,,,
38796.89999997616,,intro_2,1714839,instruct,,1,Next,,,,,,,,,,,,,,,
6180.899999976158,,intro_3,1721023,instruct,,1,Next,,,,,,,,,,,,,,,
