rt,responses,trial_type,time_elapsed,stimulus,graphorder,button_pressed,response,key_press,stimulus_left,stimulus_right,accuracy,cumulative_accuracy,stimulus_down_left,stimulus_down_mid,stimulus_down_right,stimulus_correct,stimulus_short,stimulus_far,weighted_accuracy,missedtrial,condition,specific_pairs
8930,{worker_id:67ce1feb43ee9200186c94b3},id_enter,8932,id_enter,GW/dustpan.jpg; GW/camera.jpg; GW/basket.jpg; GW/gong.jpg; GW/paint.jpg; GW/teeth.jpg; GW/wheelchair.jpg; GW/barrel.jpg; GW/soldier.jpg; GW/globe.jpg; GW/hat.jpg; GW/jukebox.jpg; GW/snail.jpg,,,,,,,,,,,,,,,,,
23796.099999904633,,fullscreen,32732,fullscreen,,0,,,,,,,,,,,,,,,,
23374.399999976158,,intro_1,56107,instruct,,0,,,,,,,,,,,,,,,,
23670.700000047684,,intro_2,79779,instruct,,1,Next,,,,,,,,,,,,,,,
4207.100000023842,,intro_3,83987,instruct,,1,Next,,,,,,,,,,,,,,,
null,,learn_prac_1,85994,lean_prac_1,,,,null,,,,,,,,,,,,,,
null,,html-keyboard-response,86999,<p></p>,,,,null,,,,,,,,,,,,,,
6251.200000047684,,intro_1,93251,instruct,,0,,,,,,,,,,,,,,,,
19687,,intro_2,112939,instruct,,1,Next,,,,,,,,,,,,,,,
null,,learn_prac_2,114941,lean_prac_2,,,,null,,,,,,,,,,,,,,
null,,html-keyboard-response,115944,<p></p>,,,,null,,,,,,,,,,,,,,
7858.100000023842,,intro_1,123803,instruct,,0,,,,,,,,,,,,,,,,
8015.200000047684,,intro_2,131819,instruct,,1,Next,,,,,,,,,,,,,,,
38319.200000047684,,intro_3,170139,instruct,,1,Next,,,,,,,,,,,,,,,
null,,prac_atten_color_black,171103,black_plus_sign,,,,null,,,,,,,,,,,,,,
null,,prac_atten_color,171545,prac_stop_color,,,,null,,,,,,,,,,,,,,
1217.6000000238419,,prac_atten_color_black,173548,black_plus_sign,,,,49,,,,,,,,,,,,,,
null,,prac_atten_color_black,174512,black_plus_sign,,,,null,,,,,,,,,,,,,,
null,,prac_atten_color,174993,prac_stop_color,,,,null,,,,,,,,,,,,,,
345.39999997615814,,prac_atten_color_black,176995,black_plus_sign,,,,50,,,,,,,,,,,,,,
null,,prac_atten_color_black,177921,black_plus_sign,,,,null,,,,,,,,,,,,,,
null,,prac_atten_color,178383,prac_stop_color,,,,null,,,,,,,,,,,,,,
475.5,,prac_atten_color_black,180385,black_plus_sign,,,,50,,,,,,,,,,,,,,
null,,prac_atten_color_black,181335,black_plus_sign,,,,null,,,,,,,,,,,,,,
467.2000000476837,,prac_atten_color,182420,prac_stop_color,,,,49,,,,,,,,,,,,,,
null,,prac_atten_color_black,184422,black_plus_sign,,,,null,,,,,,,,,,,,,,
null,,prac_atten_color_black,184744,black_plus_sign,,,,null,,,,,,,,,,,,,,
null,,prac_atten_color,185295,prac_stop_color,,,,null,,,,,,,,,,,,,,
114.5,,prac_atten_color_black,187297,black_plus_sign,,,,50,,,,,,,,,,,,,,
null,,prac_atten_color_black,188152,black_plus_sign,,,,null,,,,,,,,,,,,,,
962.3999999761581,,prac_atten_color,189245,prac_stop_color,,,,50,,,,,,,,,,,,,,
null,,prac_atten_color_black,191247,black_plus_sign,,,,null,,,,,,,,,,,,,,
null,,prac_atten_color_black,191560,black_plus_sign,,,,null,,,,,,,,,,,,,,
594.7000000476837,,prac_atten_color,192596,prac_stop_color,,,,49,,,,,,,,,,,,,,
null,,prac_atten_color_black,194597,black_plus_sign,,,,null,,,,,,,,,,,,,,
null,,prac_atten_color_black,194966,black_plus_sign,,,,null,,,,,,,,,,,,,,
null,,prac_atten_color,195548,prac_stop_color,,,,null,,,,,,,,,,,,,,
174.5,,prac_atten_color_black,197550,black_plus_sign,,,,50,,,,,,,,,,,,,,
null,,prac_atten_color_black,198373,black_plus_sign,,,,null,,,,,,,,,,,,,,
732.8999999761581,,prac_atten_color,199243,prac_stop_color,,,,49,,,,,,,,,,,,,,
null,,prac_atten_color_black,201246,black_plus_sign,,,,null,,,,,,,,,,,,,,
null,,prac_atten_color_black,201781,black_plus_sign,,,,null,,,,,,,,,,,,,,
null,,prac_atten_color,202326,prac_stop_color,,,,null,,,,,,,,,,,,,,
477.5,,prac_atten_color_black,204327,black_plus_sign,,,,49,,,,,,,,,,,,,,
14441.299999952316,,attentioncheck_feedback,218771,cross_check_feedback,,0,,,,,,,,,,,,,,,,
50080.89999997616,,last_instruct,268853,instruct,,,,32,,,,,,,,,,,,,,
null,,learn_phase(without_color),270855,black_plus_sign,,,,null,GW/camera.jpg,GW/basket.jpg,,,,,,,,,,,,
null,,black_cross(without_color),271518,green,,,,null,GW/camera.jpg,GW/basket.jpg,,,,,,,,,,,,
null,,rt_plussign_withcolor,272020,green,,,,null,GW/camera.jpg,GW/basket.jpg,,,,,,,,,,,,
1620.9000000953674,,rt_thecrossant_black,273373,black_plus_sign,,,,50,,,1,1,,,,,,,,,,
null,,color_black,273474,black_plus_sign,,,,null,,,,,,,,,,,,,,
null,,learn_phase(without_color),275479,black_plus_sign,,,,null,GW/teeth.jpg,GW/wheelchair.jpg,,,,,,,,,,,,
null,,black_cross(without_color),276494,blue,,,,null,GW/teeth.jpg,GW/wheelchair.jpg,,,,,,,,,,,,
null,,rt_plussign_withcolor,276996,blue,,,,null,GW/teeth.jpg,GW/wheelchair.jpg,,,,,,,,,,,,
934.3000000715256,,rt_thecrossant_black,277985,black_plus_sign,,,,49,,,1,1,,,,,,,,,,
null,,color_black,278087,black_plus_sign,,,,null,,,,,,,,,,,,,,
null,,learn_phase(without_color),280090,black_plus_sign,,,,null,GW/camera.jpg,GW/basket.jpg,,,,,,,,,,,,
null,,black_cross(without_color),281031,green,,,,null,GW/camera.jpg,GW/basket.jpg,,,,,,,,,,,,
null,,rt_plussign_withcolor,281532,green,,,,null,GW/camera.jpg,GW/basket.jpg,,,,,,,,,,,,
1849,,rt_thecrossant_black,282596,black_plus_sign,,,,50,,,1,1,,,,,,,,,,
null,,color_black,282699,black_plus_sign,,,,null,,,,,,,,,,,,,,
null,,learn_phase(without_color),284703,black_plus_sign,,,,null,GW/teeth.jpg,GW/wheelchair.jpg,,,,,,,,,,,,
null,,black_cross(without_color),285518,blue,,,,null,GW/teeth.jpg,GW/wheelchair.jpg,,,,,,,,,,,,
null,,rt_plussign_withcolor,286021,blue,,,,null,GW/teeth.jpg,GW/wheelchair.jpg,,,,,,,,,,,,
1497.5,,rt_thecrossant_black,287211,black_plus_sign,,,,49,,,1,1,,,,,,,,,,
null,,color_black,287313,black_plus_sign,,,,null,,,,,,,,,,,,,,
null,,learn_phase(without_color),289316,black_plus_sign,,,,null,GW/barrel.jpg,GW/soldier.jpg,,,,,,,,,,,,
null,,black_cross(without_color),289835,blue,,,,null,GW/barrel.jpg,GW/soldier.jpg,,,,,,,,,,,,
null,,rt_plussign_withcolor,290337,blue,,,,null,GW/barrel.jpg,GW/soldier.jpg,,,,,,,,,,,,
1418.2999999523163,,rt_thecrossant_black,291822,black_plus_sign,,,,49,,,1,1,,,,,,,,,,
null,,color_black,291925,black_plus_sign,,,,null,,,,,,,,,,,,,,
null,,learn_phase(without_color),293928,black_plus_sign,,,,null,GW/gong.jpg,GW/jukebox.jpg,,,,,,,,,,,,
null,,black_cross(without_color),294985,blue,,,,null,GW/gong.jpg,GW/jukebox.jpg,,,,,,,,,,,,
null,,rt_plussign_withcolor,295487,blue,,,,null,GW/gong.jpg,GW/jukebox.jpg,,,,,,,,,,,,
1340.3999999761581,,rt_thecrossant_black,296435,black_plus_sign,,,,49,,,1,1,,,,,,,,,,
null,,color_black,296538,black_plus_sign,,,,null,,,,,,,,,,,,,,
null,,learn_phase(without_color),298540,black_plus_sign,,,,null,GW/camera.jpg,GW/basket.jpg,,,,,,,,,,,,
null,,black_cross(without_color),299505,green,,,,null,GW/camera.jpg,GW/basket.jpg,,,,,,,,,,,,
null,,rt_plussign_withcolor,300008,green,,,,null,GW/camera.jpg,GW/basket.jpg,,,,,,,,,,,,
1357.1000000238419,,rt_thecrossant_black,301048,black_plus_sign,,,,50,,,1,1,,,,,,,,,,
null,,color_black,301151,black_plus_sign,,,,null,,,,,,,,,,,,,,
null,,learn_phase(without_color),303154,black_plus_sign,,,,null,GW/barrel.jpg,GW/soldier.jpg,,,,,,,,,,,,
null,,black_cross(without_color),304103,green,,,,null,GW/barrel.jpg,GW/soldier.jpg,,,,,,,,,,,,
null,,rt_plussign_withcolor,304605,green,,,,null,GW/barrel.jpg,GW/soldier.jpg,,,,,,,,,,,,
1915.7000000476837,,rt_thecrossant_black,305660,black_plus_sign,,,,50,,,1,1,,,,,,,,,,
null,,color_black,305763,black_plus_sign,,,,null,,,,,,,,,,,,,,
null,,learn_phase(without_color),307765,black_plus_sign,,,,null,GW/wheelchair.jpg,GW/snail.jpg,,,,,,,,,,,,
null,,black_cross(without_color),308657,blue,,,,null,GW/wheelchair.jpg,GW/snail.jpg,,,,,,,,,,,,
null,,rt_plussign_withcolor,309159,blue,,,,null,GW/wheelchair.jpg,GW/snail.jpg,,,,,,,,,,,,
1137.5,,rt_thecrossant_black,310272,black_plus_sign,,,,49,,,1,1,,,,,,,,,,
null,,color_black,310374,black_plus_sign,,,,null,,,,,,,,,,,,,,
null,,learn_phase(without_color),312377,black_plus_sign,,,,null,GW/basket.jpg,GW/teeth.jpg,,,,,,,,,,,,
null,,black_cross(without_color),313215,blue,,,,null,GW/basket.jpg,GW/teeth.jpg,,,,,,,,,,,,
null,,rt_plussign_withcolor,313717,blue,,,,null,GW/basket.jpg,GW/teeth.jpg,,,,,,,,,,,,
1611.5,,rt_thecrossant_black,314885,black_plus_sign,,,,49,,,1,1,,,,,,,,,,
null,,color_black,314988,black_plus_sign,,,,null,,,,,,,,,,,,,,
null,,learn_phase(without_color),316991,black_plus_sign,,,,null,GW/teeth.jpg,GW/wheelchair.jpg,,,,,,,,,,,,
null,,black_cross(without_color),317636,blue,,,,null,GW/teeth.jpg,GW/wheelchair.jpg,,,,,,,,,,,,
null,,rt_plussign_withcolor,318138,blue,,,,null,GW/teeth.jpg,GW/wheelchair.jpg,,,,,,,,,,,,
1399.3999999761581,,rt_thecrossant_black,319498,black_plus_sign,,,,49,,,1,1,,,,,,,,,,
null,,color_black,319601,black_plus_sign,,,,null,,,,,,,,,,,,,,
null,,learn_phase(without_color),321604,black_plus_sign,,,,null,GW/hat.jpg,GW/jukebox.jpg,,,,,,,,,,,,
null,,black_cross(without_color),322249,green,,,,null,GW/hat.jpg,GW/jukebox.jpg,,,,,,,,,,,,
null,,rt_plussign_withcolor,322751,green,,,,null,GW/hat.jpg,GW/jukebox.jpg,,,,,,,,,,,,
922.5,,rt_thecrossant_black,324111,black_plus_sign,,,,50,,,1,1,,,,,,,,,,
null,,color_black,324213,black_plus_sign,,,,null,,,,,,,,,,,,,,
null,,learn_phase(without_color),326216,black_plus_sign,,,,null,GW/wheelchair.jpg,GW/snail.jpg,,,,,,,,,,,,
null,,black_cross(without_color),326711,blue,,,,null,GW/wheelchair.jpg,GW/snail.jpg,,,,,,,,,,,,
null,,rt_plussign_withcolor,327214,blue,,,,null,GW/wheelchair.jpg,GW/snail.jpg,,,,,,,,,,,,
987.7000000476837,,rt_thecrossant_black,328723,black_plus_sign,,,,49,,,1,1,,,,,,,,,,
null,,color_black,328825,black_plus_sign,,,,null,,,,,,,,,,,,,,
null,,learn_phase(without_color),330829,black_plus_sign,,,,null,GW/wheelchair.jpg,GW/soldier.jpg,,,,,,,,,,,,
null,,black_cross(without_color),331761,green,,,,null,GW/wheelchair.jpg,GW/soldier.jpg,,,,,,,,,,,,
null,,rt_plussign_withcolor,332263,green,,,,null,GW/wheelchair.jpg,GW/soldier.jpg,,,,,,,,,,,,
836.3999999761581,,rt_thecrossant_black,333337,black_plus_sign,,,,50,,,1,1,,,,,,,,,,
null,,color_black,333439,black_plus_sign,,,,null,,,,,,,,,,,,,,
null,,learn_phase(without_color),335443,black_plus_sign,,,,null,GW/gong.jpg,GW/paint.jpg,,,,,,,,,,,,
null,,black_cross(without_color),336253,blue,,,,null,GW/gong.jpg,GW/paint.jpg,,,,,,,,,,,,
null,,rt_plussign_withcolor,336754,blue,,,,null,GW/gong.jpg,GW/paint.jpg,,,,,,,,,,,,
1221.6000000238419,,rt_thecrossant_black,337949,black_plus_sign,,,,49,,,1,1,,,,,,,,,,
null,,color_black,338051,black_plus_sign,,,,null,,,,,,,,,,,,,,
null,,learn_phase(without_color),340054,black_plus_sign,,,,null,GW/teeth.jpg,GW/wheelchair.jpg,,,,,,,,,,,,
null,,black_cross(without_color),341102,green,,,,null,GW/teeth.jpg,GW/wheelchair.jpg,,,,,,,,,,,,
null,,rt_plussign_withcolor,341604,green,,,,null,GW/teeth.jpg,GW/wheelchair.jpg,,,,,,,,,,,,
1138.5,,rt_thecrossant_black,342569,black_plus_sign,,,,50,,,1,1,,,,,,,,,,
null,,color_black,342671,black_plus_sign,,,,null,,,,,,,,,,,,,,
null,,learn_phase(without_color),344674,black_plus_sign,,,,null,GW/gong.jpg,GW/paint.jpg,,,,,,,,,,,,
null,,black_cross(without_color),345667,blue,,,,null,GW/gong.jpg,GW/paint.jpg,,,,,,,,,,,,
null,,rt_plussign_withcolor,346169,blue,,,,null,GW/gong.jpg,GW/paint.jpg,,,,,,,,,,,,
1435.7000000476837,,rt_thecrossant_black,347182,black_plus_sign,,,,49,,,1,1,,,,,,,,,,
null,,color_black,347284,black_plus_sign,,,,null,,,,,,,,,,,,,,
null,,learn_phase(without_color),349287,black_plus_sign,,,,null,GW/barrel.jpg,GW/globe.jpg,,,,,,,,,,,,
null,,black_cross(without_color),350224,blue,,,,null,GW/barrel.jpg,GW/globe.jpg,,,,,,,,,,,,
null,,rt_plussign_withcolor,350727,blue,,,,null,GW/barrel.jpg,GW/globe.jpg,,,,,,,,,,,,
1685.7000000476837,,rt_thecrossant_black,351796,black_plus_sign,,,,49,,,1,1,,,,,,,,,,
null,,color_black,351899,black_plus_sign,,,,null,,,,,,,,,,,,,,
null,,learn_phase(without_color),353902,black_plus_sign,,,,null,GW/camera.jpg,GW/basket.jpg,,,,,,,,,,,,
null,,black_cross(without_color),354674,blue,,,,null,GW/camera.jpg,GW/basket.jpg,,,,,,,,,,,,
null,,rt_plussign_withcolor,355175,blue,,,,null,GW/camera.jpg,GW/basket.jpg,,,,,,,,,,,,
1966.7999999523163,,rt_thecrossant_black,356407,black_plus_sign,,,,49,,,1,1,,,,,,,,,,
null,,color_black,356513,black_plus_sign,,,,null,,,,,,,,,,,,,,
null,,learn_phase(without_color),358517,black_plus_sign,,,,null,GW/wheelchair.jpg,GW/snail.jpg,,,,,,,,,,,,
null,,black_cross(without_color),359030,green,,,,null,GW/wheelchair.jpg,GW/snail.jpg,,,,,,,,,,,,
null,,rt_plussign_withcolor,359532,green,,,,null,GW/wheelchair.jpg,GW/snail.jpg,,,,,,,,,,,,
1381.2000000476837,,rt_thecrossant_black,361023,black_plus_sign,,,,50,,,1,1,,,,,,,,,,
null,,color_black,361126,black_plus_sign,,,,null,,,,,,,,,,,,,,
null,,learn_phase(without_color),363129,black_plus_sign,,,,null,GW/basket.jpg,GW/hat.jpg,,,,,,,,,,,,
null,,black_cross(without_color),364160,green,,,,null,GW/basket.jpg,GW/hat.jpg,,,,,,,,,,,,
null,,rt_plussign_withcolor,364662,green,,,,null,GW/basket.jpg,GW/hat.jpg,,,,,,,,,,,,
800.1000000238419,,rt_thecrossant_black,365637,black_plus_sign,,,,50,,,1,1,,,,,,,,,,
null,,color_black,365739,black_plus_sign,,,,null,,,,,,,,,,,,,,
null,,learn_phase(without_color),367742,black_plus_sign,,,,null,GW/camera.jpg,GW/gong.jpg,,,,,,,,,,,,
null,,black_cross(without_color),368758,green,,,,null,GW/camera.jpg,GW/gong.jpg,,,,,,,,,,,,
null,,rt_plussign_withcolor,369260,green,,,,null,GW/camera.jpg,GW/gong.jpg,,,,,,,,,,,,
1349.8999999761581,,rt_thecrossant_black,370249,black_plus_sign,,,,50,,,1,1,,,,,,,,,,
null,,color_black,370352,black_plus_sign,,,,null,,,,,,,,,,,,,,
null,,learn_phase(without_color),372355,black_plus_sign,,,,null,GW/hat.jpg,GW/jukebox.jpg,,,,,,,,,,,,
null,,black_cross(without_color),373213,green,,,,null,GW/hat.jpg,GW/jukebox.jpg,,,,,,,,,,,,
null,,rt_plussign_withcolor,373715,green,,,,null,GW/hat.jpg,GW/jukebox.jpg,,,,,,,,,,,,
1489.7000000476837,,rt_thecrossant_black,374861,black_plus_sign,,,,50,,,1,1,,,,,,,,,,
null,,color_black,374964,black_plus_sign,,,,null,,,,,,,,,,,,,,
null,,learn_phase(without_color),376967,black_plus_sign,,,,null,GW/wheelchair.jpg,GW/snail.jpg,,,,,,,,,,,,
null,,black_cross(without_color),377425,green,,,,null,GW/wheelchair.jpg,GW/snail.jpg,,,,,,,,,,,,
null,,rt_plussign_withcolor,377928,green,,,,null,GW/wheelchair.jpg,GW/snail.jpg,,,,,,,,,,,,
1381.8999999761581,,rt_thecrossant_black,379475,black_plus_sign,,,,50,,,1,1,,,,,,,,,,
null,,color_black,379578,black_plus_sign,,,,null,,,,,,,,,,,,,,
null,,learn_phase(without_color),381582,black_plus_sign,,,,null,GW/camera.jpg,GW/gong.jpg,,,,,,,,,,,,
null,,black_cross(without_color),381999,blue,,,,null,GW/camera.jpg,GW/gong.jpg,,,,,,,,,,,,
null,,rt_plussign_withcolor,382501,blue,,,,null,GW/camera.jpg,GW/gong.jpg,,,,,,,,,,,,
713.2000000476837,,rt_thecrossant_black,384089,black_plus_sign,,,,49,,,1,1,,,,,,,,,,
null,,color_black,384192,black_plus_sign,,,,null,,,,,,,,,,,,,,
null,,learn_phase(without_color),386196,black_plus_sign,,,,null,GW/basket.jpg,GW/hat.jpg,,,,,,,,,,,,
null,,black_cross(without_color),386910,blue,,,,null,GW/basket.jpg,GW/hat.jpg,,,,,,,,,,,,
null,,rt_plussign_withcolor,387414,blue,,,,null,GW/basket.jpg,GW/hat.jpg,,,,,,,,,,,,
1014.2999999523163,,rt_thecrossant_black,388705,black_plus_sign,,,,49,,,1,1,,,,,,,,,,
null,,color_black,388808,black_plus_sign,,,,null,,,,,,,,,,,,,,
null,,learn_phase(without_color),390812,black_plus_sign,,,,null,GW/hat.jpg,GW/jukebox.jpg,,,,,,,,,,,,
null,,black_cross(without_color),391258,green,,,,null,GW/hat.jpg,GW/jukebox.jpg,,,,,,,,,,,,
null,,rt_plussign_withcolor,391761,green,,,,null,GW/hat.jpg,GW/jukebox.jpg,,,,,,,,,,,,
1022.2000000476837,,rt_thecrossant_black,393319,black_plus_sign,,,,50,,,1,1,,,,,,,,,,
null,,color_black,393421,black_plus_sign,,,,null,,,,,,,,,,,,,,
null,,learn_phase(without_color),395424,black_plus_sign,,,,null,GW/wheelchair.jpg,GW/barrel.jpg,,,,,,,,,,,,
null,,black_cross(without_color),396217,blue,,,,null,GW/wheelchair.jpg,GW/barrel.jpg,,,,,,,,,,,,
null,,rt_plussign_withcolor,396720,blue,,,,null,GW/wheelchair.jpg,GW/barrel.jpg,,,,,,,,,,,,
930.1000000238419,,rt_thecrossant_black,397933,black_plus_sign,,,,49,,,1,1,,,,,,,,,,
null,,color_black,398035,black_plus_sign,,,,null,,,,,,,,,,,,,,
null,,learn_phase(without_color),400037,black_plus_sign,,,,null,GW/teeth.jpg,GW/soldier.jpg,,,,,,,,,,,,
null,,black_cross(without_color),400688,green,,,,null,GW/teeth.jpg,GW/soldier.jpg,,,,,,,,,,,,
null,,rt_plussign_withcolor,401189,green,,,,null,GW/teeth.jpg,GW/soldier.jpg,,,,,,,,,,,,
1376.5,,rt_thecrossant_black,402543,black_plus_sign,,,,50,,,1,1,,,,,,,,,,
null,,color_black,402646,black_plus_sign,,,,null,,,,,,,,,,,,,,
null,,learn_phase(without_color),404649,black_plus_sign,,,,null,GW/dustpan.jpg,GW/camera.jpg,,,,,,,,,,,,
null,,black_cross(without_color),405318,green,,,,null,GW/dustpan.jpg,GW/camera.jpg,,,,,,,,,,,,
null,,rt_plussign_withcolor,405821,green,,,,null,GW/dustpan.jpg,GW/camera.jpg,,,,,,,,,,,,
1138.5,,rt_thecrossant_black,407158,black_plus_sign,,,,50,,,1,1,,,,,,,,,,
null,,color_black,407260,black_plus_sign,,,,null,,,,,,,,,,,,,,
null,,learn_phase(without_color),409263,black_plus_sign,,,,null,GW/soldier.jpg,GW/hat.jpg,,,,,,,,,,,,
null,,black_cross(without_color),409869,blue,,,,null,GW/soldier.jpg,GW/hat.jpg,,,,,,,,,,,,
null,,rt_plussign_withcolor,410371,blue,,,,null,GW/soldier.jpg,GW/hat.jpg,,,,,,,,,,,,
1067.7999999523163,,rt_thecrossant_black,411772,black_plus_sign,,,,49,,,1,1,,,,,,,,,,
null,,color_black,411874,black_plus_sign,,,,null,,,,,,,,,,,,,,
null,,learn_phase(without_color),413877,black_plus_sign,,,,null,GW/barrel.jpg,GW/globe.jpg,,,,,,,,,,,,
null,,black_cross(without_color),414969,green,,,,null,GW/barrel.jpg,GW/globe.jpg,,,,,,,,,,,,
null,,rt_plussign_withcolor,415471,green,,,,null,GW/barrel.jpg,GW/globe.jpg,,,,,,,,,,,,
1027.2999999523163,,rt_thecrossant_black,416384,black_plus_sign,,,,50,,,1,1,,,,,,,,,,
null,,color_black,416487,black_plus_sign,,,,null,,,,,,,,,,,,,,
null,,learn_phase(without_color),418490,black_plus_sign,,,,null,GW/teeth.jpg,GW/wheelchair.jpg,,,,,,,,,,,,
null,,black_cross(without_color),419176,blue,,,,null,GW/teeth.jpg,GW/wheelchair.jpg,,,,,,,,,,,,
null,,rt_plussign_withcolor,419678,blue,,,,null,GW/teeth.jpg,GW/wheelchair.jpg,,,,,,,,,,,,
null,,rt_thecrossant_black,420998,black_plus_sign,,,,null,,,,1,,,,,,,,,,
null,,color_black,421100,black_plus_sign,,,,null,,,,,,,,,,,,,,
null,,learn_phase(without_color),423104,black_plus_sign,,,,null,GW/basket.jpg,GW/hat.jpg,,,,,,,,,,,,
null,,black_cross(without_color),423825,green,,,,null,GW/basket.jpg,GW/hat.jpg,,,,,,,,,,,,
null,,rt_plussign_withcolor,424327,green,,,,null,GW/basket.jpg,GW/hat.jpg,,,,,,,,,,,,
978.3999999761581,,rt_thecrossant_black,425613,black_plus_sign,,,,50,,,1,1,,,,,,,,,,
null,,color_black,425723,black_plus_sign,,,,null,,,,,,,,,,,,,,
null,,learn_phase(without_color),427725,black_plus_sign,,,,null,GW/gong.jpg,GW/jukebox.jpg,,,,,,,,,,,,
null,,black_cross(without_color),428368,blue,,,,null,GW/gong.jpg,GW/jukebox.jpg,,,,,,,,,,,,
null,,rt_plussign_withcolor,428871,blue,,,,null,GW/gong.jpg,GW/jukebox.jpg,,,,,,,,,,,,
1061.2999999523163,,rt_thecrossant_black,430234,black_plus_sign,,,,49,,,1,1,,,,,,,,,,
null,,color_black,430336,black_plus_sign,,,,null,,,,,,,,,,,,,,
null,,learn_phase(without_color),432339,black_plus_sign,,,,null,GW/wheelchair.jpg,GW/soldier.jpg,,,,,,,,,,,,
null,,black_cross(without_color),432952,blue,,,,null,GW/wheelchair.jpg,GW/soldier.jpg,,,,,,,,,,,,
null,,rt_plussign_withcolor,433454,blue,,,,null,GW/wheelchair.jpg,GW/soldier.jpg,,,,,,,,,,,,
1160.8000000715256,,rt_thecrossant_black,434847,black_plus_sign,,,,49,,,1,1,,,,,,,,,,
null,,color_black,434949,black_plus_sign,,,,null,,,,,,,,,,,,,,
null,,learn_phase(without_color),436952,black_plus_sign,,,,null,GW/dustpan.jpg,GW/camera.jpg,,,,,,,,,,,,
null,,black_cross(without_color),437429,green,,,,null,GW/dustpan.jpg,GW/camera.jpg,,,,,,,,,,,,
null,,rt_plussign_withcolor,437931,green,,,,null,GW/dustpan.jpg,GW/camera.jpg,,,,,,,,,,,,
758.3999999761581,,rt_thecrossant_black,439460,black_plus_sign,,,,50,,,1,1,,,,,,,,,,
null,,color_black,439563,black_plus_sign,,,,null,,,,,,,,,,,,,,
null,,learn_phase(without_color),441567,black_plus_sign,,,,null,GW/wheelchair.jpg,GW/soldier.jpg,,,,,,,,,,,,
null,,black_cross(without_color),442281,green,,,,null,GW/wheelchair.jpg,GW/soldier.jpg,,,,,,,,,,,,
null,,rt_plussign_withcolor,442783,green,,,,null,GW/wheelchair.jpg,GW/soldier.jpg,,,,,,,,,,,,
753.2000000476837,,rt_thecrossant_black,444074,black_plus_sign,,,,50,,,1,1,,,,,,,,,,
null,,color_black,444176,black_plus_sign,,,,null,,,,,,,,,,,,,,
null,,learn_phase(without_color),446180,black_plus_sign,,,,null,GW/teeth.jpg,GW/soldier.jpg,,,,,,,,,,,,
null,,black_cross(without_color),446975,green,,,,null,GW/teeth.jpg,GW/soldier.jpg,,,,,,,,,,,,
null,,rt_plussign_withcolor,447477,green,,,,null,GW/teeth.jpg,GW/soldier.jpg,,,,,,,,,,,,
1234.3999999761581,,rt_thecrossant_black,448687,black_plus_sign,,,,50,,,1,1,,,,,,,,,,
null,,color_black,448790,black_plus_sign,,,,null,,,,,,,,,,,,,,
null,,learn_phase(without_color),450792,black_plus_sign,,,,null,GW/camera.jpg,GW/gong.jpg,,,,,,,,,,,,
null,,black_cross(without_color),451702,green,,,,null,GW/camera.jpg,GW/gong.jpg,,,,,,,,,,,,
null,,rt_plussign_withcolor,452204,green,,,,null,GW/camera.jpg,GW/gong.jpg,,,,,,,,,,,,
1002.7000000476837,,rt_thecrossant_black,453300,black_plus_sign,,,,50,,,1,1,,,,,,,,,,
null,,color_black,453402,black_plus_sign,,,,null,,,,,,,,,,,,,,
null,,learn_phase(without_color),455404,black_plus_sign,,,,null,GW/barrel.jpg,GW/soldier.jpg,,,,,,,,,,,,
null,,black_cross(without_color),455895,green,,,,null,GW/barrel.jpg,GW/soldier.jpg,,,,,,,,,,,,
null,,rt_plussign_withcolor,456398,green,,,,null,GW/barrel.jpg,GW/soldier.jpg,,,,,,,,,,,,
1219.5,,rt_thecrossant_black,457911,black_plus_sign,,,,50,,,1,1,,,,,,,,,,
null,,color_black,458013,black_plus_sign,,,,null,,,,,,,,,,,,,,
null,,learn_phase(without_color),460016,black_plus_sign,,,,null,GW/wheelchair.jpg,GW/soldier.jpg,,,,,,,,,,,,
null,,black_cross(without_color),460763,blue,,,,null,GW/wheelchair.jpg,GW/soldier.jpg,,,,,,,,,,,,
null,,rt_plussign_withcolor,461264,blue,,,,null,GW/wheelchair.jpg,GW/soldier.jpg,,,,,,,,,,,,
975.6000000238419,,rt_thecrossant_black,462523,black_plus_sign,,,,49,,,1,1,,,,,,,,,,
null,,color_black,462625,black_plus_sign,,,,null,,,,,,,,,,,,,,
null,,learn_phase(without_color),464628,black_plus_sign,,,,null,GW/dustpan.jpg,GW/camera.jpg,,,,,,,,,,,,
null,,black_cross(without_color),465598,green,,,,null,GW/dustpan.jpg,GW/camera.jpg,,,,,,,,,,,,
null,,rt_plussign_withcolor,466100,green,,,,null,GW/dustpan.jpg,GW/camera.jpg,,,,,,,,,,,,
1018.5,,rt_thecrossant_black,467135,black_plus_sign,,,,50,,,1,1,,,,,,,,,,
null,,color_black,467238,black_plus_sign,,,,null,,,,,,,,,,,,,,
null,,learn_phase(without_color),469241,black_plus_sign,,,,null,GW/camera.jpg,GW/gong.jpg,,,,,,,,,,,,
null,,black_cross(without_color),469853,blue,,,,null,GW/camera.jpg,GW/gong.jpg,,,,,,,,,,,,
null,,rt_plussign_withcolor,470355,blue,,,,null,GW/camera.jpg,GW/gong.jpg,,,,,,,,,,,,
1626.1000000238419,,rt_thecrossant_black,471752,black_plus_sign,,,,49,,,1,1,,,,,,,,,,
null,,color_black,471854,black_plus_sign,,,,null,,,,,,,,,,,,,,
null,,learn_phase(without_color),473856,black_plus_sign,,,,null,GW/wheelchair.jpg,GW/soldier.jpg,,,,,,,,,,,,
null,,black_cross(without_color),474648,green,,,,null,GW/wheelchair.jpg,GW/soldier.jpg,,,,,,,,,,,,
null,,rt_plussign_withcolor,475150,green,,,,null,GW/wheelchair.jpg,GW/soldier.jpg,,,,,,,,,,,,
1105.6000000238419,,rt_thecrossant_black,476364,black_plus_sign,,,,50,,,1,1,,,,,,,,,,
null,,color_black,476466,black_plus_sign,,,,null,,,,,,,,,,,,,,
null,,learn_phase(without_color),478470,black_plus_sign,,,,null,GW/camera.jpg,GW/gong.jpg,,,,,,,,,,,,
null,,black_cross(without_color),479331,green,,,,null,GW/camera.jpg,GW/gong.jpg,,,,,,,,,,,,
null,,rt_plussign_withcolor,479833,green,,,,null,GW/camera.jpg,GW/gong.jpg,,,,,,,,,,,,
1114.1000000238419,,rt_thecrossant_black,480977,black_plus_sign,,,,50,,,1,1,,,,,,,,,,
null,,color_black,481080,black_plus_sign,,,,null,,,,,,,,,,,,,,
null,,learn_phase(without_color),483083,black_plus_sign,,,,null,GW/gong.jpg,GW/jukebox.jpg,,,,,,,,,,,,
null,,black_cross(without_color),483908,blue,,,,null,GW/gong.jpg,GW/jukebox.jpg,,,,,,,,,,,,
null,,rt_plussign_withcolor,484410,blue,,,,null,GW/gong.jpg,GW/jukebox.jpg,,,,,,,,,,,,
1302.8999999761581,,rt_thecrossant_black,485590,black_plus_sign,,,,49,,,1,1,,,,,,,,,,
null,,color_black,485694,black_plus_sign,,,,null,,,,,,,,,,,,,,
null,,learn_phase(without_color),487697,black_plus_sign,,,,null,GW/basket.jpg,GW/teeth.jpg,,,,,,,,,,,,
null,,black_cross(without_color),488578,green,,,,null,GW/basket.jpg,GW/teeth.jpg,,,,,,,,,,,,
null,,rt_plussign_withcolor,489080,green,,,,null,GW/basket.jpg,GW/teeth.jpg,,,,,,,,,,,,
1309.6000000238419,,rt_thecrossant_black,490205,black_plus_sign,,,,50,,,1,1,,,,,,,,,,
null,,color_black,490308,black_plus_sign,,,,null,,,,,,,,,,,,,,
null,,learn_phase(without_color),492311,black_plus_sign,,,,null,GW/teeth.jpg,GW/soldier.jpg,,,,,,,,,,,,
null,,black_cross(without_color),493409,blue,,,,null,GW/teeth.jpg,GW/soldier.jpg,,,,,,,,,,,,
null,,rt_plussign_withcolor,493911,blue,,,,null,GW/teeth.jpg,GW/soldier.jpg,,,,,,,,,,,,
1205.2999999523163,,rt_thecrossant_black,494821,black_plus_sign,,,,49,,,1,1,,,,,,,,,,
null,,color_black,494923,black_plus_sign,,,,null,,,,,,,,,,,,,,
null,,learn_phase(without_color),496927,black_plus_sign,,,,null,GW/wheelchair.jpg,GW/soldier.jpg,,,,,,,,,,,,
null,,black_cross(without_color),497963,green,,,,null,GW/wheelchair.jpg,GW/soldier.jpg,,,,,,,,,,,,
null,,rt_plussign_withcolor,498465,green,,,,null,GW/wheelchair.jpg,GW/soldier.jpg,,,,,,,,,,,,
1451.3999999761581,,rt_thecrossant_black,499434,black_plus_sign,,,,50,,,1,1,,,,,,,,,,
null,,color_black,499536,black_plus_sign,,,,null,,,,,,,,,,,,,,
null,,learn_phase(without_color),501540,black_plus_sign,,,,null,GW/gong.jpg,GW/paint.jpg,,,,,,,,,,,,
null,,black_cross(without_color),502128,blue,,,,null,GW/gong.jpg,GW/paint.jpg,,,,,,,,,,,,
null,,rt_plussign_withcolor,502630,blue,,,,null,GW/gong.jpg,GW/paint.jpg,,,,,,,,,,,,
1763,,rt_thecrossant_black,504047,black_plus_sign,,,,49,,,1,1,,,,,,,,,,
null,,color_black,504150,black_plus_sign,,,,null,,,,,,,,,,,,,,
null,,learn_phase(without_color),506153,black_plus_sign,,,,null,GW/gong.jpg,GW/jukebox.jpg,,,,,,,,,,,,
null,,black_cross(without_color),506595,blue,,,,null,GW/gong.jpg,GW/jukebox.jpg,,,,,,,,,,,,
null,,rt_plussign_withcolor,507097,blue,,,,null,GW/gong.jpg,GW/jukebox.jpg,,,,,,,,,,,,
967,,rt_thecrossant_black,508660,black_plus_sign,,,,49,,,1,1,,,,,,,,,,
null,,color_black,508762,black_plus_sign,,,,null,,,,,,,,,,,,,,
null,,learn_phase(without_color),510765,black_plus_sign,,,,null,GW/barrel.jpg,GW/globe.jpg,,,,,,,,,,,,
null,,black_cross(without_color),511446,green,,,,null,GW/barrel.jpg,GW/globe.jpg,,,,,,,,,,,,
null,,rt_plussign_withcolor,511949,green,,,,null,GW/barrel.jpg,GW/globe.jpg,,,,,,,,,,,,
873.5,,rt_thecrossant_black,513273,black_plus_sign,,,,50,,,1,1,,,,,,,,,,
null,,color_black,513375,black_plus_sign,,,,null,,,,,,,,,,,,,,
null,,learn_phase(without_color),515377,black_plus_sign,,,,null,GW/dustpan.jpg,GW/camera.jpg,,,,,,,,,,,,
null,,black_cross(without_color),516282,green,,,,null,GW/dustpan.jpg,GW/camera.jpg,,,,,,,,,,,,
null,,rt_plussign_withcolor,516785,green,,,,null,GW/dustpan.jpg,GW/camera.jpg,,,,,,,,,,,,
892.8999999761581,,rt_thecrossant_black,517884,black_plus_sign,,,,50,,,1,1,,,,,,,,,,
null,,color_black,517987,black_plus_sign,,,,null,,,,,,,,,,,,,,
null,,learn_phase(without_color),519989,black_plus_sign,,,,null,GW/teeth.jpg,GW/soldier.jpg,,,,,,,,,,,,
null,,black_cross(without_color),520873,blue,,,,null,GW/teeth.jpg,GW/soldier.jpg,,,,,,,,,,,,
null,,rt_plussign_withcolor,521375,blue,,,,null,GW/teeth.jpg,GW/soldier.jpg,,,,,,,,,,,,
1413.8000000715256,,rt_thecrossant_black,522497,black_plus_sign,,,,49,,,1,1,,,,,,,,,,
null,,color_black,522600,black_plus_sign,,,,null,,,,,,,,,,,,,,
null,,learn_phase(without_color),524604,black_plus_sign,,,,null,GW/wheelchair.jpg,GW/soldier.jpg,,,,,,,,,,,,
null,,black_cross(without_color),525559,green,,,,null,GW/wheelchair.jpg,GW/soldier.jpg,,,,,,,,,,,,
null,,rt_plussign_withcolor,526061,green,,,,null,GW/wheelchair.jpg,GW/soldier.jpg,,,,,,,,,,,,
1138,,rt_thecrossant_black,527111,black_plus_sign,,,,50,,,1,1,,,,,,,,,,
null,,color_black,527213,black_plus_sign,,,,null,,,,,,,,,,,,,,
null,,learn_phase(without_color),529216,black_plus_sign,,,,null,GW/gong.jpg,GW/jukebox.jpg,,,,,,,,,,,,
null,,black_cross(without_color),529695,blue,,,,null,GW/gong.jpg,GW/jukebox.jpg,,,,,,,,,,,,
null,,rt_plussign_withcolor,530197,blue,,,,null,GW/gong.jpg,GW/jukebox.jpg,,,,,,,,,,,,
1466.5,,rt_thecrossant_black,531724,black_plus_sign,,,,49,,,1,1,,,,,,,,,,
null,,color_black,531827,black_plus_sign,,,,null,,,,,,,,,,,,,,
null,,learn_phase(without_color),533831,black_plus_sign,,,,null,GW/soldier.jpg,GW/hat.jpg,,,,,,,,,,,,
null,,black_cross(without_color),534443,green,,,,null,GW/soldier.jpg,GW/hat.jpg,,,,,,,,,,,,
null,,rt_plussign_withcolor,534946,green,,,,null,GW/soldier.jpg,GW/hat.jpg,,,,,,,,,,,,
816.3999999761581,,rt_thecrossant_black,536339,black_plus_sign,,,,50,,,1,1,,,,,,,,,,
null,,color_black,536441,black_plus_sign,,,,null,,,,,,,,,,,,,,
null,,learn_phase(without_color),538444,black_plus_sign,,,,null,GW/basket.jpg,GW/hat.jpg,,,,,,,,,,,,
null,,black_cross(without_color),538938,blue,,,,null,GW/basket.jpg,GW/hat.jpg,,,,,,,,,,,,
null,,rt_plussign_withcolor,539440,blue,,,,null,GW/basket.jpg,GW/hat.jpg,,,,,,,,,,,,
872.2000000476837,,rt_thecrossant_black,540952,black_plus_sign,,,,49,,,1,1,,,,,,,,,,
null,,color_black,541054,black_plus_sign,,,,null,,,,,,,,,,,,,,
null,,learn_phase(without_color),543057,black_plus_sign,,,,null,GW/camera.jpg,GW/basket.jpg,,,,,,,,,,,,
null,,black_cross(without_color),543525,blue,,,,null,GW/camera.jpg,GW/basket.jpg,,,,,,,,,,,,
null,,rt_plussign_withcolor,544027,blue,,,,null,GW/camera.jpg,GW/basket.jpg,,,,,,,,,,,,
975.2000000476837,,rt_thecrossant_black,545564,black_plus_sign,,,,49,,,1,1,,,,,,,,,,
null,,color_black,545667,black_plus_sign,,,,null,,,,,,,,,,,,,,
null,,learn_phase(without_color),547671,black_plus_sign,,,,null,GW/barrel.jpg,GW/globe.jpg,,,,,,,,,,,,
null,,black_cross(without_color),548138,green,,,,null,GW/barrel.jpg,GW/globe.jpg,,,,,,,,,,,,
null,,rt_plussign_withcolor,548641,green,,,,null,GW/barrel.jpg,GW/globe.jpg,,,,,,,,,,,,
799.7000000476837,,rt_thecrossant_black,550178,black_plus_sign,,,,50,,,1,1,,,,,,,,,,
null,,color_black,550281,black_plus_sign,,,,null,,,,,,,,,,,,,,
null,,learn_phase(without_color),552284,black_plus_sign,,,,null,GW/wheelchair.jpg,GW/barrel.jpg,,,,,,,,,,,,
null,,black_cross(without_color),553246,green,,,,null,GW/wheelchair.jpg,GW/barrel.jpg,,,,,,,,,,,,
null,,rt_plussign_withcolor,553749,green,,,,null,GW/wheelchair.jpg,GW/barrel.jpg,,,,,,,,,,,,
602.1999999284744,,rt_thecrossant_black,554793,black_plus_sign,,,,50,,,1,1,,,,,,,,,,
null,,color_black,554900,black_plus_sign,,,,null,,,,,,,,,,,,,,
null,,learn_phase(without_color),556903,black_plus_sign,,,,null,GW/teeth.jpg,GW/wheelchair.jpg,,,,,,,,,,,,
null,,black_cross(without_color),557845,green,,,,null,GW/teeth.jpg,GW/wheelchair.jpg,,,,,,,,,,,,
null,,rt_plussign_withcolor,558347,green,,,,null,GW/teeth.jpg,GW/wheelchair.jpg,,,,,,,,,,,,
1530.7000000476837,,rt_thecrossant_black,559411,black_plus_sign,,,,50,,,1,1,,,,,,,,,,
null,,color_black,559513,black_plus_sign,,,,null,,,,,,,,,,,,,,
null,,learn_phase(without_color),561516,black_plus_sign,,,,null,GW/barrel.jpg,GW/globe.jpg,,,,,,,,,,,,
null,,black_cross(without_color),562518,blue,,,,null,GW/barrel.jpg,GW/globe.jpg,,,,,,,,,,,,
null,,rt_plussign_withcolor,563020,blue,,,,null,GW/barrel.jpg,GW/globe.jpg,,,,,,,,,,,,
1076.8999999761581,,rt_thecrossant_black,564024,black_plus_sign,,,,49,,,1,1,,,,,,,,,,
null,,color_black,564127,black_plus_sign,,,,null,,,,,,,,,,,,,,
null,,learn_phase(without_color),566130,black_plus_sign,,,,null,GW/wheelchair.jpg,GW/snail.jpg,,,,,,,,,,,,
null,,black_cross(without_color),566703,blue,,,,null,GW/wheelchair.jpg,GW/snail.jpg,,,,,,,,,,,,
null,,rt_plussign_withcolor,567204,blue,,,,null,GW/wheelchair.jpg,GW/snail.jpg,,,,,,,,,,,,
1288.8999999761581,,rt_thecrossant_black,568636,black_plus_sign,,,,49,,,1,1,,,,,,,,,,
null,,color_black,568739,black_plus_sign,,,,null,,,,,,,,,,,,,,
null,,learn_phase(without_color),570742,black_plus_sign,,,,null,GW/wheelchair.jpg,GW/barrel.jpg,,,,,,,,,,,,
null,,black_cross(without_color),571686,blue,,,,null,GW/wheelchair.jpg,GW/barrel.jpg,,,,,,,,,,,,
null,,rt_plussign_withcolor,572188,blue,,,,null,GW/wheelchair.jpg,GW/barrel.jpg,,,,,,,,,,,,
829.8999999761581,,rt_thecrossant_black,573249,black_plus_sign,,,,49,,,1,1,,,,,,,,,,
null,,color_black,573351,black_plus_sign,,,,null,,,,,,,,,,,,,,
null,,learn_phase(without_color),575352,black_plus_sign,,,,null,GW/teeth.jpg,GW/soldier.jpg,,,,,,,,,,,,
null,,black_cross(without_color),575866,blue,,,,null,GW/teeth.jpg,GW/soldier.jpg,,,,,,,,,,,,
null,,rt_plussign_withcolor,576368,blue,,,,null,GW/teeth.jpg,GW/soldier.jpg,,,,,,,,,,,,
1210.1000000238419,,rt_thecrossant_black,577873,black_plus_sign,,,,49,,,1,1,,,,,,,,,,
null,,color_black,577976,black_plus_sign,,,,null,,,,,,,,,,,,,,
null,,learn_phase(without_color),579980,black_plus_sign,,,,null,GW/wheelchair.jpg,GW/barrel.jpg,,,,,,,,,,,,
null,,black_cross(without_color),580612,green,,,,null,GW/wheelchair.jpg,GW/barrel.jpg,,,,,,,,,,,,
null,,rt_plussign_withcolor,581115,green,,,,null,GW/wheelchair.jpg,GW/barrel.jpg,,,,,,,,,,,,
802.6000000238419,,rt_thecrossant_black,582489,black_plus_sign,,,,50,,,1,1,,,,,,,,,,
null,,color_black,582590,black_plus_sign,,,,null,,,,,,,,,,,,,,
null,,learn_phase(without_color),584593,black_plus_sign,,,,null,GW/basket.jpg,GW/teeth.jpg,,,,,,,,,,,,
null,,black_cross(without_color),585638,blue,,,,null,GW/basket.jpg,GW/teeth.jpg,,,,,,,,,,,,
null,,rt_plussign_withcolor,586141,blue,,,,null,GW/basket.jpg,GW/teeth.jpg,,,,,,,,,,,,
935.7000000476837,,rt_thecrossant_black,587102,black_plus_sign,,,,49,,,1,1,,,,,,,,,,
null,,color_black,587204,black_plus_sign,,,,null,,,,,,,,,,,,,,
null,,learn_phase(without_color),589208,black_plus_sign,,,,null,GW/camera.jpg,GW/basket.jpg,,,,,,,,,,,,
null,,black_cross(without_color),590124,blue,,,,null,GW/camera.jpg,GW/basket.jpg,,,,,,,,,,,,
null,,rt_plussign_withcolor,590626,blue,,,,null,GW/camera.jpg,GW/basket.jpg,,,,,,,,,,,,
1190.0999999046326,,rt_thecrossant_black,591715,black_plus_sign,,,,49,,,1,1,,,,,,,,,,
null,,color_black,591818,black_plus_sign,,,,null,,,,,,,,,,,,,,
null,,learn_phase(without_color),593820,black_plus_sign,,,,null,GW/dustpan.jpg,GW/camera.jpg,,,,,,,,,,,,
null,,black_cross(without_color),594322,blue,,,,null,GW/dustpan.jpg,GW/camera.jpg,,,,,,,,,,,,
null,,rt_plussign_withcolor,594823,blue,,,,null,GW/dustpan.jpg,GW/camera.jpg,,,,,,,,,,,,
1200.7999999523163,,rt_thecrossant_black,596327,black_plus_sign,,,,49,,,1,1,,,,,,,,,,
null,,color_black,596430,black_plus_sign,,,,null,,,,,,,,,,,,,,
null,,learn_phase(without_color),598433,black_plus_sign,,,,null,GW/soldier.jpg,GW/hat.jpg,,,,,,,,,,,,
null,,black_cross(without_color),599380,blue,,,,null,GW/soldier.jpg,GW/hat.jpg,,,,,,,,,,,,
null,,rt_plussign_withcolor,599882,blue,,,,null,GW/soldier.jpg,GW/hat.jpg,,,,,,,,,,,,
752.8999999761581,,rt_thecrossant_black,600941,black_plus_sign,,,,49,,,1,1,,,,,,,,,,
null,,color_black,601044,black_plus_sign,,,,null,,,,,,,,,,,,,,
null,,learn_phase(without_color),603049,black_plus_sign,,,,null,GW/gong.jpg,GW/jukebox.jpg,,,,,,,,,,,,
null,,black_cross(without_color),603506,green,,,,null,GW/gong.jpg,GW/jukebox.jpg,,,,,,,,,,,,
null,,rt_plussign_withcolor,604008,green,,,,null,GW/gong.jpg,GW/jukebox.jpg,,,,,,,,,,,,
1309.7999999523163,,rt_thecrossant_black,605556,black_plus_sign,,,,50,,,1,1,,,,,,,,,,
null,,color_black,605659,black_plus_sign,,,,null,,,,,,,,,,,,,,
null,,learn_phase(without_color),607663,black_plus_sign,,,,null,GW/wheelchair.jpg,GW/barrel.jpg,,,,,,,,,,,,
null,,black_cross(without_color),608107,blue,,,,null,GW/wheelchair.jpg,GW/barrel.jpg,,,,,,,,,,,,
null,,rt_plussign_withcolor,608610,blue,,,,null,GW/wheelchair.jpg,GW/barrel.jpg,,,,,,,,,,,,
947.1000000238419,,rt_thecrossant_black,610171,black_plus_sign,,,,49,,,1,1,,,,,,,,,,
null,,color_black,610273,black_plus_sign,,,,null,,,,,,,,,,,,,,
null,,learn_phase(without_color),612277,black_plus_sign,,,,null,GW/basket.jpg,GW/hat.jpg,,,,,,,,,,,,
null,,black_cross(without_color),613155,blue,,,,null,GW/basket.jpg,GW/hat.jpg,,,,,,,,,,,,
null,,rt_plussign_withcolor,613657,blue,,,,null,GW/basket.jpg,GW/hat.jpg,,,,,,,,,,,,
934.3000000715256,,rt_thecrossant_black,614786,black_plus_sign,,,,49,,,1,1,,,,,,,,,,
null,,color_black,614889,black_plus_sign,,,,null,,,,,,,,,,,,,,
null,,learn_phase(without_color),616892,black_plus_sign,,,,null,GW/soldier.jpg,GW/hat.jpg,,,,,,,,,,,,
null,,black_cross(without_color),617786,green,,,,null,GW/soldier.jpg,GW/hat.jpg,,,,,,,,,,,,
null,,rt_plussign_withcolor,618287,green,,,,null,GW/soldier.jpg,GW/hat.jpg,,,,,,,,,,,,
1161.5999999046326,,rt_thecrossant_black,619398,black_plus_sign,,,,50,,,1,1,,,,,,,,,,
null,,color_black,619501,black_plus_sign,,,,null,,,,,,,,,,,,,,
null,,learn_phase(without_color),621504,black_plus_sign,,,,null,GW/camera.jpg,GW/gong.jpg,,,,,,,,,,,,
null,,black_cross(without_color),622271,green,,,,null,GW/camera.jpg,GW/gong.jpg,,,,,,,,,,,,
null,,rt_plussign_withcolor,622773,green,,,,null,GW/camera.jpg,GW/gong.jpg,,,,,,,,,,,,
1132.8999999761581,,rt_thecrossant_black,624012,black_plus_sign,,,,50,,,1,1,,,,,,,,,,
null,,color_black,624113,black_plus_sign,,,,null,,,,,,,,,,,,,,
null,,learn_phase(without_color),626117,black_plus_sign,,,,null,GW/wheelchair.jpg,GW/barrel.jpg,,,,,,,,,,,,
null,,black_cross(without_color),626745,green,,,,null,GW/wheelchair.jpg,GW/barrel.jpg,,,,,,,,,,,,
null,,rt_plussign_withcolor,627247,green,,,,null,GW/wheelchair.jpg,GW/barrel.jpg,,,,,,,,,,,,
963.1999999284744,,rt_thecrossant_black,628625,black_plus_sign,,,,50,,,1,1,,,,,,,,,,
null,,color_black,628729,black_plus_sign,,,,null,,,,,,,,,,,,,,
null,,learn_phase(without_color),630733,black_plus_sign,,,,null,GW/barrel.jpg,GW/globe.jpg,,,,,,,,,,,,
null,,black_cross(without_color),631534,green,,,,null,GW/barrel.jpg,GW/globe.jpg,,,,,,,,,,,,
null,,rt_plussign_withcolor,632037,green,,,,null,GW/barrel.jpg,GW/globe.jpg,,,,,,,,,,,,
866.2000000476837,,rt_thecrossant_black,633243,black_plus_sign,,,,50,,,1,1,,,,,,,,,,
null,,color_black,633351,black_plus_sign,,,,null,,,,,,,,,,,,,,
null,,learn_phase(without_color),635353,black_plus_sign,,,,null,GW/camera.jpg,GW/gong.jpg,,,,,,,,,,,,
null,,black_cross(without_color),636069,blue,,,,null,GW/camera.jpg,GW/gong.jpg,,,,,,,,,,,,
null,,rt_plussign_withcolor,636572,blue,,,,null,GW/camera.jpg,GW/gong.jpg,,,,,,,,,,,,
1136.7000000476837,,rt_thecrossant_black,637861,black_plus_sign,,,,49,,,1,1,,,,,,,,,,
null,,color_black,637964,black_plus_sign,,,,null,,,,,,,,,,,,,,
null,,learn_phase(without_color),639968,black_plus_sign,,,,null,GW/gong.jpg,GW/paint.jpg,,,,,,,,,,,,
null,,black_cross(without_color),640432,green,,,,null,GW/gong.jpg,GW/paint.jpg,,,,,,,,,,,,
null,,rt_plussign_withcolor,640934,green,,,,null,GW/gong.jpg,GW/paint.jpg,,,,,,,,,,,,
1032.8000000715256,,rt_thecrossant_black,642475,black_plus_sign,,,,50,,,1,1,,,,,,,,,,
null,,color_black,642578,black_plus_sign,,,,null,,,,,,,,,,,,,,
null,,learn_phase(without_color),644582,black_plus_sign,,,,null,GW/soldier.jpg,GW/hat.jpg,,,,,,,,,,,,
null,,black_cross(without_color),645040,green,,,,null,GW/soldier.jpg,GW/hat.jpg,,,,,,,,,,,,
null,,rt_plussign_withcolor,645549,green,,,,null,GW/soldier.jpg,GW/hat.jpg,,,,,,,,,,,,
959,,rt_thecrossant_black,647095,black_plus_sign,,,,50,,,1,1,,,,,,,,,,
null,,color_black,647198,black_plus_sign,,,,null,,,,,,,,,,,,,,
null,,learn_phase(without_color),649201,black_plus_sign,,,,null,GW/basket.jpg,GW/teeth.jpg,,,,,,,,,,,,
null,,black_cross(without_color),650266,blue,,,,null,GW/basket.jpg,GW/teeth.jpg,,,,,,,,,,,,
null,,rt_plussign_withcolor,650768,blue,,,,null,GW/basket.jpg,GW/teeth.jpg,,,,,,,,,,,,
750.5,,rt_thecrossant_black,651709,black_plus_sign,,,,49,,,1,1,,,,,,,,,,
null,,color_black,651812,black_plus_sign,,,,null,,,,,,,,,,,,,,
null,,learn_phase(without_color),653815,black_plus_sign,,,,null,GW/gong.jpg,GW/paint.jpg,,,,,,,,,,,,
null,,black_cross(without_color),654703,blue,,,,null,GW/gong.jpg,GW/paint.jpg,,,,,,,,,,,,
null,,rt_plussign_withcolor,655206,blue,,,,null,GW/gong.jpg,GW/paint.jpg,,,,,,,,,,,,
1398.6999999284744,,rt_thecrossant_black,656321,black_plus_sign,,,,49,,,1,1,,,,,,,,,,
null,,color_black,656423,black_plus_sign,,,,null,,,,,,,,,,,,,,
null,,learn_phase(without_color),658426,black_plus_sign,,,,null,GW/wheelchair.jpg,GW/barrel.jpg,,,,,,,,,,,,
null,,black_cross(without_color),659101,green,,,,null,GW/wheelchair.jpg,GW/barrel.jpg,,,,,,,,,,,,
null,,rt_plussign_withcolor,659602,green,,,,null,GW/wheelchair.jpg,GW/barrel.jpg,,,,,,,,,,,,
1201.5999999046326,,rt_thecrossant_black,660932,black_plus_sign,,,,50,,,1,1,,,,,,,,,,
null,,color_black,661034,black_plus_sign,,,,null,,,,,,,,,,,,,,
null,,learn_phase(without_color),663038,black_plus_sign,,,,null,GW/hat.jpg,GW/jukebox.jpg,,,,,,,,,,,,
null,,black_cross(without_color),663476,green,,,,null,GW/hat.jpg,GW/jukebox.jpg,,,,,,,,,,,,
null,,rt_plussign_withcolor,663978,green,,,,null,GW/hat.jpg,GW/jukebox.jpg,,,,,,,,,,,,
1125.1999999284744,,rt_thecrossant_black,665545,black_plus_sign,,,,50,,,1,1,,,,,,,,,,
null,,color_black,665650,black_plus_sign,,,,null,,,,,,,,,,,,,,
null,,learn_phase(without_color),667654,black_plus_sign,,,,null,GW/soldier.jpg,GW/hat.jpg,,,,,,,,,,,,
null,,black_cross(without_color),668565,blue,,,,null,GW/soldier.jpg,GW/hat.jpg,,,,,,,,,,,,
null,,rt_plussign_withcolor,669068,blue,,,,null,GW/soldier.jpg,GW/hat.jpg,,,,,,,,,,,,
941.3999999761581,,rt_thecrossant_black,670172,black_plus_sign,,,,49,,,1,1,,,,,,,,,,
null,,color_black,670275,black_plus_sign,,,,null,,,,,,,,,,,,,,
null,,learn_phase(without_color),672280,black_plus_sign,,,,null,GW/basket.jpg,GW/teeth.jpg,,,,,,,,,,,,
null,,black_cross(without_color),672745,green,,,,null,GW/basket.jpg,GW/teeth.jpg,,,,,,,,,,,,
null,,rt_plussign_withcolor,673248,green,,,,null,GW/basket.jpg,GW/teeth.jpg,,,,,,,,,,,,
1268.2999999523163,,rt_thecrossant_black,674788,black_plus_sign,,,,50,,,1,1,,,,,,,,,,
null,,color_black,674891,black_plus_sign,,,,null,,,,,,,,,,,,,,
null,,learn_phase(without_color),676894,black_plus_sign,,,,null,GW/teeth.jpg,GW/soldier.jpg,,,,,,,,,,,,
null,,black_cross(without_color),677897,blue,,,,null,GW/teeth.jpg,GW/soldier.jpg,,,,,,,,,,,,
null,,rt_plussign_withcolor,678400,blue,,,,null,GW/teeth.jpg,GW/soldier.jpg,,,,,,,,,,,,
749.3999999761581,,rt_thecrossant_black,679403,black_plus_sign,,,,49,,,1,1,,,,,,,,,,
null,,color_black,679520,black_plus_sign,,,,null,,,,,,,,,,,,,,
null,,learn_phase(without_color),681523,black_plus_sign,,,,null,GW/basket.jpg,GW/hat.jpg,,,,,,,,,,,,
null,,black_cross(without_color),682562,blue,,,,null,GW/basket.jpg,GW/hat.jpg,,,,,,,,,,,,
null,,rt_plussign_withcolor,683064,blue,,,,null,GW/basket.jpg,GW/hat.jpg,,,,,,,,,,,,
1310.7999999523163,,rt_thecrossant_black,684031,black_plus_sign,,,,49,,,1,1,,,,,,,,,,
null,,color_black,684134,black_plus_sign,,,,null,,,,,,,,,,,,,,
null,,learn_phase(without_color),686138,black_plus_sign,,,,null,GW/camera.jpg,GW/basket.jpg,,,,,,,,,,,,
null,,black_cross(without_color),686689,blue,,,,null,GW/camera.jpg,GW/basket.jpg,,,,,,,,,,,,
null,,rt_plussign_withcolor,687191,blue,,,,null,GW/camera.jpg,GW/basket.jpg,,,,,,,,,,,,
1371.0999999046326,,rt_thecrossant_black,688647,black_plus_sign,,,,49,,,1,1,,,,,,,,,,
null,,color_black,688751,black_plus_sign,,,,null,,,,,,,,,,,,,,
null,,learn_phase(without_color),690754,black_plus_sign,,,,null,GW/barrel.jpg,GW/soldier.jpg,,,,,,,,,,,,
null,,black_cross(without_color),691733,green,,,,null,GW/barrel.jpg,GW/soldier.jpg,,,,,,,,,,,,
null,,rt_plussign_withcolor,692236,green,,,,null,GW/barrel.jpg,GW/soldier.jpg,,,,,,,,,,,,
806,,rt_thecrossant_black,693273,black_plus_sign,,,,50,,,1,1,,,,,,,,,,
null,,color_black,693375,black_plus_sign,,,,null,,,,,,,,,,,,,,
null,,learn_phase(without_color),695378,black_plus_sign,,,,null,GW/barrel.jpg,GW/globe.jpg,,,,,,,,,,,,
null,,black_cross(without_color),696448,green,,,,null,GW/barrel.jpg,GW/globe.jpg,,,,,,,,,,,,
null,,rt_plussign_withcolor,696950,green,,,,null,GW/barrel.jpg,GW/globe.jpg,,,,,,,,,,,,
1433.2999999523163,,rt_thecrossant_black,697885,black_plus_sign,,,,50,,,1,1,,,,,,,,,,
null,,color_black,697988,black_plus_sign,,,,null,,,,,,,,,,,,,,
null,,learn_phase(without_color),699993,black_plus_sign,,,,null,GW/hat.jpg,GW/jukebox.jpg,,,,,,,,,,,,
null,,black_cross(without_color),701029,blue,,,,null,GW/hat.jpg,GW/jukebox.jpg,,,,,,,,,,,,
null,,rt_plussign_withcolor,701545,blue,,,,null,GW/hat.jpg,GW/jukebox.jpg,,,,,,,,,,,,
1634.0999999046326,,rt_thecrossant_black,702513,black_plus_sign,,,,49,,,1,1,,,,,,,,,,
null,,color_black,702630,black_plus_sign,,,,null,,,,,,,,,,,,,,
null,,learn_phase(without_color),704634,black_plus_sign,,,,null,GW/dustpan.jpg,GW/camera.jpg,,,,,,,,,,,,
null,,black_cross(without_color),705203,blue,,,,null,GW/dustpan.jpg,GW/camera.jpg,,,,,,,,,,,,
null,,rt_plussign_withcolor,705706,blue,,,,null,GW/dustpan.jpg,GW/camera.jpg,,,,,,,,,,,,
1997.2999999523163,,rt_thecrossant_black,707142,black_plus_sign,,,,49,,,1,1,,,,,,,,,,
null,,color_black,707245,black_plus_sign,,,,null,,,,,,,,,,,,,,
null,,learn_phase(without_color),709249,black_plus_sign,,,,null,GW/soldier.jpg,GW/hat.jpg,,,,,,,,,,,,
null,,black_cross(without_color),709936,green,,,,null,GW/soldier.jpg,GW/hat.jpg,,,,,,,,,,,,
null,,rt_plussign_withcolor,710439,green,,,,null,GW/soldier.jpg,GW/hat.jpg,,,,,,,,,,,,
1093.8999999761581,,rt_thecrossant_black,711756,black_plus_sign,,,,50,,,1,1,,,,,,,,,,
null,,color_black,711858,black_plus_sign,,,,null,,,,,,,,,,,,,,
null,,learn_phase(without_color),713863,black_plus_sign,,,,null,GW/hat.jpg,GW/jukebox.jpg,,,,,,,,,,,,
null,,black_cross(without_color),714634,green,,,,null,GW/hat.jpg,GW/jukebox.jpg,,,,,,,,,,,,
null,,rt_plussign_withcolor,715136,green,,,,null,GW/hat.jpg,GW/jukebox.jpg,,,,,,,,,,,,
979.0999999046326,,rt_thecrossant_black,716371,black_plus_sign,,,,50,,,1,1,,,,,,,,,,
null,,color_black,716474,black_plus_sign,,,,null,,,,,,,,,,,,,,
null,,learn_phase(without_color),718478,black_plus_sign,,,,null,GW/camera.jpg,GW/gong.jpg,,,,,,,,,,,,
null,,black_cross(without_color),719231,blue,,,,null,GW/camera.jpg,GW/gong.jpg,,,,,,,,,,,,
null,,rt_plussign_withcolor,719733,blue,,,,null,GW/camera.jpg,GW/gong.jpg,,,,,,,,,,,,
1177.9000000953674,,rt_thecrossant_black,720987,black_plus_sign,,,,49,,,1,1,,,,,,,,,,
null,,color_black,721089,black_plus_sign,,,,null,,,,,,,,,,,,,,
null,,learn_phase(without_color),723093,black_plus_sign,,,,null,GW/wheelchair.jpg,GW/barrel.jpg,,,,,,,,,,,,
null,,black_cross(without_color),723647,green,,,,null,GW/wheelchair.jpg,GW/barrel.jpg,,,,,,,,,,,,
null,,rt_plussign_withcolor,724149,green,,,,null,GW/wheelchair.jpg,GW/barrel.jpg,,,,,,,,,,,,
1279.8999999761581,,rt_thecrossant_black,725602,black_plus_sign,,,,50,,,1,1,,,,,,,,,,
null,,color_black,725704,black_plus_sign,,,,null,,,,,,,,,,,,,,
null,,learn_phase(without_color),727708,black_plus_sign,,,,null,GW/basket.jpg,GW/hat.jpg,,,,,,,,,,,,
null,,black_cross(without_color),728175,green,,,,null,GW/basket.jpg,GW/hat.jpg,,,,,,,,,,,,
null,,rt_plussign_withcolor,728678,green,,,,null,GW/basket.jpg,GW/hat.jpg,,,,,,,,,,,,
1054.2999999523163,,rt_thecrossant_black,730217,black_plus_sign,,,,50,,,1,1,,,,,,,,,,
null,,color_black,730320,black_plus_sign,,,,null,,,,,,,,,,,,,,
null,,learn_phase(without_color),732324,black_plus_sign,,,,null,GW/gong.jpg,GW/jukebox.jpg,,,,,,,,,,,,
null,,black_cross(without_color),733065,green,,,,null,GW/gong.jpg,GW/jukebox.jpg,,,,,,,,,,,,
null,,rt_plussign_withcolor,733567,green,,,,null,GW/gong.jpg,GW/jukebox.jpg,,,,,,,,,,,,
727,,rt_thecrossant_black,734832,black_plus_sign,,,,50,,,1,1,,,,,,,,,,
null,,color_black,734935,black_plus_sign,,,,null,,,,,,,,,,,,,,
null,,learn_phase(without_color),736939,black_plus_sign,,,,null,GW/basket.jpg,GW/teeth.jpg,,,,,,,,,,,,
null,,black_cross(without_color),737978,blue,,,,null,GW/basket.jpg,GW/teeth.jpg,,,,,,,,,,,,
null,,rt_plussign_withcolor,738480,blue,,,,null,GW/basket.jpg,GW/teeth.jpg,,,,,,,,,,,,
1114.2000000476837,,rt_thecrossant_black,739448,black_plus_sign,,,,49,,,1,1,,,,,,,,,,
null,,color_black,739551,black_plus_sign,,,,null,,,,,,,,,,,,,,
null,,learn_phase(without_color),741554,black_plus_sign,,,,null,GW/wheelchair.jpg,GW/soldier.jpg,,,,,,,,,,,,
null,,black_cross(without_color),742657,blue,,,,null,GW/wheelchair.jpg,GW/soldier.jpg,,,,,,,,,,,,
null,,rt_plussign_withcolor,743160,blue,,,,null,GW/wheelchair.jpg,GW/soldier.jpg,,,,,,,,,,,,
1778.2000000476837,,rt_thecrossant_black,744063,black_plus_sign,,,,49,,,1,1,,,,,,,,,,
null,,color_black,744172,black_plus_sign,,,,null,,,,,,,,,,,,,,
null,,learn_phase(without_color),746176,black_plus_sign,,,,null,GW/camera.jpg,GW/basket.jpg,,,,,,,,,,,,
null,,black_cross(without_color),747181,green,,,,null,GW/camera.jpg,GW/basket.jpg,,,,,,,,,,,,
null,,rt_plussign_withcolor,747684,green,,,,null,GW/camera.jpg,GW/basket.jpg,,,,,,,,,,,,
1406.5,,rt_thecrossant_black,748684,black_plus_sign,,,,50,,,1,1,,,,,,,,,,
null,,color_black,748787,black_plus_sign,,,,null,,,,,,,,,,,,,,
null,,learn_phase(without_color),750791,black_plus_sign,,,,null,GW/teeth.jpg,GW/soldier.jpg,,,,,,,,,,,,
null,,black_cross(without_color),751551,green,,,,null,GW/teeth.jpg,GW/soldier.jpg,,,,,,,,,,,,
null,,rt_plussign_withcolor,752054,green,,,,null,GW/teeth.jpg,GW/soldier.jpg,,,,,,,,,,,,
1227.5,,rt_thecrossant_black,753300,black_plus_sign,,,,50,,,1,1,,,,,,,,,,
null,,color_black,753403,black_plus_sign,,,,null,,,,,,,,,,,,,,
null,,learn_phase(without_color),755407,black_plus_sign,,,,null,GW/dustpan.jpg,GW/camera.jpg,,,,,,,,,,,,
null,,black_cross(without_color),756395,green,,,,null,GW/dustpan.jpg,GW/camera.jpg,,,,,,,,,,,,
null,,rt_plussign_withcolor,756898,green,,,,null,GW/dustpan.jpg,GW/camera.jpg,,,,,,,,,,,,
897.7000000476837,,rt_thecrossant_black,757914,black_plus_sign,,,,50,,,1,1,,,,,,,,,,
null,,color_black,758018,black_plus_sign,,,,null,,,,,,,,,,,,,,
null,,learn_phase(without_color),760021,black_plus_sign,,,,null,GW/basket.jpg,GW/teeth.jpg,,,,,,,,,,,,
null,,black_cross(without_color),760482,green,,,,null,GW/basket.jpg,GW/teeth.jpg,,,,,,,,,,,,
null,,rt_plussign_withcolor,760985,green,,,,null,GW/basket.jpg,GW/teeth.jpg,,,,,,,,,,,,
1407.2999999523163,,rt_thecrossant_black,762529,black_plus_sign,,,,50,,,1,1,,,,,,,,,,
null,,color_black,762632,black_plus_sign,,,,null,,,,,,,,,,,,,,
null,,learn_phase(without_color),764636,black_plus_sign,,,,null,GW/barrel.jpg,GW/soldier.jpg,,,,,,,,,,,,
null,,black_cross(without_color),765071,green,,,,null,GW/barrel.jpg,GW/soldier.jpg,,,,,,,,,,,,
null,,rt_plussign_withcolor,765573,green,,,,null,GW/barrel.jpg,GW/soldier.jpg,,,,,,,,,,,,
852.2000000476837,,rt_thecrossant_black,767144,black_plus_sign,,,,50,,,1,1,,,,,,,,,,
null,,color_black,767252,black_plus_sign,,,,null,,,,,,,,,,,,,,
null,,learn_phase(without_color),769254,black_plus_sign,,,,null,GW/dustpan.jpg,GW/camera.jpg,,,,,,,,,,,,
null,,black_cross(without_color),769799,green,,,,null,GW/dustpan.jpg,GW/camera.jpg,,,,,,,,,,,,
null,,rt_plussign_withcolor,770303,green,,,,null,GW/dustpan.jpg,GW/camera.jpg,,,,,,,,,,,,
590.8999999761581,,rt_thecrossant_black,771764,black_plus_sign,,,,50,,,1,1,,,,,,,,,,
null,,color_black,771866,black_plus_sign,,,,null,,,,,,,,,,,,,,
null,,learn_phase(without_color),773870,black_plus_sign,,,,null,GW/gong.jpg,GW/paint.jpg,,,,,,,,,,,,
null,,black_cross(without_color),774620,green,,,,null,GW/gong.jpg,GW/paint.jpg,,,,,,,,,,,,
null,,rt_plussign_withcolor,775134,green,,,,null,GW/gong.jpg,GW/paint.jpg,,,,,,,,,,,,
1039,,rt_thecrossant_black,776390,black_plus_sign,,,,50,,,1,1,,,,,,,,,,
null,,color_black,776492,black_plus_sign,,,,null,,,,,,,,,,,,,,
null,,learn_phase(without_color),778497,black_plus_sign,,,,null,GW/teeth.jpg,GW/wheelchair.jpg,,,,,,,,,,,,
null,,black_cross(without_color),779528,blue,,,,null,GW/teeth.jpg,GW/wheelchair.jpg,,,,,,,,,,,,
null,,rt_plussign_withcolor,780031,blue,,,,null,GW/teeth.jpg,GW/wheelchair.jpg,,,,,,,,,,,,
1602.7000000476837,,rt_thecrossant_black,781008,black_plus_sign,,,,50,,,0,0.990909090909091,,,,,,,,,,
null,,color_black,781111,black_plus_sign,,,,null,,,,,,,,,,,,,,
null,,learn_phase(without_color),783115,black_plus_sign,,,,null,GW/gong.jpg,GW/paint.jpg,,,,,,,,,,,,
null,,black_cross(without_color),783803,green,,,,null,GW/gong.jpg,GW/paint.jpg,,,,,,,,,,,,
null,,rt_plussign_withcolor,784305,green,,,,null,GW/gong.jpg,GW/paint.jpg,,,,,,,,,,,,
1351.8000000715256,,rt_thecrossant_black,785622,black_plus_sign,,,,50,,,1,0.990990990990991,,,,,,,,,,
null,,color_black,785725,black_plus_sign,,,,null,,,,,,,,,,,,,,
null,,learn_phase(without_color),787729,black_plus_sign,,,,null,GW/wheelchair.jpg,GW/snail.jpg,,,,,,,,,,,,
null,,black_cross(without_color),788314,blue,,,,null,GW/wheelchair.jpg,GW/snail.jpg,,,,,,,,,,,,
null,,rt_plussign_withcolor,788816,blue,,,,null,GW/wheelchair.jpg,GW/snail.jpg,,,,,,,,,,,,
883.6000000238419,,rt_thecrossant_black,790250,black_plus_sign,,,,49,,,1,0.9910714285714286,,,,,,,,,,
null,,color_black,790353,black_plus_sign,,,,null,,,,,,,,,,,,,,
null,,learn_phase(without_color),792356,black_plus_sign,,,,null,GW/gong.jpg,GW/paint.jpg,,,,,,,,,,,,
null,,black_cross(without_color),793219,green,,,,null,GW/gong.jpg,GW/paint.jpg,,,,,,,,,,,,
null,,rt_plussign_withcolor,793722,green,,,,null,GW/gong.jpg,GW/paint.jpg,,,,,,,,,,,,
747.1000000238419,,rt_thecrossant_black,794864,black_plus_sign,,,,50,,,1,0.9911504424778761,,,,,,,,,,
null,,color_black,794967,black_plus_sign,,,,null,,,,,,,,,,,,,,
null,,learn_phase(without_color),796970,black_plus_sign,,,,null,GW/barrel.jpg,GW/globe.jpg,,,,,,,,,,,,
null,,black_cross(without_color),797829,green,,,,null,GW/barrel.jpg,GW/globe.jpg,,,,,,,,,,,,
null,,rt_plussign_withcolor,798332,green,,,,null,GW/barrel.jpg,GW/globe.jpg,,,,,,,,,,,,
1134.1000000238419,,rt_thecrossant_black,799479,black_plus_sign,,,,50,,,1,0.9912280701754386,,,,,,,,,,
null,,color_black,799583,black_plus_sign,,,,null,,,,,,,,,,,,,,
null,,learn_phase(without_color),801587,black_plus_sign,,,,null,GW/hat.jpg,GW/jukebox.jpg,,,,,,,,,,,,
null,,black_cross(without_color),802171,green,,,,null,GW/hat.jpg,GW/jukebox.jpg,,,,,,,,,,,,
null,,rt_plussign_withcolor,802674,green,,,,null,GW/hat.jpg,GW/jukebox.jpg,,,,,,,,,,,,
1900.1000000238419,,rt_thecrossant_black,804096,black_plus_sign,,,,49,,,0,0.9826086956521739,,,,,,,,,,
null,,color_black,804200,black_plus_sign,,,,null,,,,,,,,,,,,,,
null,,learn_phase(without_color),806204,black_plus_sign,,,,null,GW/teeth.jpg,GW/soldier.jpg,,,,,,,,,,,,
null,,black_cross(without_color),807101,green,,,,null,GW/teeth.jpg,GW/soldier.jpg,,,,,,,,,,,,
null,,rt_plussign_withcolor,807608,green,,,,null,GW/teeth.jpg,GW/soldier.jpg,,,,,,,,,,,,
924.5,,rt_thecrossant_black,808715,black_plus_sign,,,,50,,,1,0.9827586206896551,,,,,,,,,,
null,,color_black,808818,black_plus_sign,,,,null,,,,,,,,,,,,,,
null,,learn_phase(without_color),810822,black_plus_sign,,,,null,GW/barrel.jpg,GW/soldier.jpg,,,,,,,,,,,,
null,,black_cross(without_color),811693,green,,,,null,GW/barrel.jpg,GW/soldier.jpg,,,,,,,,,,,,
null,,rt_plussign_withcolor,812195,green,,,,null,GW/barrel.jpg,GW/soldier.jpg,,,,,,,,,,,,
1305.6999999284744,,rt_thecrossant_black,813335,black_plus_sign,,,,50,,,1,0.9829059829059829,,,,,,,,,,
null,,color_black,813438,black_plus_sign,,,,null,,,,,,,,,,,,,,
null,,learn_phase(without_color),815442,black_plus_sign,,,,null,GW/wheelchair.jpg,GW/snail.jpg,,,,,,,,,,,,
null,,black_cross(without_color),816346,blue,,,,null,GW/wheelchair.jpg,GW/snail.jpg,,,,,,,,,,,,
null,,rt_plussign_withcolor,816848,blue,,,,null,GW/wheelchair.jpg,GW/snail.jpg,,,,,,,,,,,,
1238.0999999046326,,rt_thecrossant_black,817949,black_plus_sign,,,,49,,,1,0.9830508474576272,,,,,,,,,,
null,,color_black,818052,black_plus_sign,,,,null,,,,,,,,,,,,,,
null,,learn_phase(without_color),820056,black_plus_sign,,,,null,GW/barrel.jpg,GW/soldier.jpg,,,,,,,,,,,,
null,,black_cross(without_color),821085,green,,,,null,GW/barrel.jpg,GW/soldier.jpg,,,,,,,,,,,,
null,,rt_plussign_withcolor,821588,green,,,,null,GW/barrel.jpg,GW/soldier.jpg,,,,,,,,,,,,
1929.2999999523163,,rt_thecrossant_black,822564,black_plus_sign,,,,50,,,1,0.9831932773109243,,,,,,,,,,
null,,color_black,822668,black_plus_sign,,,,null,,,,,,,,,,,,,,
null,,learn_phase(without_color),824673,black_plus_sign,,,,null,GW/basket.jpg,GW/hat.jpg,,,,,,,,,,,,
null,,black_cross(without_color),825663,blue,,,,null,GW/basket.jpg,GW/hat.jpg,,,,,,,,,,,,
null,,rt_plussign_withcolor,826165,blue,,,,null,GW/basket.jpg,GW/hat.jpg,,,,,,,,,,,,
1251,,rt_thecrossant_black,827182,black_plus_sign,,,,49,,,1,0.9833333333333333,,,,,,,,,,
null,,color_black,827286,black_plus_sign,,,,null,,,,,,,,,,,,,,
null,,learn_phase(without_color),829288,black_plus_sign,,,,null,GW/soldier.jpg,GW/hat.jpg,,,,,,,,,,,,
null,,black_cross(without_color),830157,blue,,,,null,GW/soldier.jpg,GW/hat.jpg,,,,,,,,,,,,
null,,rt_plussign_withcolor,830660,blue,,,,null,GW/soldier.jpg,GW/hat.jpg,,,,,,,,,,,,
1339.6000000238419,,rt_thecrossant_black,831799,black_plus_sign,,,,49,,,1,0.9834710743801653,,,,,,,,,,
null,,color_black,831903,black_plus_sign,,,,null,,,,,,,,,,,,,,
null,,learn_phase(without_color),833908,black_plus_sign,,,,null,GW/basket.jpg,GW/teeth.jpg,,,,,,,,,,,,
null,,black_cross(without_color),834322,green,,,,null,GW/basket.jpg,GW/teeth.jpg,,,,,,,,,,,,
null,,rt_plussign_withcolor,834824,green,,,,null,GW/basket.jpg,GW/teeth.jpg,,,,,,,,,,,,
1296.3000000715256,,rt_thecrossant_black,836416,black_plus_sign,,,,50,,,1,0.9836065573770492,,,,,,,,,,
null,,color_black,836519,black_plus_sign,,,,null,,,,,,,,,,,,,,
null,,learn_phase(without_color),838523,black_plus_sign,,,,null,GW/teeth.jpg,GW/wheelchair.jpg,,,,,,,,,,,,
null,,black_cross(without_color),839487,green,,,,null,GW/teeth.jpg,GW/wheelchair.jpg,,,,,,,,,,,,
null,,rt_plussign_withcolor,839989,green,,,,null,GW/teeth.jpg,GW/wheelchair.jpg,,,,,,,,,,,,
627.7000000476837,,rt_thecrossant_black,841032,black_plus_sign,,,,50,,,1,0.983739837398374,,,,,,,,,,
null,,color_black,841135,black_plus_sign,,,,null,,,,,,,,,,,,,,
null,,learn_phase(without_color),843139,black_plus_sign,,,,null,GW/hat.jpg,GW/jukebox.jpg,,,,,,,,,,,,
null,,black_cross(without_color),844230,blue,,,,null,GW/hat.jpg,GW/jukebox.jpg,,,,,,,,,,,,
null,,rt_plussign_withcolor,844732,blue,,,,null,GW/hat.jpg,GW/jukebox.jpg,,,,,,,,,,,,
1201.9000000953674,,rt_thecrossant_black,845647,black_plus_sign,,,,49,,,1,0.9838709677419355,,,,,,,,,,
null,,color_black,845749,black_plus_sign,,,,null,,,,,,,,,,,,,,
null,,learn_phase(without_color),847754,black_plus_sign,,,,null,GW/barrel.jpg,GW/soldier.jpg,,,,,,,,,,,,
null,,black_cross(without_color),848727,blue,,,,null,GW/barrel.jpg,GW/soldier.jpg,,,,,,,,,,,,
null,,rt_plussign_withcolor,849230,blue,,,,null,GW/barrel.jpg,GW/soldier.jpg,,,,,,,,,,,,
2136.399999976158,,rt_thecrossant_black,850263,black_plus_sign,,,,49,,,1,0.984,,,,,,,,,,
null,,color_black,850365,black_plus_sign,,,,null,,,,,,,,,,,,,,
null,,learn_phase(without_color),852370,black_plus_sign,,,,null,GW/gong.jpg,GW/jukebox.jpg,,,,,,,,,,,,
null,,black_cross(without_color),853108,green,,,,null,GW/gong.jpg,GW/jukebox.jpg,,,,,,,,,,,,
null,,rt_plussign_withcolor,853610,green,,,,null,GW/gong.jpg,GW/jukebox.jpg,,,,,,,,,,,,
1374.7999999523163,,rt_thecrossant_black,854878,black_plus_sign,,,,50,,,1,0.9841269841269841,,,,,,,,,,
null,,color_black,854981,black_plus_sign,,,,null,,,,,,,,,,,,,,
null,,learn_phase(without_color),856986,black_plus_sign,,,,null,GW/wheelchair.jpg,GW/snail.jpg,,,,,,,,,,,,
null,,black_cross(without_color),857635,blue,,,,null,GW/wheelchair.jpg,GW/snail.jpg,,,,,,,,,,,,
null,,rt_plussign_withcolor,858138,blue,,,,null,GW/wheelchair.jpg,GW/snail.jpg,,,,,,,,,,,,
1012.3000000715256,,rt_thecrossant_black,859494,black_plus_sign,,,,49,,,1,0.984251968503937,,,,,,,,,,
null,,color_black,859597,black_plus_sign,,,,null,,,,,,,,,,,,,,
35636.10000002384,,intro_1,895235,instruct,,0,Start,,,,,,,,,,,,,,,
2975.7999999523163,,directmemory_phase,898212,GW/gong.jpg,,,,50,,,1,1,GW/basket.jpg,GW/jukebox.jpg,GW/soldier.jpg,GW/jukebox.jpg,GW/basket.jpg,GW/soldier.jpg,1,,,
null,,html-keyboard-response,899217,<p></p>,,,,null,,,,,,,,,,,,,,
5864.5,,directmemory_phase,905084,GW/dustpan.jpg,,,,49,,,0,0.5,GW/jukebox.jpg,GW/basket.jpg,GW/camera.jpg,GW/camera.jpg,GW/basket.jpg,GW/jukebox.jpg,0.5,closer,,
null,,html-keyboard-response,906089,<p></p>,,,,null,,,,,,,,,,,,,,
5329.899999976158,,directmemory_phase,911421,GW/barrel.jpg,,,,50,,,1,0.6666666666666666,GW/teeth.jpg,GW/soldier.jpg,GW/camera.jpg,GW/soldier.jpg,GW/teeth.jpg,GW/camera.jpg,1,,,
null,,html-keyboard-response,912425,<p></p>,,,,null,,,,,,,,,,,,,,
3440.6999999284744,,directmemory_phase,915868,GW/camera.jpg,,,,51,,,1,0.75,GW/barrel.jpg,GW/jukebox.jpg,GW/basket.jpg,GW/basket.jpg,GW/jukebox.jpg,GW/barrel.jpg,1,,,
null,,html-keyboard-response,916871,<p></p>,,,,null,,,,,,,,,,,,,,
4082.8000000715256,,directmemory_phase,920956,GW/soldier.jpg,,,,51,,,1,0.8,GW/dustpan.jpg,GW/basket.jpg,GW/hat.jpg,GW/hat.jpg,GW/basket.jpg,GW/dustpan.jpg,1,,,
null,,html-keyboard-response,921960,<p></p>,,,,null,,,,,,,,,,,,,,
4576.899999976158,,directmemory_phase,926539,GW/jukebox.jpg,,,,49,,,1,0.8333333333333334,GW/gong.jpg,GW/teeth.jpg,GW/basket.jpg,GW/gong.jpg,GW/basket.jpg,GW/teeth.jpg,1,,,
null,,html-keyboard-response,927542,<p></p>,,,,null,,,,,,,,,,,,,,
4683.699999928474,,directmemory_phase,932229,GW/soldier.jpg,,,,50,,,1,0.8571428571428571,GW/snail.jpg,GW/barrel.jpg,GW/paint.jpg,GW/barrel.jpg,GW/snail.jpg,GW/paint.jpg,1,,,
null,,html-keyboard-response,933232,<p></p>,,,,null,,,,,,,,,,,,,,
3538.600000023842,,directmemory_phase,936773,GW/hat.jpg,,,,50,,,0,0.75,GW/basket.jpg,GW/paint.jpg,GW/camera.jpg,GW/basket.jpg,GW/camera.jpg,GW/paint.jpg,0.5,closer,,
null,,html-keyboard-response,937777,<p></p>,,,,null,,,,,,,,,,,,,,
5152.800000071526,,directmemory_phase,942932,GW/globe.jpg,,,,49,,,0,0.6666666666666666,GW/hat.jpg,GW/wheelchair.jpg,GW/barrel.jpg,GW/barrel.jpg,GW/wheelchair.jpg,GW/hat.jpg,0.5,closer,,
null,,html-keyboard-response,943936,<p></p>,,,,null,,,,,,,,,,,,,,
null,,directmemory_phase,950440,GW/camera.jpg,,,,null,,,0,0.6,GW/snail.jpg,GW/hat.jpg,GW/gong.jpg,GW/gong.jpg,GW/hat.jpg,GW/snail.jpg,0,,,
null,,html-keyboard-response,951446,<p></p>,,,,null,,,,,,,,,,,,,,
3547.6999999284744,,directmemory_phase,954997,GW/wheelchair.jpg,,,,51,,,1,0.6363636363636364,GW/camera.jpg,GW/basket.jpg,GW/teeth.jpg,GW/teeth.jpg,GW/basket.jpg,GW/camera.jpg,1,,,
null,,html-keyboard-response,956000,<p></p>,,,,null,,,,,,,,,,,,,,
3929.3000000715256,,directmemory_phase,959932,GW/hat.jpg,,,,51,,,1,0.6666666666666666,GW/paint.jpg,GW/barrel.jpg,GW/jukebox.jpg,GW/jukebox.jpg,GW/barrel.jpg,GW/paint.jpg,1,,,
null,,html-keyboard-response,960936,<p></p>,,,,null,,,,,,,,,,,,,,
5114.299999952316,,directmemory_phase,966053,GW/basket.jpg,,,,51,,,0,0.6153846153846154,GW/teeth.jpg,GW/paint.jpg,GW/gong.jpg,GW/teeth.jpg,GW/gong.jpg,GW/paint.jpg,0.5,closer,,
null,,html-keyboard-response,967057,<p></p>,,,,null,,,,,,,,,,,,,,
5647.300000071526,,directmemory_phase,972707,GW/wheelchair.jpg,,,,50,,,0,0.5714285714285714,GW/barrel.jpg,GW/gong.jpg,GW/globe.jpg,GW/barrel.jpg,GW/globe.jpg,GW/gong.jpg,0.5,closer,,
null,,html-keyboard-response,973710,<p></p>,,,,null,,,,,,,,,,,,,,
4355.899999976158,,directmemory_phase,978068,GW/teeth.jpg,,,,50,,,0,0.5333333333333333,GW/gong.jpg,GW/hat.jpg,GW/basket.jpg,GW/basket.jpg,GW/hat.jpg,GW/gong.jpg,0.5,closer,,
null,,html-keyboard-response,979074,<p></p>,,,,null,,,,,,,,,,,,,,
5583.600000023842,,directmemory_phase,984660,GW/hat.jpg,,,,50,,,0,0.5,GW/soldier.jpg,GW/globe.jpg,GW/camera.jpg,GW/soldier.jpg,GW/camera.jpg,GW/globe.jpg,0.5,closer,,
null,,html-keyboard-response,985665,<p></p>,,,,null,,,,,,,,,,,,,,
4521.5,,directmemory_phase,990189,GW/teeth.jpg,,,,51,,,1,0.5294117647058824,GW/globe.jpg,GW/camera.jpg,GW/wheelchair.jpg,GW/wheelchair.jpg,GW/camera.jpg,GW/globe.jpg,1,,,
null,,html-keyboard-response,991194,<p></p>,,,,null,,,,,,,,,,,,,,
4535.600000023842,,directmemory_phase,995732,GW/basket.jpg,,,,51,,,1,0.5555555555555556,GW/snail.jpg,GW/dustpan.jpg,GW/hat.jpg,GW/hat.jpg,GW/dustpan.jpg,GW/snail.jpg,1,,,
null,,html-keyboard-response,996736,<p></p>,,,,null,,,,,,,,,,,,,,
4825,,directmemory_phase,1001563,GW/barrel.jpg,,,,49,,,0,0.5263157894736842,GW/gong.jpg,GW/teeth.jpg,GW/wheelchair.jpg,GW/wheelchair.jpg,GW/teeth.jpg,GW/gong.jpg,0.5,closer,,
null,,html-keyboard-response,1002566,<p></p>,,,,null,,,,,,,,,,,,,,
4258.5,,directmemory_phase,1006827,GW/gong.jpg,,,,51,,,1,0.55,GW/wheelchair.jpg,GW/hat.jpg,GW/paint.jpg,GW/paint.jpg,GW/hat.jpg,GW/wheelchair.jpg,1,,,
null,,html-keyboard-response,1007829,<p></p>,,,,null,,,,,,,,,,,,,,
4622.899999976158,,directmemory_phase,1012453,GW/barrel.jpg,,,,51,,,1,0.5714285714285714,GW/jukebox.jpg,GW/hat.jpg,GW/globe.jpg,GW/globe.jpg,GW/hat.jpg,GW/jukebox.jpg,1,,,
null,,html-keyboard-response,1013458,<p></p>,,,,null,,,,,,,,,,,,,,
2760,,directmemory_phase,1016220,GW/soldier.jpg,,,,49,,,0,0.5454545454545454,GW/paint.jpg,GW/basket.jpg,GW/wheelchair.jpg,GW/wheelchair.jpg,GW/basket.jpg,GW/paint.jpg,0.5,closer,,
null,,html-keyboard-response,1017224,<p></p>,,,,null,,,,,,,,,,,,,,
3514,,directmemory_phase,1020741,GW/jukebox.jpg,,,,49,,,0,0.5217391304347826,GW/snail.jpg,GW/paint.jpg,GW/hat.jpg,GW/hat.jpg,GW/paint.jpg,GW/snail.jpg,0.5,closer,,
null,,html-keyboard-response,1021745,<p></p>,,,,null,,,,,,,,,,,,,,
3386,,directmemory_phase,1025133,GW/teeth.jpg,,,,51,,,0,0.5,GW/soldier.jpg,GW/gong.jpg,GW/hat.jpg,GW/soldier.jpg,GW/hat.jpg,GW/gong.jpg,0.5,closer,,
null,,html-keyboard-response,1026138,<p></p>,,,,null,,,,,,,,,,,,,,
3864.399999976158,,directmemory_phase,1030005,GW/paint.jpg,,,,49,,,1,0.52,GW/gong.jpg,GW/basket.jpg,GW/camera.jpg,GW/gong.jpg,GW/camera.jpg,GW/basket.jpg,1,,,
null,,html-keyboard-response,1031008,<p></p>,,,,null,,,,,,,,,,,,,,
4194.299999952316,,directmemory_phase,1035205,GW/wheelchair.jpg,,,,49,,,1,0.5384615384615384,GW/snail.jpg,GW/gong.jpg,GW/basket.jpg,GW/snail.jpg,GW/basket.jpg,GW/gong.jpg,1,,,
null,,html-keyboard-response,1036210,<p></p>,,,,null,,,,,,,,,,,,,,
3848.100000023842,,directmemory_phase,1040060,GW/gong.jpg,,,,49,,,0,0.5185185185185185,GW/soldier.jpg,GW/hat.jpg,GW/camera.jpg,GW/camera.jpg,GW/hat.jpg,GW/soldier.jpg,0.5,closer,,
null,,html-keyboard-response,1041065,<p></p>,,,,null,,,,,,,,,,,,,,
3185,,directmemory_phase,1044252,GW/soldier.jpg,,,,49,,,0,0.5,GW/gong.jpg,GW/basket.jpg,GW/teeth.jpg,GW/teeth.jpg,GW/basket.jpg,GW/gong.jpg,0.5,closer,,
null,,html-keyboard-response,1045256,<p></p>,,,,null,,,,,,,,,,,,,,
3969.600000023842,,directmemory_phase,1049228,GW/camera.jpg,,,,50,,,0,0.4827586206896552,GW/dustpan.jpg,GW/soldier.jpg,GW/jukebox.jpg,GW/dustpan.jpg,GW/jukebox.jpg,GW/soldier.jpg,0.5,closer,,
null,,html-keyboard-response,1050230,<p></p>,,,,null,,,,,,,,,,,,,,
3364.600000023842,,directmemory_phase,1053596,GW/wheelchair.jpg,,,,49,,,0,0.4666666666666667,GW/jukebox.jpg,GW/globe.jpg,GW/soldier.jpg,GW/soldier.jpg,GW/globe.jpg,GW/jukebox.jpg,0.5,closer,,
null,,html-keyboard-response,1054601,<p></p>,,,,null,,,,,,,,,,,,,,
3873.100000023842,,directmemory_phase,1058476,GW/basket.jpg,,,,51,,,0,0.45161290322580644,GW/dustpan.jpg,GW/camera.jpg,GW/barrel.jpg,GW/camera.jpg,GW/dustpan.jpg,GW/barrel.jpg,0.5,closer,,
null,,html-keyboard-response,1059480,<p></p>,,,,null,,,,,,,,,,,,,,
3257.7999999523163,,directmemory_phase,1062741,GW/snail.jpg,,,,51,,,1,0.46875,GW/jukebox.jpg,GW/soldier.jpg,GW/wheelchair.jpg,GW/wheelchair.jpg,GW/soldier.jpg,GW/jukebox.jpg,1,,,
null,,html-keyboard-response,1063745,<p></p>,,,,null,,,,,,,,,,,,,,
41176.200000047684,,intro_1,1104923,instruct,,0,,,,,,,,,,,,,,,,
21510.600000023842,,intro_2,1126435,instruct,,1,Next,,,,,,,,,,,,,,,
7886.899999976158,,intro_3,1134323,instruct,,1,Next,,,,,,,,,,,,,,,
25078.799999952316,,intro_4,1159403,instruct,,1,Next,,,,,,,,,,,,,,,
22638.799999952316,,intro_5,1182043,instruct,,1,Next,,,,,,,,,,,,,,,
16246.600000023842,,intro_6,1198291,instruct,,1,Next,,,,,,,,,,,,,,,
31166.5,,intro_7,1229459,instruct,,1,Next,,,,,,,,,,,,,,,
27950.799999952316,,intro_8,1257411,instruct,,1,Next,,,,,,,,,,,,,,,
6175.5,,shortestpath_phase,1263588,GW/paint.jpg,,,,49,GW/snail.jpg,GW/jukebox.jpg,0,0,,,,GW/jukebox.jpg,,,,,Four Edge Diff,Two Edge Six Edge
null,,html-keyboard-response,1264592,<p></p>,,,,null,,,,,,,,,,,,,,
6849.899999976158,,shortestpath_phase,1271445,GW/globe.jpg,,,,49,GW/gong.jpg,GW/dustpan.jpg,1,0.5,,,,GW/gong.jpg,,,,,One Edge Diff,Five Edge Six Edge
null,,html-keyboard-response,1272449,<p></p>,,,,null,,,,,,,,,,,,,,
5079.699999928474,,shortestpath_phase,1277531,GW/dustpan.jpg,,,,49,GW/snail.jpg,GW/globe.jpg,1,0.6666666666666666,,,,GW/snail.jpg,,,,,One Edge Diff,Five Edge Six Edge
null,,html-keyboard-response,1278543,<p></p>,,,,null,,,,,,,,,,,,,,
null,,shortestpath_phase,1286046,GW/wheelchair.jpg,,,,null,GW/paint.jpg,GW/gong.jpg,0,0.5,,,,GW/gong.jpg,,,,,One Edge Diff,Four Edge Five Edge
null,,html-keyboard-response,1287050,<p></p>,,,,null,,,,,,,,,,,,,,
null,,shortestpath_phase,1294568,GW/paint.jpg,,,,null,GW/teeth.jpg,GW/hat.jpg,0,0.4,,,,GW/hat.jpg,,,,,One Edge Diff,Three Edge Four Edge
null,,html-keyboard-response,1295571,<p></p>,,,,null,,,,,,,,,,,,,,
6087.200000047684,,shortestpath_phase,1301661,GW/globe.jpg,,,,50,GW/soldier.jpg,GW/paint.jpg,0,0.3333333333333333,,,,GW/soldier.jpg,,,,,Four Edge Diff,Two Edge Six Edge
null,,html-keyboard-response,1302665,<p></p>,,,,null,,,,,,,,,,,,,,
5280.799999952316,,shortestpath_phase,1307948,GW/dustpan.jpg,,,,49,GW/hat.jpg,GW/barrel.jpg,1,0.42857142857142855,,,,GW/hat.jpg,,,,,Two Edge Diff,Three Edge Five Edge
null,,html-keyboard-response,1308960,<p></p>,,,,null,,,,,,,,,,,,,,
4112.5,,shortestpath_phase,1313075,GW/paint.jpg,,,,49,GW/soldier.jpg,GW/snail.jpg,1,0.5,,,,GW/soldier.jpg,,,,,Two Edge Diff,Four Edge Six Edge
null,,html-keyboard-response,1314078,<p></p>,,,,null,,,,,,,,,,,,,,
3707.899999976158,,shortestpath_phase,1317788,GW/gong.jpg,,,,49,GW/snail.jpg,GW/hat.jpg,0,0.4444444444444444,,,,GW/hat.jpg,,,,,Three Edge Diff,Three Edge Six Edge
null,,html-keyboard-response,1318793,<p></p>,,,,null,,,,,,,,,,,,,,
2808.899999976158,,shortestpath_phase,1321604,GW/paint.jpg,,,,49,GW/globe.jpg,GW/teeth.jpg,0,0.4,,,,GW/teeth.jpg,,,,,Two Edge Diff,Four Edge Six Edge
null,,html-keyboard-response,1322608,<p></p>,,,,null,,,,,,,,,,,,,,
3985.899999976158,,shortestpath_phase,1326597,GW/snail.jpg,,,,50,GW/dustpan.jpg,GW/hat.jpg,1,0.45454545454545453,,,,GW/hat.jpg,,,,,Two Edge Diff,Three Edge Five Edge
null,,html-keyboard-response,1327600,<p></p>,,,,null,,,,,,,,,,,,,,
4698,,shortestpath_phase,1332300,GW/dustpan.jpg,,,,50,GW/globe.jpg,GW/barrel.jpg,1,0.5,,,,GW/barrel.jpg,,,,,One Edge Diff,Five Edge Six Edge
null,,html-keyboard-response,1333305,<p></p>,,,,null,,,,,,,,,,,,,,
4457.700000047684,,shortestpath_phase,1337765,GW/paint.jpg,,,,49,GW/wheelchair.jpg,GW/snail.jpg,1,0.5384615384615384,,,,GW/wheelchair.jpg,,,,,One Edge Diff,Five Edge Six Edge
null,,html-keyboard-response,1338769,<p></p>,,,,null,,,,,,,,,,,,,,
5160.699999928474,,shortestpath_phase,1343932,GW/barrel.jpg,,,,50,GW/camera.jpg,GW/hat.jpg,1,0.5714285714285714,,,,GW/hat.jpg,,,,,Two Edge Diff,Two Edge Four Edge
null,,html-keyboard-response,1344937,<p></p>,,,,null,,,,,,,,,,,,,,
4129.300000071526,,shortestpath_phase,1349069,GW/globe.jpg,,,,49,GW/wheelchair.jpg,GW/gong.jpg,1,0.6,,,,GW/wheelchair.jpg,,,,,Three Edge Diff,Three Edge Six Edge
null,,html-keyboard-response,1350079,<p></p>,,,,null,,,,,,,,,,,,,,
4226.399999976158,,shortestpath_phase,1354308,GW/hat.jpg,,,,50,GW/teeth.jpg,GW/snail.jpg,0,0.5625,,,,GW/teeth.jpg,,,,,One Edge Diff,Two Edge Three Edge
null,,html-keyboard-response,1355312,<p></p>,,,,null,,,,,,,,,,,,,,
3361.600000023842,,shortestpath_phase,1358676,GW/paint.jpg,,,,49,GW/barrel.jpg,GW/globe.jpg,1,0.5882352941176471,,,,GW/barrel.jpg,,,,,One Edge Diff,Five Edge Six Edge
null,,html-keyboard-response,1359681,<p></p>,,,,null,,,,,,,,,,,,,,
2993.3000000715256,,shortestpath_phase,1362677,GW/dustpan.jpg,,,,49,GW/barrel.jpg,GW/wheelchair.jpg,0,0.5555555555555556,,,,GW/wheelchair.jpg,,,,,One Edge Diff,Four Edge Five Edge
null,,html-keyboard-response,1363681,<p></p>,,,,null,,,,,,,,,,,,,,
2927.2999999523163,,shortestpath_phase,1366611,GW/snail.jpg,,,,50,GW/jukebox.jpg,GW/barrel.jpg,1,0.5789473684210527,,,,GW/barrel.jpg,,,,,Two Edge Diff,Two Edge Four Edge
null,,html-keyboard-response,1367613,<p></p>,,,,null,,,,,,,,,,,,,,
3917.7999999523163,,shortestpath_phase,1371533,GW/wheelchair.jpg,,,,50,GW/gong.jpg,GW/hat.jpg,1,0.6,,,,GW/hat.jpg,,,,,Two Edge Diff,Two Edge Four Edge
null,,html-keyboard-response,1372536,<p></p>,,,,null,,,,,,,,,,,,,,
3698.2999999523163,,shortestpath_phase,1376237,GW/camera.jpg,,,,49,GW/soldier.jpg,GW/globe.jpg,1,0.6190476190476191,,,,GW/soldier.jpg,,,,,Two Edge Diff,Three Edge Five Edge
null,,html-keyboard-response,1377241,<p></p>,,,,null,,,,,,,,,,,,,,
4617.200000047684,,shortestpath_phase,1381860,GW/barrel.jpg,,,,50,GW/teeth.jpg,GW/paint.jpg,0,0.5909090909090909,,,,GW/teeth.jpg,,,,,Three Edge Diff,Two Edge Five Edge
null,,html-keyboard-response,1382865,<p></p>,,,,null,,,,,,,,,,,,,,
2625.2000000476837,,shortestpath_phase,1385492,GW/dustpan.jpg,,,,49,GW/globe.jpg,GW/wheelchair.jpg,0,0.5652173913043478,,,,GW/wheelchair.jpg,,,,,Two Edge Diff,Four Edge Six Edge
null,,html-keyboard-response,1386497,<p></p>,,,,null,,,,,,,,,,,,,,
4418.299999952316,,shortestpath_phase,1390918,GW/snail.jpg,,,,50,GW/teeth.jpg,GW/paint.jpg,0,0.5416666666666666,,,,GW/teeth.jpg,,,,,Four Edge Diff,Two Edge Six Edge
null,,html-keyboard-response,1391923,<p></p>,,,,null,,,,,,,,,,,,,,
3968.3000000715256,,shortestpath_phase,1395893,GW/gong.jpg,,,,50,GW/globe.jpg,GW/dustpan.jpg,1,0.56,,,,GW/dustpan.jpg,,,,,Three Edge Diff,Three Edge Six Edge
null,,html-keyboard-response,1396897,<p></p>,,,,null,,,,,,,,,,,,,,
3984.399999976158,,shortestpath_phase,1400884,GW/snail.jpg,,,,49,GW/paint.jpg,GW/jukebox.jpg,0,0.5384615384615384,,,,GW/jukebox.jpg,,,,,Two Edge Diff,Four Edge Six Edge
null,,html-keyboard-response,1401888,<p></p>,,,,null,,,,,,,,,,,,,,
2945.899999976158,,shortestpath_phase,1404837,GW/globe.jpg,,,,50,GW/camera.jpg,GW/wheelchair.jpg,1,0.5555555555555556,,,,GW/wheelchair.jpg,,,,,Three Edge Diff,Three Edge Six Edge
null,,html-keyboard-response,1405843,<p></p>,,,,null,,,,,,,,,,,,,,
3549,,shortestpath_phase,1409394,GW/snail.jpg,,,,50,GW/dustpan.jpg,GW/soldier.jpg,1,0.5714285714285714,,,,GW/soldier.jpg,,,,,Three Edge Diff,Three Edge Six Edge
null,,html-keyboard-response,1410397,<p></p>,,,,null,,,,,,,,,,,,,,
4380.800000071526,,shortestpath_phase,1414780,GW/barrel.jpg,,,,50,GW/basket.jpg,GW/dustpan.jpg,0,0.5517241379310345,,,,GW/basket.jpg,,,,,Two Edge Diff,Three Edge Five Edge
null,,html-keyboard-response,1415785,<p></p>,,,,null,,,,,,,,,,,,,,
4833,,shortestpath_phase,1420621,GW/teeth.jpg,,,,49,GW/snail.jpg,GW/globe.jpg,1,0.5666666666666667,,,,GW/snail.jpg,,,,,One Edge Diff,Two Edge Three Edge
null,,html-keyboard-response,1421625,<p></p>,,,,null,,,,,,,,,,,,,,
3185,,shortestpath_phase,1424812,GW/camera.jpg,,,,49,GW/paint.jpg,GW/globe.jpg,1,0.5806451612903226,,,,GW/paint.jpg,,,,,Three Edge Diff,Two Edge Five Edge
null,,html-keyboard-response,1425816,<p></p>,,,,null,,,,,,,,,,,,,,
2632.600000023842,,shortestpath_phase,1428450,GW/snail.jpg,,,,50,GW/soldier.jpg,GW/dustpan.jpg,0,0.5625,,,,GW/soldier.jpg,,,,,Three Edge Diff,Two Edge Five Edge
null,,html-keyboard-response,1429452,<p></p>,,,,null,,,,,,,,,,,,,,
4046.0999999046326,,shortestpath_phase,1433502,GW/teeth.jpg,,,,50,GW/gong.jpg,GW/hat.jpg,1,0.5757575757575758,,,,GW/hat.jpg,,,,,One Edge Diff,Two Edge Three Edge
null,,html-keyboard-response,1434506,<p></p>,,,,null,,,,,,,,,,,,,,
3023.1999999284744,,shortestpath_phase,1437532,GW/jukebox.jpg,,,,50,GW/camera.jpg,GW/dustpan.jpg,0,0.5588235294117647,,,,GW/camera.jpg,,,,,One Edge Diff,Two Edge Three Edge
null,,html-keyboard-response,1438536,<p></p>,,,,null,,,,,,,,,,,,,,
2633.100000023842,,shortestpath_phase,1441172,GW/snail.jpg,,,,49,GW/teeth.jpg,GW/dustpan.jpg,1,0.5714285714285714,,,,GW/teeth.jpg,,,,,Three Edge Diff,Two Edge Five Edge
null,,html-keyboard-response,1442176,<p></p>,,,,null,,,,,,,,,,,,,,
3153.100000023842,,shortestpath_phase,1445331,GW/wheelchair.jpg,,,,49,GW/paint.jpg,GW/jukebox.jpg,0,0.5555555555555556,,,,GW/jukebox.jpg,,,,,Two Edge Diff,Three Edge Five Edge
null,,html-keyboard-response,1446335,<p></p>,,,,null,,,,,,,,,,,,,,
4267.200000047684,,shortestpath_phase,1450604,GW/snail.jpg,,,,50,GW/teeth.jpg,GW/jukebox.jpg,0,0.5405405405405406,,,,GW/teeth.jpg,,,,,Two Edge Diff,Two Edge Four Edge
null,,html-keyboard-response,1451608,<p></p>,,,,null,,,,,,,,,,,,,,
3257.399999976158,,shortestpath_phase,1454868,GW/globe.jpg,,,,49,GW/dustpan.jpg,GW/wheelchair.jpg,0,0.5263157894736842,,,,GW/wheelchair.jpg,,,,,Four Edge Diff,Two Edge Six Edge
null,,html-keyboard-response,1455873,<p></p>,,,,null,,,,,,,,,,,,,,
3617.2999999523163,,shortestpath_phase,1459493,GW/paint.jpg,,,,50,GW/dustpan.jpg,GW/teeth.jpg,0,0.5128205128205128,,,,GW/dustpan.jpg,,,,,One Edge Diff,Three Edge Four Edge
null,,html-keyboard-response,1460497,<p></p>,,,,null,,,,,,,,,,,,,,
2153.6999999284744,,shortestpath_phase,1462652,GW/wheelchair.jpg,,,,49,GW/paint.jpg,GW/globe.jpg,0,0.5,,,,GW/globe.jpg,,,,,Three Edge Diff,Two Edge Five Edge
null,,html-keyboard-response,1463657,<p></p>,,,,null,,,,,,,,,,,,,,
1592.7999999523163,,shortestpath_phase,1465252,GW/dustpan.jpg,,,,49,GW/hat.jpg,GW/wheelchair.jpg,1,0.5121951219512195,,,,GW/hat.jpg,,,,,One Edge Diff,Three Edge Four Edge
null,,html-keyboard-response,1466256,<p></p>,,,,null,,,,,,,,,,,,,,
2304.2999999523163,,shortestpath_phase,1468562,GW/teeth.jpg,,,,49,GW/paint.jpg,GW/jukebox.jpg,0,0.5,,,,GW/jukebox.jpg,,,,,One Edge Diff,Three Edge Four Edge
null,,html-keyboard-response,1469565,<p></p>,,,,null,,,,,,,,,,,,,,
2461.3000000715256,,shortestpath_phase,1472028,GW/hat.jpg,,,,49,GW/globe.jpg,GW/wheelchair.jpg,0,0.4883720930232558,,,,GW/wheelchair.jpg,,,,,One Edge Diff,Two Edge Three Edge
null,,html-keyboard-response,1473032,<p></p>,,,,null,,,,,,,,,,,,,,
3306.399999976158,,shortestpath_phase,1476340,GW/basket.jpg,,,,50,GW/gong.jpg,GW/barrel.jpg,0,0.4772727272727273,,,,GW/gong.jpg,,,,,One Edge Diff,Two Edge Three Edge
null,,html-keyboard-response,1477345,<p></p>,,,,null,,,,,,,,,,,,,,
2304.2999999523163,,shortestpath_phase,1479652,GW/teeth.jpg,,,,49,GW/paint.jpg,GW/dustpan.jpg,0,0.4666666666666667,,,,GW/dustpan.jpg,,,,,One Edge Diff,Three Edge Four Edge
null,,html-keyboard-response,1480656,<p></p>,,,,null,,,,,,,,,,,,,,
2259,,shortestpath_phase,1482917,GW/snail.jpg,,,,49,GW/dustpan.jpg,GW/jukebox.jpg,0,0.45652173913043476,,,,GW/jukebox.jpg,,,,,One Edge Diff,Four Edge Five Edge
null,,html-keyboard-response,1483921,<p></p>,,,,null,,,,,,,,,,,,,,
3136.7999999523163,,shortestpath_phase,1487060,GW/globe.jpg,,,,50,GW/basket.jpg,GW/dustpan.jpg,0,0.44680851063829785,,,,GW/basket.jpg,,,,,Two Edge Diff,Four Edge Six Edge
null,,html-keyboard-response,1488064,<p></p>,,,,null,,,,,,,,,,,,,,
3305.7999999523163,,shortestpath_phase,1491372,GW/dustpan.jpg,,,,49,GW/snail.jpg,GW/jukebox.jpg,0,0.4375,,,,GW/jukebox.jpg,,,,,Two Edge Diff,Three Edge Five Edge
null,,html-keyboard-response,1492376,<p></p>,,,,null,,,,,,,,,,,,,,
3378.600000023842,,shortestpath_phase,1495757,GW/camera.jpg,,,,49,GW/hat.jpg,GW/globe.jpg,1,0.4489795918367347,,,,GW/hat.jpg,,,,,Three Edge Diff,Three Edge Six Edge
null,,html-keyboard-response,1496762,<p></p>,,,,null,,,,,,,,,,,,,,
2360,,shortestpath_phase,1499124,GW/paint.jpg,,,,50,GW/basket.jpg,GW/barrel.jpg,0,0.44,,,,GW/basket.jpg,,,,,Two Edge Diff,Three Edge Five Edge
null,,html-keyboard-response,1500128,<p></p>,,,,null,,,,,,,,,,,,,,
5233.799999952316,,shortestpath_phase,1505364,GW/snail.jpg,,,,50,GW/paint.jpg,GW/gong.jpg,1,0.45098039215686275,,,,GW/gong.jpg,,,,,One Edge Diff,Five Edge Six Edge
null,,html-keyboard-response,1506368,<p></p>,,,,null,,,,,,,,,,,,,,
3634,,shortestpath_phase,1510005,GW/camera.jpg,,,,50,GW/wheelchair.jpg,GW/snail.jpg,0,0.4423076923076923,,,,GW/wheelchair.jpg,,,,,One Edge Diff,Three Edge Four Edge
null,,html-keyboard-response,1511008,<p></p>,,,,null,,,,,,,,,,,,,,
3322,,shortestpath_phase,1514332,GW/gong.jpg,,,,49,GW/globe.jpg,GW/hat.jpg,0,0.4339622641509434,,,,GW/hat.jpg,,,,,Three Edge Diff,Three Edge Six Edge
null,,html-keyboard-response,1515335,<p></p>,,,,null,,,,,,,,,,,,,,
3819.5,,shortestpath_phase,1519156,GW/jukebox.jpg,,,,49,GW/wheelchair.jpg,GW/globe.jpg,1,0.4444444444444444,,,,GW/wheelchair.jpg,,,,,One Edge Diff,Three Edge Four Edge
null,,html-keyboard-response,1520160,<p></p>,,,,null,,,,,,,,,,,,,,
4338.200000047684,,shortestpath_phase,1524501,GW/globe.jpg,,,,50,GW/paint.jpg,GW/gong.jpg,1,0.45454545454545453,,,,GW/gong.jpg,,,,,One Edge Diff,Five Edge Six Edge
null,,html-keyboard-response,1525505,<p></p>,,,,null,,,,,,,,,,,,,,
2329,,shortestpath_phase,1527836,GW/camera.jpg,,,,50,GW/teeth.jpg,GW/barrel.jpg,0,0.44642857142857145,,,,GW/teeth.jpg,,,,,Two Edge Diff,Two Edge Four Edge
null,,html-keyboard-response,1528855,<p></p>,,,,null,,,,,,,,,,,,,,
1521.6999999284744,,shortestpath_phase,1530379,GW/dustpan.jpg,,,,49,GW/barrel.jpg,GW/gong.jpg,0,0.43859649122807015,,,,GW/gong.jpg,,,,,Three Edge Diff,Two Edge Five Edge
null,,html-keyboard-response,1531381,<p></p>,,,,null,,,,,,,,,,,,,,
2372.2999999523163,,shortestpath_phase,1533756,GW/barrel.jpg,,,,50,GW/snail.jpg,GW/dustpan.jpg,0,0.43103448275862066,,,,GW/snail.jpg,,,,,Three Edge Diff,Two Edge Five Edge
null,,html-keyboard-response,1534761,<p></p>,,,,null,,,,,,,,,,,,,,
2673.5,,shortestpath_phase,1537437,GW/dustpan.jpg,,,,49,GW/globe.jpg,GW/gong.jpg,0,0.423728813559322,,,,GW/gong.jpg,,,,,Four Edge Diff,Two Edge Six Edge
null,,html-keyboard-response,1538441,<p></p>,,,,null,,,,,,,,,,,,,,
3400.7000000476837,,shortestpath_phase,1541844,GW/camera.jpg,,,,50,GW/barrel.jpg,GW/globe.jpg,0,0.4166666666666667,,,,GW/barrel.jpg,,,,,One Edge Diff,Four Edge Five Edge
null,,html-keyboard-response,1542848,<p></p>,,,,null,,,,,,,,,,,,,,
3058.3000000715256,,shortestpath_phase,1545908,GW/gong.jpg,,,,50,GW/globe.jpg,GW/wheelchair.jpg,1,0.4262295081967213,,,,GW/wheelchair.jpg,,,,,One Edge Diff,Four Edge Five Edge
null,,html-keyboard-response,1546912,<p></p>,,,,null,,,,,,,,,,,,,,
2018.2000000476837,,shortestpath_phase,1548933,GW/jukebox.jpg,,,,49,GW/soldier.jpg,GW/globe.jpg,1,0.43548387096774194,,,,GW/soldier.jpg,,,,,Two Edge Diff,Two Edge Four Edge
null,,html-keyboard-response,1549938,<p></p>,,,,null,,,,,,,,,,,,,,
2399.7999999523163,,shortestpath_phase,1552340,GW/dustpan.jpg,,,,50,GW/gong.jpg,GW/paint.jpg,0,0.42857142857142855,,,,GW/gong.jpg,,,,,One Edge Diff,Two Edge Three Edge
null,,html-keyboard-response,1553345,<p></p>,,,,null,,,,,,,,,,,,,,
2088.1999999284744,,shortestpath_phase,1555436,GW/wheelchair.jpg,,,,49,GW/dustpan.jpg,GW/hat.jpg,0,0.421875,,,,GW/hat.jpg,,,,,Two Edge Diff,Two Edge Four Edge
null,,html-keyboard-response,1556441,<p></p>,,,,null,,,,,,,,,,,,,,
5880.799999952316,,shortestpath_phase,1562325,GW/snail.jpg,,,,49,GW/paint.jpg,GW/dustpan.jpg,0,0.4153846153846154,,,,GW/dustpan.jpg,,,,,One Edge Diff,Five Edge Six Edge
null,,html-keyboard-response,1563330,<p></p>,,,,null,,,,,,,,,,,,,,
2976.0999999046326,,shortestpath_phase,1566308,GW/gong.jpg,,,,49,GW/soldier.jpg,GW/globe.jpg,1,0.42424242424242425,,,,GW/soldier.jpg,,,,,Two Edge Diff,Three Edge Five Edge
null,,html-keyboard-response,1567312,<p></p>,,,,null,,,,,,,,,,,,,,
3433.0999999046326,,shortestpath_phase,1570748,GW/globe.jpg,,,,50,GW/gong.jpg,GW/jukebox.jpg,1,0.43283582089552236,,,,GW/jukebox.jpg,,,,,One Edge Diff,Four Edge Five Edge
null,,html-keyboard-response,1571753,<p></p>,,,,null,,,,,,,,,,,,,,
3937.2999999523163,,shortestpath_phase,1575693,GW/snail.jpg,,,,50,GW/soldier.jpg,GW/paint.jpg,0,0.4264705882352941,,,,GW/soldier.jpg,,,,,Four Edge Diff,Two Edge Six Edge
null,,html-keyboard-response,1576698,<p></p>,,,,null,,,,,,,,,,,,,,
2231,,shortestpath_phase,1578932,GW/paint.jpg,,,,49,GW/barrel.jpg,GW/jukebox.jpg,0,0.42028985507246375,,,,GW/jukebox.jpg,,,,,Three Edge Diff,Two Edge Five Edge
null,,html-keyboard-response,1579935,<p></p>,,,,null,,,,,,,,,,,,,,
3938.7000000476837,,shortestpath_phase,1583876,GW/globe.jpg,,,,50,GW/camera.jpg,GW/soldier.jpg,1,0.42857142857142855,,,,GW/soldier.jpg,,,,,Three Edge Diff,Three Edge Six Edge
null,,html-keyboard-response,1584881,<p></p>,,,,null,,,,,,,,,,,,,,
3617,,shortestpath_phase,1588501,GW/jukebox.jpg,,,,49,GW/globe.jpg,GW/basket.jpg,0,0.4225352112676056,,,,GW/basket.jpg,,,,,Two Edge Diff,Two Edge Four Edge
null,,html-keyboard-response,1589505,<p></p>,,,,null,,,,,,,,,,,,,,
4856.699999928474,,shortestpath_phase,1594364,GW/paint.jpg,,,,49,GW/barrel.jpg,GW/hat.jpg,0,0.4166666666666667,,,,GW/hat.jpg,,,,,Two Edge Diff,Three Edge Five Edge
null,,html-keyboard-response,1595368,<p></p>,,,,null,,,,,,,,,,,,,,
2178.4000000953674,,shortestpath_phase,1597548,GW/snail.jpg,,,,50,GW/basket.jpg,GW/dustpan.jpg,0,0.410958904109589,,,,GW/basket.jpg,,,,,Two Edge Diff,Three Edge Five Edge
null,,html-keyboard-response,1598552,<p></p>,,,,null,,,,,,,,,,,,,,
6203.400000095367,,shortestpath_phase,1604757,GW/paint.jpg,,,,50,GW/globe.jpg,GW/jukebox.jpg,1,0.4189189189189189,,,,GW/jukebox.jpg,,,,,Four Edge Diff,Two Edge Six Edge
null,,html-keyboard-response,1605762,<p></p>,,,,null,,,,,,,,,,,,,,
2639.3000000715256,,shortestpath_phase,1608404,GW/dustpan.jpg,,,,49,GW/globe.jpg,GW/soldier.jpg,0,0.41333333333333333,,,,GW/soldier.jpg,,,,,Two Edge Diff,Four Edge Six Edge
null,,html-keyboard-response,1609414,<p></p>,,,,null,,,,,,,,,,,,,,
5035,,shortestpath_phase,1614450,GW/teeth.jpg,,,,50,GW/barrel.jpg,GW/jukebox.jpg,0,0.40789473684210525,,,,GW/barrel.jpg,,,,,One Edge Diff,Two Edge Three Edge
null,,html-keyboard-response,1615454,<p></p>,,,,null,,,,,,,,,,,,,,
2581.100000023842,,shortestpath_phase,1618037,GW/globe.jpg,,,,50,GW/basket.jpg,GW/paint.jpg,0,0.4025974025974026,,,,GW/basket.jpg,,,,,Two Edge Diff,Four Edge Six Edge
null,,html-keyboard-response,1619042,<p></p>,,,,null,,,,,,,,,,,,,,
4632,,shortestpath_phase,1623676,GW/dustpan.jpg,,,,49,GW/teeth.jpg,GW/wheelchair.jpg,1,0.41025641025641024,,,,GW/teeth.jpg,,,,,One Edge Diff,Three Edge Four Edge
null,,html-keyboard-response,1624681,<p></p>,,,,null,,,,,,,,,,,,,,
4784.899999976158,,shortestpath_phase,1629469,GW/paint.jpg,,,,50,GW/camera.jpg,GW/globe.jpg,0,0.4050632911392405,,,,GW/camera.jpg,,,,,Four Edge Diff,Two Edge Six Edge
null,,html-keyboard-response,1630473,<p></p>,,,,null,,,,,,,,,,,,,,
2792.4000000953674,,shortestpath_phase,1633268,GW/globe.jpg,,,,49,GW/jukebox.jpg,GW/teeth.jpg,0,0.4,,,,GW/teeth.jpg,,,,,One Edge Diff,Three Edge Four Edge
null,,html-keyboard-response,1634272,<p></p>,,,,null,,,,,,,,,,,,,,
3688.9000000953674,,shortestpath_phase,1637964,GW/soldier.jpg,,,,49,GW/paint.jpg,GW/basket.jpg,0,0.3950617283950617,,,,GW/basket.jpg,,,,,Two Edge Diff,Two Edge Four Edge
null,,html-keyboard-response,1638968,<p></p>,,,,null,,,,,,,,,,,,,,
3859,,shortestpath_phase,1642829,GW/barrel.jpg,,,,50,GW/basket.jpg,GW/teeth.jpg,1,0.4024390243902439,,,,GW/teeth.jpg,,,,,One Edge Diff,Two Edge Three Edge
null,,html-keyboard-response,1643833,<p></p>,,,,null,,,,,,,,,,,,,,
2112.5999999046326,,shortestpath_phase,1645948,GW/dustpan.jpg,,,,50,GW/basket.jpg,GW/barrel.jpg,0,0.39759036144578314,,,,GW/basket.jpg,,,,,Three Edge Diff,Two Edge Five Edge
null,,html-keyboard-response,1646952,<p></p>,,,,null,,,,,,,,,,,,,,
2985.2999999523163,,shortestpath_phase,1649940,GW/snail.jpg,,,,49,GW/gong.jpg,GW/soldier.jpg,0,0.39285714285714285,,,,GW/soldier.jpg,,,,,Three Edge Diff,Three Edge Six Edge
null,,html-keyboard-response,1650944,<p></p>,,,,null,,,,,,,,,,,,,,
2497.7999999523163,,shortestpath_phase,1653442,GW/globe.jpg,,,,50,GW/camera.jpg,GW/paint.jpg,0,0.38823529411764707,,,,GW/camera.jpg,,,,,One Edge Diff,Five Edge Six Edge
null,,html-keyboard-response,1654444,<p></p>,,,,null,,,,,,,,,,,,,,
3820.2000000476837,,shortestpath_phase,1658266,GW/paint.jpg,,,,50,GW/globe.jpg,GW/wheelchair.jpg,1,0.3953488372093023,,,,GW/wheelchair.jpg,,,,,One Edge Diff,Five Edge Six Edge
null,,html-keyboard-response,1659268,<p></p>,,,,null,,,,,,,,,,,,,,
4654.599999904633,,shortestpath_phase,1663925,GW/gong.jpg,,,,50,GW/basket.jpg,GW/snail.jpg,0,0.39080459770114945,,,,GW/basket.jpg,,,,,Three Edge Diff,Two Edge Five Edge
null,,html-keyboard-response,1664929,<p></p>,,,,null,,,,,,,,,,,,,,
1870.8999999761581,,shortestpath_phase,1666802,GW/hat.jpg,,,,49,GW/barrel.jpg,GW/paint.jpg,1,0.3977272727272727,,,,GW/barrel.jpg,,,,,One Edge Diff,Two Edge Three Edge
null,,html-keyboard-response,1667806,<p></p>,,,,null,,,,,,,,,,,,,,
2899.7000000476837,,shortestpath_phase,1670708,GW/globe.jpg,,,,50,GW/jukebox.jpg,GW/paint.jpg,0,0.39325842696629215,,,,GW/jukebox.jpg,,,,,Two Edge Diff,Four Edge Six Edge
null,,html-keyboard-response,1671712,<p></p>,,,,null,,,,,,,,,,,,,,
2314.399999976158,,shortestpath_phase,1674029,GW/paint.jpg,,,,50,GW/globe.jpg,GW/soldier.jpg,1,0.4,,,,GW/soldier.jpg,,,,,Two Edge Diff,Four Edge Six Edge
null,,html-keyboard-response,1675033,<p></p>,,,,null,,,,,,,,,,,,,,
3360.7999999523163,,shortestpath_phase,1678396,GW/globe.jpg,,,,50,GW/camera.jpg,GW/dustpan.jpg,0,0.3956043956043956,,,,GW/camera.jpg,,,,,One Edge Diff,Five Edge Six Edge
null,,html-keyboard-response,1679401,<p></p>,,,,null,,,,,,,,,,,,,,
2296.8000000715256,,shortestpath_phase,1681700,GW/paint.jpg,,,,49,GW/soldier.jpg,GW/dustpan.jpg,0,0.391304347826087,,,,GW/dustpan.jpg,,,,,One Edge Diff,Three Edge Four Edge
null,,html-keyboard-response,1682705,<p></p>,,,,null,,,,,,,,,,,,,,
4009.3000000715256,,shortestpath_phase,1686717,GW/barrel.jpg,,,,50,GW/jukebox.jpg,GW/camera.jpg,0,0.3870967741935484,,,,GW/jukebox.jpg,,,,,One Edge Diff,Three Edge Four Edge
null,,html-keyboard-response,1687734,<p></p>,,,,null,,,,,,,,,,,,,,
1938.9000000953674,,shortestpath_phase,1689676,GW/dustpan.jpg,,,,49,GW/globe.jpg,GW/basket.jpg,0,0.3829787234042553,,,,GW/basket.jpg,,,,,Four Edge Diff,Two Edge Six Edge
null,,html-keyboard-response,1690680,<p></p>,,,,null,,,,,,,,,,,,,,
3144.8000000715256,,shortestpath_phase,1693828,GW/globe.jpg,,,,49,GW/soldier.jpg,GW/dustpan.jpg,1,0.3894736842105263,,,,GW/soldier.jpg,,,,,Four Edge Diff,Two Edge Six Edge
null,,html-keyboard-response,1694832,<p></p>,,,,null,,,,,,,,,,,,,,
2449.600000023842,,shortestpath_phase,1697285,GW/dustpan.jpg,,,,50,GW/gong.jpg,GW/barrel.jpg,0,0.3854166666666667,,,,GW/gong.jpg,,,,,Three Edge Diff,Three Edge Six Edge
null,,html-keyboard-response,1698289,<p></p>,,,,null,,,,,,,,,,,,,,
3080.7000000476837,,shortestpath_phase,1701372,GW/globe.jpg,,,,49,GW/gong.jpg,GW/basket.jpg,0,0.38144329896907214,,,,GW/basket.jpg,,,,,One Edge Diff,Four Edge Five Edge
null,,html-keyboard-response,1702376,<p></p>,,,,null,,,,,,,,,,,,,,
3152.9000000953674,,shortestpath_phase,1705532,GW/dustpan.jpg,,,,49,GW/snail.jpg,GW/soldier.jpg,0,0.37755102040816324,,,,GW/soldier.jpg,,,,,One Edge Diff,Four Edge Five Edge
null,,html-keyboard-response,1706535,<p></p>,,,,null,,,,,,,,,,,,,,
3827.4000000953674,,shortestpath_phase,1710365,GW/camera.jpg,,,,50,GW/hat.jpg,GW/wheelchair.jpg,0,0.37373737373737376,,,,GW/hat.jpg,,,,,One Edge Diff,Two Edge Three Edge
null,,html-keyboard-response,1711369,<p></p>,,,,null,,,,,,,,,,,,,,
3448.8000000715256,,shortestpath_phase,1714820,GW/soldier.jpg,,,,49,GW/globe.jpg,GW/dustpan.jpg,1,0.38,,,,GW/globe.jpg,,,,,Two Edge Diff,Two Edge Four Edge
null,,html-keyboard-response,1715825,<p></p>,,,,null,,,,,,,,,,,,,,
3688.8000000715256,,shortestpath_phase,1719516,GW/snail.jpg,,,,50,GW/camera.jpg,GW/paint.jpg,0,0.37623762376237624,,,,GW/camera.jpg,,,,,Two Edge Diff,Four Edge Six Edge
null,,html-keyboard-response,1720520,<p></p>,,,,null,,,,,,,,,,,,,,
3577.899999976158,,shortestpath_phase,1724101,GW/wheelchair.jpg,,,,50,GW/dustpan.jpg,GW/paint.jpg,0,0.37254901960784315,,,,GW/dustpan.jpg,,,,,One Edge Diff,Four Edge Five Edge
null,,html-keyboard-response,1725105,<p></p>,,,,null,,,,,,,,,,,,,,
1703.9000000953674,,shortestpath_phase,1726810,GW/snail.jpg,,,,49,GW/barrel.jpg,GW/paint.jpg,1,0.3786407766990291,,,,GW/barrel.jpg,,,,,Four Edge Diff,Two Edge Six Edge
null,,html-keyboard-response,1727813,<p></p>,,,,null,,,,,,,,,,,,,,
2692.9000000953674,,shortestpath_phase,1730508,GW/camera.jpg,,,,49,GW/soldier.jpg,GW/hat.jpg,0,0.375,,,,GW/hat.jpg,,,,,One Edge Diff,Two Edge Three Edge
null,,html-keyboard-response,1731512,<p></p>,,,,null,,,,,,,,,,,,,,
4377.5,,shortestpath_phase,1735892,GW/paint.jpg,,,,50,GW/teeth.jpg,GW/snail.jpg,0,0.37142857142857144,,,,GW/teeth.jpg,,,,,Two Edge Diff,Four Edge Six Edge
null,,html-keyboard-response,1736896,<p></p>,,,,null,,,,,,,,,,,,,,
2834.600000023842,,shortestpath_phase,1739732,GW/soldier.jpg,,,,49,GW/paint.jpg,GW/snail.jpg,0,0.36792452830188677,,,,GW/snail.jpg,,,,,Two Edge Diff,Two Edge Four Edge
null,,html-keyboard-response,1740737,<p></p>,,,,null,,,,,,,,,,,,,,
3207.899999976158,,shortestpath_phase,1743947,GW/paint.jpg,,,,49,GW/jukebox.jpg,GW/wheelchair.jpg,1,0.37383177570093457,,,,GW/jukebox.jpg,,,,,Three Edge Diff,Two Edge Five Edge
null,,html-keyboard-response,1744950,<p></p>,,,,null,,,,,,,,,,,,,,
3427.7000000476837,,shortestpath_phase,1748381,GW/snail.jpg,,,,49,GW/camera.jpg,GW/dustpan.jpg,1,0.37962962962962965,,,,GW/camera.jpg,,,,,One Edge Diff,Four Edge Five Edge
null,,html-keyboard-response,1749385,<p></p>,,,,null,,,,,,,,,,,,,,
2288.8000000715256,,shortestpath_phase,1751676,GW/globe.jpg,,,,50,GW/jukebox.jpg,GW/dustpan.jpg,0,0.3761467889908257,,,,GW/jukebox.jpg,,,,,Two Edge Diff,Four Edge Six Edge
null,,html-keyboard-response,1752681,<p></p>,,,,null,,,,,,,,,,,,,,
1824.5,,shortestpath_phase,1754508,GW/barrel.jpg,,,,49,GW/paint.jpg,GW/teeth.jpg,0,0.37272727272727274,,,,GW/teeth.jpg,,,,,Three Edge Diff,Three Edge Six Edge
null,,html-keyboard-response,1755512,<p></p>,,,,null,,,,,,,,,,,,,,
3857.5,,shortestpath_phase,1759373,GW/gong.jpg,,,,49,GW/hat.jpg,GW/globe.jpg,1,0.3783783783783784,,,,GW/hat.jpg,,,,,Three Edge Diff,Two Edge Five Edge
null,,html-keyboard-response,1760377,<p></p>,,,,null,,,,,,,,,,,,,,
2904.2999999523163,,shortestpath_phase,1763284,GW/paint.jpg,,,,49,GW/snail.jpg,GW/camera.jpg,0,0.375,,,,GW/camera.jpg,,,,,Four Edge Diff,Two Edge Six Edge
null,,html-keyboard-response,1764288,<p></p>,,,,null,,,,,,,,,,,,,,
2801.100000023842,,shortestpath_phase,1767092,GW/teeth.jpg,,,,49,GW/paint.jpg,GW/barrel.jpg,0,0.37168141592920356,,,,GW/barrel.jpg,,,,,Two Edge Diff,Two Edge Four Edge
null,,html-keyboard-response,1768097,<p></p>,,,,null,,,,,,,,,,,,,,
2945.3000000715256,,shortestpath_phase,1771045,GW/paint.jpg,,,,50,GW/wheelchair.jpg,GW/hat.jpg,1,0.37719298245614036,,,,GW/hat.jpg,,,,,Two Edge Diff,Three Edge Five Edge
null,,html-keyboard-response,1772050,<p></p>,,,,null,,,,,,,,,,,,,,
2943.399999976158,,shortestpath_phase,1774996,GW/gong.jpg,,,,49,GW/snail.jpg,GW/soldier.jpg,0,0.3739130434782609,,,,GW/soldier.jpg,,,,,Two Edge Diff,Three Edge Five Edge
null,,html-keyboard-response,1776001,<p></p>,,,,null,,,,,,,,,,,,,,
2551.5,,shortestpath_phase,1778554,GW/paint.jpg,,,,49,GW/barrel.jpg,GW/snail.jpg,1,0.3793103448275862,,,,GW/barrel.jpg,,,,,One Edge Diff,Five Edge Six Edge
null,,html-keyboard-response,1779557,<p></p>,,,,null,,,,,,,,,,,,,,
2996.899999976158,,shortestpath_phase,1782557,GW/globe.jpg,,,,49,GW/paint.jpg,GW/wheelchair.jpg,0,0.37606837606837606,,,,GW/wheelchair.jpg,,,,,Four Edge Diff,Two Edge Six Edge
null,,html-keyboard-response,1783561,<p></p>,,,,null,,,,,,,,,,,,,,
1840.2000000476837,,shortestpath_phase,1785404,GW/barrel.jpg,,,,49,GW/dustpan.jpg,GW/camera.jpg,0,0.3728813559322034,,,,GW/camera.jpg,,,,,One Edge Diff,Four Edge Five Edge
null,,html-keyboard-response,1786409,<p></p>,,,,null,,,,,,,,,,,,,,
null,,shortestpath_phase,1793912,,,,,null,,,0,0.3697478991596639,,,,,,,,,One Edge Diff,Four Edge Five Edge
null,,html-keyboard-response,1794915,<p></p>,,,,null,,,,,,,,,,,,,,
2646.7000000476837,,shortestpath_phase,1797565,,,,,50,,,1,0.375,,,,,,,,,Three Edge Diff,Three Edge Six Edge
null,,html-keyboard-response,1798569,<p></p>,,,,null,,,,,,,,,,,,,,
1560.2000000476837,,shortestpath_phase,1800132,,,,,49,,,1,0.38016528925619836,,,,,,,,,One Edge Diff,Three Edge Four Edge
null,,html-keyboard-response,1801137,<p></p>,,,,null,,,,,,,,,,,,,,
51887.799999952316,,intro_1,1853026,instruct,,0,,,,,,,,,,,,,,,,
42422.60000002384,,intro_2,1895450,instruct,,1,Next,,,,,,,,,,,,,,,
2182.399999976158,,intro_3,1897634,instruct,,1,Next,,,,,,,,,,,,,,,
