rt,responses,trial_type,time_elapsed,stimulus,graphorder,button_pressed,response,key_press,stimulus_left,stimulus_right,accuracy,cumulative_accuracy,stimulus_down_left,stimulus_down_mid,stimulus_down_right,stimulus_correct,stimulus_short,stimulus_far,weighted_accuracy,missedtrial,condition,specific_pairs
6782.699999809265,{worker_id:67d4ab2b6bcf2affcb4d66ec},id_enter,6790,id_enter,GW/jukebox.jpg; GW/gong.jpg; GW/basket.jpg; GW/camera.jpg; GW/barrel.jpg; GW/hat.jpg; GW/paint.jpg; GW/dustpan.jpg; GW/soldier.jpg; GW/teeth.jpg; GW/snail.jpg; GW/wheelchair.jpg; GW/globe.jpg,,,,,,,,,,,,,,,,,
15118.100000143051,,fullscreen,21914,fullscreen,,0,,,,,,,,,,,,,,,,
22763.299999952316,,intro_1,44682,instruct,,0,,,,,,,,,,,,,,,,
21637.900000095367,,intro_2,66322,instruct,,1,Next,,,,,,,,,,,,,,,
11470.400000095367,,intro_3,77795,instruct,,1,Next,,,,,,,,,,,,,,,
null,,learn_prac_1,79799,lean_prac_1,,,,null,,,,,,,,,,,,,,
null,,html-keyboard-response,80803,<p></p>,,,,null,,,,,,,,,,,,,,
6118.299999952316,,intro_1,86923,instruct,,0,,,,,,,,,,,,,,,,
8983,,intro_2,95907,instruct,,1,Next,,,,,,,,,,,,,,,
null,,learn_prac_2,97910,lean_prac_2,,,,null,,,,,,,,,,,,,,
null,,html-keyboard-response,98914,<p></p>,,,,null,,,,,,,,,,,,,,
4423.800000190735,,intro_1,103339,instruct,,0,,,,,,,,,,,,,,,,
6918.5,,intro_2,110259,instruct,,1,Next,,,,,,,,,,,,,,,
30782.599999904633,,intro_3,141045,instruct,,1,Next,,,,,,,,,,,,,,,
null,,prac_atten_color_black,141665,black_plus_sign,,,,null,,,,,,,,,,,,,,
null,,prac_atten_color,142450,prac_stop_color,,,,null,,,,,,,,,,,,,,
null,,prac_atten_color_black,144453,black_plus_sign,,,,null,,,,,,,,,,,,,,
7902.099999904633,,attentioncheck_help,152358,instruct,,,,32,,,,,,,,,,,,,,
null,,prac_atten_color_black,152981,black_plus_sign,,,,null,,,,,,,,,,,,,,
535.2000000476837,,prac_atten_color,154006,prac_stop_color,,,,50,,,,,,,,,,,,,,
null,,prac_atten_color_black,156008,black_plus_sign,,,,null,,,,,,,,,,,,,,
null,,prac_atten_color_black,156389,black_plus_sign,,,,null,,,,,,,,,,,,,,
663.2000000476837,,prac_atten_color,157276,prac_stop_color,,,,50,,,,,,,,,,,,,,
null,,prac_atten_color_black,159279,black_plus_sign,,,,null,,,,,,,,,,,,,,
null,,prac_atten_color_black,159798,black_plus_sign,,,,null,,,,,,,,,,,,,,
590.6000001430511,,prac_atten_color,160557,prac_stop_color,,,,49,,,,,,,,,,,,,,
null,,prac_atten_color_black,162559,black_plus_sign,,,,null,,,,,,,,,,,,,,
null,,prac_atten_color_black,163206,black_plus_sign,,,,null,,,,,,,,,,,,,,
null,,prac_atten_color,163757,prac_stop_color,,,,null,,,,,,,,,,,,,,
134.29999995231628,,prac_atten_color_black,165759,black_plus_sign,,,,50,,,,,,,,,,,,,,
null,,prac_atten_color_black,166614,black_plus_sign,,,,null,,,,,,,,,,,,,,
null,,prac_atten_color,167087,prac_stop_color,,,,null,,,,,,,,,,,,,,
216.10000014305115,,prac_atten_color_black,169089,black_plus_sign,,,,50,,,,,,,,,,,,,,
null,,prac_atten_color_black,170021,black_plus_sign,,,,null,,,,,,,,,,,,,,
635.9000000953674,,prac_atten_color,170832,prac_stop_color,,,,49,,,,,,,,,,,,,,
null,,prac_atten_color_black,172835,black_plus_sign,,,,null,,,,,,,,,,,,,,
null,,prac_atten_color_black,173428,black_plus_sign,,,,null,,,,,,,,,,,,,,
558.5,,prac_atten_color,174074,prac_stop_color,,,,50,,,,,,,,,,,,,,
null,,prac_atten_color_black,176076,black_plus_sign,,,,null,,,,,,,,,,,,,,
null,,prac_atten_color_black,176835,black_plus_sign,,,,null,,,,,,,,,,,,,,
584.5999999046326,,prac_atten_color,177609,prac_stop_color,,,,49,,,,,,,,,,,,,,
null,,prac_atten_color_black,179612,black_plus_sign,,,,null,,,,,,,,,,,,,,
null,,prac_atten_color_black,180243,black_plus_sign,,,,null,,,,,,,,,,,,,,
557.6999998092651,,prac_atten_color,181033,prac_stop_color,,,,49,,,,,,,,,,,,,,
null,,prac_atten_color_black,183036,black_plus_sign,,,,null,,,,,,,,,,,,,,
7542.599999904633,,attentioncheck_feedback,190582,cross_check_feedback,,0,,,,,,,,,,,,,,,,
24763.10000014305,,last_instruct,215347,instruct,,,,32,,,,,,,,,,,,,,
null,,learn_phase(without_color),217349,black_plus_sign,,,,null,GW/paint.jpg,GW/soldier.jpg,,,,,,,,,,,,
null,,black_cross(without_color),218071,green,,,,null,GW/paint.jpg,GW/soldier.jpg,,,,,,,,,,,,
null,,rt_plussign_withcolor,218573,green,,,,null,GW/paint.jpg,GW/soldier.jpg,,,,,,,,,,,,
1132.3000001907349,,rt_thecrossant_black,219858,black_plus_sign,,,,50,,,1,1,,,,,,,,,,
null,,color_black,219961,black_plus_sign,,,,null,,,,,,,,,,,,,,
null,,learn_phase(without_color),221965,black_plus_sign,,,,null,GW/camera.jpg,GW/wheelchair.jpg,,,,,,,,,,,,
null,,black_cross(without_color),222636,blue,,,,null,GW/camera.jpg,GW/wheelchair.jpg,,,,,,,,,,,,
null,,rt_plussign_withcolor,223138,blue,,,,null,GW/camera.jpg,GW/wheelchair.jpg,,,,,,,,,,,,
1418.1000001430511,,rt_thecrossant_black,224473,black_plus_sign,,,,49,,,1,1,,,,,,,,,,
null,,color_black,224575,black_plus_sign,,,,null,,,,,,,,,,,,,,
null,,learn_phase(without_color),226579,black_plus_sign,,,,null,GW/paint.jpg,GW/dustpan.jpg,,,,,,,,,,,,
null,,black_cross(without_color),227261,blue,,,,null,GW/paint.jpg,GW/dustpan.jpg,,,,,,,,,,,,
null,,rt_plussign_withcolor,227763,blue,,,,null,GW/paint.jpg,GW/dustpan.jpg,,,,,,,,,,,,
818.9000000953674,,rt_thecrossant_black,229085,black_plus_sign,,,,49,,,1,1,,,,,,,,,,
null,,color_black,229188,black_plus_sign,,,,null,,,,,,,,,,,,,,
null,,learn_phase(without_color),231190,black_plus_sign,,,,null,GW/jukebox.jpg,GW/gong.jpg,,,,,,,,,,,,
null,,black_cross(without_color),231951,green,,,,null,GW/jukebox.jpg,GW/gong.jpg,,,,,,,,,,,,
null,,rt_plussign_withcolor,232452,green,,,,null,GW/jukebox.jpg,GW/gong.jpg,,,,,,,,,,,,
990.7000000476837,,rt_thecrossant_black,233697,black_plus_sign,,,,49,,,0,0.75,,,,,,,,,,
null,,color_black,233800,black_plus_sign,,,,null,,,,,,,,,,,,,,
null,,learn_phase(without_color),235816,black_plus_sign,,,,null,GW/gong.jpg,GW/camera.jpg,,,,,,,,,,,,
null,,black_cross(without_color),236653,green,,,,null,GW/gong.jpg,GW/camera.jpg,,,,,,,,,,,,
null,,rt_plussign_withcolor,237156,green,,,,null,GW/gong.jpg,GW/camera.jpg,,,,,,,,,,,,
1028,,rt_thecrossant_black,238323,black_plus_sign,,,,50,,,1,0.8,,,,,,,,,,
null,,color_black,238426,black_plus_sign,,,,null,,,,,,,,,,,,,,
null,,learn_phase(without_color),240430,black_plus_sign,,,,null,GW/hat.jpg,GW/paint.jpg,,,,,,,,,,,,
null,,black_cross(without_color),241038,blue,,,,null,GW/hat.jpg,GW/paint.jpg,,,,,,,,,,,,
null,,rt_plussign_withcolor,241542,blue,,,,null,GW/hat.jpg,GW/paint.jpg,,,,,,,,,,,,
1100.2999999523163,,rt_thecrossant_black,242938,black_plus_sign,,,,49,,,1,0.8333333333333334,,,,,,,,,,
null,,color_black,243040,black_plus_sign,,,,null,,,,,,,,,,,,,,
null,,learn_phase(without_color),245043,black_plus_sign,,,,null,GW/gong.jpg,GW/basket.jpg,,,,,,,,,,,,
null,,black_cross(without_color),246049,green,,,,null,GW/gong.jpg,GW/basket.jpg,,,,,,,,,,,,
null,,rt_plussign_withcolor,246550,green,,,,null,GW/gong.jpg,GW/basket.jpg,,,,,,,,,,,,
825,,rt_thecrossant_black,247552,black_plus_sign,,,,50,,,1,0.8571428571428571,,,,,,,,,,
null,,color_black,247654,black_plus_sign,,,,null,,,,,,,,,,,,,,
null,,learn_phase(without_color),249657,black_plus_sign,,,,null,GW/dustpan.jpg,GW/teeth.jpg,,,,,,,,,,,,
null,,black_cross(without_color),250735,blue,,,,null,GW/dustpan.jpg,GW/teeth.jpg,,,,,,,,,,,,
null,,rt_plussign_withcolor,251237,blue,,,,null,GW/dustpan.jpg,GW/teeth.jpg,,,,,,,,,,,,
1542.5,,rt_thecrossant_black,252165,black_plus_sign,,,,49,,,1,0.875,,,,,,,,,,
null,,color_black,252268,black_plus_sign,,,,null,,,,,,,,,,,,,,
null,,learn_phase(without_color),254270,black_plus_sign,,,,null,GW/jukebox.jpg,GW/gong.jpg,,,,,,,,,,,,
null,,black_cross(without_color),254883,green,,,,null,GW/jukebox.jpg,GW/gong.jpg,,,,,,,,,,,,
null,,rt_plussign_withcolor,255384,green,,,,null,GW/jukebox.jpg,GW/gong.jpg,,,,,,,,,,,,
1258.6000001430511,,rt_thecrossant_black,256775,black_plus_sign,,,,50,,,1,0.8888888888888888,,,,,,,,,,
null,,color_black,256878,black_plus_sign,,,,null,,,,,,,,,,,,,,
null,,learn_phase(without_color),258881,black_plus_sign,,,,null,GW/gong.jpg,GW/basket.jpg,,,,,,,,,,,,
null,,black_cross(without_color),259741,blue,,,,null,GW/gong.jpg,GW/basket.jpg,,,,,,,,,,,,
null,,rt_plussign_withcolor,260243,blue,,,,null,GW/gong.jpg,GW/basket.jpg,,,,,,,,,,,,
817,,rt_thecrossant_black,261392,black_plus_sign,,,,50,,,0,0.8,,,,,,,,,,
null,,color_black,261494,black_plus_sign,,,,null,,,,,,,,,,,,,,
null,,learn_phase(without_color),263498,black_plus_sign,,,,null,GW/paint.jpg,GW/dustpan.jpg,,,,,,,,,,,,
null,,black_cross(without_color),264260,green,,,,null,GW/paint.jpg,GW/dustpan.jpg,,,,,,,,,,,,
null,,rt_plussign_withcolor,264761,green,,,,null,GW/paint.jpg,GW/dustpan.jpg,,,,,,,,,,,,
1191.7999999523163,,rt_thecrossant_black,266005,black_plus_sign,,,,50,,,1,0.8181818181818182,,,,,,,,,,
null,,color_black,266107,black_plus_sign,,,,null,,,,,,,,,,,,,,
null,,learn_phase(without_color),268111,black_plus_sign,,,,null,GW/dustpan.jpg,GW/soldier.jpg,,,,,,,,,,,,
null,,black_cross(without_color),268896,blue,,,,null,GW/dustpan.jpg,GW/soldier.jpg,,,,,,,,,,,,
468.10000014305115,,rt_plussign_withcolor,269398,blue,,,,49,GW/dustpan.jpg,GW/soldier.jpg,,,,,,,,,,,,
null,,rt_thecrossant_black,270618,black_plus_sign,,,,null,,,1,0.8333333333333334,,,,,,,,,,
null,,color_black,270720,black_plus_sign,,,,null,,,,,,,,,,,,,,
null,,learn_phase(without_color),272724,black_plus_sign,,,,null,GW/gong.jpg,GW/basket.jpg,,,,,,,,,,,,
null,,black_cross(without_color),273510,blue,,,,null,GW/gong.jpg,GW/basket.jpg,,,,,,,,,,,,
null,,rt_plussign_withcolor,274013,blue,,,,null,GW/gong.jpg,GW/basket.jpg,,,,,,,,,,,,
979.1000001430511,,rt_thecrossant_black,275231,black_plus_sign,,,,49,,,1,0.8461538461538461,,,,,,,,,,
null,,color_black,275333,black_plus_sign,,,,null,,,,,,,,,,,,,,
null,,learn_phase(without_color),277337,black_plus_sign,,,,null,GW/gong.jpg,GW/camera.jpg,,,,,,,,,,,,
null,,black_cross(without_color),278361,green,,,,null,GW/gong.jpg,GW/camera.jpg,,,,,,,,,,,,
null,,rt_plussign_withcolor,278863,green,,,,null,GW/gong.jpg,GW/camera.jpg,,,,,,,,,,,,
1154,,rt_thecrossant_black,279844,black_plus_sign,,,,50,,,1,0.8571428571428571,,,,,,,,,,
null,,color_black,279948,black_plus_sign,,,,null,,,,,,,,,,,,,,
null,,learn_phase(without_color),281951,black_plus_sign,,,,null,GW/soldier.jpg,GW/snail.jpg,,,,,,,,,,,,
null,,black_cross(without_color),282605,green,,,,null,GW/soldier.jpg,GW/snail.jpg,,,,,,,,,,,,
null,,rt_plussign_withcolor,283107,green,,,,null,GW/soldier.jpg,GW/snail.jpg,,,,,,,,,,,,
1486,,rt_thecrossant_black,284459,black_plus_sign,,,,50,,,1,0.8666666666666667,,,,,,,,,,
null,,color_black,284561,black_plus_sign,,,,null,,,,,,,,,,,,,,
null,,learn_phase(without_color),286575,black_plus_sign,,,,null,GW/dustpan.jpg,GW/soldier.jpg,,,,,,,,,,,,
null,,black_cross(without_color),287299,blue,,,,null,GW/dustpan.jpg,GW/soldier.jpg,,,,,,,,,,,,
null,,rt_plussign_withcolor,287801,blue,,,,null,GW/dustpan.jpg,GW/soldier.jpg,,,,,,,,,,,,
798.9000000953674,,rt_thecrossant_black,289081,black_plus_sign,,,,49,,,1,0.875,,,,,,,,,,
null,,color_black,289183,black_plus_sign,,,,null,,,,,,,,,,,,,,
null,,learn_phase(without_color),291186,black_plus_sign,,,,null,GW/hat.jpg,GW/paint.jpg,,,,,,,,,,,,
null,,black_cross(without_color),291695,green,,,,null,GW/hat.jpg,GW/paint.jpg,,,,,,,,,,,,
null,,rt_plussign_withcolor,292197,green,,,,null,GW/hat.jpg,GW/paint.jpg,,,,,,,,,,,,
1134.7000000476837,,rt_thecrossant_black,293693,black_plus_sign,,,,50,,,1,0.8823529411764706,,,,,,,,,,
null,,color_black,293795,black_plus_sign,,,,null,,,,,,,,,,,,,,
null,,learn_phase(without_color),295799,black_plus_sign,,,,null,GW/dustpan.jpg,GW/soldier.jpg,,,,,,,,,,,,
null,,black_cross(without_color),296320,blue,,,,null,GW/dustpan.jpg,GW/soldier.jpg,,,,,,,,,,,,
null,,rt_plussign_withcolor,296821,blue,,,,null,GW/dustpan.jpg,GW/soldier.jpg,,,,,,,,,,,,
657.8000001907349,,rt_thecrossant_black,298305,black_plus_sign,,,,49,,,1,0.8888888888888888,,,,,,,,,,
null,,color_black,298409,black_plus_sign,,,,null,,,,,,,,,,,,,,
null,,learn_phase(without_color),300412,black_plus_sign,,,,null,GW/camera.jpg,GW/barrel.jpg,,,,,,,,,,,,
null,,black_cross(without_color),301502,green,,,,null,GW/camera.jpg,GW/barrel.jpg,,,,,,,,,,,,
null,,rt_plussign_withcolor,302004,green,,,,null,GW/camera.jpg,GW/barrel.jpg,,,,,,,,,,,,
662.5999999046326,,rt_thecrossant_black,302919,black_plus_sign,,,,50,,,1,0.8947368421052632,,,,,,,,,,
null,,color_black,303021,black_plus_sign,,,,null,,,,,,,,,,,,,,
null,,learn_phase(without_color),305024,black_plus_sign,,,,null,GW/snail.jpg,GW/wheelchair.jpg,,,,,,,,,,,,
null,,black_cross(without_color),305458,blue,,,,null,GW/snail.jpg,GW/wheelchair.jpg,,,,,,,,,,,,
null,,rt_plussign_withcolor,305960,blue,,,,null,GW/snail.jpg,GW/wheelchair.jpg,,,,,,,,,,,,
1651.6999998092651,,rt_thecrossant_black,307531,black_plus_sign,,,,49,,,1,0.9,,,,,,,,,,
null,,color_black,307636,black_plus_sign,,,,null,,,,,,,,,,,,,,
null,,learn_phase(without_color),309641,black_plus_sign,,,,null,GW/paint.jpg,GW/soldier.jpg,,,,,,,,,,,,
null,,black_cross(without_color),310649,green,,,,null,GW/paint.jpg,GW/soldier.jpg,,,,,,,,,,,,
null,,rt_plussign_withcolor,311151,green,,,,null,GW/paint.jpg,GW/soldier.jpg,,,,,,,,,,,,
616.5,,rt_thecrossant_black,312157,black_plus_sign,,,,50,,,1,0.9047619047619048,,,,,,,,,,
null,,color_black,312265,black_plus_sign,,,,null,,,,,,,,,,,,,,
null,,learn_phase(without_color),314269,black_plus_sign,,,,null,GW/snail.jpg,GW/wheelchair.jpg,,,,,,,,,,,,
null,,black_cross(without_color),315288,green,,,,null,GW/snail.jpg,GW/wheelchair.jpg,,,,,,,,,,,,
null,,rt_plussign_withcolor,315791,green,,,,null,GW/snail.jpg,GW/wheelchair.jpg,,,,,,,,,,,,
1472.6000001430511,,rt_thecrossant_black,316777,black_plus_sign,,,,50,,,1,0.9090909090909091,,,,,,,,,,
null,,color_black,316879,black_plus_sign,,,,null,,,,,,,,,,,,,,
null,,learn_phase(without_color),318881,black_plus_sign,,,,null,GW/basket.jpg,GW/snail.jpg,,,,,,,,,,,,
null,,black_cross(without_color),319502,blue,,,,null,GW/basket.jpg,GW/snail.jpg,,,,,,,,,,,,
null,,rt_plussign_withcolor,320004,blue,,,,null,GW/basket.jpg,GW/snail.jpg,,,,,,,,,,,,
1213.9000000953674,,rt_thecrossant_black,321387,black_plus_sign,,,,49,,,1,0.9130434782608695,,,,,,,,,,
null,,color_black,321490,black_plus_sign,,,,null,,,,,,,,,,,,,,
null,,learn_phase(without_color),323493,black_plus_sign,,,,null,GW/soldier.jpg,GW/snail.jpg,,,,,,,,,,,,
null,,black_cross(without_color),323997,green,,,,null,GW/soldier.jpg,GW/snail.jpg,,,,,,,,,,,,
null,,rt_plussign_withcolor,324499,green,,,,null,GW/soldier.jpg,GW/snail.jpg,,,,,,,,,,,,
1290.5,,rt_thecrossant_black,326001,black_plus_sign,,,,50,,,1,0.9166666666666666,,,,,,,,,,
null,,color_black,326103,black_plus_sign,,,,null,,,,,,,,,,,,,,
null,,learn_phase(without_color),328107,black_plus_sign,,,,null,GW/paint.jpg,GW/dustpan.jpg,,,,,,,,,,,,
null,,black_cross(without_color),328667,blue,,,,null,GW/paint.jpg,GW/dustpan.jpg,,,,,,,,,,,,
null,,rt_plussign_withcolor,329169,blue,,,,null,GW/paint.jpg,GW/dustpan.jpg,,,,,,,,,,,,
766,,rt_thecrossant_black,330614,black_plus_sign,,,,49,,,1,0.92,,,,,,,,,,
null,,color_black,330717,black_plus_sign,,,,null,,,,,,,,,,,,,,
null,,learn_phase(without_color),332719,black_plus_sign,,,,null,GW/hat.jpg,GW/soldier.jpg,,,,,,,,,,,,
null,,black_cross(without_color),333253,blue,,,,null,GW/hat.jpg,GW/soldier.jpg,,,,,,,,,,,,
null,,rt_plussign_withcolor,333755,blue,,,,null,GW/hat.jpg,GW/soldier.jpg,,,,,,,,,,,,
781.5,,rt_thecrossant_black,335225,black_plus_sign,,,,49,,,1,0.9230769230769231,,,,,,,,,,
null,,color_black,335328,black_plus_sign,,,,null,,,,,,,,,,,,,,
null,,learn_phase(without_color),337331,black_plus_sign,,,,null,GW/dustpan.jpg,GW/teeth.jpg,,,,,,,,,,,,
null,,black_cross(without_color),338005,green,,,,null,GW/dustpan.jpg,GW/teeth.jpg,,,,,,,,,,,,
420.09999990463257,,rt_plussign_withcolor,338507,green,,,,50,GW/dustpan.jpg,GW/teeth.jpg,,,,,,,,,,,,
null,,rt_thecrossant_black,339838,black_plus_sign,,,,null,,,1,0.9259259259259259,,,,,,,,,,
null,,color_black,339940,black_plus_sign,,,,null,,,,,,,,,,,,,,
null,,learn_phase(without_color),341942,black_plus_sign,,,,null,GW/paint.jpg,GW/globe.jpg,,,,,,,,,,,,
null,,black_cross(without_color),342788,blue,,,,null,GW/paint.jpg,GW/globe.jpg,,,,,,,,,,,,
null,,rt_plussign_withcolor,343291,blue,,,,null,GW/paint.jpg,GW/globe.jpg,,,,,,,,,,,,
804.0999999046326,,rt_thecrossant_black,344448,black_plus_sign,,,,49,,,1,0.9285714285714286,,,,,,,,,,
null,,color_black,344551,black_plus_sign,,,,null,,,,,,,,,,,,,,
null,,learn_phase(without_color),346555,black_plus_sign,,,,null,GW/paint.jpg,GW/soldier.jpg,,,,,,,,,,,,
null,,black_cross(without_color),347120,blue,,,,null,GW/paint.jpg,GW/soldier.jpg,,,,,,,,,,,,
null,,rt_plussign_withcolor,347621,blue,,,,null,GW/paint.jpg,GW/soldier.jpg,,,,,,,,,,,,
1062.5,,rt_thecrossant_black,349061,black_plus_sign,,,,49,,,1,0.9310344827586207,,,,,,,,,,
null,,color_black,349164,black_plus_sign,,,,null,,,,,,,,,,,,,,
null,,learn_phase(without_color),351167,black_plus_sign,,,,null,GW/paint.jpg,GW/dustpan.jpg,,,,,,,,,,,,
null,,black_cross(without_color),351633,blue,,,,null,GW/paint.jpg,GW/dustpan.jpg,,,,,,,,,,,,
null,,rt_plussign_withcolor,352135,blue,,,,null,GW/paint.jpg,GW/dustpan.jpg,,,,,,,,,,,,
803.7999999523163,,rt_thecrossant_black,353674,black_plus_sign,,,,49,,,1,0.9333333333333333,,,,,,,,,,
null,,color_black,353777,black_plus_sign,,,,null,,,,,,,,,,,,,,
null,,learn_phase(without_color),355781,black_plus_sign,,,,null,GW/basket.jpg,GW/hat.jpg,,,,,,,,,,,,
null,,black_cross(without_color),356654,green,,,,null,GW/basket.jpg,GW/hat.jpg,,,,,,,,,,,,
null,,rt_plussign_withcolor,357155,green,,,,null,GW/basket.jpg,GW/hat.jpg,,,,,,,,,,,,
656.8999998569489,,rt_thecrossant_black,358288,black_plus_sign,,,,50,,,1,0.9354838709677419,,,,,,,,,,
null,,color_black,358391,black_plus_sign,,,,null,,,,,,,,,,,,,,
null,,learn_phase(without_color),360394,black_plus_sign,,,,null,GW/hat.jpg,GW/paint.jpg,,,,,,,,,,,,
null,,black_cross(without_color),360841,green,,,,null,GW/hat.jpg,GW/paint.jpg,,,,,,,,,,,,
null,,rt_plussign_withcolor,361343,green,,,,null,GW/hat.jpg,GW/paint.jpg,,,,,,,,,,,,
1126,,rt_thecrossant_black,362902,black_plus_sign,,,,50,,,1,0.9375,,,,,,,,,,
null,,color_black,363005,black_plus_sign,,,,null,,,,,,,,,,,,,,
null,,learn_phase(without_color),365008,black_plus_sign,,,,null,GW/gong.jpg,GW/camera.jpg,,,,,,,,,,,,
null,,black_cross(without_color),365867,blue,,,,null,GW/gong.jpg,GW/camera.jpg,,,,,,,,,,,,
null,,rt_plussign_withcolor,366369,blue,,,,null,GW/gong.jpg,GW/camera.jpg,,,,,,,,,,,,
654.4000000953674,,rt_thecrossant_black,367515,black_plus_sign,,,,49,,,1,0.9393939393939394,,,,,,,,,,
null,,color_black,367628,black_plus_sign,,,,null,,,,,,,,,,,,,,
null,,learn_phase(without_color),369633,black_plus_sign,,,,null,GW/snail.jpg,GW/wheelchair.jpg,,,,,,,,,,,,
null,,black_cross(without_color),370728,green,,,,null,GW/snail.jpg,GW/wheelchair.jpg,,,,,,,,,,,,
420.2999999523163,,rt_plussign_withcolor,371240,green,,,,50,GW/snail.jpg,GW/wheelchair.jpg,,,,,,,,,,,,
null,,rt_thecrossant_black,372151,black_plus_sign,,,,null,,,1,0.9411764705882353,,,,,,,,,,
null,,color_black,372253,black_plus_sign,,,,null,,,,,,,,,,,,,,
null,,learn_phase(without_color),374257,black_plus_sign,,,,null,GW/basket.jpg,GW/hat.jpg,,,,,,,,,,,,
null,,black_cross(without_color),375019,blue,,,,null,GW/basket.jpg,GW/hat.jpg,,,,,,,,,,,,
480.59999990463257,,rt_plussign_withcolor,375523,blue,,,,49,GW/basket.jpg,GW/hat.jpg,,,,,,,,,,,,
null,,rt_thecrossant_black,376769,black_plus_sign,,,,null,,,1,0.9428571428571428,,,,,,,,,,
null,,color_black,376872,black_plus_sign,,,,null,,,,,,,,,,,,,,
null,,learn_phase(without_color),378875,black_plus_sign,,,,null,GW/paint.jpg,GW/soldier.jpg,,,,,,,,,,,,
null,,black_cross(without_color),379579,green,,,,null,GW/paint.jpg,GW/soldier.jpg,,,,,,,,,,,,
null,,rt_plussign_withcolor,380082,green,,,,null,GW/paint.jpg,GW/soldier.jpg,,,,,,,,,,,,
1131.0999999046326,,rt_thecrossant_black,381382,black_plus_sign,,,,50,,,1,0.9444444444444444,,,,,,,,,,
null,,color_black,381485,black_plus_sign,,,,null,,,,,,,,,,,,,,
null,,learn_phase(without_color),383488,black_plus_sign,,,,null,GW/basket.jpg,GW/hat.jpg,,,,,,,,,,,,
null,,black_cross(without_color),384476,blue,,,,null,GW/basket.jpg,GW/hat.jpg,,,,,,,,,,,,
391.39999985694885,,rt_plussign_withcolor,384978,blue,,,,49,GW/basket.jpg,GW/hat.jpg,,,,,,,,,,,,
null,,rt_thecrossant_black,385995,black_plus_sign,,,,null,,,1,0.9459459459459459,,,,,,,,,,
null,,color_black,386097,black_plus_sign,,,,null,,,,,,,,,,,,,,
null,,learn_phase(without_color),388100,black_plus_sign,,,,null,GW/dustpan.jpg,GW/teeth.jpg,,,,,,,,,,,,
null,,black_cross(without_color),388989,blue,,,,null,GW/dustpan.jpg,GW/teeth.jpg,,,,,,,,,,,,
474.60000014305115,,rt_plussign_withcolor,389491,blue,,,,49,GW/dustpan.jpg,GW/teeth.jpg,,,,,,,,,,,,
null,,rt_thecrossant_black,390608,black_plus_sign,,,,null,,,1,0.9473684210526315,,,,,,,,,,
null,,color_black,390710,black_plus_sign,,,,null,,,,,,,,,,,,,,
null,,learn_phase(without_color),392713,black_plus_sign,,,,null,GW/gong.jpg,GW/camera.jpg,,,,,,,,,,,,
null,,black_cross(without_color),393414,blue,,,,null,GW/gong.jpg,GW/camera.jpg,,,,,,,,,,,,
null,,rt_plussign_withcolor,393926,blue,,,,null,GW/gong.jpg,GW/camera.jpg,,,,,,,,,,,,
1343.7999999523163,,rt_thecrossant_black,395231,black_plus_sign,,,,49,,,1,0.9487179487179487,,,,,,,,,,
null,,color_black,395334,black_plus_sign,,,,null,,,,,,,,,,,,,,
null,,learn_phase(without_color),397337,black_plus_sign,,,,null,GW/paint.jpg,GW/globe.jpg,,,,,,,,,,,,
null,,black_cross(without_color),398231,blue,,,,null,GW/paint.jpg,GW/globe.jpg,,,,,,,,,,,,
null,,rt_plussign_withcolor,398733,blue,,,,null,GW/paint.jpg,GW/globe.jpg,,,,,,,,,,,,
943.7999999523163,,rt_thecrossant_black,399843,black_plus_sign,,,,49,,,1,0.95,,,,,,,,,,
null,,color_black,399946,black_plus_sign,,,,null,,,,,,,,,,,,,,
null,,learn_phase(without_color),401948,black_plus_sign,,,,null,GW/dustpan.jpg,GW/teeth.jpg,,,,,,,,,,,,
null,,black_cross(without_color),402433,blue,,,,null,GW/dustpan.jpg,GW/teeth.jpg,,,,,,,,,,,,
null,,rt_plussign_withcolor,402935,blue,,,,null,GW/dustpan.jpg,GW/teeth.jpg,,,,,,,,,,,,
1075.5,,rt_thecrossant_black,404455,black_plus_sign,,,,49,,,1,0.9512195121951219,,,,,,,,,,
null,,color_black,404558,black_plus_sign,,,,null,,,,,,,,,,,,,,
null,,learn_phase(without_color),406561,black_plus_sign,,,,null,GW/soldier.jpg,GW/snail.jpg,,,,,,,,,,,,
null,,black_cross(without_color),407543,green,,,,null,GW/soldier.jpg,GW/snail.jpg,,,,,,,,,,,,
null,,rt_plussign_withcolor,408045,green,,,,null,GW/soldier.jpg,GW/snail.jpg,,,,,,,,,,,,
1024.5999999046326,,rt_thecrossant_black,409070,black_plus_sign,,,,50,,,1,0.9523809523809523,,,,,,,,,,
null,,color_black,409173,black_plus_sign,,,,null,,,,,,,,,,,,,,
null,,learn_phase(without_color),411176,black_plus_sign,,,,null,GW/paint.jpg,GW/globe.jpg,,,,,,,,,,,,
null,,black_cross(without_color),412241,blue,,,,null,GW/paint.jpg,GW/globe.jpg,,,,,,,,,,,,
null,,rt_plussign_withcolor,412744,blue,,,,null,GW/paint.jpg,GW/globe.jpg,,,,,,,,,,,,
1079.2000000476837,,rt_thecrossant_black,413684,black_plus_sign,,,,49,,,1,0.9534883720930233,,,,,,,,,,
null,,color_black,413787,black_plus_sign,,,,null,,,,,,,,,,,,,,
null,,learn_phase(without_color),415790,black_plus_sign,,,,null,GW/paint.jpg,GW/soldier.jpg,,,,,,,,,,,,
null,,black_cross(without_color),416799,blue,,,,null,GW/paint.jpg,GW/soldier.jpg,,,,,,,,,,,,
null,,rt_plussign_withcolor,417300,blue,,,,null,GW/paint.jpg,GW/soldier.jpg,,,,,,,,,,,,
1424,,rt_thecrossant_black,418297,black_plus_sign,,,,49,,,1,0.9545454545454546,,,,,,,,,,
null,,color_black,418406,black_plus_sign,,,,null,,,,,,,,,,,,,,
null,,learn_phase(without_color),420410,black_plus_sign,,,,null,GW/soldier.jpg,GW/snail.jpg,,,,,,,,,,,,
null,,black_cross(without_color),421234,green,,,,null,GW/soldier.jpg,GW/snail.jpg,,,,,,,,,,,,
null,,rt_plussign_withcolor,421736,green,,,,null,GW/soldier.jpg,GW/snail.jpg,,,,,,,,,,,,
1530.5,,rt_thecrossant_black,422917,black_plus_sign,,,,50,,,1,0.9555555555555556,,,,,,,,,,
null,,color_black,423020,black_plus_sign,,,,null,,,,,,,,,,,,,,
null,,learn_phase(without_color),425024,black_plus_sign,,,,null,GW/basket.jpg,GW/snail.jpg,,,,,,,,,,,,
null,,black_cross(without_color),425944,blue,,,,null,GW/basket.jpg,GW/snail.jpg,,,,,,,,,,,,
451.30000019073486,,rt_plussign_withcolor,426446,blue,,,,49,GW/basket.jpg,GW/snail.jpg,,,,,,,,,,,,
null,,rt_thecrossant_black,427530,black_plus_sign,,,,null,,,1,0.9565217391304348,,,,,,,,,,
null,,color_black,427633,black_plus_sign,,,,null,,,,,,,,,,,,,,
null,,learn_phase(without_color),429638,black_plus_sign,,,,null,GW/dustpan.jpg,GW/soldier.jpg,,,,,,,,,,,,
null,,black_cross(without_color),430229,blue,,,,null,GW/dustpan.jpg,GW/soldier.jpg,,,,,,,,,,,,
null,,rt_plussign_withcolor,430731,blue,,,,null,GW/dustpan.jpg,GW/soldier.jpg,,,,,,,,,,,,
1359.2999999523163,,rt_thecrossant_black,432145,black_plus_sign,,,,49,,,1,0.9574468085106383,,,,,,,,,,
null,,color_black,432247,black_plus_sign,,,,null,,,,,,,,,,,,,,
null,,learn_phase(without_color),434251,black_plus_sign,,,,null,GW/paint.jpg,GW/globe.jpg,,,,,,,,,,,,
null,,black_cross(without_color),435209,blue,,,,null,GW/paint.jpg,GW/globe.jpg,,,,,,,,,,,,
null,,rt_plussign_withcolor,435711,blue,,,,null,GW/paint.jpg,GW/globe.jpg,,,,,,,,,,,,
945.1999998092651,,rt_thecrossant_black,436758,black_plus_sign,,,,49,,,1,0.9583333333333334,,,,,,,,,,
null,,color_black,436860,black_plus_sign,,,,null,,,,,,,,,,,,,,
null,,learn_phase(without_color),438863,black_plus_sign,,,,null,GW/dustpan.jpg,GW/teeth.jpg,,,,,,,,,,,,
null,,black_cross(without_color),439514,blue,,,,null,GW/dustpan.jpg,GW/teeth.jpg,,,,,,,,,,,,
null,,rt_plussign_withcolor,440016,blue,,,,null,GW/dustpan.jpg,GW/teeth.jpg,,,,,,,,,,,,
1339.2999999523163,,rt_thecrossant_black,441371,black_plus_sign,,,,49,,,1,0.9591836734693877,,,,,,,,,,
null,,color_black,441475,black_plus_sign,,,,null,,,,,,,,,,,,,,
null,,learn_phase(without_color),443478,black_plus_sign,,,,null,GW/paint.jpg,GW/dustpan.jpg,,,,,,,,,,,,
null,,black_cross(without_color),443920,blue,,,,null,GW/paint.jpg,GW/dustpan.jpg,,,,,,,,,,,,
null,,rt_plussign_withcolor,444422,blue,,,,null,GW/paint.jpg,GW/dustpan.jpg,,,,,,,,,,,,
2020.5,,rt_thecrossant_black,445986,black_plus_sign,,,,49,,,1,0.96,,,,,,,,,,
null,,color_black,446088,black_plus_sign,,,,null,,,,,,,,,,,,,,
null,,learn_phase(without_color),448091,black_plus_sign,,,,null,GW/paint.jpg,GW/globe.jpg,,,,,,,,,,,,
null,,black_cross(without_color),448814,blue,,,,null,GW/paint.jpg,GW/globe.jpg,,,,,,,,,,,,
null,,rt_plussign_withcolor,449315,blue,,,,null,GW/paint.jpg,GW/globe.jpg,,,,,,,,,,,,
886.9000000953674,,rt_thecrossant_black,450598,black_plus_sign,,,,49,,,1,0.9607843137254902,,,,,,,,,,
null,,color_black,450701,black_plus_sign,,,,null,,,,,,,,,,,,,,
null,,learn_phase(without_color),452704,black_plus_sign,,,,null,GW/jukebox.jpg,GW/gong.jpg,,,,,,,,,,,,
null,,black_cross(without_color),453144,blue,,,,null,GW/jukebox.jpg,GW/gong.jpg,,,,,,,,,,,,
null,,rt_plussign_withcolor,453646,blue,,,,null,GW/jukebox.jpg,GW/gong.jpg,,,,,,,,,,,,
1269,,rt_thecrossant_black,455211,black_plus_sign,,,,49,,,1,0.9615384615384616,,,,,,,,,,
null,,color_black,455313,black_plus_sign,,,,null,,,,,,,,,,,,,,
null,,learn_phase(without_color),457316,black_plus_sign,,,,null,GW/dustpan.jpg,GW/soldier.jpg,,,,,,,,,,,,
null,,black_cross(without_color),458005,green,,,,null,GW/dustpan.jpg,GW/soldier.jpg,,,,,,,,,,,,
null,,rt_plussign_withcolor,458507,green,,,,null,GW/dustpan.jpg,GW/soldier.jpg,,,,,,,,,,,,
682.0999999046326,,rt_thecrossant_black,459823,black_plus_sign,,,,49,,,0,0.9433962264150944,,,,,,,,,,
null,,color_black,459926,black_plus_sign,,,,null,,,,,,,,,,,,,,
null,,learn_phase(without_color),461929,black_plus_sign,,,,null,GW/hat.jpg,GW/soldier.jpg,,,,,,,,,,,,
null,,black_cross(without_color),462459,blue,,,,null,GW/hat.jpg,GW/soldier.jpg,,,,,,,,,,,,
null,,rt_plussign_withcolor,462961,blue,,,,null,GW/hat.jpg,GW/soldier.jpg,,,,,,,,,,,,
1102.5,,rt_thecrossant_black,464436,black_plus_sign,,,,49,,,1,0.9444444444444444,,,,,,,,,,
null,,color_black,464539,black_plus_sign,,,,null,,,,,,,,,,,,,,
null,,learn_phase(without_color),466543,black_plus_sign,,,,null,GW/camera.jpg,GW/wheelchair.jpg,,,,,,,,,,,,
null,,black_cross(without_color),467496,blue,,,,null,GW/camera.jpg,GW/wheelchair.jpg,,,,,,,,,,,,
null,,rt_plussign_withcolor,467998,blue,,,,null,GW/camera.jpg,GW/wheelchair.jpg,,,,,,,,,,,,
867.2999999523163,,rt_thecrossant_black,469050,black_plus_sign,,,,49,,,1,0.9454545454545454,,,,,,,,,,
null,,color_black,469151,black_plus_sign,,,,null,,,,,,,,,,,,,,
null,,learn_phase(without_color),471154,black_plus_sign,,,,null,GW/paint.jpg,GW/globe.jpg,,,,,,,,,,,,
null,,black_cross(without_color),471769,green,,,,null,GW/paint.jpg,GW/globe.jpg,,,,,,,,,,,,
442.2000000476837,,rt_plussign_withcolor,472272,green,,,,50,GW/paint.jpg,GW/globe.jpg,,,,,,,,,,,,
null,,rt_thecrossant_black,473663,black_plus_sign,,,,null,,,1,0.9464285714285714,,,,,,,,,,
null,,color_black,473765,black_plus_sign,,,,null,,,,,,,,,,,,,,
null,,learn_phase(without_color),475769,black_plus_sign,,,,null,GW/camera.jpg,GW/barrel.jpg,,,,,,,,,,,,
null,,black_cross(without_color),476207,green,,,,null,GW/camera.jpg,GW/barrel.jpg,,,,,,,,,,,,
null,,rt_plussign_withcolor,476709,green,,,,null,GW/camera.jpg,GW/barrel.jpg,,,,,,,,,,,,
1193.2999999523163,,rt_thecrossant_black,478275,black_plus_sign,,,,50,,,1,0.9473684210526315,,,,,,,,,,
null,,color_black,478378,black_plus_sign,,,,null,,,,,,,,,,,,,,
null,,learn_phase(without_color),480381,black_plus_sign,,,,null,GW/hat.jpg,GW/soldier.jpg,,,,,,,,,,,,
null,,black_cross(without_color),481286,blue,,,,null,GW/hat.jpg,GW/soldier.jpg,,,,,,,,,,,,
null,,rt_plussign_withcolor,481788,blue,,,,null,GW/hat.jpg,GW/soldier.jpg,,,,,,,,,,,,
740.9000000953674,,rt_thecrossant_black,482890,black_plus_sign,,,,49,,,1,0.9482758620689655,,,,,,,,,,
null,,color_black,482992,black_plus_sign,,,,null,,,,,,,,,,,,,,
null,,learn_phase(without_color),484995,black_plus_sign,,,,null,GW/paint.jpg,GW/globe.jpg,,,,,,,,,,,,
null,,black_cross(without_color),485840,green,,,,null,GW/paint.jpg,GW/globe.jpg,,,,,,,,,,,,
460.90000009536743,,rt_plussign_withcolor,486342,green,,,,50,GW/paint.jpg,GW/globe.jpg,,,,,,,,,,,,
null,,rt_thecrossant_black,487505,black_plus_sign,,,,null,,,1,0.9491525423728814,,,,,,,,,,
null,,color_black,487608,black_plus_sign,,,,null,,,,,,,,,,,,,,
null,,learn_phase(without_color),489613,black_plus_sign,,,,null,GW/camera.jpg,GW/barrel.jpg,,,,,,,,,,,,
null,,black_cross(without_color),490362,blue,,,,null,GW/camera.jpg,GW/barrel.jpg,,,,,,,,,,,,
null,,rt_plussign_withcolor,490864,blue,,,,null,GW/camera.jpg,GW/barrel.jpg,,,,,,,,,,,,
1214.3999998569489,,rt_thecrossant_black,492121,black_plus_sign,,,,49,,,1,0.95,,,,,,,,,,
null,,color_black,492230,black_plus_sign,,,,null,,,,,,,,,,,,,,
null,,learn_phase(without_color),494245,black_plus_sign,,,,null,GW/camera.jpg,GW/wheelchair.jpg,,,,,,,,,,,,
null,,black_cross(without_color),494831,green,,,,null,GW/camera.jpg,GW/wheelchair.jpg,,,,,,,,,,,,
null,,rt_plussign_withcolor,495332,green,,,,null,GW/camera.jpg,GW/wheelchair.jpg,,,,,,,,,,,,
968.6999998092651,,rt_thecrossant_black,496752,black_plus_sign,,,,50,,,1,0.9508196721311475,,,,,,,,,,
null,,color_black,496856,black_plus_sign,,,,null,,,,,,,,,,,,,,
null,,learn_phase(without_color),498859,black_plus_sign,,,,null,GW/basket.jpg,GW/snail.jpg,,,,,,,,,,,,
null,,black_cross(without_color),499336,blue,,,,null,GW/basket.jpg,GW/snail.jpg,,,,,,,,,,,,
null,,rt_plussign_withcolor,499837,blue,,,,null,GW/basket.jpg,GW/snail.jpg,,,,,,,,,,,,
851.5,,rt_thecrossant_black,501366,black_plus_sign,,,,49,,,1,0.9516129032258065,,,,,,,,,,
null,,color_black,501469,black_plus_sign,,,,null,,,,,,,,,,,,,,
null,,learn_phase(without_color),503473,black_plus_sign,,,,null,GW/basket.jpg,GW/hat.jpg,,,,,,,,,,,,
null,,black_cross(without_color),504239,blue,,,,null,GW/basket.jpg,GW/hat.jpg,,,,,,,,,,,,
null,,rt_plussign_withcolor,504741,blue,,,,null,GW/basket.jpg,GW/hat.jpg,,,,,,,,,,,,
769.8999998569489,,rt_thecrossant_black,505980,black_plus_sign,,,,49,,,1,0.9523809523809523,,,,,,,,,,
null,,color_black,506082,black_plus_sign,,,,null,,,,,,,,,,,,,,
null,,learn_phase(without_color),508086,black_plus_sign,,,,null,GW/basket.jpg,GW/snail.jpg,,,,,,,,,,,,
null,,black_cross(without_color),509174,blue,,,,null,GW/basket.jpg,GW/snail.jpg,,,,,,,,,,,,
null,,rt_plussign_withcolor,509676,blue,,,,null,GW/basket.jpg,GW/snail.jpg,,,,,,,,,,,,
895,,rt_thecrossant_black,510592,black_plus_sign,,,,49,,,1,0.953125,,,,,,,,,,
null,,color_black,510705,black_plus_sign,,,,null,,,,,,,,,,,,,,
null,,learn_phase(without_color),512709,black_plus_sign,,,,null,GW/dustpan.jpg,GW/teeth.jpg,,,,,,,,,,,,
null,,black_cross(without_color),513323,blue,,,,null,GW/dustpan.jpg,GW/teeth.jpg,,,,,,,,,,,,
null,,rt_plussign_withcolor,513826,blue,,,,null,GW/dustpan.jpg,GW/teeth.jpg,,,,,,,,,,,,
1452.3999998569489,,rt_thecrossant_black,515218,black_plus_sign,,,,49,,,1,0.9538461538461539,,,,,,,,,,
null,,color_black,515321,black_plus_sign,,,,null,,,,,,,,,,,,,,
null,,learn_phase(without_color),517326,black_plus_sign,,,,null,GW/gong.jpg,GW/basket.jpg,,,,,,,,,,,,
null,,black_cross(without_color),517843,blue,,,,null,GW/gong.jpg,GW/basket.jpg,,,,,,,,,,,,
null,,rt_plussign_withcolor,518345,blue,,,,null,GW/gong.jpg,GW/basket.jpg,,,,,,,,,,,,
816.7000000476837,,rt_thecrossant_black,519833,black_plus_sign,,,,49,,,1,0.9545454545454546,,,,,,,,,,
null,,color_black,519937,black_plus_sign,,,,null,,,,,,,,,,,,,,
null,,learn_phase(without_color),521940,black_plus_sign,,,,null,GW/dustpan.jpg,GW/teeth.jpg,,,,,,,,,,,,
null,,black_cross(without_color),522987,blue,,,,null,GW/dustpan.jpg,GW/teeth.jpg,,,,,,,,,,,,
null,,rt_plussign_withcolor,523490,blue,,,,null,GW/dustpan.jpg,GW/teeth.jpg,,,,,,,,,,,,
678.7000000476837,,rt_thecrossant_black,524459,black_plus_sign,,,,49,,,1,0.9552238805970149,,,,,,,,,,
null,,color_black,524561,black_plus_sign,,,,null,,,,,,,,,,,,,,
null,,learn_phase(without_color),526566,black_plus_sign,,,,null,GW/camera.jpg,GW/wheelchair.jpg,,,,,,,,,,,,
null,,black_cross(without_color),527464,blue,,,,null,GW/camera.jpg,GW/wheelchair.jpg,,,,,,,,,,,,
null,,rt_plussign_withcolor,527966,blue,,,,null,GW/camera.jpg,GW/wheelchair.jpg,,,,,,,,,,,,
1261.1000001430511,,rt_thecrossant_black,529084,black_plus_sign,,,,49,,,1,0.9558823529411765,,,,,,,,,,
null,,color_black,529187,black_plus_sign,,,,null,,,,,,,,,,,,,,
null,,learn_phase(without_color),531191,black_plus_sign,,,,null,GW/basket.jpg,GW/hat.jpg,,,,,,,,,,,,
null,,black_cross(without_color),531798,blue,,,,null,GW/basket.jpg,GW/hat.jpg,,,,,,,,,,,,
null,,rt_plussign_withcolor,532301,blue,,,,null,GW/basket.jpg,GW/hat.jpg,,,,,,,,,,,,
1034.2000000476837,,rt_thecrossant_black,533700,black_plus_sign,,,,49,,,1,0.9565217391304348,,,,,,,,,,
null,,color_black,533802,black_plus_sign,,,,null,,,,,,,,,,,,,,
null,,learn_phase(without_color),535807,black_plus_sign,,,,null,GW/hat.jpg,GW/paint.jpg,,,,,,,,,,,,
null,,black_cross(without_color),536842,green,,,,null,GW/hat.jpg,GW/paint.jpg,,,,,,,,,,,,
null,,rt_plussign_withcolor,537344,green,,,,null,GW/hat.jpg,GW/paint.jpg,,,,,,,,,,,,
885.6999998092651,,rt_thecrossant_black,538314,black_plus_sign,,,,50,,,1,0.9571428571428572,,,,,,,,,,
null,,color_black,538417,black_plus_sign,,,,null,,,,,,,,,,,,,,
null,,learn_phase(without_color),540420,black_plus_sign,,,,null,GW/paint.jpg,GW/soldier.jpg,,,,,,,,,,,,
null,,black_cross(without_color),541354,green,,,,null,GW/paint.jpg,GW/soldier.jpg,,,,,,,,,,,,
389.09999990463257,,rt_plussign_withcolor,541856,green,,,,50,GW/paint.jpg,GW/soldier.jpg,,,,,,,,,,,,
null,,rt_thecrossant_black,542926,black_plus_sign,,,,null,,,1,0.9577464788732394,,,,,,,,,,
null,,color_black,543029,black_plus_sign,,,,null,,,,,,,,,,,,,,
null,,learn_phase(without_color),545032,black_plus_sign,,,,null,GW/hat.jpg,GW/paint.jpg,,,,,,,,,,,,
null,,black_cross(without_color),545911,green,,,,null,GW/hat.jpg,GW/paint.jpg,,,,,,,,,,,,
null,,rt_plussign_withcolor,546413,green,,,,null,GW/hat.jpg,GW/paint.jpg,,,,,,,,,,,,
1162.5999999046326,,rt_thecrossant_black,547538,black_plus_sign,,,,50,,,1,0.9583333333333334,,,,,,,,,,
null,,color_black,547642,black_plus_sign,,,,null,,,,,,,,,,,,,,
null,,learn_phase(without_color),549648,black_plus_sign,,,,null,GW/soldier.jpg,GW/snail.jpg,,,,,,,,,,,,
null,,black_cross(without_color),550301,blue,,,,null,GW/soldier.jpg,GW/snail.jpg,,,,,,,,,,,,
null,,rt_plussign_withcolor,550803,blue,,,,null,GW/soldier.jpg,GW/snail.jpg,,,,,,,,,,,,
1147.2999999523163,,rt_thecrossant_black,552159,black_plus_sign,,,,49,,,1,0.958904109589041,,,,,,,,,,
null,,color_black,552262,black_plus_sign,,,,null,,,,,,,,,,,,,,
null,,learn_phase(without_color),554266,black_plus_sign,,,,null,GW/jukebox.jpg,GW/gong.jpg,,,,,,,,,,,,
null,,black_cross(without_color),555140,blue,,,,null,GW/jukebox.jpg,GW/gong.jpg,,,,,,,,,,,,
null,,rt_plussign_withcolor,555643,blue,,,,null,GW/jukebox.jpg,GW/gong.jpg,,,,,,,,,,,,
871.3000001907349,,rt_thecrossant_black,556775,black_plus_sign,,,,49,,,1,0.9594594594594594,,,,,,,,,,
null,,color_black,556877,black_plus_sign,,,,null,,,,,,,,,,,,,,
null,,learn_phase(without_color),558880,black_plus_sign,,,,null,GW/dustpan.jpg,GW/soldier.jpg,,,,,,,,,,,,
null,,black_cross(without_color),559526,blue,,,,null,GW/dustpan.jpg,GW/soldier.jpg,,,,,,,,,,,,
null,,rt_plussign_withcolor,560028,blue,,,,null,GW/dustpan.jpg,GW/soldier.jpg,,,,,,,,,,,,
1227.9000000953674,,rt_thecrossant_black,561387,black_plus_sign,,,,49,,,1,0.96,,,,,,,,,,
null,,color_black,561490,black_plus_sign,,,,null,,,,,,,,,,,,,,
null,,learn_phase(without_color),563492,black_plus_sign,,,,null,GW/camera.jpg,GW/barrel.jpg,,,,,,,,,,,,
null,,black_cross(without_color),564295,blue,,,,null,GW/camera.jpg,GW/barrel.jpg,,,,,,,,,,,,
null,,rt_plussign_withcolor,564798,blue,,,,null,GW/camera.jpg,GW/barrel.jpg,,,,,,,,,,,,
782.5,,rt_thecrossant_black,566001,black_plus_sign,,,,49,,,1,0.9605263157894737,,,,,,,,,,
null,,color_black,566115,black_plus_sign,,,,null,,,,,,,,,,,,,,
null,,learn_phase(without_color),568118,black_plus_sign,,,,null,GW/hat.jpg,GW/soldier.jpg,,,,,,,,,,,,
null,,black_cross(without_color),568905,blue,,,,null,GW/hat.jpg,GW/soldier.jpg,,,,,,,,,,,,
null,,rt_plussign_withcolor,569408,blue,,,,null,GW/hat.jpg,GW/soldier.jpg,,,,,,,,,,,,
1048.8999998569489,,rt_thecrossant_black,570626,black_plus_sign,,,,49,,,1,0.961038961038961,,,,,,,,,,
null,,color_black,570729,black_plus_sign,,,,null,,,,,,,,,,,,,,
null,,learn_phase(without_color),572733,black_plus_sign,,,,null,GW/hat.jpg,GW/paint.jpg,,,,,,,,,,,,
null,,black_cross(without_color),573800,blue,,,,null,GW/hat.jpg,GW/paint.jpg,,,,,,,,,,,,
null,,rt_plussign_withcolor,574302,blue,,,,null,GW/hat.jpg,GW/paint.jpg,,,,,,,,,,,,
917.4000000953674,,rt_thecrossant_black,575241,black_plus_sign,,,,49,,,1,0.9615384615384616,,,,,,,,,,
null,,color_black,575343,black_plus_sign,,,,null,,,,,,,,,,,,,,
null,,learn_phase(without_color),577348,black_plus_sign,,,,null,GW/camera.jpg,GW/barrel.jpg,,,,,,,,,,,,
null,,black_cross(without_color),578246,green,,,,null,GW/camera.jpg,GW/barrel.jpg,,,,,,,,,,,,
null,,rt_plussign_withcolor,578749,green,,,,null,GW/camera.jpg,GW/barrel.jpg,,,,,,,,,,,,
1236.6000001430511,,rt_thecrossant_black,579856,black_plus_sign,,,,50,,,1,0.9620253164556962,,,,,,,,,,
null,,color_black,579959,black_plus_sign,,,,null,,,,,,,,,,,,,,
null,,learn_phase(without_color),581962,black_plus_sign,,,,null,GW/gong.jpg,GW/camera.jpg,,,,,,,,,,,,
null,,black_cross(without_color),582538,blue,,,,null,GW/gong.jpg,GW/camera.jpg,,,,,,,,,,,,
null,,rt_plussign_withcolor,583041,blue,,,,null,GW/gong.jpg,GW/camera.jpg,,,,,,,,,,,,
1231.8000001907349,,rt_thecrossant_black,584471,black_plus_sign,,,,49,,,1,0.9625,,,,,,,,,,
null,,color_black,584574,black_plus_sign,,,,null,,,,,,,,,,,,,,
null,,learn_phase(without_color),586578,black_plus_sign,,,,null,GW/basket.jpg,GW/hat.jpg,,,,,,,,,,,,
null,,black_cross(without_color),587375,blue,,,,null,GW/basket.jpg,GW/hat.jpg,,,,,,,,,,,,
null,,rt_plussign_withcolor,587877,blue,,,,null,GW/basket.jpg,GW/hat.jpg,,,,,,,,,,,,
724.3999998569489,,rt_thecrossant_black,589089,black_plus_sign,,,,49,,,1,0.9629629629629629,,,,,,,,,,
null,,color_black,589193,black_plus_sign,,,,null,,,,,,,,,,,,,,
null,,learn_phase(without_color),591196,black_plus_sign,,,,null,GW/basket.jpg,GW/snail.jpg,,,,,,,,,,,,
null,,black_cross(without_color),591692,blue,,,,null,GW/basket.jpg,GW/snail.jpg,,,,,,,,,,,,
null,,rt_plussign_withcolor,592195,blue,,,,null,GW/basket.jpg,GW/snail.jpg,,,,,,,,,,,,
1129.3999998569489,,rt_thecrossant_black,593703,black_plus_sign,,,,49,,,1,0.9634146341463414,,,,,,,,,,
null,,color_black,593806,black_plus_sign,,,,null,,,,,,,,,,,,,,
null,,learn_phase(without_color),595810,black_plus_sign,,,,null,GW/hat.jpg,GW/paint.jpg,,,,,,,,,,,,
null,,black_cross(without_color),596489,green,,,,null,GW/hat.jpg,GW/paint.jpg,,,,,,,,,,,,
null,,rt_plussign_withcolor,596991,green,,,,null,GW/hat.jpg,GW/paint.jpg,,,,,,,,,,,,
797.9000000953674,,rt_thecrossant_black,598317,black_plus_sign,,,,50,,,1,0.963855421686747,,,,,,,,,,
null,,color_black,598425,black_plus_sign,,,,null,,,,,,,,,,,,,,
null,,learn_phase(without_color),600430,black_plus_sign,,,,null,GW/jukebox.jpg,GW/gong.jpg,,,,,,,,,,,,
null,,black_cross(without_color),601520,blue,,,,null,GW/jukebox.jpg,GW/gong.jpg,,,,,,,,,,,,
null,,rt_plussign_withcolor,602023,blue,,,,null,GW/jukebox.jpg,GW/gong.jpg,,,,,,,,,,,,
1039.1000001430511,,rt_thecrossant_black,602938,black_plus_sign,,,,49,,,1,0.9642857142857143,,,,,,,,,,
null,,color_black,603041,black_plus_sign,,,,null,,,,,,,,,,,,,,
null,,learn_phase(without_color),605059,black_plus_sign,,,,null,GW/hat.jpg,GW/soldier.jpg,,,,,,,,,,,,
null,,black_cross(without_color),605689,green,,,,null,GW/hat.jpg,GW/soldier.jpg,,,,,,,,,,,,
459.2000000476837,,rt_plussign_withcolor,606191,green,,,,50,GW/hat.jpg,GW/soldier.jpg,,,,,,,,,,,,
null,,rt_thecrossant_black,607567,black_plus_sign,,,,null,,,1,0.9647058823529412,,,,,,,,,,
null,,color_black,607671,black_plus_sign,,,,null,,,,,,,,,,,,,,
null,,learn_phase(without_color),609677,black_plus_sign,,,,null,GW/hat.jpg,GW/paint.jpg,,,,,,,,,,,,
null,,black_cross(without_color),610517,blue,,,,null,GW/hat.jpg,GW/paint.jpg,,,,,,,,,,,,
null,,rt_plussign_withcolor,611019,blue,,,,null,GW/hat.jpg,GW/paint.jpg,,,,,,,,,,,,
941.7000000476837,,rt_thecrossant_black,612185,black_plus_sign,,,,49,,,1,0.9651162790697675,,,,,,,,,,
null,,color_black,612287,black_plus_sign,,,,null,,,,,,,,,,,,,,
null,,learn_phase(without_color),614292,black_plus_sign,,,,null,GW/gong.jpg,GW/camera.jpg,,,,,,,,,,,,
null,,black_cross(without_color),615384,blue,,,,null,GW/gong.jpg,GW/camera.jpg,,,,,,,,,,,,
497.2000000476837,,rt_plussign_withcolor,615886,blue,,,,49,GW/gong.jpg,GW/camera.jpg,,,,,,,,,,,,
null,,rt_thecrossant_black,616800,black_plus_sign,,,,null,,,1,0.9655172413793104,,,,,,,,,,
null,,color_black,616902,black_plus_sign,,,,null,,,,,,,,,,,,,,
null,,learn_phase(without_color),618906,black_plus_sign,,,,null,GW/hat.jpg,GW/soldier.jpg,,,,,,,,,,,,
null,,black_cross(without_color),619951,green,,,,null,GW/hat.jpg,GW/soldier.jpg,,,,,,,,,,,,
null,,rt_plussign_withcolor,620453,green,,,,null,GW/hat.jpg,GW/soldier.jpg,,,,,,,,,,,,
1372.7999999523163,,rt_thecrossant_black,621413,black_plus_sign,,,,50,,,1,0.9659090909090909,,,,,,,,,,
null,,color_black,621516,black_plus_sign,,,,null,,,,,,,,,,,,,,
null,,learn_phase(without_color),623520,black_plus_sign,,,,null,GW/basket.jpg,GW/snail.jpg,,,,,,,,,,,,
null,,black_cross(without_color),624437,green,,,,null,GW/basket.jpg,GW/snail.jpg,,,,,,,,,,,,
null,,rt_plussign_withcolor,624940,green,,,,null,GW/basket.jpg,GW/snail.jpg,,,,,,,,,,,,
1165.0999999046326,,rt_thecrossant_black,626030,black_plus_sign,,,,49,,,0,0.9550561797752809,,,,,,,,,,
null,,color_black,626134,black_plus_sign,,,,null,,,,,,,,,,,,,,
null,,learn_phase(without_color),628137,black_plus_sign,,,,null,GW/paint.jpg,GW/globe.jpg,,,,,,,,,,,,
null,,black_cross(without_color),628741,green,,,,null,GW/paint.jpg,GW/globe.jpg,,,,,,,,,,,,
505.10000014305115,,rt_plussign_withcolor,629248,green,,,,50,GW/paint.jpg,GW/globe.jpg,,,,,,,,,,,,
null,,rt_thecrossant_black,630650,black_plus_sign,,,,null,,,1,0.9555555555555556,,,,,,,,,,
null,,color_black,630752,black_plus_sign,,,,null,,,,,,,,,,,,,,
null,,learn_phase(without_color),632756,black_plus_sign,,,,null,GW/camera.jpg,GW/wheelchair.jpg,,,,,,,,,,,,
null,,black_cross(without_color),633850,green,,,,null,GW/camera.jpg,GW/wheelchair.jpg,,,,,,,,,,,,
null,,rt_plussign_withcolor,634353,green,,,,null,GW/camera.jpg,GW/wheelchair.jpg,,,,,,,,,,,,
893.4000000953674,,rt_thecrossant_black,635266,black_plus_sign,,,,50,,,1,0.9560439560439561,,,,,,,,,,
null,,color_black,635370,black_plus_sign,,,,null,,,,,,,,,,,,,,
null,,learn_phase(without_color),637373,black_plus_sign,,,,null,GW/hat.jpg,GW/soldier.jpg,,,,,,,,,,,,
null,,black_cross(without_color),638280,green,,,,null,GW/hat.jpg,GW/soldier.jpg,,,,,,,,,,,,
null,,rt_plussign_withcolor,638792,green,,,,null,GW/hat.jpg,GW/soldier.jpg,,,,,,,,,,,,
1264.5,,rt_thecrossant_black,639891,black_plus_sign,,,,50,,,1,0.9565217391304348,,,,,,,,,,
null,,color_black,639993,black_plus_sign,,,,null,,,,,,,,,,,,,,
null,,learn_phase(without_color),641997,black_plus_sign,,,,null,GW/camera.jpg,GW/wheelchair.jpg,,,,,,,,,,,,
null,,black_cross(without_color),642922,blue,,,,null,GW/camera.jpg,GW/wheelchair.jpg,,,,,,,,,,,,
null,,rt_plussign_withcolor,643426,blue,,,,null,GW/camera.jpg,GW/wheelchair.jpg,,,,,,,,,,,,
1307.5999999046326,,rt_thecrossant_black,644506,black_plus_sign,,,,49,,,1,0.956989247311828,,,,,,,,,,
null,,color_black,644609,black_plus_sign,,,,null,,,,,,,,,,,,,,
null,,learn_phase(without_color),646612,black_plus_sign,,,,null,GW/paint.jpg,GW/soldier.jpg,,,,,,,,,,,,
null,,black_cross(without_color),647560,green,,,,null,GW/paint.jpg,GW/soldier.jpg,,,,,,,,,,,,
null,,rt_plussign_withcolor,648062,green,,,,null,GW/paint.jpg,GW/soldier.jpg,,,,,,,,,,,,
1154.7000000476837,,rt_thecrossant_black,649121,black_plus_sign,,,,50,,,1,0.9574468085106383,,,,,,,,,,
null,,color_black,649224,black_plus_sign,,,,null,,,,,,,,,,,,,,
null,,learn_phase(without_color),651227,black_plus_sign,,,,null,GW/dustpan.jpg,GW/soldier.jpg,,,,,,,,,,,,
null,,black_cross(without_color),652189,green,,,,null,GW/dustpan.jpg,GW/soldier.jpg,,,,,,,,,,,,
null,,rt_plussign_withcolor,652691,green,,,,null,GW/dustpan.jpg,GW/soldier.jpg,,,,,,,,,,,,
1265.8999998569489,,rt_thecrossant_black,653735,black_plus_sign,,,,50,,,1,0.9578947368421052,,,,,,,,,,
null,,color_black,653838,black_plus_sign,,,,null,,,,,,,,,,,,,,
null,,learn_phase(without_color),655842,black_plus_sign,,,,null,GW/soldier.jpg,GW/snail.jpg,,,,,,,,,,,,
null,,black_cross(without_color),656696,blue,,,,null,GW/soldier.jpg,GW/snail.jpg,,,,,,,,,,,,
null,,rt_plussign_withcolor,657198,blue,,,,null,GW/soldier.jpg,GW/snail.jpg,,,,,,,,,,,,
1377.5,,rt_thecrossant_black,658350,black_plus_sign,,,,49,,,1,0.9583333333333334,,,,,,,,,,
null,,color_black,658453,black_plus_sign,,,,null,,,,,,,,,,,,,,
null,,learn_phase(without_color),660456,black_plus_sign,,,,null,GW/basket.jpg,GW/hat.jpg,,,,,,,,,,,,
null,,black_cross(without_color),661079,blue,,,,null,GW/basket.jpg,GW/hat.jpg,,,,,,,,,,,,
null,,rt_plussign_withcolor,661586,blue,,,,null,GW/basket.jpg,GW/hat.jpg,,,,,,,,,,,,
1108.2000000476837,,rt_thecrossant_black,662968,black_plus_sign,,,,49,,,1,0.9587628865979382,,,,,,,,,,
null,,color_black,663071,black_plus_sign,,,,null,,,,,,,,,,,,,,
null,,learn_phase(without_color),665075,black_plus_sign,,,,null,GW/gong.jpg,GW/camera.jpg,,,,,,,,,,,,
null,,black_cross(without_color),665962,blue,,,,null,GW/gong.jpg,GW/camera.jpg,,,,,,,,,,,,
null,,rt_plussign_withcolor,666464,blue,,,,null,GW/gong.jpg,GW/camera.jpg,,,,,,,,,,,,
1060.6000001430511,,rt_thecrossant_black,667583,black_plus_sign,,,,49,,,1,0.9591836734693877,,,,,,,,,,
null,,color_black,667687,black_plus_sign,,,,null,,,,,,,,,,,,,,
null,,learn_phase(without_color),669692,black_plus_sign,,,,null,GW/gong.jpg,GW/basket.jpg,,,,,,,,,,,,
null,,black_cross(without_color),670693,green,,,,null,GW/gong.jpg,GW/basket.jpg,,,,,,,,,,,,
null,,rt_plussign_withcolor,671195,green,,,,null,GW/gong.jpg,GW/basket.jpg,,,,,,,,,,,,
1115.1999998092651,,rt_thecrossant_black,672215,black_plus_sign,,,,50,,,1,0.9595959595959596,,,,,,,,,,
null,,color_black,672325,black_plus_sign,,,,null,,,,,,,,,,,,,,
null,,learn_phase(without_color),674329,black_plus_sign,,,,null,GW/jukebox.jpg,GW/gong.jpg,,,,,,,,,,,,
null,,black_cross(without_color),674822,blue,,,,null,GW/jukebox.jpg,GW/gong.jpg,,,,,,,,,,,,
null,,rt_plussign_withcolor,675324,blue,,,,null,GW/jukebox.jpg,GW/gong.jpg,,,,,,,,,,,,
1677,,rt_thecrossant_black,676838,black_plus_sign,,,,49,,,1,0.96,,,,,,,,,,
null,,color_black,676941,black_plus_sign,,,,null,,,,,,,,,,,,,,
null,,learn_phase(without_color),678946,black_plus_sign,,,,null,GW/snail.jpg,GW/wheelchair.jpg,,,,,,,,,,,,
null,,black_cross(without_color),679810,blue,,,,null,GW/snail.jpg,GW/wheelchair.jpg,,,,,,,,,,,,
null,,rt_plussign_withcolor,680312,blue,,,,null,GW/snail.jpg,GW/wheelchair.jpg,,,,,,,,,,,,
750.9000000953674,,rt_thecrossant_black,681456,black_plus_sign,,,,49,,,1,0.9603960396039604,,,,,,,,,,
null,,color_black,681558,black_plus_sign,,,,null,,,,,,,,,,,,,,
null,,learn_phase(without_color),683562,black_plus_sign,,,,null,GW/soldier.jpg,GW/snail.jpg,,,,,,,,,,,,
null,,black_cross(without_color),684164,green,,,,null,GW/soldier.jpg,GW/snail.jpg,,,,,,,,,,,,
null,,rt_plussign_withcolor,684667,green,,,,null,GW/soldier.jpg,GW/snail.jpg,,,,,,,,,,,,
1220.3000001907349,,rt_thecrossant_black,686071,black_plus_sign,,,,50,,,1,0.9607843137254902,,,,,,,,,,
null,,color_black,686173,black_plus_sign,,,,null,,,,,,,,,,,,,,
null,,learn_phase(without_color),688177,black_plus_sign,,,,null,GW/hat.jpg,GW/soldier.jpg,,,,,,,,,,,,
null,,black_cross(without_color),688710,green,,,,null,GW/hat.jpg,GW/soldier.jpg,,,,,,,,,,,,
null,,rt_plussign_withcolor,689213,green,,,,null,GW/hat.jpg,GW/soldier.jpg,,,,,,,,,,,,
1103.8000001907349,,rt_thecrossant_black,690686,black_plus_sign,,,,50,,,1,0.9611650485436893,,,,,,,,,,
null,,color_black,690797,black_plus_sign,,,,null,,,,,,,,,,,,,,
null,,learn_phase(without_color),692801,black_plus_sign,,,,null,GW/jukebox.jpg,GW/gong.jpg,,,,,,,,,,,,
null,,black_cross(without_color),693227,green,,,,null,GW/jukebox.jpg,GW/gong.jpg,,,,,,,,,,,,
null,,rt_plussign_withcolor,693729,green,,,,null,GW/jukebox.jpg,GW/gong.jpg,,,,,,,,,,,,
1042.7000000476837,,rt_thecrossant_black,695310,black_plus_sign,,,,50,,,1,0.9615384615384616,,,,,,,,,,
null,,color_black,695412,black_plus_sign,,,,null,,,,,,,,,,,,,,
null,,learn_phase(without_color),697417,black_plus_sign,,,,null,GW/paint.jpg,GW/dustpan.jpg,,,,,,,,,,,,
null,,black_cross(without_color),698370,green,,,,null,GW/paint.jpg,GW/dustpan.jpg,,,,,,,,,,,,
null,,rt_plussign_withcolor,698872,green,,,,null,GW/paint.jpg,GW/dustpan.jpg,,,,,,,,,,,,
804.7000000476837,,rt_thecrossant_black,699925,black_plus_sign,,,,50,,,1,0.9619047619047619,,,,,,,,,,
null,,color_black,700028,black_plus_sign,,,,null,,,,,,,,,,,,,,
null,,learn_phase(without_color),702032,black_plus_sign,,,,null,GW/snail.jpg,GW/wheelchair.jpg,,,,,,,,,,,,
null,,black_cross(without_color),702617,green,,,,null,GW/snail.jpg,GW/wheelchair.jpg,,,,,,,,,,,,
null,,rt_plussign_withcolor,703119,green,,,,null,GW/snail.jpg,GW/wheelchair.jpg,,,,,,,,,,,,
1228.5,,rt_thecrossant_black,704539,black_plus_sign,,,,50,,,1,0.9622641509433962,,,,,,,,,,
null,,color_black,704641,black_plus_sign,,,,null,,,,,,,,,,,,,,
null,,learn_phase(without_color),706643,black_plus_sign,,,,null,GW/dustpan.jpg,GW/soldier.jpg,,,,,,,,,,,,
null,,black_cross(without_color),707099,blue,,,,null,GW/dustpan.jpg,GW/soldier.jpg,,,,,,,,,,,,
null,,rt_plussign_withcolor,707601,blue,,,,null,GW/dustpan.jpg,GW/soldier.jpg,,,,,,,,,,,,
846.0999999046326,,rt_thecrossant_black,709150,black_plus_sign,,,,49,,,1,0.9626168224299065,,,,,,,,,,
null,,color_black,709253,black_plus_sign,,,,null,,,,,,,,,,,,,,
null,,learn_phase(without_color),711256,black_plus_sign,,,,null,GW/soldier.jpg,GW/snail.jpg,,,,,,,,,,,,
null,,black_cross(without_color),711761,blue,,,,null,GW/soldier.jpg,GW/snail.jpg,,,,,,,,,,,,
null,,rt_plussign_withcolor,712264,blue,,,,null,GW/soldier.jpg,GW/snail.jpg,,,,,,,,,,,,
599.7999999523163,,rt_thecrossant_black,713764,black_plus_sign,,,,49,,,1,0.9629629629629629,,,,,,,,,,
null,,color_black,713866,black_plus_sign,,,,null,,,,,,,,,,,,,,
null,,learn_phase(without_color),715870,black_plus_sign,,,,null,GW/basket.jpg,GW/snail.jpg,,,,,,,,,,,,
null,,black_cross(without_color),716728,green,,,,null,GW/basket.jpg,GW/snail.jpg,,,,,,,,,,,,
null,,rt_plussign_withcolor,717230,green,,,,null,GW/basket.jpg,GW/snail.jpg,,,,,,,,,,,,
832,,rt_thecrossant_black,718378,black_plus_sign,,,,50,,,1,0.963302752293578,,,,,,,,,,
null,,color_black,718482,black_plus_sign,,,,null,,,,,,,,,,,,,,
null,,learn_phase(without_color),720486,black_plus_sign,,,,null,GW/gong.jpg,GW/basket.jpg,,,,,,,,,,,,
null,,black_cross(without_color),720925,green,,,,null,GW/gong.jpg,GW/basket.jpg,,,,,,,,,,,,
null,,rt_plussign_withcolor,721428,green,,,,null,GW/gong.jpg,GW/basket.jpg,,,,,,,,,,,,
1168.5,,rt_thecrossant_black,722996,black_plus_sign,,,,50,,,1,0.9636363636363636,,,,,,,,,,
null,,color_black,723098,black_plus_sign,,,,null,,,,,,,,,,,,,,
null,,learn_phase(without_color),725101,black_plus_sign,,,,null,GW/camera.jpg,GW/wheelchair.jpg,,,,,,,,,,,,
null,,black_cross(without_color),725670,blue,,,,null,GW/camera.jpg,GW/wheelchair.jpg,,,,,,,,,,,,
null,,rt_plussign_withcolor,726172,blue,,,,null,GW/camera.jpg,GW/wheelchair.jpg,,,,,,,,,,,,
638.7000000476837,,rt_thecrossant_black,727609,black_plus_sign,,,,49,,,1,0.963963963963964,,,,,,,,,,
null,,color_black,727712,black_plus_sign,,,,null,,,,,,,,,,,,,,
null,,learn_phase(without_color),729718,black_plus_sign,,,,null,GW/gong.jpg,GW/camera.jpg,,,,,,,,,,,,
null,,black_cross(without_color),730173,blue,,,,null,GW/gong.jpg,GW/camera.jpg,,,,,,,,,,,,
null,,rt_plussign_withcolor,730676,blue,,,,null,GW/gong.jpg,GW/camera.jpg,,,,,,,,,,,,
764.0999999046326,,rt_thecrossant_black,732226,black_plus_sign,,,,49,,,1,0.9642857142857143,,,,,,,,,,
null,,color_black,732329,black_plus_sign,,,,null,,,,,,,,,,,,,,
null,,learn_phase(without_color),734333,black_plus_sign,,,,null,GW/gong.jpg,GW/basket.jpg,,,,,,,,,,,,
null,,black_cross(without_color),734803,green,,,,null,GW/gong.jpg,GW/basket.jpg,,,,,,,,,,,,
null,,rt_plussign_withcolor,735305,green,,,,null,GW/gong.jpg,GW/basket.jpg,,,,,,,,,,,,
676.3999998569489,,rt_thecrossant_black,736841,black_plus_sign,,,,50,,,1,0.9646017699115044,,,,,,,,,,
null,,color_black,736944,black_plus_sign,,,,null,,,,,,,,,,,,,,
null,,learn_phase(without_color),738948,black_plus_sign,,,,null,GW/camera.jpg,GW/barrel.jpg,,,,,,,,,,,,
null,,black_cross(without_color),739573,blue,,,,null,GW/camera.jpg,GW/barrel.jpg,,,,,,,,,,,,
null,,rt_plussign_withcolor,740075,blue,,,,null,GW/camera.jpg,GW/barrel.jpg,,,,,,,,,,,,
765.0999999046326,,rt_thecrossant_black,741458,black_plus_sign,,,,49,,,1,0.9649122807017544,,,,,,,,,,
null,,color_black,741570,black_plus_sign,,,,null,,,,,,,,,,,,,,
null,,learn_phase(without_color),743575,black_plus_sign,,,,null,GW/basket.jpg,GW/snail.jpg,,,,,,,,,,,,
null,,black_cross(without_color),744011,blue,,,,null,GW/basket.jpg,GW/snail.jpg,,,,,,,,,,,,
null,,rt_plussign_withcolor,744513,blue,,,,null,GW/basket.jpg,GW/snail.jpg,,,,,,,,,,,,
883.5999999046326,,rt_thecrossant_black,746096,black_plus_sign,,,,49,,,1,0.9652173913043478,,,,,,,,,,
null,,color_black,746199,black_plus_sign,,,,null,,,,,,,,,,,,,,
null,,learn_phase(without_color),748203,black_plus_sign,,,,null,GW/paint.jpg,GW/dustpan.jpg,,,,,,,,,,,,
null,,black_cross(without_color),749254,green,,,,null,GW/paint.jpg,GW/dustpan.jpg,,,,,,,,,,,,
null,,rt_plussign_withcolor,749756,green,,,,null,GW/paint.jpg,GW/dustpan.jpg,,,,,,,,,,,,
598.5,,rt_thecrossant_black,750711,black_plus_sign,,,,50,,,1,0.9655172413793104,,,,,,,,,,
null,,color_black,750815,black_plus_sign,,,,null,,,,,,,,,,,,,,
null,,learn_phase(without_color),752819,black_plus_sign,,,,null,GW/camera.jpg,GW/barrel.jpg,,,,,,,,,,,,
null,,black_cross(without_color),753698,green,,,,null,GW/camera.jpg,GW/barrel.jpg,,,,,,,,,,,,
null,,rt_plussign_withcolor,754200,green,,,,null,GW/camera.jpg,GW/barrel.jpg,,,,,,,,,,,,
1294.5,,rt_thecrossant_black,755327,black_plus_sign,,,,50,,,1,0.9658119658119658,,,,,,,,,,
null,,color_black,755431,black_plus_sign,,,,null,,,,,,,,,,,,,,
null,,learn_phase(without_color),757435,black_plus_sign,,,,null,GW/dustpan.jpg,GW/teeth.jpg,,,,,,,,,,,,
null,,black_cross(without_color),758315,blue,,,,null,GW/dustpan.jpg,GW/teeth.jpg,,,,,,,,,,,,
null,,rt_plussign_withcolor,758818,blue,,,,null,GW/dustpan.jpg,GW/teeth.jpg,,,,,,,,,,,,
1285.2999999523163,,rt_thecrossant_black,759943,black_plus_sign,,,,49,,,1,0.9661016949152542,,,,,,,,,,
null,,color_black,760046,black_plus_sign,,,,null,,,,,,,,,,,,,,
null,,learn_phase(without_color),762050,black_plus_sign,,,,null,GW/camera.jpg,GW/wheelchair.jpg,,,,,,,,,,,,
null,,black_cross(without_color),762733,green,,,,null,GW/camera.jpg,GW/wheelchair.jpg,,,,,,,,,,,,
null,,rt_plussign_withcolor,763235,green,,,,null,GW/camera.jpg,GW/wheelchair.jpg,,,,,,,,,,,,
1117.2000000476837,,rt_thecrossant_black,764558,black_plus_sign,,,,50,,,1,0.9663865546218487,,,,,,,,,,
null,,color_black,764663,black_plus_sign,,,,null,,,,,,,,,,,,,,
null,,learn_phase(without_color),766667,black_plus_sign,,,,null,GW/camera.jpg,GW/barrel.jpg,,,,,,,,,,,,
null,,black_cross(without_color),767345,blue,,,,null,GW/camera.jpg,GW/barrel.jpg,,,,,,,,,,,,
null,,rt_plussign_withcolor,767848,blue,,,,null,GW/camera.jpg,GW/barrel.jpg,,,,,,,,,,,,
838.2999999523163,,rt_thecrossant_black,769175,black_plus_sign,,,,49,,,1,0.9666666666666667,,,,,,,,,,
null,,color_black,769278,black_plus_sign,,,,null,,,,,,,,,,,,,,
null,,learn_phase(without_color),771286,black_plus_sign,,,,null,GW/jukebox.jpg,GW/gong.jpg,,,,,,,,,,,,
null,,black_cross(without_color),771733,green,,,,null,GW/jukebox.jpg,GW/gong.jpg,,,,,,,,,,,,
null,,rt_plussign_withcolor,772236,green,,,,null,GW/jukebox.jpg,GW/gong.jpg,,,,,,,,,,,,
977.2999999523163,,rt_thecrossant_black,773793,black_plus_sign,,,,50,,,1,0.9669421487603306,,,,,,,,,,
null,,color_black,773896,black_plus_sign,,,,null,,,,,,,,,,,,,,
null,,learn_phase(without_color),775899,black_plus_sign,,,,null,GW/paint.jpg,GW/dustpan.jpg,,,,,,,,,,,,
null,,black_cross(without_color),776925,blue,,,,null,GW/paint.jpg,GW/dustpan.jpg,,,,,,,,,,,,
null,,rt_plussign_withcolor,777428,blue,,,,null,GW/paint.jpg,GW/dustpan.jpg,,,,,,,,,,,,
928.7000000476837,,rt_thecrossant_black,778407,black_plus_sign,,,,49,,,1,0.9672131147540983,,,,,,,,,,
null,,color_black,778513,black_plus_sign,,,,null,,,,,,,,,,,,,,
null,,learn_phase(without_color),780518,black_plus_sign,,,,null,GW/snail.jpg,GW/wheelchair.jpg,,,,,,,,,,,,
null,,black_cross(without_color),781142,green,,,,null,GW/snail.jpg,GW/wheelchair.jpg,,,,,,,,,,,,
null,,rt_plussign_withcolor,781643,green,,,,null,GW/snail.jpg,GW/wheelchair.jpg,,,,,,,,,,,,
1334.5,,rt_thecrossant_black,783024,black_plus_sign,,,,50,,,1,0.967479674796748,,,,,,,,,,
null,,color_black,783126,black_plus_sign,,,,null,,,,,,,,,,,,,,
null,,learn_phase(without_color),785131,black_plus_sign,,,,null,GW/gong.jpg,GW/basket.jpg,,,,,,,,,,,,
null,,black_cross(without_color),785725,green,,,,null,GW/gong.jpg,GW/basket.jpg,,,,,,,,,,,,
null,,rt_plussign_withcolor,786227,green,,,,null,GW/gong.jpg,GW/basket.jpg,,,,,,,,,,,,
911.3999998569489,,rt_thecrossant_black,787640,black_plus_sign,,,,50,,,1,0.967741935483871,,,,,,,,,,
null,,color_black,787743,black_plus_sign,,,,null,,,,,,,,,,,,,,
null,,learn_phase(without_color),789750,black_plus_sign,,,,null,GW/snail.jpg,GW/wheelchair.jpg,,,,,,,,,,,,
null,,black_cross(without_color),790575,blue,,,,null,GW/snail.jpg,GW/wheelchair.jpg,,,,,,,,,,,,
null,,rt_plussign_withcolor,791077,blue,,,,null,GW/snail.jpg,GW/wheelchair.jpg,,,,,,,,,,,,
947,,rt_thecrossant_black,792259,black_plus_sign,,,,49,,,1,0.968,,,,,,,,,,
null,,color_black,792363,black_plus_sign,,,,null,,,,,,,,,,,,,,
null,,learn_phase(without_color),794368,black_plus_sign,,,,null,GW/basket.jpg,GW/hat.jpg,,,,,,,,,,,,
null,,black_cross(without_color),795364,green,,,,null,GW/basket.jpg,GW/hat.jpg,,,,,,,,,,,,
null,,rt_plussign_withcolor,795867,green,,,,null,GW/basket.jpg,GW/hat.jpg,,,,,,,,,,,,
1254.1000001430511,,rt_thecrossant_black,796876,black_plus_sign,,,,50,,,1,0.9682539682539683,,,,,,,,,,
null,,color_black,796979,black_plus_sign,,,,null,,,,,,,,,,,,,,
null,,learn_phase(without_color),798983,black_plus_sign,,,,null,GW/snail.jpg,GW/wheelchair.jpg,,,,,,,,,,,,
null,,black_cross(without_color),799708,green,,,,null,GW/snail.jpg,GW/wheelchair.jpg,,,,,,,,,,,,
null,,rt_plussign_withcolor,800211,green,,,,null,GW/snail.jpg,GW/wheelchair.jpg,,,,,,,,,,,,
1178.7000000476837,,rt_thecrossant_black,801491,black_plus_sign,,,,50,,,1,0.968503937007874,,,,,,,,,,
null,,color_black,801594,black_plus_sign,,,,null,,,,,,,,,,,,,,
null,,learn_phase(without_color),803599,black_plus_sign,,,,null,GW/paint.jpg,GW/soldier.jpg,,,,,,,,,,,,
null,,black_cross(without_color),804213,blue,,,,null,GW/paint.jpg,GW/soldier.jpg,,,,,,,,,,,,
null,,rt_plussign_withcolor,804716,blue,,,,null,GW/paint.jpg,GW/soldier.jpg,,,,,,,,,,,,
879.2000000476837,,rt_thecrossant_black,806108,black_plus_sign,,,,49,,,1,0.96875,,,,,,,,,,
null,,color_black,806211,black_plus_sign,,,,null,,,,,,,,,,,,,,
14535.800000190735,,intro_1,820750,instruct,,0,Start,,,,,,,,,,,,,,,
4217.799999952316,,directmemory_phase,824971,GW/hat.jpg,,,,51,,,1,1,GW/camera.jpg,GW/gong.jpg,GW/basket.jpg,GW/basket.jpg,GW/gong.jpg,GW/camera.jpg,1,,,
null,,html-keyboard-response,825977,<p></p>,,,,null,,,,,,,,,,,,,,
2639.2000000476837,,directmemory_phase,828619,GW/gong.jpg,,,,51,,,1,1,GW/globe.jpg,GW/barrel.jpg,GW/jukebox.jpg,GW/jukebox.jpg,GW/barrel.jpg,GW/globe.jpg,1,,,
null,,html-keyboard-response,829623,<p></p>,,,,null,,,,,,,,,,,,,,
2603.2999999523163,,directmemory_phase,832228,GW/camera.jpg,,,,49,,,1,1,GW/wheelchair.jpg,GW/soldier.jpg,GW/basket.jpg,GW/wheelchair.jpg,GW/basket.jpg,GW/soldier.jpg,1,,,
null,,html-keyboard-response,833232,<p></p>,,,,null,,,,,,,,,,,,,,
2861.7999999523163,,directmemory_phase,836097,GW/snail.jpg,,,,50,,,1,1,GW/gong.jpg,GW/basket.jpg,GW/globe.jpg,GW/basket.jpg,GW/gong.jpg,GW/globe.jpg,1,,,
null,,html-keyboard-response,837100,<p></p>,,,,null,,,,,,,,,,,,,,
3082.7999999523163,,directmemory_phase,840185,GW/paint.jpg,,,,50,,,1,1,GW/teeth.jpg,GW/soldier.jpg,GW/camera.jpg,GW/soldier.jpg,GW/teeth.jpg,GW/camera.jpg,1,,,
null,,html-keyboard-response,841189,<p></p>,,,,null,,,,,,,,,,,,,,
2381.7000000476837,,directmemory_phase,843573,GW/basket.jpg,,,,49,,,1,1,GW/hat.jpg,GW/dustpan.jpg,GW/jukebox.jpg,GW/hat.jpg,GW/jukebox.jpg,GW/dustpan.jpg,1,,,
null,,html-keyboard-response,844576,<p></p>,,,,null,,,,,,,,,,,,,,
1746.3000001907349,,directmemory_phase,846324,GW/snail.jpg,,,,49,,,1,1,GW/soldier.jpg,GW/teeth.jpg,GW/dustpan.jpg,GW/soldier.jpg,GW/dustpan.jpg,GW/teeth.jpg,1,,,
null,,html-keyboard-response,847327,<p></p>,,,,null,,,,,,,,,,,,,,
3389,,directmemory_phase,850720,GW/hat.jpg,,,,51,,,1,1,GW/jukebox.jpg,GW/snail.jpg,GW/paint.jpg,GW/paint.jpg,GW/snail.jpg,GW/jukebox.jpg,1,,,
null,,html-keyboard-response,851725,<p></p>,,,,null,,,,,,,,,,,,,,
1385.0999999046326,,directmemory_phase,853112,GW/teeth.jpg,,,,51,,,1,1,GW/wheelchair.jpg,GW/paint.jpg,GW/dustpan.jpg,GW/dustpan.jpg,GW/paint.jpg,GW/wheelchair.jpg,1,,,
null,,html-keyboard-response,854116,<p></p>,,,,null,,,,,,,,,,,,,,
3033.2000000476837,,directmemory_phase,857151,GW/soldier.jpg,,,,50,,,0,0.9,GW/camera.jpg,GW/wheelchair.jpg,GW/paint.jpg,GW/paint.jpg,GW/wheelchair.jpg,GW/camera.jpg,0.5,closer,,
null,,html-keyboard-response,858168,<p></p>,,,,null,,,,,,,,,,,,,,
1807.6000001430511,,directmemory_phase,859978,GW/jukebox.jpg,,,,51,,,1,0.9090909090909091,GW/hat.jpg,GW/basket.jpg,GW/gong.jpg,GW/gong.jpg,GW/basket.jpg,GW/hat.jpg,1,,,
null,,html-keyboard-response,860982,<p></p>,,,,null,,,,,,,,,,,,,,
2109.899999856949,,directmemory_phase,863093,GW/hat.jpg,,,,49,,,1,0.9166666666666666,GW/soldier.jpg,GW/teeth.jpg,GW/dustpan.jpg,GW/soldier.jpg,GW/dustpan.jpg,GW/teeth.jpg,1,,,
null,,html-keyboard-response,864096,<p></p>,,,,null,,,,,,,,,,,,,,
2240.7000000476837,,directmemory_phase,866339,GW/paint.jpg,,,,49,,,1,0.9230769230769231,GW/globe.jpg,GW/wheelchair.jpg,GW/teeth.jpg,GW/globe.jpg,GW/teeth.jpg,GW/wheelchair.jpg,1,,,
null,,html-keyboard-response,867344,<p></p>,,,,null,,,,,,,,,,,,,,
2007,,directmemory_phase,869352,GW/barrel.jpg,,,,51,,,1,0.9285714285714286,GW/jukebox.jpg,GW/gong.jpg,GW/camera.jpg,GW/camera.jpg,GW/gong.jpg,GW/jukebox.jpg,1,,,
null,,html-keyboard-response,870356,<p></p>,,,,null,,,,,,,,,,,,,,
2410.7000000476837,,directmemory_phase,872769,GW/soldier.jpg,,,,50,,,0,0.8666666666666667,GW/jukebox.jpg,GW/globe.jpg,GW/dustpan.jpg,GW/dustpan.jpg,GW/globe.jpg,GW/jukebox.jpg,0.5,closer,,
null,,html-keyboard-response,873774,<p></p>,,,,null,,,,,,,,,,,,,,
2055,,directmemory_phase,875831,GW/camera.jpg,,,,49,,,1,0.875,GW/barrel.jpg,GW/soldier.jpg,GW/jukebox.jpg,GW/barrel.jpg,GW/jukebox.jpg,GW/soldier.jpg,1,,,
null,,html-keyboard-response,876835,<p></p>,,,,null,,,,,,,,,,,,,,
1979.6000001430511,,directmemory_phase,878817,GW/dustpan.jpg,,,,51,,,1,0.8823529411764706,GW/camera.jpg,GW/globe.jpg,GW/teeth.jpg,GW/teeth.jpg,GW/globe.jpg,GW/camera.jpg,1,,,
null,,html-keyboard-response,879820,<p></p>,,,,null,,,,,,,,,,,,,,
3103.399999856949,,directmemory_phase,882925,GW/gong.jpg,,,,50,,,1,0.8888888888888888,GW/wheelchair.jpg,GW/camera.jpg,GW/dustpan.jpg,GW/camera.jpg,GW/wheelchair.jpg,GW/dustpan.jpg,1,,,
null,,html-keyboard-response,883928,<p></p>,,,,null,,,,,,,,,,,,,,
3899.4000000953674,,directmemory_phase,887830,GW/paint.jpg,,,,51,,,1,0.8947368421052632,GW/jukebox.jpg,GW/snail.jpg,GW/dustpan.jpg,GW/dustpan.jpg,GW/snail.jpg,GW/jukebox.jpg,1,,,
null,,html-keyboard-response,888833,<p></p>,,,,null,,,,,,,,,,,,,,
3231.7000000476837,,directmemory_phase,892067,GW/wheelchair.jpg,,,,50,,,1,0.9,GW/barrel.jpg,GW/camera.jpg,GW/teeth.jpg,GW/camera.jpg,GW/barrel.jpg,GW/teeth.jpg,1,,,
null,,html-keyboard-response,893071,<p></p>,,,,null,,,,,,,,,,,,,,
2195.7000000476837,,directmemory_phase,895269,GW/dustpan.jpg,,,,50,,,0,0.8571428571428571,GW/paint.jpg,GW/basket.jpg,GW/globe.jpg,GW/paint.jpg,GW/globe.jpg,GW/basket.jpg,0.5,closer,,
null,,html-keyboard-response,896273,<p></p>,,,,null,,,,,,,,,,,,,,
2288.5999999046326,,directmemory_phase,898564,GW/gong.jpg,,,,51,,,1,0.8636363636363636,GW/dustpan.jpg,GW/wheelchair.jpg,GW/basket.jpg,GW/basket.jpg,GW/wheelchair.jpg,GW/dustpan.jpg,1,,,
null,,html-keyboard-response,899567,<p></p>,,,,null,,,,,,,,,,,,,,
2393.2000000476837,,directmemory_phase,901963,GW/soldier.jpg,,,,50,,,0,0.8260869565217391,GW/jukebox.jpg,GW/basket.jpg,GW/snail.jpg,GW/snail.jpg,GW/basket.jpg,GW/jukebox.jpg,0.5,closer,,
null,,html-keyboard-response,902967,<p></p>,,,,null,,,,,,,,,,,,,,
1980.5,,directmemory_phase,904950,GW/paint.jpg,,,,51,,,1,0.8333333333333334,GW/gong.jpg,GW/basket.jpg,GW/hat.jpg,GW/hat.jpg,GW/basket.jpg,GW/gong.jpg,1,,,
null,,html-keyboard-response,905953,<p></p>,,,,null,,,,,,,,,,,,,,
2274.4000000953674,,directmemory_phase,908230,GW/basket.jpg,,,,50,,,0,0.8,GW/dustpan.jpg,GW/soldier.jpg,GW/snail.jpg,GW/snail.jpg,GW/soldier.jpg,GW/dustpan.jpg,0.5,closer,,
null,,html-keyboard-response,909232,<p></p>,,,,null,,,,,,,,,,,,,,
1655,,directmemory_phase,910891,GW/soldier.jpg,,,,51,,,1,0.8076923076923077,GW/barrel.jpg,GW/basket.jpg,GW/hat.jpg,GW/hat.jpg,GW/basket.jpg,GW/barrel.jpg,1,,,
null,,html-keyboard-response,911893,<p></p>,,,,null,,,,,,,,,,,,,,
2563.2000000476837,,directmemory_phase,914458,GW/basket.jpg,,,,51,,,1,0.8148148148148148,GW/globe.jpg,GW/jukebox.jpg,GW/gong.jpg,GW/gong.jpg,GW/jukebox.jpg,GW/globe.jpg,1,,,
null,,html-keyboard-response,915461,<p></p>,,,,null,,,,,,,,,,,,,,
2185.9000000953674,,directmemory_phase,917649,GW/dustpan.jpg,,,,51,,,1,0.8214285714285714,GW/wheelchair.jpg,GW/snail.jpg,GW/soldier.jpg,GW/soldier.jpg,GW/snail.jpg,GW/wheelchair.jpg,1,,,
null,,html-keyboard-response,918653,<p></p>,,,,null,,,,,,,,,,,,,,
2004.2999999523163,,directmemory_phase,920659,GW/globe.jpg,,,,50,,,1,0.8275862068965517,GW/hat.jpg,GW/paint.jpg,GW/snail.jpg,GW/paint.jpg,GW/hat.jpg,GW/snail.jpg,1,,,
null,,html-keyboard-response,921663,<p></p>,,,,null,,,,,,,,,,,,,,
2390.600000143051,,directmemory_phase,924056,GW/wheelchair.jpg,,,,50,,,0,0.8,GW/globe.jpg,GW/soldier.jpg,GW/snail.jpg,GW/snail.jpg,GW/soldier.jpg,GW/globe.jpg,0.5,closer,,
null,,html-keyboard-response,925060,<p></p>,,,,null,,,,,,,,,,,,,,
2284,,directmemory_phase,927346,GW/camera.jpg,,,,51,,,1,0.8064516129032258,GW/soldier.jpg,GW/jukebox.jpg,GW/gong.jpg,GW/gong.jpg,GW/jukebox.jpg,GW/soldier.jpg,1,,,
null,,html-keyboard-response,928349,<p></p>,,,,null,,,,,,,,,,,,,,
2643.7000000476837,,directmemory_phase,930994,GW/snail.jpg,,,,49,,,1,0.8125,GW/wheelchair.jpg,GW/barrel.jpg,GW/camera.jpg,GW/wheelchair.jpg,GW/camera.jpg,GW/barrel.jpg,1,,,
null,,html-keyboard-response,931998,<p></p>,,,,null,,,,,,,,,,,,,,
42241,,intro_1,974243,instruct,,0,,,,,,,,,,,,,,,,
23877.799999952316,,intro_2,998123,instruct,,1,Next,,,,,,,,,,,,,,,
13630.099999904633,,intro_3,1011755,instruct,,1,Next,,,,,,,,,,,,,,,
14973.600000143051,,intro_4,1026731,instruct,,1,Next,,,,,,,,,,,,,,,
28846.099999904633,,intro_5,1055581,instruct,,1,Next,,,,,,,,,,,,,,,
80805.90000009537,,intro_6,1136390,instruct,,1,Next,,,,,,,,,,,,,,,
34741.89999985695,,intro_7,1171136,instruct,,1,Next,,,,,,,,,,,,,,,
15309.5,,intro_8,1186447,instruct,,1,Next,,,,,,,,,,,,,,,
null,,shortestpath_phase,1193950,GW/jukebox.jpg,,,,null,GW/teeth.jpg,GW/paint.jpg,0,0,,,,GW/paint.jpg,,,,,Two Edge Diff,Four Edge Six Edge
null,,html-keyboard-response,1194955,<p></p>,,,,null,,,,,,,,,,,,,,
4298.299999952316,,shortestpath_phase,1199255,GW/camera.jpg,,,,50,GW/dustpan.jpg,GW/hat.jpg,1,0.5,,,,GW/hat.jpg,,,,,One Edge Diff,Three Edge Four Edge
null,,html-keyboard-response,1200259,<p></p>,,,,null,,,,,,,,,,,,,,
3373.300000190735,,shortestpath_phase,1203635,GW/paint.jpg,,,,49,GW/wheelchair.jpg,GW/camera.jpg,1,0.6666666666666666,,,,GW/wheelchair.jpg,,,,,One Edge Diff,Three Edge Four Edge
null,,html-keyboard-response,1204638,<p></p>,,,,null,,,,,,,,,,,,,,
3167.2000000476837,,shortestpath_phase,1207808,GW/teeth.jpg,,,,49,GW/snail.jpg,GW/wheelchair.jpg,1,0.75,,,,GW/snail.jpg,,,,,One Edge Diff,Three Edge Four Edge
null,,html-keyboard-response,1208812,<p></p>,,,,null,,,,,,,,,,,,,,
2459.399999856949,,shortestpath_phase,1211273,GW/globe.jpg,,,,50,GW/wheelchair.jpg,GW/camera.jpg,0,0.6,,,,GW/wheelchair.jpg,,,,,One Edge Diff,Four Edge Five Edge
null,,html-keyboard-response,1212277,<p></p>,,,,null,,,,,,,,,,,,,,
2551.7999999523163,,shortestpath_phase,1214831,GW/basket.jpg,,,,49,GW/barrel.jpg,GW/teeth.jpg,1,0.6666666666666666,,,,GW/barrel.jpg,,,,,One Edge Diff,Three Edge Four Edge
null,,html-keyboard-response,1215837,<p></p>,,,,null,,,,,,,,,,,,,,
3192.100000143051,,shortestpath_phase,1219031,GW/soldier.jpg,,,,50,GW/globe.jpg,GW/gong.jpg,0,0.5714285714285714,,,,GW/globe.jpg,,,,,One Edge Diff,Two Edge Three Edge
null,,html-keyboard-response,1220035,<p></p>,,,,null,,,,,,,,,,,,,,
2180.800000190735,,shortestpath_phase,1222217,GW/jukebox.jpg,,,,49,GW/paint.jpg,GW/globe.jpg,1,0.625,,,,GW/paint.jpg,,,,,One Edge Diff,Four Edge Five Edge
null,,html-keyboard-response,1223222,<p></p>,,,,null,,,,,,,,,,,,,,
3615,,shortestpath_phase,1226839,GW/teeth.jpg,,,,50,GW/jukebox.jpg,GW/basket.jpg,1,0.6666666666666666,,,,GW/basket.jpg,,,,,Two Edge Diff,Four Edge Six Edge
null,,html-keyboard-response,1227843,<p></p>,,,,null,,,,,,,,,,,,,,
3127.2000000476837,,shortestpath_phase,1230972,GW/barrel.jpg,,,,49,GW/wheelchair.jpg,GW/globe.jpg,1,0.7,,,,GW/wheelchair.jpg,,,,,Four Edge Diff,Two Edge Six Edge
null,,html-keyboard-response,1231976,<p></p>,,,,null,,,,,,,,,,,,,,
4471.599999904633,,shortestpath_phase,1236450,GW/dustpan.jpg,,,,49,GW/snail.jpg,GW/wheelchair.jpg,1,0.7272727272727273,,,,GW/snail.jpg,,,,,One Edge Diff,Two Edge Three Edge
null,,html-keyboard-response,1237454,<p></p>,,,,null,,,,,,,,,,,,,,
3494.5999999046326,,shortestpath_phase,1240951,GW/teeth.jpg,,,,50,GW/basket.jpg,GW/soldier.jpg,1,0.75,,,,GW/soldier.jpg,,,,,Two Edge Diff,Two Edge Four Edge
null,,html-keyboard-response,1241955,<p></p>,,,,null,,,,,,,,,,,,,,
3720.4000000953674,,shortestpath_phase,1245678,GW/dustpan.jpg,,,,50,GW/jukebox.jpg,GW/gong.jpg,1,0.7692307692307693,,,,GW/gong.jpg,,,,,One Edge Diff,Four Edge Five Edge
null,,html-keyboard-response,1246683,<p></p>,,,,null,,,,,,,,,,,,,,
3584.199999809265,,shortestpath_phase,1250269,GW/barrel.jpg,,,,50,GW/globe.jpg,GW/soldier.jpg,1,0.7857142857142857,,,,GW/soldier.jpg,,,,,Two Edge Diff,Four Edge Six Edge
null,,html-keyboard-response,1251273,<p></p>,,,,null,,,,,,,,,,,,,,
3223.399999856949,,shortestpath_phase,1254499,GW/paint.jpg,,,,49,GW/gong.jpg,GW/jukebox.jpg,1,0.8,,,,GW/gong.jpg,,,,,One Edge Diff,Three Edge Four Edge
null,,html-keyboard-response,1255502,<p></p>,,,,null,,,,,,,,,,,,,,
2552.4000000953674,,shortestpath_phase,1258056,GW/barrel.jpg,,,,50,GW/teeth.jpg,GW/wheelchair.jpg,1,0.8125,,,,GW/wheelchair.jpg,,,,,Four Edge Diff,Two Edge Six Edge
null,,html-keyboard-response,1259061,<p></p>,,,,null,,,,,,,,,,,,,,
null,,shortestpath_phase,1266563,GW/soldier.jpg,,,,null,GW/jukebox.jpg,GW/gong.jpg,0,0.7647058823529411,,,,GW/gong.jpg,,,,,One Edge Diff,Three Edge Four Edge
null,,html-keyboard-response,1267567,<p></p>,,,,null,,,,,,,,,,,,,,
2592.7000000476837,,shortestpath_phase,1270162,GW/camera.jpg,,,,49,GW/hat.jpg,GW/teeth.jpg,1,0.7777777777777778,,,,GW/hat.jpg,,,,,Two Edge Diff,Three Edge Five Edge
null,,html-keyboard-response,1271167,<p></p>,,,,null,,,,,,,,,,,,,,
2482.0999999046326,,shortestpath_phase,1273651,GW/teeth.jpg,,,,49,GW/snail.jpg,GW/camera.jpg,1,0.7894736842105263,,,,GW/snail.jpg,,,,,Two Edge Diff,Three Edge Five Edge
null,,html-keyboard-response,1274655,<p></p>,,,,null,,,,,,,,,,,,,,
4727.799999952316,,shortestpath_phase,1279387,GW/barrel.jpg,,,,49,GW/hat.jpg,GW/teeth.jpg,1,0.8,,,,GW/hat.jpg,,,,,Two Edge Diff,Four Edge Six Edge
null,,html-keyboard-response,1280390,<p></p>,,,,null,,,,,,,,,,,,,,
2308.2000000476837,,shortestpath_phase,1282701,GW/teeth.jpg,,,,49,GW/soldier.jpg,GW/camera.jpg,1,0.8095238095238095,,,,GW/soldier.jpg,,,,,Three Edge Diff,Three Edge Six Edge
null,,html-keyboard-response,1283704,<p></p>,,,,null,,,,,,,,,,,,,,
2643.7000000476837,,shortestpath_phase,1286350,GW/dustpan.jpg,,,,50,GW/barrel.jpg,GW/wheelchair.jpg,1,0.8181818181818182,,,,GW/wheelchair.jpg,,,,,Two Edge Diff,Three Edge Five Edge
null,,html-keyboard-response,1287354,<p></p>,,,,null,,,,,,,,,,,,,,
2858.4000000953674,,shortestpath_phase,1290214,GW/barrel.jpg,,,,49,GW/gong.jpg,GW/teeth.jpg,1,0.8260869565217391,,,,GW/gong.jpg,,,,,Four Edge Diff,Two Edge Six Edge
null,,html-keyboard-response,1291218,<p></p>,,,,null,,,,,,,,,,,,,,
2732.899999856949,,shortestpath_phase,1293953,GW/teeth.jpg,,,,50,GW/wheelchair.jpg,GW/soldier.jpg,1,0.8333333333333334,,,,GW/soldier.jpg,,,,,Two Edge Diff,Two Edge Four Edge
null,,html-keyboard-response,1294958,<p></p>,,,,null,,,,,,,,,,,,,,
3444.7000000476837,,shortestpath_phase,1298405,GW/paint.jpg,,,,50,GW/barrel.jpg,GW/gong.jpg,1,0.84,,,,GW/gong.jpg,,,,,Two Edge Diff,Three Edge Five Edge
null,,html-keyboard-response,1299409,<p></p>,,,,null,,,,,,,,,,,,,,
2359,,shortestpath_phase,1301771,GW/dustpan.jpg,,,,49,GW/snail.jpg,GW/jukebox.jpg,1,0.8461538461538461,,,,GW/snail.jpg,,,,,Three Edge Diff,Two Edge Five Edge
null,,html-keyboard-response,1302775,<p></p>,,,,null,,,,,,,,,,,,,,
2231.4000000953674,,shortestpath_phase,1305008,GW/globe.jpg,,,,50,GW/barrel.jpg,GW/soldier.jpg,1,0.8518518518518519,,,,GW/soldier.jpg,,,,,Four Edge Diff,Two Edge Six Edge
null,,html-keyboard-response,1306011,<p></p>,,,,null,,,,,,,,,,,,,,
2724.0999999046326,,shortestpath_phase,1308737,GW/camera.jpg,,,,50,GW/globe.jpg,GW/dustpan.jpg,1,0.8571428571428571,,,,GW/dustpan.jpg,,,,,One Edge Diff,Four Edge Five Edge
null,,html-keyboard-response,1309739,<p></p>,,,,null,,,,,,,,,,,,,,
3619.399999856949,,shortestpath_phase,1313359,GW/teeth.jpg,,,,50,GW/gong.jpg,GW/jukebox.jpg,0,0.8275862068965517,,,,GW/gong.jpg,,,,,One Edge Diff,Five Edge Six Edge
null,,html-keyboard-response,1314362,<p></p>,,,,null,,,,,,,,,,,,,,
2794.899999856949,,shortestpath_phase,1317158,GW/jukebox.jpg,,,,50,GW/camera.jpg,GW/dustpan.jpg,0,0.8,,,,GW/camera.jpg,,,,,Three Edge Diff,Three Edge Six Edge
null,,html-keyboard-response,1318161,<p></p>,,,,null,,,,,,,,,,,,,,
null,,shortestpath_phase,1325663,GW/globe.jpg,,,,null,GW/teeth.jpg,GW/gong.jpg,0,0.7741935483870968,,,,GW/teeth.jpg,,,,,One Edge Diff,Three Edge Four Edge
null,,html-keyboard-response,1326666,<p></p>,,,,null,,,,,,,,,,,,,,
2876.0999999046326,,shortestpath_phase,1329545,GW/camera.jpg,,,,49,GW/basket.jpg,GW/teeth.jpg,1,0.78125,,,,GW/basket.jpg,,,,,Three Edge Diff,Two Edge Five Edge
null,,html-keyboard-response,1330549,<p></p>,,,,null,,,,,,,,,,,,,,
3759.5,,shortestpath_phase,1334310,GW/globe.jpg,,,,50,GW/soldier.jpg,GW/camera.jpg,0,0.7575757575757576,,,,GW/soldier.jpg,,,,,Three Edge Diff,Two Edge Five Edge
null,,html-keyboard-response,1335314,<p></p>,,,,null,,,,,,,,,,,,,,
4862,,shortestpath_phase,1340180,GW/gong.jpg,,,,49,GW/wheelchair.jpg,GW/dustpan.jpg,1,0.7647058823529411,,,,GW/wheelchair.jpg,,,,,Two Edge Diff,Two Edge Four Edge
null,,html-keyboard-response,1341185,<p></p>,,,,null,,,,,,,,,,,,,,
3612.899999856949,,shortestpath_phase,1344800,GW/hat.jpg,,,,50,GW/globe.jpg,GW/wheelchair.jpg,0,0.7428571428571429,,,,GW/globe.jpg,,,,,One Edge Diff,Two Edge Three Edge
null,,html-keyboard-response,1345803,<p></p>,,,,null,,,,,,,,,,,,,,
4139.299999952316,,shortestpath_phase,1349945,GW/teeth.jpg,,,,50,GW/hat.jpg,GW/soldier.jpg,1,0.75,,,,GW/soldier.jpg,,,,,One Edge Diff,Two Edge Three Edge
null,,html-keyboard-response,1350949,<p></p>,,,,null,,,,,,,,,,,,,,
3682.199999809265,,shortestpath_phase,1354633,GW/dustpan.jpg,,,,49,GW/barrel.jpg,GW/globe.jpg,0,0.7297297297297297,,,,GW/globe.jpg,,,,,Three Edge Diff,Two Edge Five Edge
null,,html-keyboard-response,1355644,<p></p>,,,,null,,,,,,,,,,,,,,
4244.899999856949,,shortestpath_phase,1359891,GW/paint.jpg,,,,50,GW/teeth.jpg,GW/gong.jpg,0,0.7105263157894737,,,,GW/teeth.jpg,,,,,One Edge Diff,Two Edge Three Edge
null,,html-keyboard-response,1360895,<p></p>,,,,null,,,,,,,,,,,,,,
2715.800000190735,,shortestpath_phase,1363613,GW/hat.jpg,,,,49,GW/camera.jpg,GW/dustpan.jpg,0,0.6923076923076923,,,,GW/dustpan.jpg,,,,,One Edge Diff,Two Edge Three Edge
null,,html-keyboard-response,1364615,<p></p>,,,,null,,,,,,,,,,,,,,
2941.399999856949,,shortestpath_phase,1367559,GW/jukebox.jpg,,,,50,GW/soldier.jpg,GW/globe.jpg,0,0.675,,,,GW/soldier.jpg,,,,,One Edge Diff,Four Edge Five Edge
null,,html-keyboard-response,1368566,<p></p>,,,,null,,,,,,,,,,,,,,
4249.5,,shortestpath_phase,1372818,GW/barrel.jpg,,,,49,GW/teeth.jpg,GW/dustpan.jpg,0,0.6585365853658537,,,,GW/dustpan.jpg,,,,,One Edge Diff,Five Edge Six Edge
null,,html-keyboard-response,1373822,<p></p>,,,,null,,,,,,,,,,,,,,
2523.2999999523163,,shortestpath_phase,1376348,GW/teeth.jpg,,,,49,GW/basket.jpg,GW/barrel.jpg,1,0.6666666666666666,,,,GW/basket.jpg,,,,,Two Edge Diff,Four Edge Six Edge
null,,html-keyboard-response,1377352,<p></p>,,,,null,,,,,,,,,,,,,,
2623,,shortestpath_phase,1379977,GW/jukebox.jpg,,,,50,GW/globe.jpg,GW/camera.jpg,1,0.6744186046511628,,,,GW/camera.jpg,,,,,Three Edge Diff,Two Edge Five Edge
null,,html-keyboard-response,1380982,<p></p>,,,,null,,,,,,,,,,,,,,
4701.200000047684,,shortestpath_phase,1385685,GW/barrel.jpg,,,,49,GW/hat.jpg,GW/globe.jpg,1,0.6818181818181818,,,,GW/hat.jpg,,,,,Two Edge Diff,Four Edge Six Edge
null,,html-keyboard-response,1386690,<p></p>,,,,null,,,,,,,,,,,,,,
4083.399999856949,,shortestpath_phase,1390776,GW/globe.jpg,,,,50,GW/jukebox.jpg,GW/soldier.jpg,1,0.6888888888888889,,,,GW/soldier.jpg,,,,,Three Edge Diff,Three Edge Six Edge
null,,html-keyboard-response,1391779,<p></p>,,,,null,,,,,,,,,,,,,,
5106.599999904633,,shortestpath_phase,1396889,GW/jukebox.jpg,,,,50,GW/teeth.jpg,GW/basket.jpg,1,0.6956521739130435,,,,GW/basket.jpg,,,,,Four Edge Diff,Two Edge Six Edge
null,,html-keyboard-response,1397901,<p></p>,,,,null,,,,,,,,,,,,,,
2804.2000000476837,,shortestpath_phase,1400708,GW/globe.jpg,,,,49,GW/wheelchair.jpg,GW/dustpan.jpg,0,0.6808510638297872,,,,GW/dustpan.jpg,,,,,Two Edge Diff,Two Edge Four Edge
null,,html-keyboard-response,1401713,<p></p>,,,,null,,,,,,,,,,,,,,
3943.5,,shortestpath_phase,1405659,GW/teeth.jpg,,,,50,GW/barrel.jpg,GW/soldier.jpg,1,0.6875,,,,GW/soldier.jpg,,,,,Four Edge Diff,Two Edge Six Edge
null,,html-keyboard-response,1406666,<p></p>,,,,null,,,,,,,,,,,,,,
1987.9000000953674,,shortestpath_phase,1408655,GW/globe.jpg,,,,50,GW/camera.jpg,GW/hat.jpg,1,0.6938775510204082,,,,GW/hat.jpg,,,,,Three Edge Diff,Three Edge Six Edge
null,,html-keyboard-response,1409659,<p></p>,,,,null,,,,,,,,,,,,,,
4346.899999856949,,shortestpath_phase,1414009,GW/teeth.jpg,,,,50,GW/barrel.jpg,GW/wheelchair.jpg,1,0.7,,,,GW/wheelchair.jpg,,,,,Two Edge Diff,Four Edge Six Edge
null,,html-keyboard-response,1415013,<p></p>,,,,null,,,,,,,,,,,,,,
1935.9000000953674,,shortestpath_phase,1416951,GW/dustpan.jpg,,,,49,GW/camera.jpg,GW/hat.jpg,0,0.6862745098039216,,,,GW/hat.jpg,,,,,Two Edge Diff,Two Edge Four Edge
null,,html-keyboard-response,1417955,<p></p>,,,,null,,,,,,,,,,,,,,
2836.5999999046326,,shortestpath_phase,1420795,GW/teeth.jpg,,,,49,GW/paint.jpg,GW/jukebox.jpg,1,0.6923076923076923,,,,GW/paint.jpg,,,,,Four Edge Diff,Two Edge Six Edge
null,,html-keyboard-response,1421799,<p></p>,,,,null,,,,,,,,,,,,,,
4491,,shortestpath_phase,1426293,GW/globe.jpg,,,,50,GW/jukebox.jpg,GW/barrel.jpg,0,0.6792452830188679,,,,GW/jukebox.jpg,,,,,One Edge Diff,Five Edge Six Edge
null,,html-keyboard-response,1427297,<p></p>,,,,null,,,,,,,,,,,,,,
2445.7000000476837,,shortestpath_phase,1429745,GW/teeth.jpg,,,,50,GW/jukebox.jpg,GW/wheelchair.jpg,1,0.6851851851851852,,,,GW/wheelchair.jpg,,,,,Two Edge Diff,Four Edge Six Edge
null,,html-keyboard-response,1430749,<p></p>,,,,null,,,,,,,,,,,,,,
2119.100000143051,,shortestpath_phase,1432870,GW/hat.jpg,,,,49,GW/gong.jpg,GW/barrel.jpg,1,0.6909090909090909,,,,GW/gong.jpg,,,,,Two Edge Diff,Two Edge Four Edge
null,,html-keyboard-response,1433875,<p></p>,,,,null,,,,,,,,,,,,,,
1889.5,,shortestpath_phase,1435766,GW/soldier.jpg,,,,49,GW/camera.jpg,GW/teeth.jpg,0,0.6785714285714286,,,,GW/teeth.jpg,,,,,One Edge Diff,Two Edge Three Edge
null,,html-keyboard-response,1436770,<p></p>,,,,null,,,,,,,,,,,,,,
2443.2999999523163,,shortestpath_phase,1439216,GW/paint.jpg,,,,50,GW/barrel.jpg,GW/snail.jpg,1,0.6842105263157895,,,,GW/snail.jpg,,,,,Three Edge Diff,Two Edge Five Edge
null,,html-keyboard-response,1440220,<p></p>,,,,null,,,,,,,,,,,,,,
1955.2000000476837,,shortestpath_phase,1442177,GW/barrel.jpg,,,,49,GW/hat.jpg,GW/paint.jpg,1,0.6896551724137931,,,,GW/hat.jpg,,,,,One Edge Diff,Four Edge Five Edge
null,,html-keyboard-response,1443182,<p></p>,,,,null,,,,,,,,,,,,,,
2827.300000190735,,shortestpath_phase,1446012,GW/snail.jpg,,,,50,GW/teeth.jpg,GW/dustpan.jpg,1,0.6949152542372882,,,,GW/dustpan.jpg,,,,,One Edge Diff,Two Edge Three Edge
null,,html-keyboard-response,1447029,<p></p>,,,,null,,,,,,,,,,,,,,
1680.8999998569489,,shortestpath_phase,1448713,GW/barrel.jpg,,,,50,GW/teeth.jpg,GW/soldier.jpg,1,0.7,,,,GW/soldier.jpg,,,,,Two Edge Diff,Four Edge Six Edge
null,,html-keyboard-response,1449717,<p></p>,,,,null,,,,,,,,,,,,,,
1796.1999998092651,,shortestpath_phase,1451515,GW/snail.jpg,,,,50,GW/teeth.jpg,GW/hat.jpg,1,0.7049180327868853,,,,GW/hat.jpg,,,,,One Edge Diff,Two Edge Three Edge
null,,html-keyboard-response,1452519,<p></p>,,,,null,,,,,,,,,,,,,,
2101.100000143051,,shortestpath_phase,1454623,GW/barrel.jpg,,,,49,GW/basket.jpg,GW/paint.jpg,1,0.7096774193548387,,,,GW/basket.jpg,,,,,Two Edge Diff,Three Edge Five Edge
null,,html-keyboard-response,1455638,<p></p>,,,,null,,,,,,,,,,,,,,
3469,,shortestpath_phase,1459111,GW/globe.jpg,,,,49,GW/hat.jpg,GW/barrel.jpg,1,0.7142857142857143,,,,GW/hat.jpg,,,,,Four Edge Diff,Two Edge Six Edge
null,,html-keyboard-response,1460116,<p></p>,,,,null,,,,,,,,,,,,,,
1748.7000000476837,,shortestpath_phase,1461867,GW/soldier.jpg,,,,49,GW/basket.jpg,GW/jukebox.jpg,1,0.71875,,,,GW/basket.jpg,,,,,Two Edge Diff,Two Edge Four Edge
null,,html-keyboard-response,1462870,<p></p>,,,,null,,,,,,,,,,,,,,
2075.7000000476837,,shortestpath_phase,1464948,GW/globe.jpg,,,,50,GW/gong.jpg,GW/camera.jpg,0,0.7076923076923077,,,,GW/gong.jpg,,,,,One Edge Diff,Four Edge Five Edge
null,,html-keyboard-response,1465953,<p></p>,,,,null,,,,,,,,,,,,,,
3538.2999999523163,,shortestpath_phase,1469493,GW/jukebox.jpg,,,,49,GW/soldier.jpg,GW/hat.jpg,0,0.696969696969697,,,,GW/hat.jpg,,,,,One Edge Diff,Three Edge Four Edge
null,,html-keyboard-response,1470496,<p></p>,,,,null,,,,,,,,,,,,,,
3114.7999999523163,,shortestpath_phase,1473613,GW/globe.jpg,,,,49,GW/camera.jpg,GW/barrel.jpg,1,0.7014925373134329,,,,GW/camera.jpg,,,,,One Edge Diff,Five Edge Six Edge
null,,html-keyboard-response,1474617,<p></p>,,,,null,,,,,,,,,,,,,,
1682.6000001430511,,shortestpath_phase,1476302,GW/teeth.jpg,,,,50,GW/barrel.jpg,GW/gong.jpg,1,0.7058823529411765,,,,GW/gong.jpg,,,,,One Edge Diff,Five Edge Six Edge
null,,html-keyboard-response,1477307,<p></p>,,,,null,,,,,,,,,,,,,,
2457.199999809265,,shortestpath_phase,1479767,GW/globe.jpg,,,,50,GW/jukebox.jpg,GW/hat.jpg,1,0.7101449275362319,,,,GW/hat.jpg,,,,,Three Edge Diff,Three Edge Six Edge
null,,html-keyboard-response,1480771,<p></p>,,,,null,,,,,,,,,,,,,,
2272.0999999046326,,shortestpath_phase,1483046,GW/teeth.jpg,,,,49,GW/gong.jpg,GW/snail.jpg,0,0.7,,,,GW/snail.jpg,,,,,Two Edge Diff,Three Edge Five Edge
null,,html-keyboard-response,1484050,<p></p>,,,,null,,,,,,,,,,,,,,
2361.5,,shortestpath_phase,1486414,GW/globe.jpg,,,,50,GW/gong.jpg,GW/barrel.jpg,0,0.6901408450704225,,,,GW/gong.jpg,,,,,Two Edge Diff,Four Edge Six Edge
null,,html-keyboard-response,1487417,<p></p>,,,,null,,,,,,,,,,,,,,
2392.399999856949,,shortestpath_phase,1489812,GW/dustpan.jpg,,,,49,GW/snail.jpg,GW/barrel.jpg,1,0.6944444444444444,,,,GW/snail.jpg,,,,,Three Edge Diff,Two Edge Five Edge
null,,html-keyboard-response,1490817,<p></p>,,,,null,,,,,,,,,,,,,,
2266.7999999523163,,shortestpath_phase,1493085,GW/globe.jpg,,,,50,GW/teeth.jpg,GW/jukebox.jpg,0,0.684931506849315,,,,GW/teeth.jpg,,,,,Two Edge Diff,Three Edge Five Edge
null,,html-keyboard-response,1494088,<p></p>,,,,null,,,,,,,,,,,,,,
1762.5,,shortestpath_phase,1495853,GW/soldier.jpg,,,,49,GW/camera.jpg,GW/jukebox.jpg,1,0.6891891891891891,,,,GW/camera.jpg,,,,,One Edge Diff,Three Edge Four Edge
null,,html-keyboard-response,1496857,<p></p>,,,,null,,,,,,,,,,,,,,
2708.4000000953674,,shortestpath_phase,1499568,GW/teeth.jpg,,,,50,GW/hat.jpg,GW/wheelchair.jpg,0,0.68,,,,GW/hat.jpg,,,,,One Edge Diff,Three Edge Four Edge
null,,html-keyboard-response,1500573,<p></p>,,,,null,,,,,,,,,,,,,,
4321.799999952316,,shortestpath_phase,1504897,GW/snail.jpg,,,,49,GW/gong.jpg,GW/barrel.jpg,1,0.6842105263157895,,,,GW/gong.jpg,,,,,One Edge Diff,Two Edge Three Edge
null,,html-keyboard-response,1505902,<p></p>,,,,null,,,,,,,,,,,,,,
1510,,shortestpath_phase,1507415,GW/teeth.jpg,,,,49,GW/paint.jpg,GW/barrel.jpg,1,0.6883116883116883,,,,GW/paint.jpg,,,,,Four Edge Diff,Two Edge Six Edge
null,,html-keyboard-response,1508420,<p></p>,,,,null,,,,,,,,,,,,,,
2244.399999856949,,shortestpath_phase,1510668,GW/camera.jpg,,,,50,GW/globe.jpg,GW/jukebox.jpg,1,0.6923076923076923,,,,GW/jukebox.jpg,,,,,Three Edge Diff,Three Edge Six Edge
null,,html-keyboard-response,1511673,<p></p>,,,,null,,,,,,,,,,,,,,
2694.399999856949,,shortestpath_phase,1514370,GW/paint.jpg,,,,50,GW/barrel.jpg,GW/snail.jpg,1,0.6962025316455697,,,,GW/snail.jpg,,,,,Three Edge Diff,Three Edge Six Edge
null,,html-keyboard-response,1515375,<p></p>,,,,null,,,,,,,,,,,,,,
1794,,shortestpath_phase,1517172,GW/barrel.jpg,,,,49,GW/wheelchair.jpg,GW/jukebox.jpg,1,0.7,,,,GW/wheelchair.jpg,,,,,One Edge Diff,Two Edge Three Edge
null,,html-keyboard-response,1518179,<p></p>,,,,null,,,,,,,,,,,,,,
2566,,shortestpath_phase,1520747,GW/paint.jpg,,,,49,GW/basket.jpg,GW/barrel.jpg,1,0.7037037037037037,,,,GW/basket.jpg,,,,,Three Edge Diff,Two Edge Five Edge
null,,html-keyboard-response,1521750,<p></p>,,,,null,,,,,,,,,,,,,,
2609.399999856949,,shortestpath_phase,1524362,GW/dustpan.jpg,,,,50,GW/globe.jpg,GW/barrel.jpg,0,0.6951219512195121,,,,GW/globe.jpg,,,,,Three Edge Diff,Three Edge Six Edge
null,,html-keyboard-response,1525366,<p></p>,,,,null,,,,,,,,,,,,,,
1850.5999999046326,,shortestpath_phase,1527218,GW/teeth.jpg,,,,49,GW/paint.jpg,GW/camera.jpg,1,0.6987951807228916,,,,GW/paint.jpg,,,,,Three Edge Diff,Two Edge Five Edge
null,,html-keyboard-response,1528223,<p></p>,,,,null,,,,,,,,,,,,,,
2857.399999856949,,shortestpath_phase,1531083,GW/globe.jpg,,,,49,GW/basket.jpg,GW/camera.jpg,1,0.7023809523809523,,,,GW/basket.jpg,,,,,Two Edge Diff,Three Edge Five Edge
null,,html-keyboard-response,1532087,<p></p>,,,,null,,,,,,,,,,,,,,
2216.2999999523163,,shortestpath_phase,1534305,GW/barrel.jpg,,,,49,GW/paint.jpg,GW/globe.jpg,1,0.7058823529411765,,,,GW/paint.jpg,,,,,One Edge Diff,Five Edge Six Edge
null,,html-keyboard-response,1535309,<p></p>,,,,null,,,,,,,,,,,,,,
1545.2999999523163,,shortestpath_phase,1536857,GW/dustpan.jpg,,,,50,GW/jukebox.jpg,GW/camera.jpg,1,0.7093023255813954,,,,GW/camera.jpg,,,,,One Edge Diff,Four Edge Five Edge
null,,html-keyboard-response,1537861,<p></p>,,,,null,,,,,,,,,,,,,,
3743.2000000476837,,shortestpath_phase,1541607,GW/teeth.jpg,,,,50,GW/jukebox.jpg,GW/soldier.jpg,1,0.7126436781609196,,,,GW/soldier.jpg,,,,,Four Edge Diff,Two Edge Six Edge
null,,html-keyboard-response,1542611,<p></p>,,,,null,,,,,,,,,,,,,,
2109.7000000476837,,shortestpath_phase,1544723,GW/dustpan.jpg,,,,49,GW/gong.jpg,GW/barrel.jpg,1,0.7159090909090909,,,,GW/gong.jpg,,,,,One Edge Diff,Four Edge Five Edge
null,,html-keyboard-response,1545727,<p></p>,,,,null,,,,,,,,,,,,,,
2482.9000000953674,,shortestpath_phase,1548212,GW/teeth.jpg,,,,50,GW/barrel.jpg,GW/camera.jpg,1,0.7191011235955056,,,,GW/camera.jpg,,,,,One Edge Diff,Five Edge Six Edge
null,,html-keyboard-response,1549216,<p></p>,,,,null,,,,,,,,,,,,,,
3102.4000000953674,,shortestpath_phase,1552321,GW/barrel.jpg,,,,50,GW/dustpan.jpg,GW/soldier.jpg,1,0.7222222222222222,,,,GW/soldier.jpg,,,,,One Edge Diff,Four Edge Five Edge
null,,html-keyboard-response,1553325,<p></p>,,,,null,,,,,,,,,,,,,,
3063.5,,shortestpath_phase,1556391,GW/gong.jpg,,,,49,GW/hat.jpg,GW/globe.jpg,1,0.7252747252747253,,,,GW/hat.jpg,,,,,Two Edge Diff,Two Edge Four Edge
null,,html-keyboard-response,1557410,<p></p>,,,,null,,,,,,,,,,,,,,
3512.100000143051,,shortestpath_phase,1560924,GW/jukebox.jpg,,,,49,GW/barrel.jpg,GW/dustpan.jpg,1,0.7282608695652174,,,,GW/barrel.jpg,,,,,Two Edge Diff,Three Edge Five Edge
null,,html-keyboard-response,1561927,<p></p>,,,,null,,,,,,,,,,,,,,
2636.9000000953674,,shortestpath_phase,1564566,GW/wheelchair.jpg,,,,50,GW/globe.jpg,GW/gong.jpg,1,0.7311827956989247,,,,GW/gong.jpg,,,,,Two Edge Diff,Two Edge Four Edge
null,,html-keyboard-response,1565570,<p></p>,,,,null,,,,,,,,,,,,,,
2238.4000000953674,,shortestpath_phase,1567811,GW/teeth.jpg,,,,50,GW/jukebox.jpg,GW/camera.jpg,1,0.7340425531914894,,,,GW/camera.jpg,,,,,One Edge Diff,Five Edge Six Edge
null,,html-keyboard-response,1568816,<p></p>,,,,null,,,,,,,,,,,,,,
1484.7999999523163,,shortestpath_phase,1570304,GW/globe.jpg,,,,49,GW/barrel.jpg,GW/wheelchair.jpg,0,0.7263157894736842,,,,GW/wheelchair.jpg,,,,,Two Edge Diff,Four Edge Six Edge
null,,html-keyboard-response,1571313,<p></p>,,,,null,,,,,,,,,,,,,,
3265.9000000953674,,shortestpath_phase,1574582,GW/camera.jpg,,,,50,GW/globe.jpg,GW/snail.jpg,1,0.7291666666666666,,,,GW/snail.jpg,,,,,Three Edge Diff,Two Edge Five Edge
null,,html-keyboard-response,1575586,<p></p>,,,,null,,,,,,,,,,,,,,
2282.5,,shortestpath_phase,1577871,GW/jukebox.jpg,,,,50,GW/teeth.jpg,GW/dustpan.jpg,1,0.7319587628865979,,,,GW/dustpan.jpg,,,,,One Edge Diff,Five Edge Six Edge
null,,html-keyboard-response,1578877,<p></p>,,,,null,,,,,,,,,,,,,,
1845,,shortestpath_phase,1580724,GW/barrel.jpg,,,,49,GW/gong.jpg,GW/globe.jpg,1,0.7346938775510204,,,,GW/gong.jpg,,,,,Four Edge Diff,Two Edge Six Edge
null,,html-keyboard-response,1581729,<p></p>,,,,null,,,,,,,,,,,,,,
1445.3999998569489,,shortestpath_phase,1583177,GW/dustpan.jpg,,,,49,GW/snail.jpg,GW/jukebox.jpg,1,0.7373737373737373,,,,GW/snail.jpg,,,,,Three Edge Diff,Three Edge Six Edge
null,,html-keyboard-response,1584193,<p></p>,,,,null,,,,,,,,,,,,,,
1898.5,,shortestpath_phase,1586094,GW/jukebox.jpg,,,,50,GW/teeth.jpg,GW/soldier.jpg,1,0.74,,,,GW/soldier.jpg,,,,,Two Edge Diff,Four Edge Six Edge
null,,html-keyboard-response,1587099,<p></p>,,,,null,,,,,,,,,,,,,,
4251.299999952316,,shortestpath_phase,1591353,GW/teeth.jpg,,,,49,GW/basket.jpg,GW/snail.jpg,0,0.7326732673267327,,,,GW/snail.jpg,,,,,One Edge Diff,Three Edge Four Edge
null,,html-keyboard-response,1592357,<p></p>,,,,null,,,,,,,,,,,,,,
2298.5,,shortestpath_phase,1594658,GW/jukebox.jpg,,,,49,GW/teeth.jpg,GW/globe.jpg,0,0.7254901960784313,,,,GW/globe.jpg,,,,,One Edge Diff,Five Edge Six Edge
null,,html-keyboard-response,1595662,<p></p>,,,,null,,,,,,,,,,,,,,
2653.100000143051,,shortestpath_phase,1598318,GW/hat.jpg,,,,49,GW/dustpan.jpg,GW/teeth.jpg,1,0.7281553398058253,,,,GW/dustpan.jpg,,,,,One Edge Diff,Two Edge Three Edge
null,,html-keyboard-response,1599323,<p></p>,,,,null,,,,,,,,,,,,,,
3498.899999856949,,shortestpath_phase,1602824,GW/jukebox.jpg,,,,50,GW/barrel.jpg,GW/globe.jpg,0,0.7211538461538461,,,,GW/barrel.jpg,,,,,Two Edge Diff,Three Edge Five Edge
null,,html-keyboard-response,1603828,<p></p>,,,,null,,,,,,,,,,,,,,
1511.5,,shortestpath_phase,1605342,GW/dustpan.jpg,,,,50,GW/barrel.jpg,GW/camera.jpg,1,0.7238095238095238,,,,GW/camera.jpg,,,,,One Edge Diff,Four Edge Five Edge
null,,html-keyboard-response,1606346,<p></p>,,,,null,,,,,,,,,,,,,,
2905.7999999523163,,shortestpath_phase,1609254,GW/barrel.jpg,,,,49,GW/hat.jpg,GW/gong.jpg,0,0.7169811320754716,,,,GW/gong.jpg,,,,,Two Edge Diff,Two Edge Four Edge
null,,html-keyboard-response,1610256,<p></p>,,,,null,,,,,,,,,,,,,,
1713.5,,shortestpath_phase,1611972,GW/jukebox.jpg,,,,50,GW/paint.jpg,GW/dustpan.jpg,0,0.7102803738317757,,,,GW/paint.jpg,,,,,One Edge Diff,Four Edge Five Edge
null,,html-keyboard-response,1612977,<p></p>,,,,null,,,,,,,,,,,,,,
1680.5999999046326,,shortestpath_phase,1614660,GW/wheelchair.jpg,,,,49,GW/hat.jpg,GW/globe.jpg,1,0.7129629629629629,,,,GW/hat.jpg,,,,,One Edge Diff,Three Edge Four Edge
null,,html-keyboard-response,1615666,<p></p>,,,,null,,,,,,,,,,,,,,
2356,,shortestpath_phase,1618025,GW/barrel.jpg,,,,49,GW/paint.jpg,GW/teeth.jpg,1,0.7155963302752294,,,,GW/paint.jpg,,,,,One Edge Diff,Five Edge Six Edge
null,,html-keyboard-response,1619029,<p></p>,,,,null,,,,,,,,,,,,,,
4880.299999952316,,shortestpath_phase,1623912,GW/dustpan.jpg,,,,50,GW/snail.jpg,GW/camera.jpg,0,0.7090909090909091,,,,GW/snail.jpg,,,,,Two Edge Diff,Two Edge Four Edge
null,,html-keyboard-response,1624917,<p></p>,,,,null,,,,,,,,,,,,,,
3240.7000000476837,,shortestpath_phase,1628160,GW/paint.jpg,,,,50,GW/teeth.jpg,GW/barrel.jpg,0,0.7027027027027027,,,,GW/teeth.jpg,,,,,Three Edge Diff,Three Edge Six Edge
null,,html-keyboard-response,1629164,<p></p>,,,,null,,,,,,,,,,,,,,
2686.899999856949,,shortestpath_phase,1631854,GW/barrel.jpg,,,,49,GW/wheelchair.jpg,GW/paint.jpg,1,0.7053571428571429,,,,GW/wheelchair.jpg,,,,,Three Edge Diff,Three Edge Six Edge
null,,html-keyboard-response,1632859,<p></p>,,,,null,,,,,,,,,,,,,,
1690.1000001430511,,shortestpath_phase,1634552,GW/soldier.jpg,,,,49,GW/teeth.jpg,GW/jukebox.jpg,1,0.7079646017699115,,,,GW/teeth.jpg,,,,,Two Edge Diff,Two Edge Four Edge
null,,html-keyboard-response,1635556,<p></p>,,,,null,,,,,,,,,,,,,,
3169.7999999523163,,shortestpath_phase,1638731,GW/barrel.jpg,,,,50,GW/globe.jpg,GW/dustpan.jpg,1,0.7105263157894737,,,,GW/dustpan.jpg,,,,,One Edge Diff,Five Edge Six Edge
null,,html-keyboard-response,1639735,<p></p>,,,,null,,,,,,,,,,,,,,
2193.399999856949,,shortestpath_phase,1641930,GW/jukebox.jpg,,,,50,GW/teeth.jpg,GW/camera.jpg,1,0.7130434782608696,,,,GW/camera.jpg,,,,,Four Edge Diff,Two Edge Six Edge
null,,html-keyboard-response,1642934,<p></p>,,,,null,,,,,,,,,,,,,,
2022.7000000476837,,shortestpath_phase,1644959,GW/barrel.jpg,,,,50,GW/snail.jpg,GW/paint.jpg,0,0.7068965517241379,,,,GW/snail.jpg,,,,,Two Edge Diff,Three Edge Five Edge
null,,html-keyboard-response,1645963,<p></p>,,,,null,,,,,,,,,,,,,,
1570.0999999046326,,shortestpath_phase,1647535,GW/globe.jpg,,,,50,GW/barrel.jpg,GW/dustpan.jpg,1,0.7094017094017094,,,,GW/dustpan.jpg,,,,,Four Edge Diff,Two Edge Six Edge
null,,html-keyboard-response,1648540,<p></p>,,,,null,,,,,,,,,,,,,,
1127.2999999523163,,shortestpath_phase,1649669,GW/teeth.jpg,,,,49,GW/hat.jpg,GW/camera.jpg,1,0.711864406779661,,,,GW/hat.jpg,,,,,Two Edge Diff,Three Edge Five Edge
null,,html-keyboard-response,1650673,<p></p>,,,,null,,,,,,,,,,,,,,
2608.9000000953674,,shortestpath_phase,1653284,GW/dustpan.jpg,,,,49,GW/snail.jpg,GW/barrel.jpg,1,0.7142857142857143,,,,GW/snail.jpg,,,,,Three Edge Diff,Three Edge Six Edge
null,,html-keyboard-response,1654289,<p></p>,,,,null,,,,,,,,,,,,,,
5882.400000095367,,shortestpath_phase,1660174,GW/teeth.jpg,,,,50,GW/gong.jpg,GW/soldier.jpg,1,0.7166666666666667,,,,GW/soldier.jpg,,,,,Three Edge Diff,Two Edge Five Edge
null,,html-keyboard-response,1661178,<p></p>,,,,null,,,,,,,,,,,,,,
1415.2000000476837,,shortestpath_phase,1662596,GW/camera.jpg,,,,49,GW/globe.jpg,GW/basket.jpg,0,0.7107438016528925,,,,GW/basket.jpg,,,,,Three Edge Diff,Two Edge Five Edge
null,,html-keyboard-response,1663600,<p></p>,,,,null,,,,,,,,,,,,,,
35913.89999985695,,intro_1,1699518,instruct,,0,,,,,,,,,,,,,,,,
38581.300000190735,,intro_2,1738102,instruct,,1,Next,,,,,,,,,,,,,,,
4957.200000047684,,intro_3,1743061,instruct,,1,Next,,,,,,,,,,,,,,,
