rt,responses,trial_type,time_elapsed,stimulus,graphorder,button_pressed,response,key_press,stimulus_left,stimulus_right,accuracy,cumulative_accuracy,stimulus_down_left,stimulus_down_mid,stimulus_down_right,stimulus_correct,stimulus_short,stimulus_far,weighted_accuracy,missedtrial,condition,specific_pairs
22567.5,{worker_id:67df8fa86cc62d4c228f6a8b},id_enter,22573,id_enter,GW/wheelchair.jpg; GW/camera.jpg; GW/jukebox.jpg; GW/snail.jpg; GW/paint.jpg; GW/gong.jpg; GW/hat.jpg; GW/globe.jpg; GW/basket.jpg; GW/dustpan.jpg; GW/barrel.jpg; GW/soldier.jpg; GW/teeth.jpg,,,,,,,,,,,,,,,,,
4596.800000011921,,fullscreen,27183,fullscreen,,0,,,,,,,,,,,,,,,,
2488.599999964237,,intro_1,29675,instruct,,0,,,,,,,,,,,,,,,,
4176.699999988079,,intro_2,33856,instruct,,1,Next,,,,,,,,,,,,,,,
2224.199999988079,,intro_3,36084,instruct,,1,Next,,,,,,,,,,,,,,,
null,,learn_prac_1,38103,lean_prac_1,,,,null,,,,,,,,,,,,,,
null,,html-keyboard-response,39108,<p></p>,,,,null,,,,,,,,,,,,,,
2461.2000000476837,,intro_1,41571,instruct,,0,,,,,,,,,,,,,,,,
2918.199999988079,,intro_2,44491,instruct,,1,Next,,,,,,,,,,,,,,,
null,,learn_prac_2,46495,lean_prac_2,,,,null,,,,,,,,,,,,,,
null,,html-keyboard-response,47505,<p></p>,,,,null,,,,,,,,,,,,,,
5690,,intro_1,53197,instruct,,0,,,,,,,,,,,,,,,,
6184.699999988079,,intro_2,59384,instruct,,1,Next,,,,,,,,,,,,,,,
1684.9000000357628,,intro_3,61071,instruct,,1,Next,,,,,,,,,,,,,,,
null,,prac_atten_color_black,62065,black_plus_sign,,,,null,,,,,,,,,,,,,,
null,,prac_atten_color,62486,prac_stop_color,,,,null,,,,,,,,,,,,,,
320.9000000357628,,prac_atten_color_black,64489,black_plus_sign,,,,49,,,,,,,,,,,,,,
null,,prac_atten_color_black,65485,black_plus_sign,,,,null,,,,,,,,,,,,,,
null,,prac_atten_color,65921,prac_stop_color,,,,null,,,,,,,,,,,,,,
null,,prac_atten_color_black,67927,black_plus_sign,,,,null,,,,,,,,,,,,,,
6869,,attentioncheck_help,74799,instruct,,,,32,,,,,,,,,,,,,,
null,,prac_atten_color_black,75777,black_plus_sign,,,,null,,,,,,,,,,,,,,
511.60000002384186,,prac_atten_color,76542,prac_stop_color,,,,50,,,,,,,,,,,,,,
null,,prac_atten_color_black,78547,black_plus_sign,,,,null,,,,,,,,,,,,,,
null,,prac_atten_color_black,79199,black_plus_sign,,,,null,,,,,,,,,,,,,,
634.2000000476837,,prac_atten_color,79928,prac_stop_color,,,,49,,,,,,,,,,,,,,
null,,prac_atten_color_black,81931,black_plus_sign,,,,null,,,,,,,,,,,,,,
null,,prac_atten_color_black,82613,black_plus_sign,,,,null,,,,,,,,,,,,,,
645.8000000119209,,prac_atten_color,83499,prac_stop_color,,,,50,,,,,,,,,,,,,,
null,,prac_atten_color_black,85509,black_plus_sign,,,,null,,,,,,,,,,,,,,
null,,prac_atten_color_black,86039,black_plus_sign,,,,null,,,,,,,,,,,,,,
null,,prac_atten_color,86705,prac_stop_color,,,,null,,,,,,,,,,,,,,
173.60000002384186,,prac_atten_color_black,88708,black_plus_sign,,,,50,,,,,,,,,,,,,,
null,,prac_atten_color_black,89465,black_plus_sign,,,,null,,,,,,,,,,,,,,
586.1000000238419,,prac_atten_color,90526,prac_stop_color,,,,49,,,,,,,,,,,,,,
null,,prac_atten_color_black,92540,black_plus_sign,,,,null,,,,,,,,,,,,,,
null,,prac_atten_color_black,92903,black_plus_sign,,,,null,,,,,,,,,,,,,,
null,,prac_atten_color,93452,prac_stop_color,,,,null,,,,,,,,,,,,,,
619.5999999642372,,prac_atten_color_black,95459,black_plus_sign,,,,50,,,,,,,,,,,,,,
null,,prac_atten_color_black,96327,black_plus_sign,,,,null,,,,,,,,,,,,,,
null,,prac_atten_color,96842,prac_stop_color,,,,null,,,,,,,,,,,,,,
154.80000001192093,,prac_atten_color_black,98848,black_plus_sign,,,,49,,,,,,,,,,,,,,
null,,prac_atten_color_black,99744,black_plus_sign,,,,null,,,,,,,,,,,,,,
588.3000000119209,,prac_atten_color,100595,prac_stop_color,,,,49,,,,,,,,,,,,,,
null,,prac_atten_color_black,102602,black_plus_sign,,,,null,,,,,,,,,,,,,,
59679.89999997616,,attentioncheck_feedback,162285,cross_check_feedback,,0,,,,,,,,,,,,,,,,
75499.69999998808,,last_instruct,237787,instruct,,,,32,,,,,,,,,,,,,,
null,,learn_phase(without_color),239793,black_plus_sign,,,,null,GW/jukebox.jpg,GW/barrel.jpg,,,,,,,,,,,,
null,,black_cross(without_color),240231,blue,,,,null,GW/jukebox.jpg,GW/barrel.jpg,,,,,,,,,,,,
null,,rt_plussign_withcolor,240746,blue,,,,null,GW/jukebox.jpg,GW/barrel.jpg,,,,,,,,,,,,
674.6000000238419,,rt_thecrossant_black,242326,black_plus_sign,,,,49,,,1,1,,,,,,,,,,
null,,color_black,242429,black_plus_sign,,,,null,,,,,,,,,,,,,,
null,,learn_phase(without_color),244439,black_plus_sign,,,,null,GW/gong.jpg,GW/hat.jpg,,,,,,,,,,,,
null,,black_cross(without_color),245311,blue,,,,null,GW/gong.jpg,GW/hat.jpg,,,,,,,,,,,,
null,,rt_plussign_withcolor,245825,blue,,,,null,GW/gong.jpg,GW/hat.jpg,,,,,,,,,,,,
733.8000000119209,,rt_thecrossant_black,246975,black_plus_sign,,,,49,,,1,1,,,,,,,,,,
null,,color_black,247083,black_plus_sign,,,,null,,,,,,,,,,,,,,
null,,learn_phase(without_color),249093,black_plus_sign,,,,null,GW/gong.jpg,GW/basket.jpg,,,,,,,,,,,,
null,,black_cross(without_color),249757,blue,,,,null,GW/gong.jpg,GW/basket.jpg,,,,,,,,,,,,
null,,rt_plussign_withcolor,250261,blue,,,,null,GW/gong.jpg,GW/basket.jpg,,,,,,,,,,,,
991.5999999642372,,rt_thecrossant_black,251614,black_plus_sign,,,,49,,,1,1,,,,,,,,,,
null,,color_black,251723,black_plus_sign,,,,null,,,,,,,,,,,,,,
null,,learn_phase(without_color),253729,black_plus_sign,,,,null,GW/hat.jpg,GW/globe.jpg,,,,,,,,,,,,
null,,black_cross(without_color),254354,green,,,,null,GW/hat.jpg,GW/globe.jpg,,,,,,,,,,,,
448.30000001192093,,rt_plussign_withcolor,254869,green,,,,50,GW/hat.jpg,GW/globe.jpg,,,,,,,,,,,,
null,,rt_thecrossant_black,256255,black_plus_sign,,,,null,,,1,1,,,,,,,,,,
null,,color_black,256366,black_plus_sign,,,,null,,,,,,,,,,,,,,
null,,learn_phase(without_color),258376,black_plus_sign,,,,null,GW/snail.jpg,GW/soldier.jpg,,,,,,,,,,,,
null,,black_cross(without_color),259090,green,,,,null,GW/snail.jpg,GW/soldier.jpg,,,,,,,,,,,,
null,,rt_plussign_withcolor,259592,green,,,,null,GW/snail.jpg,GW/soldier.jpg,,,,,,,,,,,,
757.3000000119209,,rt_thecrossant_black,260902,black_plus_sign,,,,50,,,1,1,,,,,,,,,,
null,,color_black,261019,black_plus_sign,,,,null,,,,,,,,,,,,,,
null,,learn_phase(without_color),263030,black_plus_sign,,,,null,GW/hat.jpg,GW/globe.jpg,,,,,,,,,,,,
null,,black_cross(without_color),263851,blue,,,,null,GW/hat.jpg,GW/globe.jpg,,,,,,,,,,,,
null,,rt_plussign_withcolor,264364,blue,,,,null,GW/hat.jpg,GW/globe.jpg,,,,,,,,,,,,
981.1000000238419,,rt_thecrossant_black,265557,black_plus_sign,,,,49,,,1,1,,,,,,,,,,
null,,color_black,265668,black_plus_sign,,,,null,,,,,,,,,,,,,,
null,,learn_phase(without_color),267674,black_plus_sign,,,,null,GW/jukebox.jpg,GW/barrel.jpg,,,,,,,,,,,,
null,,black_cross(without_color),268343,blue,,,,null,GW/jukebox.jpg,GW/barrel.jpg,,,,,,,,,,,,
null,,rt_plussign_withcolor,268845,blue,,,,null,GW/jukebox.jpg,GW/barrel.jpg,,,,,,,,,,,,
1070.699999988079,,rt_thecrossant_black,270190,black_plus_sign,,,,49,,,1,1,,,,,,,,,,
null,,color_black,270296,black_plus_sign,,,,null,,,,,,,,,,,,,,
null,,learn_phase(without_color),272304,black_plus_sign,,,,null,GW/snail.jpg,GW/paint.jpg,,,,,,,,,,,,
null,,black_cross(without_color),273176,green,,,,null,GW/snail.jpg,GW/paint.jpg,,,,,,,,,,,,
null,,rt_plussign_withcolor,273686,green,,,,null,GW/snail.jpg,GW/paint.jpg,,,,,,,,,,,,
815.6999999880791,,rt_thecrossant_black,274840,black_plus_sign,,,,50,,,1,1,,,,,,,,,,
null,,color_black,274945,black_plus_sign,,,,null,,,,,,,,,,,,,,
null,,learn_phase(without_color),276953,black_plus_sign,,,,null,GW/camera.jpg,GW/jukebox.jpg,,,,,,,,,,,,
null,,black_cross(without_color),277722,blue,,,,null,GW/camera.jpg,GW/jukebox.jpg,,,,,,,,,,,,
null,,rt_plussign_withcolor,278238,blue,,,,null,GW/camera.jpg,GW/jukebox.jpg,,,,,,,,,,,,
1063.8999999761581,,rt_thecrossant_black,279494,black_plus_sign,,,,49,,,1,1,,,,,,,,,,
null,,color_black,279604,black_plus_sign,,,,null,,,,,,,,,,,,,,
null,,learn_phase(without_color),281615,black_plus_sign,,,,null,GW/snail.jpg,GW/paint.jpg,,,,,,,,,,,,
null,,black_cross(without_color),282358,green,,,,null,GW/snail.jpg,GW/paint.jpg,,,,,,,,,,,,
447.89999997615814,,rt_plussign_withcolor,282865,green,,,,50,GW/snail.jpg,GW/paint.jpg,,,,,,,,,,,,
null,,rt_thecrossant_black,284149,black_plus_sign,,,,null,,,1,1,,,,,,,,,,
null,,color_black,284252,black_plus_sign,,,,null,,,,,,,,,,,,,,
null,,learn_phase(without_color),286261,black_plus_sign,,,,null,GW/basket.jpg,GW/barrel.jpg,,,,,,,,,,,,
null,,black_cross(without_color),286829,blue,,,,null,GW/basket.jpg,GW/barrel.jpg,,,,,,,,,,,,
null,,rt_plussign_withcolor,287333,blue,,,,null,GW/basket.jpg,GW/barrel.jpg,,,,,,,,,,,,
1013.8999999761581,,rt_thecrossant_black,288783,black_plus_sign,,,,49,,,1,1,,,,,,,,,,
null,,color_black,288902,black_plus_sign,,,,null,,,,,,,,,,,,,,
null,,learn_phase(without_color),290915,black_plus_sign,,,,null,GW/hat.jpg,GW/basket.jpg,,,,,,,,,,,,
null,,black_cross(without_color),291339,green,,,,null,GW/hat.jpg,GW/basket.jpg,,,,,,,,,,,,
null,,rt_plussign_withcolor,291849,green,,,,null,GW/hat.jpg,GW/basket.jpg,,,,,,,,,,,,
707.4000000357628,,rt_thecrossant_black,293442,black_plus_sign,,,,50,,,1,1,,,,,,,,,,
null,,color_black,293555,black_plus_sign,,,,null,,,,,,,,,,,,,,
null,,learn_phase(without_color),295564,black_plus_sign,,,,null,GW/basket.jpg,GW/barrel.jpg,,,,,,,,,,,,
null,,black_cross(without_color),296579,blue,,,,null,GW/basket.jpg,GW/barrel.jpg,,,,,,,,,,,,
null,,rt_plussign_withcolor,297089,blue,,,,null,GW/basket.jpg,GW/barrel.jpg,,,,,,,,,,,,
593.0999999642372,,rt_thecrossant_black,298093,black_plus_sign,,,,49,,,1,1,,,,,,,,,,
null,,color_black,298206,black_plus_sign,,,,null,,,,,,,,,,,,,,
null,,learn_phase(without_color),300215,black_plus_sign,,,,null,GW/snail.jpg,GW/soldier.jpg,,,,,,,,,,,,
null,,black_cross(without_color),300846,green,,,,null,GW/snail.jpg,GW/soldier.jpg,,,,,,,,,,,,
null,,rt_plussign_withcolor,301351,green,,,,null,GW/snail.jpg,GW/soldier.jpg,,,,,,,,,,,,
1337.4000000357628,,rt_thecrossant_black,302730,black_plus_sign,,,,50,,,1,1,,,,,,,,,,
null,,color_black,302839,black_plus_sign,,,,null,,,,,,,,,,,,,,
null,,learn_phase(without_color),304848,black_plus_sign,,,,null,GW/camera.jpg,GW/jukebox.jpg,,,,,,,,,,,,
null,,black_cross(without_color),305341,green,,,,null,GW/camera.jpg,GW/jukebox.jpg,,,,,,,,,,,,
null,,rt_plussign_withcolor,305852,green,,,,null,GW/camera.jpg,GW/jukebox.jpg,,,,,,,,,,,,
860.3000000119209,,rt_thecrossant_black,307378,black_plus_sign,,,,50,,,1,1,,,,,,,,,,
null,,color_black,307487,black_plus_sign,,,,null,,,,,,,,,,,,,,
null,,learn_phase(without_color),309496,black_plus_sign,,,,null,GW/hat.jpg,GW/basket.jpg,,,,,,,,,,,,
null,,black_cross(without_color),310045,green,,,,null,GW/hat.jpg,GW/basket.jpg,,,,,,,,,,,,
null,,rt_plussign_withcolor,310549,green,,,,null,GW/hat.jpg,GW/basket.jpg,,,,,,,,,,,,
1004.3000000119209,,rt_thecrossant_black,312010,black_plus_sign,,,,50,,,1,1,,,,,,,,,,
null,,color_black,312120,black_plus_sign,,,,null,,,,,,,,,,,,,,
null,,learn_phase(without_color),314128,black_plus_sign,,,,null,GW/snail.jpg,GW/soldier.jpg,,,,,,,,,,,,
null,,black_cross(without_color),314791,green,,,,null,GW/snail.jpg,GW/soldier.jpg,,,,,,,,,,,,
null,,rt_plussign_withcolor,315299,green,,,,null,GW/snail.jpg,GW/soldier.jpg,,,,,,,,,,,,
940.3000000119209,,rt_thecrossant_black,316664,black_plus_sign,,,,50,,,1,1,,,,,,,,,,
null,,color_black,316781,black_plus_sign,,,,null,,,,,,,,,,,,,,
null,,learn_phase(without_color),318787,black_plus_sign,,,,null,GW/gong.jpg,GW/hat.jpg,,,,,,,,,,,,
null,,black_cross(without_color),319248,green,,,,null,GW/gong.jpg,GW/hat.jpg,,,,,,,,,,,,
null,,rt_plussign_withcolor,319764,green,,,,null,GW/gong.jpg,GW/hat.jpg,,,,,,,,,,,,
818.1000000238419,,rt_thecrossant_black,321322,black_plus_sign,,,,50,,,1,1,,,,,,,,,,
null,,color_black,321432,black_plus_sign,,,,null,,,,,,,,,,,,,,
null,,learn_phase(without_color),323437,black_plus_sign,,,,null,GW/wheelchair.jpg,GW/camera.jpg,,,,,,,,,,,,
null,,black_cross(without_color),324496,blue,,,,null,GW/wheelchair.jpg,GW/camera.jpg,,,,,,,,,,,,
null,,rt_plussign_withcolor,325009,blue,,,,null,GW/wheelchair.jpg,GW/camera.jpg,,,,,,,,,,,,
790.3000000119209,,rt_thecrossant_black,325977,black_plus_sign,,,,49,,,1,1,,,,,,,,,,
null,,color_black,326083,black_plus_sign,,,,null,,,,,,,,,,,,,,
null,,learn_phase(without_color),328087,black_plus_sign,,,,null,GW/barrel.jpg,GW/soldier.jpg,,,,,,,,,,,,
null,,black_cross(without_color),329064,green,,,,null,GW/barrel.jpg,GW/soldier.jpg,,,,,,,,,,,,
null,,rt_plussign_withcolor,329573,green,,,,null,GW/barrel.jpg,GW/soldier.jpg,,,,,,,,,,,,
1322.5,,rt_thecrossant_black,330613,black_plus_sign,,,,50,,,1,1,,,,,,,,,,
null,,color_black,330723,black_plus_sign,,,,null,,,,,,,,,,,,,,
null,,learn_phase(without_color),332729,black_plus_sign,,,,null,GW/hat.jpg,GW/teeth.jpg,,,,,,,,,,,,
null,,black_cross(without_color),333483,green,,,,null,GW/hat.jpg,GW/teeth.jpg,,,,,,,,,,,,
null,,rt_plussign_withcolor,333995,green,,,,null,GW/hat.jpg,GW/teeth.jpg,,,,,,,,,,,,
1381.2999999523163,,rt_thecrossant_black,335269,black_plus_sign,,,,50,,,1,1,,,,,,,,,,
null,,color_black,335378,black_plus_sign,,,,null,,,,,,,,,,,,,,
null,,learn_phase(without_color),337384,black_plus_sign,,,,null,GW/globe.jpg,GW/dustpan.jpg,,,,,,,,,,,,
null,,black_cross(without_color),337922,blue,,,,null,GW/globe.jpg,GW/dustpan.jpg,,,,,,,,,,,,
null,,rt_plussign_withcolor,338429,blue,,,,null,GW/globe.jpg,GW/dustpan.jpg,,,,,,,,,,,,
1178.199999988079,,rt_thecrossant_black,339908,black_plus_sign,,,,49,,,1,1,,,,,,,,,,
null,,color_black,340026,black_plus_sign,,,,null,,,,,,,,,,,,,,
null,,learn_phase(without_color),342032,black_plus_sign,,,,null,GW/globe.jpg,GW/basket.jpg,,,,,,,,,,,,
null,,black_cross(without_color),342664,green,,,,null,GW/globe.jpg,GW/basket.jpg,,,,,,,,,,,,
null,,rt_plussign_withcolor,343179,green,,,,null,GW/globe.jpg,GW/basket.jpg,,,,,,,,,,,,
925.4000000357628,,rt_thecrossant_black,344562,black_plus_sign,,,,50,,,1,1,,,,,,,,,,
null,,color_black,344674,black_plus_sign,,,,null,,,,,,,,,,,,,,
null,,learn_phase(without_color),346688,black_plus_sign,,,,null,GW/wheelchair.jpg,GW/camera.jpg,,,,,,,,,,,,
null,,black_cross(without_color),347656,blue,,,,null,GW/wheelchair.jpg,GW/camera.jpg,,,,,,,,,,,,
null,,rt_plussign_withcolor,348171,blue,,,,null,GW/wheelchair.jpg,GW/camera.jpg,,,,,,,,,,,,
845.6000000238419,,rt_thecrossant_black,349216,black_plus_sign,,,,49,,,1,1,,,,,,,,,,
null,,color_black,349325,black_plus_sign,,,,null,,,,,,,,,,,,,,
null,,learn_phase(without_color),351333,black_plus_sign,,,,null,GW/globe.jpg,GW/basket.jpg,,,,,,,,,,,,
null,,black_cross(without_color),352033,green,,,,null,GW/globe.jpg,GW/basket.jpg,,,,,,,,,,,,
null,,rt_plussign_withcolor,352546,green,,,,null,GW/globe.jpg,GW/basket.jpg,,,,,,,,,,,,
1154.5,,rt_thecrossant_black,353870,black_plus_sign,,,,50,,,1,1,,,,,,,,,,
null,,color_black,353979,black_plus_sign,,,,null,,,,,,,,,,,,,,
null,,learn_phase(without_color),355986,black_plus_sign,,,,null,GW/snail.jpg,GW/paint.jpg,,,,,,,,,,,,
null,,black_cross(without_color),357047,blue,,,,null,GW/snail.jpg,GW/paint.jpg,,,,,,,,,,,,
null,,rt_plussign_withcolor,357553,blue,,,,null,GW/snail.jpg,GW/paint.jpg,,,,,,,,,,,,
1019.5,,rt_thecrossant_black,358506,black_plus_sign,,,,49,,,1,1,,,,,,,,,,
null,,color_black,358616,black_plus_sign,,,,null,,,,,,,,,,,,,,
null,,learn_phase(without_color),360621,black_plus_sign,,,,null,GW/barrel.jpg,GW/soldier.jpg,,,,,,,,,,,,
null,,black_cross(without_color),361026,blue,,,,null,GW/barrel.jpg,GW/soldier.jpg,,,,,,,,,,,,
null,,rt_plussign_withcolor,361540,blue,,,,null,GW/barrel.jpg,GW/soldier.jpg,,,,,,,,,,,,
1449.199999988079,,rt_thecrossant_black,363140,black_plus_sign,,,,49,,,1,1,,,,,,,,,,
null,,color_black,363251,black_plus_sign,,,,null,,,,,,,,,,,,,,
null,,learn_phase(without_color),365256,black_plus_sign,,,,null,GW/globe.jpg,GW/dustpan.jpg,,,,,,,,,,,,
null,,black_cross(without_color),366335,green,,,,null,GW/globe.jpg,GW/dustpan.jpg,,,,,,,,,,,,
null,,rt_plussign_withcolor,366849,green,,,,null,GW/globe.jpg,GW/dustpan.jpg,,,,,,,,,,,,
1047.5,,rt_thecrossant_black,367784,black_plus_sign,,,,50,,,1,1,,,,,,,,,,
null,,color_black,367893,black_plus_sign,,,,null,,,,,,,,,,,,,,
null,,learn_phase(without_color),369899,black_plus_sign,,,,null,GW/wheelchair.jpg,GW/camera.jpg,,,,,,,,,,,,
null,,black_cross(without_color),370818,green,,,,null,GW/wheelchair.jpg,GW/camera.jpg,,,,,,,,,,,,
null,,rt_plussign_withcolor,371331,green,,,,null,GW/wheelchair.jpg,GW/camera.jpg,,,,,,,,,,,,
1462.0999999642372,,rt_thecrossant_black,372439,black_plus_sign,,,,50,,,1,1,,,,,,,,,,
null,,color_black,372556,black_plus_sign,,,,null,,,,,,,,,,,,,,
null,,learn_phase(without_color),374565,black_plus_sign,,,,null,GW/camera.jpg,GW/jukebox.jpg,,,,,,,,,,,,
null,,black_cross(without_color),375484,blue,,,,null,GW/camera.jpg,GW/jukebox.jpg,,,,,,,,,,,,
null,,rt_plussign_withcolor,375990,blue,,,,null,GW/camera.jpg,GW/jukebox.jpg,,,,,,,,,,,,
1348.6000000238419,,rt_thecrossant_black,377079,black_plus_sign,,,,49,,,1,1,,,,,,,,,,
null,,color_black,377189,black_plus_sign,,,,null,,,,,,,,,,,,,,
null,,learn_phase(without_color),379196,black_plus_sign,,,,null,GW/jukebox.jpg,GW/gong.jpg,,,,,,,,,,,,
null,,black_cross(without_color),380157,blue,,,,null,GW/jukebox.jpg,GW/gong.jpg,,,,,,,,,,,,
null,,rt_plussign_withcolor,380669,blue,,,,null,GW/jukebox.jpg,GW/gong.jpg,,,,,,,,,,,,
1457.800000011921,,rt_thecrossant_black,381723,black_plus_sign,,,,49,,,1,1,,,,,,,,,,
null,,color_black,381833,black_plus_sign,,,,null,,,,,,,,,,,,,,
null,,learn_phase(without_color),383838,black_plus_sign,,,,null,GW/camera.jpg,GW/snail.jpg,,,,,,,,,,,,
null,,black_cross(without_color),384542,green,,,,null,GW/camera.jpg,GW/snail.jpg,,,,,,,,,,,,
null,,rt_plussign_withcolor,385054,green,,,,null,GW/camera.jpg,GW/snail.jpg,,,,,,,,,,,,
1217.1000000238419,,rt_thecrossant_black,386358,black_plus_sign,,,,50,,,1,1,,,,,,,,,,
null,,color_black,386467,black_plus_sign,,,,null,,,,,,,,,,,,,,
null,,learn_phase(without_color),388473,black_plus_sign,,,,null,GW/barrel.jpg,GW/soldier.jpg,,,,,,,,,,,,
null,,black_cross(without_color),389341,green,,,,null,GW/barrel.jpg,GW/soldier.jpg,,,,,,,,,,,,
null,,rt_plussign_withcolor,389854,green,,,,null,GW/barrel.jpg,GW/soldier.jpg,,,,,,,,,,,,
1258.199999988079,,rt_thecrossant_black,391009,black_plus_sign,,,,50,,,1,1,,,,,,,,,,
null,,color_black,391118,black_plus_sign,,,,null,,,,,,,,,,,,,,
null,,learn_phase(without_color),393124,black_plus_sign,,,,null,GW/snail.jpg,GW/paint.jpg,,,,,,,,,,,,
null,,black_cross(without_color),394056,blue,,,,null,GW/snail.jpg,GW/paint.jpg,,,,,,,,,,,,
null,,rt_plussign_withcolor,394563,blue,,,,null,GW/snail.jpg,GW/paint.jpg,,,,,,,,,,,,
1322,,rt_thecrossant_black,395648,black_plus_sign,,,,49,,,1,1,,,,,,,,,,
null,,color_black,395756,black_plus_sign,,,,null,,,,,,,,,,,,,,
null,,learn_phase(without_color),397761,black_plus_sign,,,,null,GW/globe.jpg,GW/dustpan.jpg,,,,,,,,,,,,
null,,black_cross(without_color),398380,green,,,,null,GW/globe.jpg,GW/dustpan.jpg,,,,,,,,,,,,
null,,rt_plussign_withcolor,398884,green,,,,null,GW/globe.jpg,GW/dustpan.jpg,,,,,,,,,,,,
1584.0999999642372,,rt_thecrossant_black,400275,black_plus_sign,,,,50,,,1,1,,,,,,,,,,
null,,color_black,400384,black_plus_sign,,,,null,,,,,,,,,,,,,,
null,,learn_phase(without_color),402392,black_plus_sign,,,,null,GW/globe.jpg,GW/basket.jpg,,,,,,,,,,,,
null,,black_cross(without_color),403446,blue,,,,null,GW/globe.jpg,GW/basket.jpg,,,,,,,,,,,,
null,,rt_plussign_withcolor,403949,blue,,,,null,GW/globe.jpg,GW/basket.jpg,,,,,,,,,,,,
1080.2000000476837,,rt_thecrossant_black,404920,black_plus_sign,,,,49,,,1,1,,,,,,,,,,
null,,color_black,405027,black_plus_sign,,,,null,,,,,,,,,,,,,,
null,,learn_phase(without_color),407045,black_plus_sign,,,,null,GW/snail.jpg,GW/paint.jpg,,,,,,,,,,,,
null,,black_cross(without_color),408056,green,,,,null,GW/snail.jpg,GW/paint.jpg,,,,,,,,,,,,
null,,rt_plussign_withcolor,408561,green,,,,null,GW/snail.jpg,GW/paint.jpg,,,,,,,,,,,,
1406.300000011921,,rt_thecrossant_black,409565,black_plus_sign,,,,50,,,1,1,,,,,,,,,,
null,,color_black,409676,black_plus_sign,,,,null,,,,,,,,,,,,,,
null,,learn_phase(without_color),411686,black_plus_sign,,,,null,GW/basket.jpg,GW/barrel.jpg,,,,,,,,,,,,
null,,black_cross(without_color),412747,green,,,,null,GW/basket.jpg,GW/barrel.jpg,,,,,,,,,,,,
null,,rt_plussign_withcolor,413256,green,,,,null,GW/basket.jpg,GW/barrel.jpg,,,,,,,,,,,,
1233.9000000357628,,rt_thecrossant_black,414205,black_plus_sign,,,,50,,,1,1,,,,,,,,,,
null,,color_black,414314,black_plus_sign,,,,null,,,,,,,,,,,,,,
null,,learn_phase(without_color),416321,black_plus_sign,,,,null,GW/hat.jpg,GW/basket.jpg,,,,,,,,,,,,
null,,black_cross(without_color),417384,blue,,,,null,GW/hat.jpg,GW/basket.jpg,,,,,,,,,,,,
null,,rt_plussign_withcolor,417890,blue,,,,null,GW/hat.jpg,GW/basket.jpg,,,,,,,,,,,,
1530.8999999761581,,rt_thecrossant_black,418849,black_plus_sign,,,,49,,,1,1,,,,,,,,,,
null,,color_black,418958,black_plus_sign,,,,null,,,,,,,,,,,,,,
null,,learn_phase(without_color),420963,black_plus_sign,,,,null,GW/wheelchair.jpg,GW/camera.jpg,,,,,,,,,,,,
null,,black_cross(without_color),421880,green,,,,null,GW/wheelchair.jpg,GW/camera.jpg,,,,,,,,,,,,
null,,rt_plussign_withcolor,422391,green,,,,null,GW/wheelchair.jpg,GW/camera.jpg,,,,,,,,,,,,
1644.800000011921,,rt_thecrossant_black,423499,black_plus_sign,,,,50,,,1,1,,,,,,,,,,
null,,color_black,423610,black_plus_sign,,,,null,,,,,,,,,,,,,,
null,,learn_phase(without_color),425618,black_plus_sign,,,,null,GW/gong.jpg,GW/hat.jpg,,,,,,,,,,,,
null,,black_cross(without_color),426350,blue,,,,null,GW/gong.jpg,GW/hat.jpg,,,,,,,,,,,,
null,,rt_plussign_withcolor,426855,blue,,,,null,GW/gong.jpg,GW/hat.jpg,,,,,,,,,,,,
1064.2000000476837,,rt_thecrossant_black,428136,black_plus_sign,,,,49,,,1,1,,,,,,,,,,
null,,color_black,428254,black_plus_sign,,,,null,,,,,,,,,,,,,,
null,,learn_phase(without_color),430264,black_plus_sign,,,,null,GW/basket.jpg,GW/barrel.jpg,,,,,,,,,,,,
null,,black_cross(without_color),430939,green,,,,null,GW/basket.jpg,GW/barrel.jpg,,,,,,,,,,,,
null,,rt_plussign_withcolor,431444,green,,,,null,GW/basket.jpg,GW/barrel.jpg,,,,,,,,,,,,
982.6999999880791,,rt_thecrossant_black,432780,black_plus_sign,,,,50,,,1,1,,,,,,,,,,
null,,color_black,432886,black_plus_sign,,,,null,,,,,,,,,,,,,,
null,,learn_phase(without_color),434905,black_plus_sign,,,,null,GW/hat.jpg,GW/globe.jpg,,,,,,,,,,,,
null,,black_cross(without_color),435690,blue,,,,null,GW/hat.jpg,GW/globe.jpg,,,,,,,,,,,,
null,,rt_plussign_withcolor,436199,blue,,,,null,GW/hat.jpg,GW/globe.jpg,,,,,,,,,,,,
999.3000000119209,,rt_thecrossant_black,437428,black_plus_sign,,,,49,,,1,1,,,,,,,,,,
null,,color_black,437539,black_plus_sign,,,,null,,,,,,,,,,,,,,
null,,learn_phase(without_color),439546,black_plus_sign,,,,null,GW/snail.jpg,GW/soldier.jpg,,,,,,,,,,,,
null,,black_cross(without_color),440610,blue,,,,null,GW/snail.jpg,GW/soldier.jpg,,,,,,,,,,,,
null,,rt_plussign_withcolor,441119,blue,,,,null,GW/snail.jpg,GW/soldier.jpg,,,,,,,,,,,,
1007.3999999761581,,rt_thecrossant_black,442070,black_plus_sign,,,,49,,,1,1,,,,,,,,,,
null,,color_black,442182,black_plus_sign,,,,null,,,,,,,,,,,,,,
null,,learn_phase(without_color),444186,black_plus_sign,,,,null,GW/camera.jpg,GW/snail.jpg,,,,,,,,,,,,
null,,black_cross(without_color),445281,green,,,,null,GW/camera.jpg,GW/snail.jpg,,,,,,,,,,,,
null,,rt_plussign_withcolor,445784,green,,,,null,GW/camera.jpg,GW/snail.jpg,,,,,,,,,,,,
1323.8999999761581,,rt_thecrossant_black,446722,black_plus_sign,,,,50,,,1,1,,,,,,,,,,
null,,color_black,446832,black_plus_sign,,,,null,,,,,,,,,,,,,,
null,,learn_phase(without_color),448838,black_plus_sign,,,,null,GW/hat.jpg,GW/basket.jpg,,,,,,,,,,,,
null,,black_cross(without_color),449266,blue,,,,null,GW/hat.jpg,GW/basket.jpg,,,,,,,,,,,,
null,,rt_plussign_withcolor,449773,blue,,,,null,GW/hat.jpg,GW/basket.jpg,,,,,,,,,,,,
1616.800000011921,,rt_thecrossant_black,451356,black_plus_sign,,,,49,,,1,1,,,,,,,,,,
null,,color_black,451468,black_plus_sign,,,,null,,,,,,,,,,,,,,
null,,learn_phase(without_color),453477,black_plus_sign,,,,null,GW/snail.jpg,GW/soldier.jpg,,,,,,,,,,,,
null,,black_cross(without_color),454079,blue,,,,null,GW/snail.jpg,GW/soldier.jpg,,,,,,,,,,,,
null,,rt_plussign_withcolor,454585,blue,,,,null,GW/snail.jpg,GW/soldier.jpg,,,,,,,,,,,,
896.4000000357628,,rt_thecrossant_black,455992,black_plus_sign,,,,49,,,1,1,,,,,,,,,,
null,,color_black,456100,black_plus_sign,,,,null,,,,,,,,,,,,,,
null,,learn_phase(without_color),458106,black_plus_sign,,,,null,GW/snail.jpg,GW/paint.jpg,,,,,,,,,,,,
null,,black_cross(without_color),458569,green,,,,null,GW/snail.jpg,GW/paint.jpg,,,,,,,,,,,,
null,,rt_plussign_withcolor,459080,green,,,,null,GW/snail.jpg,GW/paint.jpg,,,,,,,,,,,,
1375.199999988079,,rt_thecrossant_black,460623,black_plus_sign,,,,50,,,1,1,,,,,,,,,,
null,,color_black,460736,black_plus_sign,,,,null,,,,,,,,,,,,,,
null,,learn_phase(without_color),462746,black_plus_sign,,,,null,GW/jukebox.jpg,GW/barrel.jpg,,,,,,,,,,,,
null,,black_cross(without_color),463634,green,,,,null,GW/jukebox.jpg,GW/barrel.jpg,,,,,,,,,,,,
null,,rt_plussign_withcolor,464136,green,,,,null,GW/jukebox.jpg,GW/barrel.jpg,,,,,,,,,,,,
1199.2000000476837,,rt_thecrossant_black,465260,black_plus_sign,,,,49,,,0,0.9795918367346939,,,,,,,,,,
null,,color_black,465370,black_plus_sign,,,,null,,,,,,,,,,,,,,
null,,learn_phase(without_color),467377,black_plus_sign,,,,null,GW/hat.jpg,GW/teeth.jpg,,,,,,,,,,,,
null,,black_cross(without_color),468041,green,,,,null,GW/hat.jpg,GW/teeth.jpg,,,,,,,,,,,,
null,,rt_plussign_withcolor,468553,green,,,,null,GW/hat.jpg,GW/teeth.jpg,,,,,,,,,,,,
1321.4000000357628,,rt_thecrossant_black,469904,black_plus_sign,,,,50,,,1,0.98,,,,,,,,,,
null,,color_black,470016,black_plus_sign,,,,null,,,,,,,,,,,,,,
null,,learn_phase(without_color),472022,black_plus_sign,,,,null,GW/snail.jpg,GW/soldier.jpg,,,,,,,,,,,,
null,,black_cross(without_color),472770,blue,,,,null,GW/snail.jpg,GW/soldier.jpg,,,,,,,,,,,,
null,,rt_plussign_withcolor,473286,blue,,,,null,GW/snail.jpg,GW/soldier.jpg,,,,,,,,,,,,
null,,rt_thecrossant_black,474559,black_plus_sign,,,,null,,,,0.98,,,,,,,,,,
null,,color_black,474662,black_plus_sign,,,,null,,,,,,,,,,,,,,
null,,learn_phase(without_color),476671,black_plus_sign,,,,null,GW/barrel.jpg,GW/soldier.jpg,,,,,,,,,,,,
null,,black_cross(without_color),477522,blue,,,,null,GW/barrel.jpg,GW/soldier.jpg,,,,,,,,,,,,
null,,rt_plussign_withcolor,478038,blue,,,,null,GW/barrel.jpg,GW/soldier.jpg,,,,,,,,,,,,
2006.3999999761581,,rt_thecrossant_black,479214,black_plus_sign,,,,50,,,0,0.9607843137254902,,,,,,,,,,
null,,warning_page,482219,warning,,,,null,,,,,,,,,,,,,,
null,,color_black,482328,black_plus_sign,,,,null,,,,,,,,,,,,,,
null,,learn_phase(without_color),484333,black_plus_sign,,,,null,GW/gong.jpg,GW/hat.jpg,,,,,,,,,,,,
null,,black_cross(without_color),485194,blue,,,,null,GW/gong.jpg,GW/hat.jpg,,,,,,,,,,,,
486.5,,rt_plussign_withcolor,485707,blue,,,,49,GW/gong.jpg,GW/hat.jpg,,,,,,,,,,,,
null,,rt_thecrossant_black,486865,black_plus_sign,,,,null,,,1,0.9615384615384616,,,,,,,,,,
null,,color_black,486975,black_plus_sign,,,,null,,,,,,,,,,,,,,
null,,learn_phase(without_color),488983,black_plus_sign,,,,null,GW/jukebox.jpg,GW/gong.jpg,,,,,,,,,,,,
null,,black_cross(without_color),489877,blue,,,,null,GW/jukebox.jpg,GW/gong.jpg,,,,,,,,,,,,
null,,rt_plussign_withcolor,490382,blue,,,,null,GW/jukebox.jpg,GW/gong.jpg,,,,,,,,,,,,
1047,,rt_thecrossant_black,491509,black_plus_sign,,,,49,,,1,0.9622641509433962,,,,,,,,,,
null,,color_black,491618,black_plus_sign,,,,null,,,,,,,,,,,,,,
null,,learn_phase(without_color),493630,black_plus_sign,,,,null,GW/hat.jpg,GW/teeth.jpg,,,,,,,,,,,,
null,,black_cross(without_color),494718,blue,,,,null,GW/hat.jpg,GW/teeth.jpg,,,,,,,,,,,,
null,,rt_plussign_withcolor,495225,blue,,,,null,GW/hat.jpg,GW/teeth.jpg,,,,,,,,,,,,
1457.5,,rt_thecrossant_black,496152,black_plus_sign,,,,49,,,1,0.9629629629629629,,,,,,,,,,
null,,color_black,496262,black_plus_sign,,,,null,,,,,,,,,,,,,,
null,,learn_phase(without_color),498271,black_plus_sign,,,,null,GW/jukebox.jpg,GW/barrel.jpg,,,,,,,,,,,,
null,,black_cross(without_color),498948,green,,,,null,GW/jukebox.jpg,GW/barrel.jpg,,,,,,,,,,,,
null,,rt_plussign_withcolor,499458,green,,,,null,GW/jukebox.jpg,GW/barrel.jpg,,,,,,,,,,,,
null,,rt_thecrossant_black,500791,black_plus_sign,,,,null,,,,0.9629629629629629,,,,,,,,,,
null,,color_black,500896,black_plus_sign,,,,null,,,,,,,,,,,,,,
null,,learn_phase(without_color),502900,black_plus_sign,,,,null,GW/basket.jpg,GW/barrel.jpg,,,,,,,,,,,,
null,,black_cross(without_color),503878,green,,,,null,GW/basket.jpg,GW/barrel.jpg,,,,,,,,,,,,
null,,rt_plussign_withcolor,504396,green,,,,null,GW/basket.jpg,GW/barrel.jpg,,,,,,,,,,,,
934.0999999642372,,rt_thecrossant_black,505432,black_plus_sign,,,,50,,,1,0.9636363636363636,,,,,,,,,,
null,,color_black,505535,black_plus_sign,,,,null,,,,,,,,,,,,,,
null,,learn_phase(without_color),507546,black_plus_sign,,,,null,GW/globe.jpg,GW/dustpan.jpg,,,,,,,,,,,,
null,,black_cross(without_color),508173,green,,,,null,GW/globe.jpg,GW/dustpan.jpg,,,,,,,,,,,,
null,,rt_plussign_withcolor,508688,green,,,,null,GW/globe.jpg,GW/dustpan.jpg,,,,,,,,,,,,
1715.699999988079,,rt_thecrossant_black,510069,black_plus_sign,,,,50,,,1,0.9642857142857143,,,,,,,,,,
null,,color_black,510180,black_plus_sign,,,,null,,,,,,,,,,,,,,
null,,learn_phase(without_color),512188,black_plus_sign,,,,null,GW/barrel.jpg,GW/soldier.jpg,,,,,,,,,,,,
null,,black_cross(without_color),512647,blue,,,,null,GW/barrel.jpg,GW/soldier.jpg,,,,,,,,,,,,
null,,rt_plussign_withcolor,513152,blue,,,,null,GW/barrel.jpg,GW/soldier.jpg,,,,,,,,,,,,
1061.2999999523163,,rt_thecrossant_black,514715,black_plus_sign,,,,49,,,1,0.9649122807017544,,,,,,,,,,
null,,color_black,514825,black_plus_sign,,,,null,,,,,,,,,,,,,,
null,,learn_phase(without_color),516829,black_plus_sign,,,,null,GW/hat.jpg,GW/teeth.jpg,,,,,,,,,,,,
null,,black_cross(without_color),517563,green,,,,null,GW/hat.jpg,GW/teeth.jpg,,,,,,,,,,,,
null,,rt_plussign_withcolor,518069,green,,,,null,GW/hat.jpg,GW/teeth.jpg,,,,,,,,,,,,
844.8000000119209,,rt_thecrossant_black,519358,black_plus_sign,,,,50,,,1,0.9655172413793104,,,,,,,,,,
null,,color_black,519468,black_plus_sign,,,,null,,,,,,,,,,,,,,
null,,learn_phase(without_color),521480,black_plus_sign,,,,null,GW/jukebox.jpg,GW/gong.jpg,,,,,,,,,,,,
null,,black_cross(without_color),522507,green,,,,null,GW/jukebox.jpg,GW/gong.jpg,,,,,,,,,,,,
null,,rt_plussign_withcolor,523017,green,,,,null,GW/jukebox.jpg,GW/gong.jpg,,,,,,,,,,,,
1215.199999988079,,rt_thecrossant_black,524028,black_plus_sign,,,,50,,,1,0.9661016949152542,,,,,,,,,,
null,,color_black,524138,black_plus_sign,,,,null,,,,,,,,,,,,,,
null,,learn_phase(without_color),526144,black_plus_sign,,,,null,GW/gong.jpg,GW/basket.jpg,,,,,,,,,,,,
null,,black_cross(without_color),526571,green,,,,null,GW/gong.jpg,GW/basket.jpg,,,,,,,,,,,,
null,,rt_plussign_withcolor,527082,green,,,,null,GW/gong.jpg,GW/basket.jpg,,,,,,,,,,,,
1325.8999999761581,,rt_thecrossant_black,528674,black_plus_sign,,,,50,,,1,0.9666666666666667,,,,,,,,,,
null,,color_black,528785,black_plus_sign,,,,null,,,,,,,,,,,,,,
null,,learn_phase(without_color),530792,black_plus_sign,,,,null,GW/basket.jpg,GW/barrel.jpg,,,,,,,,,,,,
null,,black_cross(without_color),531424,blue,,,,null,GW/basket.jpg,GW/barrel.jpg,,,,,,,,,,,,
null,,rt_plussign_withcolor,531927,blue,,,,null,GW/basket.jpg,GW/barrel.jpg,,,,,,,,,,,,
718.5,,rt_thecrossant_black,533308,black_plus_sign,,,,49,,,1,0.9672131147540983,,,,,,,,,,
null,,color_black,533418,black_plus_sign,,,,null,,,,,,,,,,,,,,
null,,learn_phase(without_color),535422,black_plus_sign,,,,null,GW/gong.jpg,GW/hat.jpg,,,,,,,,,,,,
null,,black_cross(without_color),536134,green,,,,null,GW/gong.jpg,GW/hat.jpg,,,,,,,,,,,,
null,,rt_plussign_withcolor,536646,green,,,,null,GW/gong.jpg,GW/hat.jpg,,,,,,,,,,,,
962.3000000119209,,rt_thecrossant_black,537944,black_plus_sign,,,,50,,,1,0.967741935483871,,,,,,,,,,
null,,color_black,538054,black_plus_sign,,,,null,,,,,,,,,,,,,,
null,,learn_phase(without_color),540059,black_plus_sign,,,,null,GW/gong.jpg,GW/basket.jpg,,,,,,,,,,,,
null,,black_cross(without_color),540746,blue,,,,null,GW/gong.jpg,GW/basket.jpg,,,,,,,,,,,,
null,,rt_plussign_withcolor,541260,blue,,,,null,GW/gong.jpg,GW/basket.jpg,,,,,,,,,,,,
1182.4000000357628,,rt_thecrossant_black,542599,black_plus_sign,,,,49,,,1,0.9682539682539683,,,,,,,,,,
null,,color_black,542709,black_plus_sign,,,,null,,,,,,,,,,,,,,
null,,learn_phase(without_color),544718,black_plus_sign,,,,null,GW/globe.jpg,GW/basket.jpg,,,,,,,,,,,,
null,,black_cross(without_color),545787,blue,,,,null,GW/globe.jpg,GW/basket.jpg,,,,,,,,,,,,
null,,rt_plussign_withcolor,546289,blue,,,,null,GW/globe.jpg,GW/basket.jpg,,,,,,,,,,,,
1115.199999988079,,rt_thecrossant_black,547232,black_plus_sign,,,,49,,,1,0.96875,,,,,,,,,,
null,,color_black,547350,black_plus_sign,,,,null,,,,,,,,,,,,,,
null,,learn_phase(without_color),549365,black_plus_sign,,,,null,GW/jukebox.jpg,GW/gong.jpg,,,,,,,,,,,,
null,,black_cross(without_color),549783,green,,,,null,GW/jukebox.jpg,GW/gong.jpg,,,,,,,,,,,,
null,,rt_plussign_withcolor,550288,green,,,,null,GW/jukebox.jpg,GW/gong.jpg,,,,,,,,,,,,
1392.7999999523163,,rt_thecrossant_black,551892,black_plus_sign,,,,50,,,1,0.9692307692307692,,,,,,,,,,
null,,color_black,551995,black_plus_sign,,,,null,,,,,,,,,,,,,,
null,,learn_phase(without_color),554007,black_plus_sign,,,,null,GW/camera.jpg,GW/snail.jpg,,,,,,,,,,,,
null,,black_cross(without_color),554925,green,,,,null,GW/camera.jpg,GW/snail.jpg,,,,,,,,,,,,
null,,rt_plussign_withcolor,555433,green,,,,null,GW/camera.jpg,GW/snail.jpg,,,,,,,,,,,,
1112.300000011921,,rt_thecrossant_black,556538,black_plus_sign,,,,50,,,1,0.9696969696969697,,,,,,,,,,
null,,color_black,556649,black_plus_sign,,,,null,,,,,,,,,,,,,,
null,,learn_phase(without_color),558655,black_plus_sign,,,,null,GW/hat.jpg,GW/teeth.jpg,,,,,,,,,,,,
null,,black_cross(without_color),559443,green,,,,null,GW/hat.jpg,GW/teeth.jpg,,,,,,,,,,,,
null,,rt_plussign_withcolor,559948,green,,,,null,GW/hat.jpg,GW/teeth.jpg,,,,,,,,,,,,
1224.5999999642372,,rt_thecrossant_black,561179,black_plus_sign,,,,50,,,1,0.9701492537313433,,,,,,,,,,
null,,color_black,561287,black_plus_sign,,,,null,,,,,,,,,,,,,,
null,,learn_phase(without_color),563296,black_plus_sign,,,,null,GW/camera.jpg,GW/snail.jpg,,,,,,,,,,,,
null,,black_cross(without_color),563940,green,,,,null,GW/camera.jpg,GW/snail.jpg,,,,,,,,,,,,
null,,rt_plussign_withcolor,564455,green,,,,null,GW/camera.jpg,GW/snail.jpg,,,,,,,,,,,,
1244.8999999761581,,rt_thecrossant_black,565821,black_plus_sign,,,,50,,,1,0.9705882352941176,,,,,,,,,,
null,,color_black,565930,black_plus_sign,,,,null,,,,,,,,,,,,,,
null,,learn_phase(without_color),567938,black_plus_sign,,,,null,GW/globe.jpg,GW/basket.jpg,,,,,,,,,,,,
null,,black_cross(without_color),568870,green,,,,null,GW/globe.jpg,GW/basket.jpg,,,,,,,,,,,,
null,,rt_plussign_withcolor,569383,green,,,,null,GW/globe.jpg,GW/basket.jpg,,,,,,,,,,,,
1028.8999999761581,,rt_thecrossant_black,570471,black_plus_sign,,,,50,,,1,0.9710144927536232,,,,,,,,,,
null,,color_black,570583,black_plus_sign,,,,null,,,,,,,,,,,,,,
null,,learn_phase(without_color),572588,black_plus_sign,,,,null,GW/jukebox.jpg,GW/barrel.jpg,,,,,,,,,,,,
null,,black_cross(without_color),573360,blue,,,,null,GW/jukebox.jpg,GW/barrel.jpg,,,,,,,,,,,,
null,,rt_plussign_withcolor,573868,blue,,,,null,GW/jukebox.jpg,GW/barrel.jpg,,,,,,,,,,,,
1299,,rt_thecrossant_black,575116,black_plus_sign,,,,49,,,1,0.9714285714285714,,,,,,,,,,
null,,color_black,575219,black_plus_sign,,,,null,,,,,,,,,,,,,,
null,,learn_phase(without_color),577224,black_plus_sign,,,,null,GW/globe.jpg,GW/basket.jpg,,,,,,,,,,,,
null,,black_cross(without_color),578049,blue,,,,null,GW/globe.jpg,GW/basket.jpg,,,,,,,,,,,,
null,,rt_plussign_withcolor,578553,blue,,,,null,GW/globe.jpg,GW/basket.jpg,,,,,,,,,,,,
1752.9000000357628,,rt_thecrossant_black,579739,black_plus_sign,,,,49,,,1,0.971830985915493,,,,,,,,,,
null,,color_black,579851,black_plus_sign,,,,null,,,,,,,,,,,,,,
null,,learn_phase(without_color),581860,black_plus_sign,,,,null,GW/barrel.jpg,GW/soldier.jpg,,,,,,,,,,,,
null,,black_cross(without_color),582454,green,,,,null,GW/barrel.jpg,GW/soldier.jpg,,,,,,,,,,,,
null,,rt_plussign_withcolor,582964,green,,,,null,GW/barrel.jpg,GW/soldier.jpg,,,,,,,,,,,,
1146.4000000357628,,rt_thecrossant_black,584391,black_plus_sign,,,,50,,,1,0.9722222222222222,,,,,,,,,,
null,,color_black,584502,black_plus_sign,,,,null,,,,,,,,,,,,,,
null,,learn_phase(without_color),586512,black_plus_sign,,,,null,GW/jukebox.jpg,GW/gong.jpg,,,,,,,,,,,,
null,,black_cross(without_color),587616,blue,,,,null,GW/jukebox.jpg,GW/gong.jpg,,,,,,,,,,,,
null,,rt_plussign_withcolor,588117,blue,,,,null,GW/jukebox.jpg,GW/gong.jpg,,,,,,,,,,,,
862.8000000119209,,rt_thecrossant_black,589035,black_plus_sign,,,,49,,,1,0.9726027397260274,,,,,,,,,,
null,,color_black,589152,black_plus_sign,,,,null,,,,,,,,,,,,,,
null,,learn_phase(without_color),591161,black_plus_sign,,,,null,GW/jukebox.jpg,GW/barrel.jpg,,,,,,,,,,,,
null,,black_cross(without_color),591725,blue,,,,null,GW/jukebox.jpg,GW/barrel.jpg,,,,,,,,,,,,
null,,rt_plussign_withcolor,592232,blue,,,,null,GW/jukebox.jpg,GW/barrel.jpg,,,,,,,,,,,,
1443,,rt_thecrossant_black,593686,black_plus_sign,,,,49,,,1,0.972972972972973,,,,,,,,,,
null,,color_black,593796,black_plus_sign,,,,null,,,,,,,,,,,,,,
null,,learn_phase(without_color),595805,black_plus_sign,,,,null,GW/gong.jpg,GW/hat.jpg,,,,,,,,,,,,
null,,black_cross(without_color),596922,blue,,,,null,GW/gong.jpg,GW/hat.jpg,,,,,,,,,,,,
null,,rt_plussign_withcolor,597436,blue,,,,null,GW/gong.jpg,GW/hat.jpg,,,,,,,,,,,,
817.8000000119209,,rt_thecrossant_black,598348,black_plus_sign,,,,49,,,1,0.9733333333333334,,,,,,,,,,
null,,color_black,598451,black_plus_sign,,,,null,,,,,,,,,,,,,,
null,,learn_phase(without_color),600459,black_plus_sign,,,,null,GW/gong.jpg,GW/basket.jpg,,,,,,,,,,,,
null,,black_cross(without_color),600946,blue,,,,null,GW/gong.jpg,GW/basket.jpg,,,,,,,,,,,,
null,,rt_plussign_withcolor,601448,blue,,,,null,GW/gong.jpg,GW/basket.jpg,,,,,,,,,,,,
1251.1000000238419,,rt_thecrossant_black,602977,black_plus_sign,,,,49,,,1,0.9736842105263158,,,,,,,,,,
null,,color_black,603090,black_plus_sign,,,,null,,,,,,,,,,,,,,
null,,learn_phase(without_color),605098,black_plus_sign,,,,null,GW/hat.jpg,GW/teeth.jpg,,,,,,,,,,,,
null,,black_cross(without_color),606204,blue,,,,null,GW/hat.jpg,GW/teeth.jpg,,,,,,,,,,,,
null,,rt_plussign_withcolor,606716,blue,,,,null,GW/hat.jpg,GW/teeth.jpg,,,,,,,,,,,,
694.8000000119209,,rt_thecrossant_black,607633,black_plus_sign,,,,49,,,1,0.974025974025974,,,,,,,,,,
null,,color_black,607749,black_plus_sign,,,,null,,,,,,,,,,,,,,
null,,learn_phase(without_color),609766,black_plus_sign,,,,null,GW/basket.jpg,GW/barrel.jpg,,,,,,,,,,,,
null,,black_cross(without_color),610777,blue,,,,null,GW/basket.jpg,GW/barrel.jpg,,,,,,,,,,,,
null,,rt_plussign_withcolor,611281,blue,,,,null,GW/basket.jpg,GW/barrel.jpg,,,,,,,,,,,,
1333.4000000357628,,rt_thecrossant_black,612278,black_plus_sign,,,,49,,,1,0.9743589743589743,,,,,,,,,,
null,,color_black,612383,black_plus_sign,,,,null,,,,,,,,,,,,,,
null,,learn_phase(without_color),614395,black_plus_sign,,,,null,GW/gong.jpg,GW/basket.jpg,,,,,,,,,,,,
null,,black_cross(without_color),614814,blue,,,,null,GW/gong.jpg,GW/basket.jpg,,,,,,,,,,,,
null,,rt_plussign_withcolor,615322,blue,,,,null,GW/gong.jpg,GW/basket.jpg,,,,,,,,,,,,
1265,,rt_thecrossant_black,616915,black_plus_sign,,,,49,,,1,0.9746835443037974,,,,,,,,,,
null,,color_black,617025,black_plus_sign,,,,null,,,,,,,,,,,,,,
null,,learn_phase(without_color),619035,black_plus_sign,,,,null,GW/wheelchair.jpg,GW/camera.jpg,,,,,,,,,,,,
null,,black_cross(without_color),619737,green,,,,null,GW/wheelchair.jpg,GW/camera.jpg,,,,,,,,,,,,
null,,rt_plussign_withcolor,620243,green,,,,null,GW/wheelchair.jpg,GW/camera.jpg,,,,,,,,,,,,
800.8000000119209,,rt_thecrossant_black,621550,black_plus_sign,,,,50,,,1,0.975,,,,,,,,,,
null,,color_black,621660,black_plus_sign,,,,null,,,,,,,,,,,,,,
null,,learn_phase(without_color),623665,black_plus_sign,,,,null,GW/hat.jpg,GW/basket.jpg,,,,,,,,,,,,
null,,black_cross(without_color),624230,green,,,,null,GW/hat.jpg,GW/basket.jpg,,,,,,,,,,,,
null,,rt_plussign_withcolor,624737,green,,,,null,GW/hat.jpg,GW/basket.jpg,,,,,,,,,,,,
1027.5,,rt_thecrossant_black,626190,black_plus_sign,,,,50,,,1,0.9753086419753086,,,,,,,,,,
null,,color_black,626301,black_plus_sign,,,,null,,,,,,,,,,,,,,
null,,learn_phase(without_color),628313,black_plus_sign,,,,null,GW/globe.jpg,GW/dustpan.jpg,,,,,,,,,,,,
null,,black_cross(without_color),629002,green,,,,null,GW/globe.jpg,GW/dustpan.jpg,,,,,,,,,,,,
null,,rt_plussign_withcolor,629506,green,,,,null,GW/globe.jpg,GW/dustpan.jpg,,,,,,,,,,,,
960.9000000357628,,rt_thecrossant_black,630840,black_plus_sign,,,,50,,,1,0.975609756097561,,,,,,,,,,
null,,color_black,630945,black_plus_sign,,,,null,,,,,,,,,,,,,,
null,,learn_phase(without_color),632952,black_plus_sign,,,,null,GW/camera.jpg,GW/snail.jpg,,,,,,,,,,,,
null,,black_cross(without_color),633865,blue,,,,null,GW/camera.jpg,GW/snail.jpg,,,,,,,,,,,,
null,,rt_plussign_withcolor,634369,blue,,,,null,GW/camera.jpg,GW/snail.jpg,,,,,,,,,,,,
1570.699999988079,,rt_thecrossant_black,635473,black_plus_sign,,,,49,,,1,0.9759036144578314,,,,,,,,,,
null,,color_black,635579,black_plus_sign,,,,null,,,,,,,,,,,,,,
null,,learn_phase(without_color),637587,black_plus_sign,,,,null,GW/camera.jpg,GW/jukebox.jpg,,,,,,,,,,,,
null,,black_cross(without_color),638406,blue,,,,null,GW/camera.jpg,GW/jukebox.jpg,,,,,,,,,,,,
null,,rt_plussign_withcolor,638913,blue,,,,null,GW/camera.jpg,GW/jukebox.jpg,,,,,,,,,,,,
1724.5999999642372,,rt_thecrossant_black,640110,black_plus_sign,,,,49,,,1,0.9761904761904762,,,,,,,,,,
null,,color_black,640221,black_plus_sign,,,,null,,,,,,,,,,,,,,
null,,learn_phase(without_color),642227,black_plus_sign,,,,null,GW/globe.jpg,GW/dustpan.jpg,,,,,,,,,,,,
null,,black_cross(without_color),642981,green,,,,null,GW/globe.jpg,GW/dustpan.jpg,,,,,,,,,,,,
null,,rt_plussign_withcolor,643485,green,,,,null,GW/globe.jpg,GW/dustpan.jpg,,,,,,,,,,,,
1111.4000000357628,,rt_thecrossant_black,644750,black_plus_sign,,,,50,,,1,0.9764705882352941,,,,,,,,,,
null,,color_black,644860,black_plus_sign,,,,null,,,,,,,,,,,,,,
null,,learn_phase(without_color),646866,black_plus_sign,,,,null,GW/snail.jpg,GW/soldier.jpg,,,,,,,,,,,,
null,,black_cross(without_color),647890,blue,,,,null,GW/snail.jpg,GW/soldier.jpg,,,,,,,,,,,,
null,,rt_plussign_withcolor,648403,blue,,,,null,GW/snail.jpg,GW/soldier.jpg,,,,,,,,,,,,
1074,,rt_thecrossant_black,649389,black_plus_sign,,,,49,,,1,0.9767441860465116,,,,,,,,,,
null,,color_black,649498,black_plus_sign,,,,null,,,,,,,,,,,,,,
null,,learn_phase(without_color),651504,black_plus_sign,,,,null,GW/camera.jpg,GW/snail.jpg,,,,,,,,,,,,
null,,black_cross(without_color),652184,green,,,,null,GW/camera.jpg,GW/snail.jpg,,,,,,,,,,,,
null,,rt_plussign_withcolor,652695,green,,,,null,GW/camera.jpg,GW/snail.jpg,,,,,,,,,,,,
1564.699999988079,,rt_thecrossant_black,654032,black_plus_sign,,,,50,,,1,0.9770114942528736,,,,,,,,,,
null,,color_black,654137,black_plus_sign,,,,null,,,,,,,,,,,,,,
null,,learn_phase(without_color),656144,black_plus_sign,,,,null,GW/hat.jpg,GW/globe.jpg,,,,,,,,,,,,
null,,black_cross(without_color),656803,green,,,,null,GW/hat.jpg,GW/globe.jpg,,,,,,,,,,,,
null,,rt_plussign_withcolor,657317,green,,,,null,GW/hat.jpg,GW/globe.jpg,,,,,,,,,,,,
976.0999999642372,,rt_thecrossant_black,658680,black_plus_sign,,,,50,,,1,0.9772727272727273,,,,,,,,,,
null,,color_black,658792,black_plus_sign,,,,null,,,,,,,,,,,,,,
null,,learn_phase(without_color),660801,black_plus_sign,,,,null,GW/gong.jpg,GW/basket.jpg,,,,,,,,,,,,
null,,black_cross(without_color),661636,blue,,,,null,GW/gong.jpg,GW/basket.jpg,,,,,,,,,,,,
null,,rt_plussign_withcolor,662144,blue,,,,null,GW/gong.jpg,GW/basket.jpg,,,,,,,,,,,,
1243.800000011921,,rt_thecrossant_black,663326,black_plus_sign,,,,49,,,1,0.9775280898876404,,,,,,,,,,
null,,color_black,663430,black_plus_sign,,,,null,,,,,,,,,,,,,,
null,,learn_phase(without_color),665444,black_plus_sign,,,,null,GW/hat.jpg,GW/basket.jpg,,,,,,,,,,,,
null,,black_cross(without_color),666325,blue,,,,null,GW/hat.jpg,GW/basket.jpg,,,,,,,,,,,,
null,,rt_plussign_withcolor,666842,blue,,,,null,GW/hat.jpg,GW/basket.jpg,,,,,,,,,,,,
1003.3999999761581,,rt_thecrossant_black,667976,black_plus_sign,,,,49,,,1,0.9777777777777777,,,,,,,,,,
null,,color_black,668086,black_plus_sign,,,,null,,,,,,,,,,,,,,
null,,learn_phase(without_color),670093,black_plus_sign,,,,null,GW/hat.jpg,GW/globe.jpg,,,,,,,,,,,,
null,,black_cross(without_color),671066,green,,,,null,GW/hat.jpg,GW/globe.jpg,,,,,,,,,,,,
null,,rt_plussign_withcolor,671579,green,,,,null,GW/hat.jpg,GW/globe.jpg,,,,,,,,,,,,
1279.800000011921,,rt_thecrossant_black,672625,black_plus_sign,,,,50,,,1,0.978021978021978,,,,,,,,,,
null,,color_black,672743,black_plus_sign,,,,null,,,,,,,,,,,,,,
null,,learn_phase(without_color),674753,black_plus_sign,,,,null,GW/gong.jpg,GW/basket.jpg,,,,,,,,,,,,
null,,black_cross(without_color),675426,blue,,,,null,GW/gong.jpg,GW/basket.jpg,,,,,,,,,,,,
null,,rt_plussign_withcolor,675931,blue,,,,null,GW/gong.jpg,GW/basket.jpg,,,,,,,,,,,,
1382.0999999642372,,rt_thecrossant_black,677267,black_plus_sign,,,,49,,,1,0.9782608695652174,,,,,,,,,,
null,,color_black,677380,black_plus_sign,,,,null,,,,,,,,,,,,,,
null,,learn_phase(without_color),679386,black_plus_sign,,,,null,GW/jukebox.jpg,GW/gong.jpg,,,,,,,,,,,,
null,,black_cross(without_color),679877,blue,,,,null,GW/jukebox.jpg,GW/gong.jpg,,,,,,,,,,,,
null,,rt_plussign_withcolor,680385,blue,,,,null,GW/jukebox.jpg,GW/gong.jpg,,,,,,,,,,,,
1011.3000000119209,,rt_thecrossant_black,681910,black_plus_sign,,,,49,,,1,0.978494623655914,,,,,,,,,,
null,,color_black,682027,black_plus_sign,,,,null,,,,,,,,,,,,,,
null,,learn_phase(without_color),684038,black_plus_sign,,,,null,GW/hat.jpg,GW/globe.jpg,,,,,,,,,,,,
null,,black_cross(without_color),685139,blue,,,,null,GW/hat.jpg,GW/globe.jpg,,,,,,,,,,,,
null,,rt_plussign_withcolor,685653,blue,,,,null,GW/hat.jpg,GW/globe.jpg,,,,,,,,,,,,
646.1000000238419,,rt_thecrossant_black,686564,black_plus_sign,,,,49,,,1,0.9787234042553191,,,,,,,,,,
null,,color_black,686675,black_plus_sign,,,,null,,,,,,,,,,,,,,
null,,learn_phase(without_color),688684,black_plus_sign,,,,null,GW/hat.jpg,GW/teeth.jpg,,,,,,,,,,,,
null,,black_cross(without_color),689748,blue,,,,null,GW/hat.jpg,GW/teeth.jpg,,,,,,,,,,,,
null,,rt_plussign_withcolor,690252,blue,,,,null,GW/hat.jpg,GW/teeth.jpg,,,,,,,,,,,,
1363.5999999642372,,rt_thecrossant_black,691206,black_plus_sign,,,,49,,,1,0.9789473684210527,,,,,,,,,,
null,,color_black,691317,black_plus_sign,,,,null,,,,,,,,,,,,,,
null,,learn_phase(without_color),693322,black_plus_sign,,,,null,GW/camera.jpg,GW/jukebox.jpg,,,,,,,,,,,,
null,,black_cross(without_color),694420,green,,,,null,GW/camera.jpg,GW/jukebox.jpg,,,,,,,,,,,,
null,,rt_plussign_withcolor,694930,green,,,,null,GW/camera.jpg,GW/jukebox.jpg,,,,,,,,,,,,
1404.300000011921,,rt_thecrossant_black,695859,black_plus_sign,,,,50,,,1,0.9791666666666666,,,,,,,,,,
null,,color_black,695970,black_plus_sign,,,,null,,,,,,,,,,,,,,
null,,learn_phase(without_color),697974,black_plus_sign,,,,null,GW/wheelchair.jpg,GW/camera.jpg,,,,,,,,,,,,
null,,black_cross(without_color),698654,blue,,,,null,GW/wheelchair.jpg,GW/camera.jpg,,,,,,,,,,,,
null,,rt_plussign_withcolor,699163,blue,,,,null,GW/wheelchair.jpg,GW/camera.jpg,,,,,,,,,,,,
1504.3999999761581,,rt_thecrossant_black,700501,black_plus_sign,,,,49,,,1,0.979381443298969,,,,,,,,,,
null,,color_black,700612,black_plus_sign,,,,null,,,,,,,,,,,,,,
null,,learn_phase(without_color),702617,black_plus_sign,,,,null,GW/hat.jpg,GW/basket.jpg,,,,,,,,,,,,
null,,black_cross(without_color),703264,green,,,,null,GW/hat.jpg,GW/basket.jpg,,,,,,,,,,,,
null,,rt_plussign_withcolor,703768,green,,,,null,GW/hat.jpg,GW/basket.jpg,,,,,,,,,,,,
896.2000000476837,,rt_thecrossant_black,705145,black_plus_sign,,,,50,,,1,0.9795918367346939,,,,,,,,,,
null,,color_black,705263,black_plus_sign,,,,null,,,,,,,,,,,,,,
null,,learn_phase(without_color),707268,black_plus_sign,,,,null,GW/jukebox.jpg,GW/barrel.jpg,,,,,,,,,,,,
null,,black_cross(without_color),708180,green,,,,null,GW/jukebox.jpg,GW/barrel.jpg,,,,,,,,,,,,
null,,rt_plussign_withcolor,708691,green,,,,null,GW/jukebox.jpg,GW/barrel.jpg,,,,,,,,,,,,
1123.4000000357628,,rt_thecrossant_black,709803,black_plus_sign,,,,50,,,1,0.9797979797979798,,,,,,,,,,
null,,color_black,709920,black_plus_sign,,,,null,,,,,,,,,,,,,,
null,,learn_phase(without_color),711926,black_plus_sign,,,,null,GW/wheelchair.jpg,GW/camera.jpg,,,,,,,,,,,,
null,,black_cross(without_color),712903,blue,,,,null,GW/wheelchair.jpg,GW/camera.jpg,,,,,,,,,,,,
null,,rt_plussign_withcolor,713410,blue,,,,null,GW/wheelchair.jpg,GW/camera.jpg,,,,,,,,,,,,
1221.699999988079,,rt_thecrossant_black,714454,black_plus_sign,,,,49,,,1,0.98,,,,,,,,,,
null,,color_black,714567,black_plus_sign,,,,null,,,,,,,,,,,,,,
null,,learn_phase(without_color),716575,black_plus_sign,,,,null,GW/camera.jpg,GW/snail.jpg,,,,,,,,,,,,
null,,black_cross(without_color),717177,green,,,,null,GW/camera.jpg,GW/snail.jpg,,,,,,,,,,,,
null,,rt_plussign_withcolor,717684,green,,,,null,GW/camera.jpg,GW/snail.jpg,,,,,,,,,,,,
1428.0999999642372,,rt_thecrossant_black,719089,black_plus_sign,,,,50,,,1,0.9801980198019802,,,,,,,,,,
null,,color_black,719200,black_plus_sign,,,,null,,,,,,,,,,,,,,
null,,learn_phase(without_color),721205,black_plus_sign,,,,null,GW/snail.jpg,GW/paint.jpg,,,,,,,,,,,,
null,,black_cross(without_color),721930,blue,,,,null,GW/snail.jpg,GW/paint.jpg,,,,,,,,,,,,
null,,rt_plussign_withcolor,722441,blue,,,,null,GW/snail.jpg,GW/paint.jpg,,,,,,,,,,,,
960.4000000357628,,rt_thecrossant_black,723741,black_plus_sign,,,,49,,,1,0.9803921568627451,,,,,,,,,,
null,,color_black,723856,black_plus_sign,,,,null,,,,,,,,,,,,,,
null,,learn_phase(without_color),725863,black_plus_sign,,,,null,GW/globe.jpg,GW/dustpan.jpg,,,,,,,,,,,,
null,,black_cross(without_color),726299,blue,,,,null,GW/globe.jpg,GW/dustpan.jpg,,,,,,,,,,,,
null,,rt_plussign_withcolor,726812,blue,,,,null,GW/globe.jpg,GW/dustpan.jpg,,,,,,,,,,,,
1096.7000000476837,,rt_thecrossant_black,728392,black_plus_sign,,,,49,,,1,0.9805825242718447,,,,,,,,,,
null,,color_black,728503,black_plus_sign,,,,null,,,,,,,,,,,,,,
null,,learn_phase(without_color),730509,black_plus_sign,,,,null,GW/hat.jpg,GW/globe.jpg,,,,,,,,,,,,
null,,black_cross(without_color),731180,blue,,,,null,GW/hat.jpg,GW/globe.jpg,,,,,,,,,,,,
null,,rt_plussign_withcolor,731694,blue,,,,null,GW/hat.jpg,GW/globe.jpg,,,,,,,,,,,,
1095.699999988079,,rt_thecrossant_black,733040,black_plus_sign,,,,49,,,1,0.9807692307692307,,,,,,,,,,
null,,color_black,733150,black_plus_sign,,,,null,,,,,,,,,,,,,,
null,,learn_phase(without_color),735160,black_plus_sign,,,,null,GW/jukebox.jpg,GW/gong.jpg,,,,,,,,,,,,
null,,black_cross(without_color),735990,green,,,,null,GW/jukebox.jpg,GW/gong.jpg,,,,,,,,,,,,
null,,rt_plussign_withcolor,736492,green,,,,null,GW/jukebox.jpg,GW/gong.jpg,,,,,,,,,,,,
1037.300000011921,,rt_thecrossant_black,737673,black_plus_sign,,,,50,,,1,0.9809523809523809,,,,,,,,,,
null,,color_black,737780,black_plus_sign,,,,null,,,,,,,,,,,,,,
null,,learn_phase(without_color),739786,black_plus_sign,,,,null,GW/snail.jpg,GW/soldier.jpg,,,,,,,,,,,,
null,,black_cross(without_color),740485,green,,,,null,GW/snail.jpg,GW/soldier.jpg,,,,,,,,,,,,
null,,rt_plussign_withcolor,741000,green,,,,null,GW/snail.jpg,GW/soldier.jpg,,,,,,,,,,,,
2090.899999976158,,rt_thecrossant_black,742326,black_plus_sign,,,,50,,,1,0.9811320754716981,,,,,,,,,,
null,,color_black,742445,black_plus_sign,,,,null,,,,,,,,,,,,,,
null,,learn_phase(without_color),744456,black_plus_sign,,,,null,GW/jukebox.jpg,GW/barrel.jpg,,,,,,,,,,,,
null,,black_cross(without_color),745559,green,,,,null,GW/jukebox.jpg,GW/barrel.jpg,,,,,,,,,,,,
null,,rt_plussign_withcolor,746063,green,,,,null,GW/jukebox.jpg,GW/barrel.jpg,,,,,,,,,,,,
1021.4000000357628,,rt_thecrossant_black,746980,black_plus_sign,,,,50,,,1,0.9813084112149533,,,,,,,,,,
null,,color_black,747091,black_plus_sign,,,,null,,,,,,,,,,,,,,
null,,learn_phase(without_color),749096,black_plus_sign,,,,null,GW/gong.jpg,GW/hat.jpg,,,,,,,,,,,,
null,,black_cross(without_color),750071,blue,,,,null,GW/gong.jpg,GW/hat.jpg,,,,,,,,,,,,
null,,rt_plussign_withcolor,750576,blue,,,,null,GW/gong.jpg,GW/hat.jpg,,,,,,,,,,,,
null,,rt_thecrossant_black,751622,black_plus_sign,,,,null,,,,0.9813084112149533,,,,,,,,,,
null,,color_black,751731,black_plus_sign,,,,null,,,,,,,,,,,,,,
null,,learn_phase(without_color),753737,black_plus_sign,,,,null,GW/wheelchair.jpg,GW/camera.jpg,,,,,,,,,,,,
null,,black_cross(without_color),754343,green,,,,null,GW/wheelchair.jpg,GW/camera.jpg,,,,,,,,,,,,
null,,rt_plussign_withcolor,754850,green,,,,null,GW/wheelchair.jpg,GW/camera.jpg,,,,,,,,,,,,
1550.699999988079,,rt_thecrossant_black,756262,black_plus_sign,,,,50,,,1,0.9814814814814815,,,,,,,,,,
null,,color_black,756366,black_plus_sign,,,,null,,,,,,,,,,,,,,
null,,learn_phase(without_color),758380,black_plus_sign,,,,null,GW/hat.jpg,GW/teeth.jpg,,,,,,,,,,,,
null,,black_cross(without_color),759234,green,,,,null,GW/hat.jpg,GW/teeth.jpg,,,,,,,,,,,,
null,,rt_plussign_withcolor,759742,green,,,,null,GW/hat.jpg,GW/teeth.jpg,,,,,,,,,,,,
1041.6000000238419,,rt_thecrossant_black,760907,black_plus_sign,,,,50,,,1,0.981651376146789,,,,,,,,,,
null,,color_black,761017,black_plus_sign,,,,null,,,,,,,,,,,,,,
null,,learn_phase(without_color),763024,black_plus_sign,,,,null,GW/gong.jpg,GW/basket.jpg,,,,,,,,,,,,
null,,black_cross(without_color),763769,green,,,,null,GW/gong.jpg,GW/basket.jpg,,,,,,,,,,,,
null,,rt_plussign_withcolor,764280,green,,,,null,GW/gong.jpg,GW/basket.jpg,,,,,,,,,,,,
1021.7000000476837,,rt_thecrossant_black,765556,black_plus_sign,,,,50,,,1,0.9818181818181818,,,,,,,,,,
null,,color_black,765663,black_plus_sign,,,,null,,,,,,,,,,,,,,
null,,learn_phase(without_color),767667,black_plus_sign,,,,null,GW/hat.jpg,GW/globe.jpg,,,,,,,,,,,,
null,,black_cross(without_color),768510,blue,,,,null,GW/hat.jpg,GW/globe.jpg,,,,,,,,,,,,
null,,rt_plussign_withcolor,769013,blue,,,,null,GW/hat.jpg,GW/globe.jpg,,,,,,,,,,,,
1131.5,,rt_thecrossant_black,770193,black_plus_sign,,,,49,,,1,0.9819819819819819,,,,,,,,,,
null,,color_black,770303,black_plus_sign,,,,null,,,,,,,,,,,,,,
null,,learn_phase(without_color),772311,black_plus_sign,,,,null,GW/globe.jpg,GW/basket.jpg,,,,,,,,,,,,
null,,black_cross(without_color),773234,blue,,,,null,GW/globe.jpg,GW/basket.jpg,,,,,,,,,,,,
null,,rt_plussign_withcolor,773744,blue,,,,null,GW/globe.jpg,GW/basket.jpg,,,,,,,,,,,,
1024.9000000357628,,rt_thecrossant_black,774847,black_plus_sign,,,,49,,,1,0.9821428571428571,,,,,,,,,,
null,,color_black,774951,black_plus_sign,,,,null,,,,,,,,,,,,,,
null,,learn_phase(without_color),776961,black_plus_sign,,,,null,GW/globe.jpg,GW/dustpan.jpg,,,,,,,,,,,,
null,,black_cross(without_color),777686,green,,,,null,GW/globe.jpg,GW/dustpan.jpg,,,,,,,,,,,,
null,,rt_plussign_withcolor,778197,green,,,,null,GW/globe.jpg,GW/dustpan.jpg,,,,,,,,,,,,
1270,,rt_thecrossant_black,779486,black_plus_sign,,,,50,,,1,0.9823008849557522,,,,,,,,,,
null,,color_black,779595,black_plus_sign,,,,null,,,,,,,,,,,,,,
null,,learn_phase(without_color),781606,black_plus_sign,,,,null,GW/camera.jpg,GW/jukebox.jpg,,,,,,,,,,,,
null,,black_cross(without_color),782479,green,,,,null,GW/camera.jpg,GW/jukebox.jpg,,,,,,,,,,,,
null,,rt_plussign_withcolor,782986,green,,,,null,GW/camera.jpg,GW/jukebox.jpg,,,,,,,,,,,,
867.8000000119209,,rt_thecrossant_black,784140,black_plus_sign,,,,50,,,1,0.9824561403508771,,,,,,,,,,
null,,color_black,784249,black_plus_sign,,,,null,,,,,,,,,,,,,,
null,,learn_phase(without_color),786255,black_plus_sign,,,,null,GW/hat.jpg,GW/basket.jpg,,,,,,,,,,,,
null,,black_cross(without_color),787275,green,,,,null,GW/hat.jpg,GW/basket.jpg,,,,,,,,,,,,
null,,rt_plussign_withcolor,787788,green,,,,null,GW/hat.jpg,GW/basket.jpg,,,,,,,,,,,,
1042.199999988079,,rt_thecrossant_black,788777,black_plus_sign,,,,50,,,1,0.9826086956521739,,,,,,,,,,
null,,color_black,788888,black_plus_sign,,,,null,,,,,,,,,,,,,,
null,,learn_phase(without_color),790905,black_plus_sign,,,,null,GW/gong.jpg,GW/hat.jpg,,,,,,,,,,,,
null,,black_cross(without_color),791743,blue,,,,null,GW/gong.jpg,GW/hat.jpg,,,,,,,,,,,,
null,,rt_plussign_withcolor,792260,blue,,,,null,GW/gong.jpg,GW/hat.jpg,,,,,,,,,,,,
1403.5999999642372,,rt_thecrossant_black,793440,black_plus_sign,,,,49,,,1,0.9827586206896551,,,,,,,,,,
null,,color_black,793546,black_plus_sign,,,,null,,,,,,,,,,,,,,
null,,learn_phase(without_color),795557,black_plus_sign,,,,null,GW/barrel.jpg,GW/soldier.jpg,,,,,,,,,,,,
null,,black_cross(without_color),796485,green,,,,null,GW/barrel.jpg,GW/soldier.jpg,,,,,,,,,,,,
null,,rt_plussign_withcolor,796990,green,,,,null,GW/barrel.jpg,GW/soldier.jpg,,,,,,,,,,,,
1591.4000000357628,,rt_thecrossant_black,798080,black_plus_sign,,,,50,,,1,0.9829059829059829,,,,,,,,,,
null,,color_black,798189,black_plus_sign,,,,null,,,,,,,,,,,,,,
null,,learn_phase(without_color),800195,black_plus_sign,,,,null,GW/basket.jpg,GW/barrel.jpg,,,,,,,,,,,,
null,,black_cross(without_color),800788,blue,,,,null,GW/basket.jpg,GW/barrel.jpg,,,,,,,,,,,,
null,,rt_plussign_withcolor,801292,blue,,,,null,GW/basket.jpg,GW/barrel.jpg,,,,,,,,,,,,
1385.1000000238419,,rt_thecrossant_black,802715,black_plus_sign,,,,49,,,1,0.9830508474576272,,,,,,,,,,
null,,color_black,802825,black_plus_sign,,,,null,,,,,,,,,,,,,,
null,,learn_phase(without_color),804838,black_plus_sign,,,,null,GW/globe.jpg,GW/basket.jpg,,,,,,,,,,,,
null,,black_cross(without_color),805442,green,,,,null,GW/globe.jpg,GW/basket.jpg,,,,,,,,,,,,
null,,rt_plussign_withcolor,805956,green,,,,null,GW/globe.jpg,GW/basket.jpg,,,,,,,,,,,,
1265.800000011921,,rt_thecrossant_black,807374,black_plus_sign,,,,50,,,1,0.9831932773109243,,,,,,,,,,
null,,color_black,807489,black_plus_sign,,,,null,,,,,,,,,,,,,,
null,,learn_phase(without_color),809496,black_plus_sign,,,,null,GW/barrel.jpg,GW/soldier.jpg,,,,,,,,,,,,
null,,black_cross(without_color),809969,green,,,,null,GW/barrel.jpg,GW/soldier.jpg,,,,,,,,,,,,
null,,rt_plussign_withcolor,810472,green,,,,null,GW/barrel.jpg,GW/soldier.jpg,,,,,,,,,,,,
1198.800000011921,,rt_thecrossant_black,812023,black_plus_sign,,,,50,,,1,0.9833333333333333,,,,,,,,,,
null,,color_black,812133,black_plus_sign,,,,null,,,,,,,,,,,,,,
null,,learn_phase(without_color),814139,black_plus_sign,,,,null,GW/camera.jpg,GW/jukebox.jpg,,,,,,,,,,,,
null,,black_cross(without_color),815127,blue,,,,null,GW/camera.jpg,GW/jukebox.jpg,,,,,,,,,,,,
null,,rt_plussign_withcolor,815638,blue,,,,null,GW/camera.jpg,GW/jukebox.jpg,,,,,,,,,,,,
717.8000000119209,,rt_thecrossant_black,816668,black_plus_sign,,,,49,,,1,0.9834710743801653,,,,,,,,,,
null,,color_black,816777,black_plus_sign,,,,null,,,,,,,,,,,,,,
null,,learn_phase(without_color),818787,black_plus_sign,,,,null,GW/camera.jpg,GW/snail.jpg,,,,,,,,,,,,
null,,black_cross(without_color),819204,blue,,,,null,GW/camera.jpg,GW/snail.jpg,,,,,,,,,,,,
null,,rt_plussign_withcolor,819710,blue,,,,null,GW/camera.jpg,GW/snail.jpg,,,,,,,,,,,,
1508,,rt_thecrossant_black,821319,black_plus_sign,,,,49,,,1,0.9836065573770492,,,,,,,,,,
null,,color_black,821438,black_plus_sign,,,,null,,,,,,,,,,,,,,
null,,learn_phase(without_color),823446,black_plus_sign,,,,null,GW/camera.jpg,GW/jukebox.jpg,,,,,,,,,,,,
null,,black_cross(without_color),824090,green,,,,null,GW/camera.jpg,GW/jukebox.jpg,,,,,,,,,,,,
null,,rt_plussign_withcolor,824606,green,,,,null,GW/camera.jpg,GW/jukebox.jpg,,,,,,,,,,,,
542.8999999761581,,rt_thecrossant_black,825979,black_plus_sign,,,,50,,,1,0.983739837398374,,,,,,,,,,
null,,color_black,826099,black_plus_sign,,,,null,,,,,,,,,,,,,,
null,,learn_phase(without_color),828109,black_plus_sign,,,,null,GW/snail.jpg,GW/paint.jpg,,,,,,,,,,,,
null,,black_cross(without_color),828947,green,,,,null,GW/snail.jpg,GW/paint.jpg,,,,,,,,,,,,
null,,rt_plussign_withcolor,829462,green,,,,null,GW/snail.jpg,GW/paint.jpg,,,,,,,,,,,,
956.9000000357628,,rt_thecrossant_black,830653,black_plus_sign,,,,50,,,1,0.9838709677419355,,,,,,,,,,
null,,color_black,830760,black_plus_sign,,,,null,,,,,,,,,,,,,,
null,,learn_phase(without_color),832765,black_plus_sign,,,,null,GW/jukebox.jpg,GW/gong.jpg,,,,,,,,,,,,
null,,black_cross(without_color),833287,blue,,,,null,GW/jukebox.jpg,GW/gong.jpg,,,,,,,,,,,,
null,,rt_plussign_withcolor,833803,blue,,,,null,GW/jukebox.jpg,GW/gong.jpg,,,,,,,,,,,,
1553.8999999761581,,rt_thecrossant_black,835296,black_plus_sign,,,,49,,,1,0.984,,,,,,,,,,
null,,color_black,835406,black_plus_sign,,,,null,,,,,,,,,,,,,,
48779.30000001192,,intro_1,884190,instruct,,0,Start,,,,,,,,,,,,,,,
2453.2000000476837,,directmemory_phase,886647,GW/globe.jpg,,,,51,,,1,1,GW/jukebox.jpg,GW/teeth.jpg,GW/dustpan.jpg,GW/dustpan.jpg,GW/teeth.jpg,GW/jukebox.jpg,1,,,
null,,html-keyboard-response,887652,<p></p>,,,,null,,,,,,,,,,,,,,
2669.300000011921,,directmemory_phase,890323,GW/camera.jpg,,,,51,,,1,1,GW/teeth.jpg,GW/soldier.jpg,GW/wheelchair.jpg,GW/wheelchair.jpg,GW/soldier.jpg,GW/teeth.jpg,1,,,
null,,html-keyboard-response,891337,<p></p>,,,,null,,,,,,,,,,,,,,
5426.800000011921,,directmemory_phase,896766,GW/soldier.jpg,,,,49,,,0,0.6666666666666666,GW/paint.jpg,GW/barrel.jpg,GW/gong.jpg,GW/barrel.jpg,GW/paint.jpg,GW/gong.jpg,0.5,closer,,
null,,html-keyboard-response,897777,<p></p>,,,,null,,,,,,,,,,,,,,
null,,directmemory_phase,904281,GW/snail.jpg,,,,null,,,0,0.5,GW/paint.jpg,GW/basket.jpg,GW/jukebox.jpg,GW/paint.jpg,GW/jukebox.jpg,GW/basket.jpg,0,,,
null,,html-keyboard-response,905292,<p></p>,,,,null,,,,,,,,,,,,,,
1922.7999999523163,,directmemory_phase,907218,GW/wheelchair.jpg,,,,51,,,1,0.6,GW/basket.jpg,GW/snail.jpg,GW/camera.jpg,GW/camera.jpg,GW/snail.jpg,GW/basket.jpg,1,,,
null,,html-keyboard-response,908234,<p></p>,,,,null,,,,,,,,,,,,,,
1863.300000011921,,directmemory_phase,910100,GW/basket.jpg,,,,49,,,1,0.6666666666666666,GW/barrel.jpg,GW/paint.jpg,GW/jukebox.jpg,GW/barrel.jpg,GW/jukebox.jpg,GW/paint.jpg,1,,,
null,,html-keyboard-response,911118,<p></p>,,,,null,,,,,,,,,,,,,,
2987.400000035763,,directmemory_phase,914108,GW/jukebox.jpg,,,,51,,,1,0.7142857142857143,GW/dustpan.jpg,GW/soldier.jpg,GW/camera.jpg,GW/camera.jpg,GW/soldier.jpg,GW/dustpan.jpg,1,,,
null,,html-keyboard-response,915114,<p></p>,,,,null,,,,,,,,,,,,,,
2261.7000000476837,,directmemory_phase,917379,GW/paint.jpg,,,,50,,,0,0.625,GW/wheelchair.jpg,GW/soldier.jpg,GW/snail.jpg,GW/snail.jpg,GW/soldier.jpg,GW/wheelchair.jpg,0.5,closer,,
null,,html-keyboard-response,918389,<p></p>,,,,null,,,,,,,,,,,,,,
2302.7999999523163,,directmemory_phase,920694,GW/basket.jpg,,,,50,,,1,0.6666666666666666,GW/teeth.jpg,GW/hat.jpg,GW/wheelchair.jpg,GW/hat.jpg,GW/teeth.jpg,GW/wheelchair.jpg,1,,,
null,,html-keyboard-response,921698,<p></p>,,,,null,,,,,,,,,,,,,,
2144.699999988079,,directmemory_phase,923846,GW/camera.jpg,,,,51,,,1,0.7,GW/basket.jpg,GW/paint.jpg,GW/snail.jpg,GW/snail.jpg,GW/paint.jpg,GW/basket.jpg,1,,,
null,,html-keyboard-response,924859,<p></p>,,,,null,,,,,,,,,,,,,,
2285.199999988079,,directmemory_phase,927147,GW/jukebox.jpg,,,,50,,,0,0.6363636363636364,GW/gong.jpg,GW/dustpan.jpg,GW/snail.jpg,GW/gong.jpg,GW/snail.jpg,GW/dustpan.jpg,0.5,closer,,
null,,html-keyboard-response,928155,<p></p>,,,,null,,,,,,,,,,,,,,
3121.199999988079,,directmemory_phase,931278,GW/globe.jpg,,,,50,,,0,0.5833333333333334,GW/hat.jpg,GW/soldier.jpg,GW/barrel.jpg,GW/hat.jpg,GW/barrel.jpg,GW/soldier.jpg,0.5,closer,,
null,,html-keyboard-response,932284,<p></p>,,,,null,,,,,,,,,,,,,,
2851.899999976158,,directmemory_phase,935138,GW/camera.jpg,,,,51,,,1,0.6153846153846154,GW/globe.jpg,GW/paint.jpg,GW/jukebox.jpg,GW/jukebox.jpg,GW/paint.jpg,GW/globe.jpg,1,,,
null,,html-keyboard-response,936155,<p></p>,,,,null,,,,,,,,,,,,,,
2397.400000035763,,directmemory_phase,938555,GW/basket.jpg,,,,49,,,1,0.6428571428571429,GW/gong.jpg,GW/paint.jpg,GW/jukebox.jpg,GW/gong.jpg,GW/jukebox.jpg,GW/paint.jpg,1,,,
null,,html-keyboard-response,939569,<p></p>,,,,null,,,,,,,,,,,,,,
1935.9000000357628,,directmemory_phase,941507,GW/hat.jpg,,,,49,,,1,0.6666666666666666,GW/teeth.jpg,GW/wheelchair.jpg,GW/dustpan.jpg,GW/teeth.jpg,GW/dustpan.jpg,GW/wheelchair.jpg,1,,,
null,,html-keyboard-response,942512,<p></p>,,,,null,,,,,,,,,,,,,,
2571.2999999523163,,directmemory_phase,945086,GW/dustpan.jpg,,,,50,,,0,0.625,GW/jukebox.jpg,GW/hat.jpg,GW/globe.jpg,GW/globe.jpg,GW/hat.jpg,GW/jukebox.jpg,0.5,closer,,
null,,html-keyboard-response,946100,<p></p>,,,,null,,,,,,,,,,,,,,
2346.5,,directmemory_phase,948449,GW/gong.jpg,,,,51,,,0,0.5882352941176471,GW/basket.jpg,GW/wheelchair.jpg,GW/globe.jpg,GW/basket.jpg,GW/globe.jpg,GW/wheelchair.jpg,0.5,closer,,
null,,html-keyboard-response,949457,<p></p>,,,,null,,,,,,,,,,,,,,
1886.0999999642372,,directmemory_phase,951346,GW/snail.jpg,,,,49,,,1,0.6111111111111112,GW/soldier.jpg,GW/globe.jpg,GW/barrel.jpg,GW/soldier.jpg,GW/barrel.jpg,GW/globe.jpg,1,,,
null,,html-keyboard-response,952360,<p></p>,,,,null,,,,,,,,,,,,,,
3051.2000000476837,,directmemory_phase,955414,GW/gong.jpg,,,,51,,,0,0.5789473684210527,GW/teeth.jpg,GW/jukebox.jpg,GW/paint.jpg,GW/jukebox.jpg,GW/teeth.jpg,GW/paint.jpg,0.5,closer,,
null,,html-keyboard-response,956419,<p></p>,,,,null,,,,,,,,,,,,,,
2426.400000035763,,directmemory_phase,958849,GW/basket.jpg,,,,50,,,0,0.55,GW/globe.jpg,GW/snail.jpg,GW/teeth.jpg,GW/globe.jpg,GW/teeth.jpg,GW/snail.jpg,0.5,closer,,
null,,html-keyboard-response,959863,<p></p>,,,,null,,,,,,,,,,,,,,
2678.099999964237,,directmemory_phase,962545,GW/hat.jpg,,,,49,,,1,0.5714285714285714,GW/gong.jpg,GW/snail.jpg,GW/jukebox.jpg,GW/gong.jpg,GW/jukebox.jpg,GW/snail.jpg,1,,,
null,,html-keyboard-response,963564,<p></p>,,,,null,,,,,,,,,,,,,,
3412,,directmemory_phase,966979,GW/barrel.jpg,,,,51,,,0,0.5454545454545454,GW/hat.jpg,GW/basket.jpg,GW/dustpan.jpg,GW/basket.jpg,GW/hat.jpg,GW/dustpan.jpg,0.5,closer,,
null,,html-keyboard-response,967988,<p></p>,,,,null,,,,,,,,,,,,,,
4730.900000035763,,directmemory_phase,972720,GW/snail.jpg,,,,50,,,1,0.5652173913043478,GW/wheelchair.jpg,GW/camera.jpg,GW/globe.jpg,GW/camera.jpg,GW/wheelchair.jpg,GW/globe.jpg,1,,,
null,,html-keyboard-response,973736,<p></p>,,,,null,,,,,,,,,,,,,,
3564.899999976158,,directmemory_phase,977303,GW/barrel.jpg,,,,50,,,0,0.5416666666666666,GW/paint.jpg,GW/hat.jpg,GW/soldier.jpg,GW/soldier.jpg,GW/hat.jpg,GW/paint.jpg,0.5,closer,,
null,,html-keyboard-response,978315,<p></p>,,,,null,,,,,,,,,,,,,,
2757.400000035763,,directmemory_phase,981075,GW/globe.jpg,,,,49,,,0,0.52,GW/gong.jpg,GW/basket.jpg,GW/jukebox.jpg,GW/basket.jpg,GW/gong.jpg,GW/jukebox.jpg,0.5,closer,,
null,,html-keyboard-response,982088,<p></p>,,,,null,,,,,,,,,,,,,,
2349,,directmemory_phase,984441,GW/jukebox.jpg,,,,50,,,1,0.5384615384615384,GW/snail.jpg,GW/barrel.jpg,GW/dustpan.jpg,GW/barrel.jpg,GW/snail.jpg,GW/dustpan.jpg,1,,,
null,,html-keyboard-response,985452,<p></p>,,,,null,,,,,,,,,,,,,,
4097.899999976158,,directmemory_phase,989555,GW/teeth.jpg,,,,49,,,1,0.5555555555555556,GW/hat.jpg,GW/barrel.jpg,GW/globe.jpg,GW/hat.jpg,GW/globe.jpg,GW/barrel.jpg,1,,,
null,,html-keyboard-response,990564,<p></p>,,,,null,,,,,,,,,,,,,,
2421.099999964237,,directmemory_phase,992989,GW/soldier.jpg,,,,50,,,1,0.5714285714285714,GW/paint.jpg,GW/snail.jpg,GW/wheelchair.jpg,GW/snail.jpg,GW/paint.jpg,GW/wheelchair.jpg,1,,,
null,,html-keyboard-response,993996,<p></p>,,,,null,,,,,,,,,,,,,,
3207.199999988079,,directmemory_phase,997205,GW/gong.jpg,,,,51,,,0,0.5517241379310345,GW/hat.jpg,GW/snail.jpg,GW/barrel.jpg,GW/hat.jpg,GW/barrel.jpg,GW/snail.jpg,0.5,closer,,
null,,html-keyboard-response,998224,<p></p>,,,,null,,,,,,,,,,,,,,
2517.300000011921,,directmemory_phase,1000744,GW/barrel.jpg,,,,49,,,0,0.5333333333333333,GW/teeth.jpg,GW/gong.jpg,GW/jukebox.jpg,GW/jukebox.jpg,GW/gong.jpg,GW/teeth.jpg,0.5,closer,,
null,,html-keyboard-response,1001754,<p></p>,,,,null,,,,,,,,,,,,,,
2120.699999988079,,directmemory_phase,1003877,GW/hat.jpg,,,,50,,,1,0.5483870967741935,GW/jukebox.jpg,GW/basket.jpg,GW/wheelchair.jpg,GW/basket.jpg,GW/jukebox.jpg,GW/wheelchair.jpg,1,,,
null,,html-keyboard-response,1004884,<p></p>,,,,null,,,,,,,,,,,,,,
null,,directmemory_phase,1011396,,,,,null,,,0,0.53125,,,,,,,0,,,
null,,html-keyboard-response,1012404,<p></p>,,,,null,,,,,,,,,,,,,,
66959,,intro_1,1079366,instruct,,0,,,,,,,,,,,,,,,,
35694.10000002384,,intro_2,1115063,instruct,,1,Next,,,,,,,,,,,,,,,
3720.699999988079,,intro_3,1118786,instruct,,1,Next,,,,,,,,,,,,,,,
5619.600000023842,,intro_4,1124409,instruct,,1,Next,,,,,,,,,,,,,,,
58457.19999998808,,intro_5,1182850,instruct,,1,Next,,,,,,,,,,,,,,,
29421.80000001192,,intro_6,1212276,instruct,,1,Next,,,,,,,,,,,,,,,
15833.599999964237,,intro_7,1228114,instruct,,0,Previous,,,,,,,,,,,,,,,
16224.600000023842,,intro_6,1244343,instruct,,1,Next,,,,,,,,,,,,,,,
8052.600000023842,,intro_7,1252400,instruct,,1,Next,,,,,,,,,,,,,,,
10514.200000047684,,intro_8,1262918,instruct,,0,Previous,,,,,,,,,,,,,,,
11293.099999964237,,intro_7,1274215,instruct,,0,Previous,,,,,,,,,,,,,,,
3237.899999976158,,intro_6,1277458,instruct,,0,Previous,,,,,,,,,,,,,,,
1577,,intro_5,1279039,instruct,,0,Previous,,,,,,,,,,,,,,,
1554.199999988079,,intro_4,1280599,instruct,,0,Previous,,,,,,,,,,,,,,,
10400.199999988079,,intro_3,1291003,instruct,,1,Next,,,,,,,,,,,,,,,
7071.800000011921,,intro_4,1298079,instruct,,1,Next,,,,,,,,,,,,,,,
15252,,intro_5,1313336,instruct,,1,Next,,,,,,,,,,,,,,,
9906.199999988079,,intro_6,1323247,instruct,,1,Next,,,,,,,,,,,,,,,
4730.300000011921,,intro_7,1327981,instruct,,1,Next,,,,,,,,,,,,,,,
21369.600000023842,,intro_8,1349355,instruct,,1,Next,,,,,,,,,,,,,,,
4293.599999964237,,shortestpath_phase,1353652,GW/teeth.jpg,,,,49,GW/snail.jpg,GW/paint.jpg,1,1,,,,GW/snail.jpg,,,,,One Edge Diff,Five Edge Six Edge
null,,html-keyboard-response,1354659,<p></p>,,,,null,,,,,,,,,,,,,,
4120.799999952316,,shortestpath_phase,1358782,GW/dustpan.jpg,,,,49,GW/wheelchair.jpg,GW/basket.jpg,0,0.5,,,,GW/basket.jpg,,,,,Four Edge Diff,Two Edge Six Edge
null,,html-keyboard-response,1359791,<p></p>,,,,null,,,,,,,,,,,,,,
3625.600000023842,,shortestpath_phase,1363419,GW/snail.jpg,,,,50,GW/jukebox.jpg,GW/basket.jpg,0,0.3333333333333333,,,,GW/jukebox.jpg,,,,,One Edge Diff,Two Edge Three Edge
null,,html-keyboard-response,1364432,<p></p>,,,,null,,,,,,,,,,,,,,
2992.600000023842,,shortestpath_phase,1367427,GW/wheelchair.jpg,,,,50,GW/soldier.jpg,GW/teeth.jpg,0,0.25,,,,GW/soldier.jpg,,,,,Two Edge Diff,Three Edge Five Edge
null,,html-keyboard-response,1368442,<p></p>,,,,null,,,,,,,,,,,,,,
2734.399999976158,,shortestpath_phase,1371179,GW/dustpan.jpg,,,,49,GW/soldier.jpg,GW/gong.jpg,0,0.2,,,,GW/gong.jpg,,,,,One Edge Diff,Three Edge Four Edge
null,,html-keyboard-response,1372186,<p></p>,,,,null,,,,,,,,,,,,,,
1948.2000000476837,,shortestpath_phase,1374136,GW/wheelchair.jpg,,,,50,GW/jukebox.jpg,GW/teeth.jpg,0,0.16666666666666666,,,,GW/jukebox.jpg,,,,,Three Edge Diff,Two Edge Five Edge
null,,html-keyboard-response,1375141,<p></p>,,,,null,,,,,,,,,,,,,,
2424.5,,shortestpath_phase,1377568,GW/dustpan.jpg,,,,49,GW/snail.jpg,GW/paint.jpg,1,0.2857142857142857,,,,GW/snail.jpg,,,,,One Edge Diff,Five Edge Six Edge
null,,html-keyboard-response,1378574,<p></p>,,,,null,,,,,,,,,,,,,,
4763.800000011921,,shortestpath_phase,1383341,GW/wheelchair.jpg,,,,49,GW/basket.jpg,GW/dustpan.jpg,1,0.375,,,,GW/basket.jpg,,,,,Two Edge Diff,Four Edge Six Edge
null,,html-keyboard-response,1384346,<p></p>,,,,null,,,,,,,,,,,,,,
3260.400000035763,,shortestpath_phase,1387609,GW/snail.jpg,,,,49,GW/hat.jpg,GW/jukebox.jpg,0,0.3333333333333333,,,,GW/jukebox.jpg,,,,,Two Edge Diff,Two Edge Four Edge
null,,html-keyboard-response,1388619,<p></p>,,,,null,,,,,,,,,,,,,,
3087,,shortestpath_phase,1391708,GW/hat.jpg,,,,50,GW/paint.jpg,GW/wheelchair.jpg,1,0.4,,,,GW/wheelchair.jpg,,,,,One Edge Diff,Four Edge Five Edge
null,,html-keyboard-response,1392728,<p></p>,,,,null,,,,,,,,,,,,,,
2845.7000000476837,,shortestpath_phase,1395577,GW/camera.jpg,,,,50,GW/dustpan.jpg,GW/basket.jpg,1,0.45454545454545453,,,,GW/basket.jpg,,,,,Two Edge Diff,Three Edge Five Edge
null,,html-keyboard-response,1396596,<p></p>,,,,null,,,,,,,,,,,,,,
2525.899999976158,,shortestpath_phase,1399124,GW/paint.jpg,,,,50,GW/teeth.jpg,GW/soldier.jpg,1,0.5,,,,GW/soldier.jpg,,,,,Four Edge Diff,Two Edge Six Edge
null,,html-keyboard-response,1400128,<p></p>,,,,null,,,,,,,,,,,,,,
3418,,shortestpath_phase,1403548,GW/teeth.jpg,,,,49,GW/basket.jpg,GW/snail.jpg,1,0.5384615384615384,,,,GW/basket.jpg,,,,,Three Edge Diff,Three Edge Six Edge
null,,html-keyboard-response,1404561,<p></p>,,,,null,,,,,,,,,,,,,,
3189.199999988079,,shortestpath_phase,1407753,GW/soldier.jpg,,,,49,GW/jukebox.jpg,GW/teeth.jpg,1,0.5714285714285714,,,,GW/jukebox.jpg,,,,,Two Edge Diff,Two Edge Four Edge
null,,html-keyboard-response,1408762,<p></p>,,,,null,,,,,,,,,,,,,,
2559.7000000476837,,shortestpath_phase,1411324,GW/dustpan.jpg,,,,49,GW/basket.jpg,GW/paint.jpg,1,0.6,,,,GW/basket.jpg,,,,,Four Edge Diff,Two Edge Six Edge
null,,html-keyboard-response,1412332,<p></p>,,,,null,,,,,,,,,,,,,,
2086.199999988079,,shortestpath_phase,1414420,GW/wheelchair.jpg,,,,49,GW/dustpan.jpg,GW/jukebox.jpg,0,0.5625,,,,GW/jukebox.jpg,,,,,Four Edge Diff,Two Edge Six Edge
null,,html-keyboard-response,1415427,<p></p>,,,,null,,,,,,,,,,,,,,
1906,,shortestpath_phase,1417336,GW/paint.jpg,,,,50,GW/dustpan.jpg,GW/basket.jpg,1,0.5882352941176471,,,,GW/basket.jpg,,,,,Two Edge Diff,Four Edge Six Edge
null,,html-keyboard-response,1418350,<p></p>,,,,null,,,,,,,,,,,,,,
3308.399999976158,,shortestpath_phase,1421661,GW/camera.jpg,,,,50,GW/dustpan.jpg,GW/barrel.jpg,1,0.6111111111111112,,,,GW/barrel.jpg,,,,,Three Edge Diff,Three Edge Six Edge
null,,html-keyboard-response,1422672,<p></p>,,,,null,,,,,,,,,,,,,,
2820.2000000476837,,shortestpath_phase,1425494,GW/paint.jpg,,,,50,GW/teeth.jpg,GW/basket.jpg,1,0.631578947368421,,,,GW/basket.jpg,,,,,Two Edge Diff,Four Edge Six Edge
null,,html-keyboard-response,1426506,<p></p>,,,,null,,,,,,,,,,,,,,
2336.199999988079,,shortestpath_phase,1428845,GW/snail.jpg,,,,50,GW/jukebox.jpg,GW/dustpan.jpg,0,0.6,,,,GW/jukebox.jpg,,,,,Three Edge Diff,Three Edge Six Edge
null,,html-keyboard-response,1429858,<p></p>,,,,null,,,,,,,,,,,,,,
2527.300000011921,,shortestpath_phase,1432388,GW/paint.jpg,,,,49,GW/gong.jpg,GW/globe.jpg,1,0.6190476190476191,,,,GW/gong.jpg,,,,,One Edge Diff,Four Edge Five Edge
null,,html-keyboard-response,1433407,<p></p>,,,,null,,,,,,,,,,,,,,
3127,,shortestpath_phase,1436537,GW/dustpan.jpg,,,,49,GW/basket.jpg,GW/barrel.jpg,1,0.6363636363636364,,,,GW/basket.jpg,,,,,One Edge Diff,Two Edge Three Edge
null,,html-keyboard-response,1437542,<p></p>,,,,null,,,,,,,,,,,,,,
2787.800000011921,,shortestpath_phase,1440332,GW/gong.jpg,,,,49,GW/barrel.jpg,GW/dustpan.jpg,1,0.6521739130434783,,,,GW/barrel.jpg,,,,,One Edge Diff,Two Edge Three Edge
null,,html-keyboard-response,1441345,<p></p>,,,,null,,,,,,,,,,,,,,
2517,,shortestpath_phase,1443865,GW/globe.jpg,,,,50,GW/soldier.jpg,GW/wheelchair.jpg,0,0.625,,,,GW/soldier.jpg,,,,,Two Edge Diff,Three Edge Five Edge
null,,html-keyboard-response,1444876,<p></p>,,,,null,,,,,,,,,,,,,,
3123.899999976158,,shortestpath_phase,1448003,GW/dustpan.jpg,,,,50,GW/paint.jpg,GW/jukebox.jpg,1,0.64,,,,GW/jukebox.jpg,,,,,Two Edge Diff,Four Edge Six Edge
null,,html-keyboard-response,1449009,<p></p>,,,,null,,,,,,,,,,,,,,
1985.199999988079,,shortestpath_phase,1450997,GW/teeth.jpg,,,,49,GW/wheelchair.jpg,GW/gong.jpg,0,0.6153846153846154,,,,GW/gong.jpg,,,,,Three Edge Diff,Three Edge Six Edge
null,,html-keyboard-response,1452002,<p></p>,,,,null,,,,,,,,,,,,,,
3768.7999999523163,,shortestpath_phase,1455774,GW/soldier.jpg,,,,50,GW/basket.jpg,GW/hat.jpg,0,0.5925925925925926,,,,GW/basket.jpg,,,,,One Edge Diff,Two Edge Three Edge
null,,html-keyboard-response,1456781,<p></p>,,,,null,,,,,,,,,,,,,,
1301.6000000238419,,shortestpath_phase,1458085,GW/paint.jpg,,,,50,GW/dustpan.jpg,GW/globe.jpg,1,0.6071428571428571,,,,GW/globe.jpg,,,,,One Edge Diff,Five Edge Six Edge
null,,html-keyboard-response,1459089,<p></p>,,,,null,,,,,,,,,,,,,,
2438.600000023842,,shortestpath_phase,1461531,GW/dustpan.jpg,,,,50,GW/soldier.jpg,GW/hat.jpg,1,0.6206896551724138,,,,GW/hat.jpg,,,,,Two Edge Diff,Two Edge Four Edge
null,,html-keyboard-response,1462535,<p></p>,,,,null,,,,,,,,,,,,,,
2275.399999976158,,shortestpath_phase,1464814,GW/teeth.jpg,,,,49,GW/wheelchair.jpg,GW/gong.jpg,0,0.6,,,,GW/gong.jpg,,,,,Three Edge Diff,Two Edge Five Edge
null,,html-keyboard-response,1465819,<p></p>,,,,null,,,,,,,,,,,,,,
1148.5,,shortestpath_phase,1466970,GW/wheelchair.jpg,,,,49,GW/snail.jpg,GW/dustpan.jpg,1,0.6129032258064516,,,,GW/snail.jpg,,,,,Four Edge Diff,Two Edge Six Edge
null,,html-keyboard-response,1467983,<p></p>,,,,null,,,,,,,,,,,,,,
1712.300000011921,,shortestpath_phase,1469697,GW/teeth.jpg,,,,50,GW/paint.jpg,GW/globe.jpg,1,0.625,,,,GW/globe.jpg,,,,,Four Edge Diff,Two Edge Six Edge
null,,html-keyboard-response,1470713,<p></p>,,,,null,,,,,,,,,,,,,,
1046.9000000357628,,shortestpath_phase,1471763,GW/paint.jpg,,,,49,GW/gong.jpg,GW/dustpan.jpg,1,0.6363636363636364,,,,GW/gong.jpg,,,,,Two Edge Diff,Four Edge Six Edge
null,,html-keyboard-response,1472779,<p></p>,,,,null,,,,,,,,,,,,,,
1690.8999999761581,,shortestpath_phase,1474472,GW/teeth.jpg,,,,49,GW/wheelchair.jpg,GW/globe.jpg,0,0.6176470588235294,,,,GW/globe.jpg,,,,,Three Edge Diff,Two Edge Five Edge
null,,html-keyboard-response,1475481,<p></p>,,,,null,,,,,,,,,,,,,,
1573.8999999761581,,shortestpath_phase,1477057,GW/snail.jpg,,,,50,GW/barrel.jpg,GW/teeth.jpg,0,0.6,,,,GW/barrel.jpg,,,,,Three Edge Diff,Two Edge Five Edge
null,,html-keyboard-response,1478070,<p></p>,,,,null,,,,,,,,,,,,,,
1363.4000000357628,,shortestpath_phase,1479437,GW/paint.jpg,,,,49,GW/camera.jpg,GW/dustpan.jpg,1,0.6111111111111112,,,,GW/camera.jpg,,,,,Four Edge Diff,Two Edge Six Edge
null,,html-keyboard-response,1480450,<p></p>,,,,null,,,,,,,,,,,,,,
1656.300000011921,,shortestpath_phase,1482109,GW/globe.jpg,,,,49,GW/barrel.jpg,GW/snail.jpg,1,0.6216216216216216,,,,GW/barrel.jpg,,,,,Two Edge Diff,Two Edge Four Edge
null,,html-keyboard-response,1483121,<p></p>,,,,null,,,,,,,,,,,,,,
1868.5,,shortestpath_phase,1484992,GW/camera.jpg,,,,49,GW/teeth.jpg,GW/dustpan.jpg,1,0.631578947368421,,,,GW/teeth.jpg,,,,,One Edge Diff,Four Edge Five Edge
null,,html-keyboard-response,1486003,<p></p>,,,,null,,,,,,,,,,,,,,
1502.699999988079,,shortestpath_phase,1487508,GW/paint.jpg,,,,50,GW/hat.jpg,GW/teeth.jpg,0,0.6153846153846154,,,,GW/hat.jpg,,,,,One Edge Diff,Five Edge Six Edge
null,,html-keyboard-response,1488520,<p></p>,,,,null,,,,,,,,,,,,,,
1465.7999999523163,,shortestpath_phase,1489989,GW/teeth.jpg,,,,50,GW/wheelchair.jpg,GW/dustpan.jpg,1,0.625,,,,GW/dustpan.jpg,,,,,Two Edge Diff,Three Edge Five Edge
null,,html-keyboard-response,1490997,<p></p>,,,,null,,,,,,,,,,,,,,
1940.699999988079,,shortestpath_phase,1492941,GW/wheelchair.jpg,,,,49,GW/gong.jpg,GW/teeth.jpg,1,0.6341463414634146,,,,GW/gong.jpg,,,,,Two Edge Diff,Three Edge Five Edge
null,,html-keyboard-response,1493953,<p></p>,,,,null,,,,,,,,,,,,,,
835.6999999880791,,shortestpath_phase,1494792,GW/camera.jpg,,,,49,GW/paint.jpg,GW/dustpan.jpg,1,0.6428571428571429,,,,GW/paint.jpg,,,,,Three Edge Diff,Two Edge Five Edge
null,,html-keyboard-response,1495798,<p></p>,,,,null,,,,,,,,,,,,,,
1123.300000011921,,shortestpath_phase,1496924,GW/dustpan.jpg,,,,49,GW/wheelchair.jpg,GW/soldier.jpg,0,0.627906976744186,,,,GW/soldier.jpg,,,,,Two Edge Diff,Four Edge Six Edge
null,,html-keyboard-response,1497936,<p></p>,,,,null,,,,,,,,,,,,,,
1088.0999999642372,,shortestpath_phase,1499026,GW/paint.jpg,,,,50,GW/wheelchair.jpg,GW/globe.jpg,0,0.6136363636363636,,,,GW/wheelchair.jpg,,,,,Two Edge Diff,Three Edge Five Edge
null,,html-keyboard-response,1500035,<p></p>,,,,null,,,,,,,,,,,,,,
1993.5,,shortestpath_phase,1502031,GW/camera.jpg,,,,50,GW/hat.jpg,GW/gong.jpg,1,0.6222222222222222,,,,GW/gong.jpg,,,,,One Edge Diff,Two Edge Three Edge
null,,html-keyboard-response,1503044,<p></p>,,,,null,,,,,,,,,,,,,,
2220.7000000476837,,shortestpath_phase,1505268,GW/globe.jpg,,,,49,GW/barrel.jpg,GW/paint.jpg,1,0.6304347826086957,,,,GW/barrel.jpg,,,,,Three Edge Diff,Three Edge Six Edge
null,,html-keyboard-response,1506272,<p></p>,,,,null,,,,,,,,,,,,,,
1887.800000011921,,shortestpath_phase,1508163,GW/hat.jpg,,,,49,GW/dustpan.jpg,GW/paint.jpg,1,0.6382978723404256,,,,GW/dustpan.jpg,,,,,Three Edge Diff,Three Edge Six Edge
null,,html-keyboard-response,1509173,<p></p>,,,,null,,,,,,,,,,,,,,
1579.5,,shortestpath_phase,1510756,GW/soldier.jpg,,,,50,GW/paint.jpg,GW/dustpan.jpg,0,0.625,,,,GW/paint.jpg,,,,,Two Edge Diff,Two Edge Four Edge
null,,html-keyboard-response,1511766,<p></p>,,,,null,,,,,,,,,,,,,,
3453.199999988079,,shortestpath_phase,1515223,GW/barrel.jpg,,,,49,GW/wheelchair.jpg,GW/hat.jpg,0,0.6122448979591837,,,,GW/hat.jpg,,,,,One Edge Diff,Two Edge Three Edge
null,,html-keyboard-response,1516232,<p></p>,,,,null,,,,,,,,,,,,,,
3134.899999976158,,shortestpath_phase,1519369,GW/paint.jpg,,,,50,GW/dustpan.jpg,GW/soldier.jpg,1,0.62,,,,GW/soldier.jpg,,,,,Four Edge Diff,Two Edge Six Edge
null,,html-keyboard-response,1520379,<p></p>,,,,null,,,,,,,,,,,,,,
3021.199999988079,,shortestpath_phase,1523402,GW/teeth.jpg,,,,50,GW/camera.jpg,GW/jukebox.jpg,1,0.6274509803921569,,,,GW/jukebox.jpg,,,,,One Edge Diff,Three Edge Four Edge
null,,html-keyboard-response,1524421,<p></p>,,,,null,,,,,,,,,,,,,,
1556.800000011921,,shortestpath_phase,1525981,GW/wheelchair.jpg,,,,49,GW/globe.jpg,GW/snail.jpg,0,0.6153846153846154,,,,GW/snail.jpg,,,,,Three Edge Diff,Three Edge Six Edge
null,,html-keyboard-response,1526995,<p></p>,,,,null,,,,,,,,,,,,,,
1251.3999999761581,,shortestpath_phase,1528249,GW/teeth.jpg,,,,50,GW/camera.jpg,GW/snail.jpg,0,0.6037735849056604,,,,GW/camera.jpg,,,,,One Edge Diff,Four Edge Five Edge
null,,html-keyboard-response,1529255,<p></p>,,,,null,,,,,,,,,,,,,,
1255.800000011921,,shortestpath_phase,1530514,GW/dustpan.jpg,,,,50,GW/gong.jpg,GW/snail.jpg,0,0.5925925925925926,,,,GW/gong.jpg,,,,,Two Edge Diff,Three Edge Five Edge
null,,html-keyboard-response,1531519,<p></p>,,,,null,,,,,,,,,,,,,,
1250.7999999523163,,shortestpath_phase,1532772,GW/teeth.jpg,,,,49,GW/snail.jpg,GW/soldier.jpg,0,0.5818181818181818,,,,GW/soldier.jpg,,,,,One Edge Diff,Four Edge Five Edge
null,,html-keyboard-response,1533777,<p></p>,,,,null,,,,,,,,,,,,,,
1078.5,,shortestpath_phase,1534859,GW/dustpan.jpg,,,,49,GW/snail.jpg,GW/hat.jpg,0,0.5714285714285714,,,,GW/hat.jpg,,,,,Three Edge Diff,Two Edge Five Edge
null,,html-keyboard-response,1535868,<p></p>,,,,null,,,,,,,,,,,,,,
1240,,shortestpath_phase,1537110,GW/wheelchair.jpg,,,,49,GW/paint.jpg,GW/teeth.jpg,1,0.5789473684210527,,,,GW/paint.jpg,,,,,Two Edge Diff,Three Edge Five Edge
null,,html-keyboard-response,1538117,<p></p>,,,,null,,,,,,,,,,,,,,
845.6999999880791,,shortestpath_phase,1538965,GW/dustpan.jpg,,,,50,GW/snail.jpg,GW/basket.jpg,1,0.5862068965517241,,,,GW/basket.jpg,,,,,Three Edge Diff,Three Edge Six Edge
null,,html-keyboard-response,1539975,<p></p>,,,,null,,,,,,,,,,,,,,
2447.300000011921,,shortestpath_phase,1542425,GW/paint.jpg,,,,50,GW/dustpan.jpg,GW/hat.jpg,1,0.5932203389830508,,,,GW/hat.jpg,,,,,One Edge Diff,Five Edge Six Edge
null,,html-keyboard-response,1543433,<p></p>,,,,null,,,,,,,,,,,,,,
862.9000000357628,,shortestpath_phase,1544299,GW/barrel.jpg,,,,49,GW/wheelchair.jpg,GW/globe.jpg,0,0.5833333333333334,,,,GW/globe.jpg,,,,,One Edge Diff,Two Edge Three Edge
null,,html-keyboard-response,1545304,<p></p>,,,,null,,,,,,,,,,,,,,
3272.699999988079,,shortestpath_phase,1548579,GW/snail.jpg,,,,50,GW/wheelchair.jpg,GW/teeth.jpg,0,0.5737704918032787,,,,GW/wheelchair.jpg,,,,,Three Edge Diff,Two Edge Five Edge
null,,html-keyboard-response,1549595,<p></p>,,,,null,,,,,,,,,,,,,,
1479.4000000357628,,shortestpath_phase,1551077,GW/dustpan.jpg,,,,50,GW/camera.jpg,GW/wheelchair.jpg,0,0.5645161290322581,,,,GW/camera.jpg,,,,,One Edge Diff,Five Edge Six Edge
null,,html-keyboard-response,1552082,<p></p>,,,,null,,,,,,,,,,,,,,
2180.7000000476837,,shortestpath_phase,1554265,GW/globe.jpg,,,,49,GW/barrel.jpg,GW/soldier.jpg,1,0.5714285714285714,,,,GW/barrel.jpg,,,,,One Edge Diff,Two Edge Three Edge
null,,html-keyboard-response,1555270,<p></p>,,,,null,,,,,,,,,,,,,,
1582.2999999523163,,shortestpath_phase,1556855,GW/wheelchair.jpg,,,,49,GW/globe.jpg,GW/snail.jpg,0,0.5625,,,,GW/snail.jpg,,,,,Three Edge Diff,Two Edge Five Edge
null,,html-keyboard-response,1557868,<p></p>,,,,null,,,,,,,,,,,,,,
1094.5999999642372,,shortestpath_phase,1558966,GW/hat.jpg,,,,50,GW/soldier.jpg,GW/snail.jpg,0,0.5538461538461539,,,,GW/soldier.jpg,,,,,One Edge Diff,Three Edge Four Edge
null,,html-keyboard-response,1559971,<p></p>,,,,null,,,,,,,,,,,,,,
2973.800000011921,,shortestpath_phase,1562948,GW/wheelchair.jpg,,,,50,GW/globe.jpg,GW/jukebox.jpg,1,0.5606060606060606,,,,GW/jukebox.jpg,,,,,Three Edge Diff,Three Edge Six Edge
null,,html-keyboard-response,1563959,<p></p>,,,,null,,,,,,,,,,,,,,
1794,,shortestpath_phase,1565756,GW/hat.jpg,,,,49,GW/snail.jpg,GW/paint.jpg,1,0.5671641791044776,,,,GW/snail.jpg,,,,,One Edge Diff,Four Edge Five Edge
null,,html-keyboard-response,1566767,<p></p>,,,,null,,,,,,,,,,,,,,
1826.699999988079,,shortestpath_phase,1568597,GW/wheelchair.jpg,,,,49,GW/hat.jpg,GW/jukebox.jpg,0,0.5588235294117647,,,,GW/jukebox.jpg,,,,,Two Edge Diff,Two Edge Four Edge
null,,html-keyboard-response,1569608,<p></p>,,,,null,,,,,,,,,,,,,,
2330.099999964237,,shortestpath_phase,1571941,GW/dustpan.jpg,,,,50,GW/hat.jpg,GW/wheelchair.jpg,0,0.5507246376811594,,,,GW/hat.jpg,,,,,Four Edge Diff,Two Edge Six Edge
null,,html-keyboard-response,1572950,<p></p>,,,,null,,,,,,,,,,,,,,
3014.5,,shortestpath_phase,1575967,GW/globe.jpg,,,,49,GW/wheelchair.jpg,GW/barrel.jpg,0,0.5428571428571428,,,,GW/barrel.jpg,,,,,Three Edge Diff,Two Edge Five Edge
null,,html-keyboard-response,1576987,<p></p>,,,,null,,,,,,,,,,,,,,
2270.099999964237,,shortestpath_phase,1579260,GW/hat.jpg,,,,50,GW/dustpan.jpg,GW/soldier.jpg,0,0.5352112676056338,,,,GW/dustpan.jpg,,,,,One Edge Diff,Two Edge Three Edge
null,,html-keyboard-response,1580273,<p></p>,,,,null,,,,,,,,,,,,,,
2246.600000023842,,shortestpath_phase,1582522,GW/wheelchair.jpg,,,,49,GW/teeth.jpg,GW/dustpan.jpg,1,0.5416666666666666,,,,GW/teeth.jpg,,,,,One Edge Diff,Five Edge Six Edge
null,,html-keyboard-response,1583534,<p></p>,,,,null,,,,,,,,,,,,,,
2124.699999988079,,shortestpath_phase,1585661,GW/globe.jpg,,,,50,GW/jukebox.jpg,GW/snail.jpg,0,0.5342465753424658,,,,GW/jukebox.jpg,,,,,One Edge Diff,Three Edge Four Edge
null,,html-keyboard-response,1586673,<p></p>,,,,null,,,,,,,,,,,,,,
2357.300000011921,,shortestpath_phase,1589033,GW/teeth.jpg,,,,49,GW/basket.jpg,GW/paint.jpg,1,0.5405405405405406,,,,GW/basket.jpg,,,,,Four Edge Diff,Two Edge Six Edge
null,,html-keyboard-response,1590038,<p></p>,,,,null,,,,,,,,,,,,,,
2718.2000000476837,,shortestpath_phase,1592759,GW/snail.jpg,,,,49,GW/teeth.jpg,GW/jukebox.jpg,0,0.5333333333333333,,,,GW/jukebox.jpg,,,,,Three Edge Diff,Two Edge Five Edge
null,,html-keyboard-response,1593779,<p></p>,,,,null,,,,,,,,,,,,,,
1964.5,,shortestpath_phase,1595746,GW/camera.jpg,,,,50,GW/hat.jpg,GW/globe.jpg,0,0.5263157894736842,,,,GW/hat.jpg,,,,,One Edge Diff,Three Edge Four Edge
null,,html-keyboard-response,1596753,<p></p>,,,,null,,,,,,,,,,,,,,
3635.2000000476837,,shortestpath_phase,1600391,GW/soldier.jpg,,,,50,GW/wheelchair.jpg,GW/teeth.jpg,0,0.5194805194805194,,,,GW/wheelchair.jpg,,,,,One Edge Diff,Three Edge Four Edge
null,,html-keyboard-response,1601402,<p></p>,,,,null,,,,,,,,,,,,,,
2621.7999999523163,,shortestpath_phase,1604027,GW/basket.jpg,,,,49,GW/camera.jpg,GW/wheelchair.jpg,1,0.5256410256410257,,,,GW/camera.jpg,,,,,One Edge Diff,Three Edge Four Edge
null,,html-keyboard-response,1605039,<p></p>,,,,null,,,,,,,,,,,,,,
1818,,shortestpath_phase,1606860,GW/snail.jpg,,,,50,GW/globe.jpg,GW/gong.jpg,1,0.5316455696202531,,,,GW/gong.jpg,,,,,One Edge Diff,Three Edge Four Edge
null,,html-keyboard-response,1607870,<p></p>,,,,null,,,,,,,,,,,,,,
1687.6000000238419,,shortestpath_phase,1609561,GW/basket.jpg,,,,49,GW/paint.jpg,GW/teeth.jpg,0,0.525,,,,GW/teeth.jpg,,,,,Two Edge Diff,Two Edge Four Edge
null,,html-keyboard-response,1610568,<p></p>,,,,null,,,,,,,,,,,,,,
3594.199999988079,,shortestpath_phase,1614166,GW/paint.jpg,,,,49,GW/camera.jpg,GW/teeth.jpg,1,0.5308641975308642,,,,GW/camera.jpg,,,,,Four Edge Diff,Two Edge Six Edge
null,,html-keyboard-response,1615176,<p></p>,,,,null,,,,,,,,,,,,,,
3376.399999976158,,shortestpath_phase,1618554,GW/teeth.jpg,,,,50,GW/paint.jpg,GW/gong.jpg,1,0.5365853658536586,,,,GW/gong.jpg,,,,,Four Edge Diff,Two Edge Six Edge
null,,html-keyboard-response,1619569,<p></p>,,,,null,,,,,,,,,,,,,,
2215.2000000476837,,shortestpath_phase,1621787,GW/wheelchair.jpg,,,,50,GW/globe.jpg,GW/dustpan.jpg,0,0.5301204819277109,,,,GW/globe.jpg,,,,,One Edge Diff,Five Edge Six Edge
null,,html-keyboard-response,1622798,<p></p>,,,,null,,,,,,,,,,,,,,
1946.0999999642372,,shortestpath_phase,1624746,GW/snail.jpg,,,,49,GW/hat.jpg,GW/teeth.jpg,1,0.5357142857142857,,,,GW/hat.jpg,,,,,One Edge Diff,Four Edge Five Edge
null,,html-keyboard-response,1625766,<p></p>,,,,null,,,,,,,,,,,,,,
1835,,shortestpath_phase,1627604,GW/wheelchair.jpg,,,,49,GW/teeth.jpg,GW/jukebox.jpg,0,0.5294117647058824,,,,GW/jukebox.jpg,,,,,Three Edge Diff,Three Edge Six Edge
null,,html-keyboard-response,1628614,<p></p>,,,,null,,,,,,,,,,,,,,
1188.199999988079,,shortestpath_phase,1629805,GW/dustpan.jpg,,,,50,GW/jukebox.jpg,GW/teeth.jpg,1,0.5348837209302325,,,,GW/teeth.jpg,,,,,One Edge Diff,Three Edge Four Edge
null,,html-keyboard-response,1630815,<p></p>,,,,null,,,,,,,,,,,,,,
2336.7999999523163,,shortestpath_phase,1633155,GW/soldier.jpg,,,,49,GW/paint.jpg,GW/teeth.jpg,1,0.5402298850574713,,,,GW/paint.jpg,,,,,Two Edge Diff,Two Edge Four Edge
null,,html-keyboard-response,1634168,<p></p>,,,,null,,,,,,,,,,,,,,
2422.5,,shortestpath_phase,1636594,GW/camera.jpg,,,,49,GW/globe.jpg,GW/dustpan.jpg,1,0.5454545454545454,,,,GW/globe.jpg,,,,,One Edge Diff,Four Edge Five Edge
null,,html-keyboard-response,1637613,<p></p>,,,,null,,,,,,,,,,,,,,
2446.100000023842,,shortestpath_phase,1640063,GW/teeth.jpg,,,,50,GW/camera.jpg,GW/barrel.jpg,1,0.550561797752809,,,,GW/barrel.jpg,,,,,One Edge Diff,Three Edge Four Edge
null,,html-keyboard-response,1641074,<p></p>,,,,null,,,,,,,,,,,,,,
3310.099999964237,,shortestpath_phase,1644387,GW/snail.jpg,,,,50,GW/dustpan.jpg,GW/hat.jpg,1,0.5555555555555556,,,,GW/hat.jpg,,,,,One Edge Diff,Four Edge Five Edge
null,,html-keyboard-response,1645405,<p></p>,,,,null,,,,,,,,,,,,,,
3862.300000011921,,shortestpath_phase,1649270,GW/globe.jpg,,,,49,GW/camera.jpg,GW/teeth.jpg,0,0.5494505494505495,,,,GW/teeth.jpg,,,,,Two Edge Diff,Two Edge Four Edge
null,,html-keyboard-response,1650277,<p></p>,,,,null,,,,,,,,,,,,,,
3477.599999964237,,shortestpath_phase,1653757,GW/wheelchair.jpg,,,,49,GW/hat.jpg,GW/dustpan.jpg,1,0.5543478260869565,,,,GW/hat.jpg,,,,,Two Edge Diff,Four Edge Six Edge
null,,html-keyboard-response,1654763,<p></p>,,,,null,,,,,,,,,,,,,,
1544.4000000357628,,shortestpath_phase,1656310,GW/dustpan.jpg,,,,49,GW/snail.jpg,GW/jukebox.jpg,0,0.5483870967741935,,,,GW/jukebox.jpg,,,,,One Edge Diff,Four Edge Five Edge
null,,html-keyboard-response,1657327,<p></p>,,,,null,,,,,,,,,,,,,,
5083.300000011921,,shortestpath_phase,1662413,GW/camera.jpg,,,,49,GW/soldier.jpg,GW/dustpan.jpg,1,0.5531914893617021,,,,GW/soldier.jpg,,,,,Three Edge Diff,Three Edge Six Edge
null,,html-keyboard-response,1663419,<p></p>,,,,null,,,,,,,,,,,,,,
2939.899999976158,,shortestpath_phase,1666362,GW/paint.jpg,,,,50,GW/hat.jpg,GW/jukebox.jpg,1,0.5578947368421052,,,,GW/jukebox.jpg,,,,,Two Edge Diff,Three Edge Five Edge
null,,html-keyboard-response,1667376,<p></p>,,,,null,,,,,,,,,,,,,,
3943.699999988079,,shortestpath_phase,1671323,GW/teeth.jpg,,,,50,GW/snail.jpg,GW/gong.jpg,1,0.5625,,,,GW/gong.jpg,,,,,Three Edge Diff,Three Edge Six Edge
null,,html-keyboard-response,1672331,<p></p>,,,,null,,,,,,,,,,,,,,
1422.1000000238419,,shortestpath_phase,1673757,GW/wheelchair.jpg,,,,49,GW/barrel.jpg,GW/jukebox.jpg,0,0.5567010309278351,,,,GW/jukebox.jpg,,,,,One Edge Diff,Two Edge Three Edge
null,,html-keyboard-response,1674772,<p></p>,,,,null,,,,,,,,,,,,,,
2879.699999988079,,shortestpath_phase,1677655,GW/globe.jpg,,,,50,GW/paint.jpg,GW/gong.jpg,1,0.5612244897959183,,,,GW/gong.jpg,,,,,Three Edge Diff,Two Edge Five Edge
null,,html-keyboard-response,1678674,<p></p>,,,,null,,,,,,,,,,,,,,
1741.300000011921,,shortestpath_phase,1680418,GW/wheelchair.jpg,,,,49,GW/globe.jpg,GW/barrel.jpg,0,0.5555555555555556,,,,GW/barrel.jpg,,,,,Two Edge Diff,Three Edge Five Edge
null,,html-keyboard-response,1681423,<p></p>,,,,null,,,,,,,,,,,,,,
1176.1000000238419,,shortestpath_phase,1682603,GW/hat.jpg,,,,49,GW/snail.jpg,GW/dustpan.jpg,0,0.55,,,,GW/dustpan.jpg,,,,,Two Edge Diff,Two Edge Four Edge
null,,html-keyboard-response,1683617,<p></p>,,,,null,,,,,,,,,,,,,,
2518.5,,shortestpath_phase,1686139,GW/wheelchair.jpg,,,,49,GW/teeth.jpg,GW/basket.jpg,0,0.5445544554455446,,,,GW/basket.jpg,,,,,One Edge Diff,Four Edge Five Edge
null,,html-keyboard-response,1687155,<p></p>,,,,null,,,,,,,,,,,,,,
2256.2000000476837,,shortestpath_phase,1689414,GW/soldier.jpg,,,,49,GW/globe.jpg,GW/paint.jpg,0,0.5392156862745098,,,,GW/paint.jpg,,,,,One Edge Diff,Two Edge Three Edge
null,,html-keyboard-response,1690423,<p></p>,,,,null,,,,,,,,,,,,,,
2999,,shortestpath_phase,1693425,GW/teeth.jpg,,,,50,GW/paint.jpg,GW/wheelchair.jpg,1,0.5436893203883495,,,,GW/wheelchair.jpg,,,,,One Edge Diff,Five Edge Six Edge
null,,html-keyboard-response,1694435,<p></p>,,,,null,,,,,,,,,,,,,,
3775.300000011921,,shortestpath_phase,1698213,GW/paint.jpg,,,,49,GW/camera.jpg,GW/hat.jpg,1,0.5480769230769231,,,,GW/camera.jpg,,,,,Three Edge Diff,Two Edge Five Edge
null,,html-keyboard-response,1699222,<p></p>,,,,null,,,,,,,,,,,,,,
1843.300000011921,,shortestpath_phase,1701069,GW/dustpan.jpg,,,,49,GW/wheelchair.jpg,GW/snail.jpg,0,0.5428571428571428,,,,GW/snail.jpg,,,,,One Edge Diff,Five Edge Six Edge
null,,html-keyboard-response,1702078,<p></p>,,,,null,,,,,,,,,,,,,,
3239.600000023842,,shortestpath_phase,1705320,GW/teeth.jpg,,,,50,GW/paint.jpg,GW/camera.jpg,1,0.5471698113207547,,,,GW/camera.jpg,,,,,Two Edge Diff,Four Edge Six Edge
null,,html-keyboard-response,1706329,<p></p>,,,,null,,,,,,,,,,,,,,
2092,,shortestpath_phase,1708424,GW/gong.jpg,,,,50,GW/paint.jpg,GW/snail.jpg,1,0.5514018691588785,,,,GW/snail.jpg,,,,,One Edge Diff,Three Edge Four Edge
null,,html-keyboard-response,1709442,<p></p>,,,,null,,,,,,,,,,,,,,
1896.6000000238419,,shortestpath_phase,1711342,GW/dustpan.jpg,,,,50,GW/camera.jpg,GW/paint.jpg,0,0.5462962962962963,,,,GW/camera.jpg,,,,,One Edge Diff,Five Edge Six Edge
null,,html-keyboard-response,1712346,<p></p>,,,,null,,,,,,,,,,,,,,
4855.600000023842,,shortestpath_phase,1717204,GW/paint.jpg,,,,50,GW/hat.jpg,GW/barrel.jpg,1,0.5504587155963303,,,,GW/barrel.jpg,,,,,Two Edge Diff,Three Edge Five Edge
null,,html-keyboard-response,1718217,<p></p>,,,,null,,,,,,,,,,,,,,
1972.800000011921,,shortestpath_phase,1720193,GW/jukebox.jpg,,,,49,GW/snail.jpg,GW/dustpan.jpg,1,0.5545454545454546,,,,GW/snail.jpg,,,,,Two Edge Diff,Two Edge Four Edge
null,,html-keyboard-response,1721201,<p></p>,,,,null,,,,,,,,,,,,,,
2559.900000035763,,shortestpath_phase,1723764,GW/paint.jpg,,,,49,GW/teeth.jpg,GW/gong.jpg,0,0.5495495495495496,,,,GW/gong.jpg,,,,,Two Edge Diff,Four Edge Six Edge
null,,html-keyboard-response,1724783,<p></p>,,,,null,,,,,,,,,,,,,,
3903.300000011921,,shortestpath_phase,1728689,GW/soldier.jpg,,,,50,GW/dustpan.jpg,GW/wheelchair.jpg,1,0.5535714285714286,,,,GW/wheelchair.jpg,,,,,One Edge Diff,Three Edge Four Edge
null,,html-keyboard-response,1729698,<p></p>,,,,null,,,,,,,,,,,,,,
2473.800000011921,,shortestpath_phase,1732175,GW/dustpan.jpg,,,,49,GW/hat.jpg,GW/paint.jpg,1,0.5575221238938053,,,,GW/hat.jpg,,,,,Four Edge Diff,Two Edge Six Edge
null,,html-keyboard-response,1733194,<p></p>,,,,null,,,,,,,,,,,,,,
1031.800000011921,,shortestpath_phase,1734229,GW/globe.jpg,,,,50,GW/wheelchair.jpg,GW/jukebox.jpg,1,0.5614035087719298,,,,GW/jukebox.jpg,,,,,Two Edge Diff,Three Edge Five Edge
null,,html-keyboard-response,1735242,<p></p>,,,,null,,,,,,,,,,,,,,
1630.5999999642372,,shortestpath_phase,1736876,GW/teeth.jpg,,,,50,GW/soldier.jpg,GW/paint.jpg,0,0.5565217391304348,,,,GW/soldier.jpg,,,,,Two Edge Diff,Four Edge Six Edge
null,,html-keyboard-response,1737894,<p></p>,,,,null,,,,,,,,,,,,,,
1503.8999999761581,,shortestpath_phase,1739401,GW/globe.jpg,,,,49,GW/camera.jpg,GW/barrel.jpg,0,0.5517241379310345,,,,GW/barrel.jpg,,,,,Two Edge Diff,Two Edge Four Edge
null,,html-keyboard-response,1740406,<p></p>,,,,null,,,,,,,,,,,,,,
1985.5,,shortestpath_phase,1742395,GW/dustpan.jpg,,,,49,GW/wheelchair.jpg,GW/jukebox.jpg,0,0.5470085470085471,,,,GW/jukebox.jpg,,,,,Two Edge Diff,Four Edge Six Edge
null,,html-keyboard-response,1743400,<p></p>,,,,null,,,,,,,,,,,,,,
1631.699999988079,,shortestpath_phase,1745035,GW/paint.jpg,,,,49,GW/teeth.jpg,GW/globe.jpg,0,0.5423728813559322,,,,GW/globe.jpg,,,,,One Edge Diff,Five Edge Six Edge
null,,html-keyboard-response,1746051,<p></p>,,,,null,,,,,,,,,,,,,,
2162.899999976158,,shortestpath_phase,1748216,GW/soldier.jpg,,,,49,GW/jukebox.jpg,GW/wheelchair.jpg,1,0.5462184873949579,,,,GW/jukebox.jpg,,,,,One Edge Diff,Two Edge Three Edge
null,,html-keyboard-response,1749233,<p></p>,,,,null,,,,,,,,,,,,,,
1144.800000011921,,shortestpath_phase,1750381,GW/snail.jpg,,,,50,GW/globe.jpg,GW/dustpan.jpg,0,0.5416666666666666,,,,GW/globe.jpg,,,,,One Edge Diff,Four Edge Five Edge
null,,html-keyboard-response,1751393,<p></p>,,,,null,,,,,,,,,,,,,,
2312.599999964237,,shortestpath_phase,1753708,GW/dustpan.jpg,,,,50,GW/paint.jpg,GW/soldier.jpg,1,0.5454545454545454,,,,GW/soldier.jpg,,,,,Two Edge Diff,Four Edge Six Edge
null,,html-keyboard-response,1754728,<p></p>,,,,null,,,,,,,,,,,,,,
19523.80000001192,,intro_1,1774255,instruct,,0,,,,,,,,,,,,,,,,
24440.399999976158,,intro_2,1798700,instruct,,1,Next,,,,,,,,,,,,,,,
7377.599999964237,,intro_3,1806083,instruct,,1,Next,,,,,,,,,,,,,,,
