rt,responses,trial_type,time_elapsed,stimulus,graphorder,button_pressed,response,key_press,stimulus_left,stimulus_right,accuracy,cumulative_accuracy,stimulus_down_left,stimulus_down_mid,stimulus_down_right,stimulus_correct,stimulus_short,stimulus_far,weighted_accuracy,missedtrial,condition,specific_pairs
19316.5,{worker_id:67f24d9d37225c87ef8b09c4},id_enter,19323,id_enter,GW/globe.jpg; GW/barrel.jpg; GW/snail.jpg; GW/soldier.jpg; GW/gong.jpg; GW/hat.jpg; GW/jukebox.jpg; GW/basket.jpg; GW/teeth.jpg; GW/dustpan.jpg; GW/wheelchair.jpg; GW/paint.jpg; GW/camera.jpg,,,,,,,,,,,,,,,,,
3330.399999976158,,fullscreen,22676,fullscreen,,0,,,,,,,,,,,,,,,,
3716.600000023842,,intro_1,26395,instruct,,0,,,,,,,,,,,,,,,,
20909.699999928474,,intro_2,47309,instruct,,1,Next,,,,,,,,,,,,,,,
24377.800000071526,,intro_3,71689,instruct,,1,Next,,,,,,,,,,,,,,,
null,,learn_prac_1,73692,lean_prac_1,,,,null,,,,,,,,,,,,,,
null,,html-keyboard-response,74698,<p></p>,,,,null,,,,,,,,,,,,,,
7480.299999952316,,intro_1,82180,instruct,,0,,,,,,,,,,,,,,,,
12835,,intro_2,95017,instruct,,1,Next,,,,,,,,,,,,,,,
null,,learn_prac_2,97024,lean_prac_2,,,,null,,,,,,,,,,,,,,
null,,html-keyboard-response,98032,<p></p>,,,,null,,,,,,,,,,,,,,
7377.299999952316,,intro_1,105411,instruct,,0,,,,,,,,,,,,,,,,
7226.399999976158,,intro_2,112640,instruct,,1,Next,,,,,,,,,,,,,,,
12127.600000023842,,intro_3,124771,instruct,,1,Next,,,,,,,,,,,,,,,
null,,prac_atten_color_black,125562,black_plus_sign,,,,null,,,,,,,,,,,,,,
null,,prac_atten_color,126194,prac_stop_color,,,,null,,,,,,,,,,,,,,
126.20000004768372,,prac_atten_color_black,128198,black_plus_sign,,,,49,,,,,,,,,,,,,,
null,,prac_atten_color_black,128983,black_plus_sign,,,,null,,,,,,,,,,,,,,
null,,prac_atten_color,129452,prac_stop_color,,,,null,,,,,,,,,,,,,,
49.10000002384186,,prac_atten_color_black,131462,black_plus_sign,,,,50,,,,,,,,,,,,,,
null,,prac_atten_color_black,132403,black_plus_sign,,,,null,,,,,,,,,,,,,,
null,,prac_atten_color,132974,prac_stop_color,,,,null,,,,,,,,,,,,,,
47,,prac_atten_color_black,134989,black_plus_sign,,,,50,,,,,,,,,,,,,,
null,,prac_atten_color_black,135830,black_plus_sign,,,,null,,,,,,,,,,,,,,
null,,prac_atten_color,136506,prac_stop_color,,,,null,,,,,,,,,,,,,,
108,,prac_atten_color_black,138515,black_plus_sign,,,,49,,,,,,,,,,,,,,
null,,prac_atten_color_black,139249,black_plus_sign,,,,null,,,,,,,,,,,,,,
556.6000000238419,,prac_atten_color,140290,prac_stop_color,,,,50,,,,,,,,,,,,,,
null,,prac_atten_color_black,142294,black_plus_sign,,,,null,,,,,,,,,,,,,,
null,,prac_atten_color_black,142663,black_plus_sign,,,,null,,,,,,,,,,,,,,
null,,prac_atten_color,143416,prac_stop_color,,,,null,,,,,,,,,,,,,,
577.2000000476837,,prac_atten_color_black,145422,black_plus_sign,,,,50,,,,,,,,,,,,,,
null,,prac_atten_color_black,146081,black_plus_sign,,,,null,,,,,,,,,,,,,,
490.10000002384186,,prac_atten_color,146593,prac_stop_color,,,,49,,,,,,,,,,,,,,
null,,prac_atten_color_black,148596,black_plus_sign,,,,null,,,,,,,,,,,,,,
null,,prac_atten_color_black,149501,black_plus_sign,,,,null,,,,,,,,,,,,,,
752.5,,prac_atten_color,150257,prac_stop_color,,,,50,,,,,,,,,,,,,,
null,,prac_atten_color_black,152262,black_plus_sign,,,,null,,,,,,,,,,,,,,
null,,prac_atten_color_black,152915,black_plus_sign,,,,null,,,,,,,,,,,,,,
null,,prac_atten_color,153460,prac_stop_color,,,,null,,,,,,,,,,,,,,
815.7000000476837,,prac_atten_color_black,155469,black_plus_sign,,,,49,,,,,,,,,,,,,,
null,,prac_atten_color_black,156344,black_plus_sign,,,,null,,,,,,,,,,,,,,
652.8000000715256,,prac_atten_color,157043,prac_stop_color,,,,49,,,,,,,,,,,,,,
null,,prac_atten_color_black,159049,black_plus_sign,,,,null,,,,,,,,,,,,,,
110170.30000007153,,attentioncheck_feedback,269221,cross_check_feedback,,0,,,,,,,,,,,,,,,,
9938,,last_instruct,279161,instruct,,,,32,,,,,,,,,,,,,,
null,,learn_phase(without_color),281171,black_plus_sign,,,,null,GW/wheelchair.jpg,GW/paint.jpg,,,,,,,,,,,,
null,,black_cross(without_color),281854,blue,,,,null,GW/wheelchair.jpg,GW/paint.jpg,,,,,,,,,,,,
458.7000000476837,,rt_plussign_withcolor,282370,blue,,,,49,GW/wheelchair.jpg,GW/paint.jpg,,,,,,,,,,,,
null,,rt_thecrossant_black,283694,black_plus_sign,,,,null,,,1,1,,,,,,,,,,
null,,color_black,283803,black_plus_sign,,,,null,,,,,,,,,,,,,,
null,,learn_phase(without_color),285808,black_plus_sign,,,,null,GW/soldier.jpg,GW/paint.jpg,,,,,,,,,,,,
null,,black_cross(without_color),286665,green,,,,null,GW/soldier.jpg,GW/paint.jpg,,,,,,,,,,,,
367.2000000476837,,rt_plussign_withcolor,287174,green,,,,50,GW/soldier.jpg,GW/paint.jpg,,,,,,,,,,,,
null,,rt_thecrossant_black,288323,black_plus_sign,,,,null,,,1,1,,,,,,,,,,
null,,color_black,288433,black_plus_sign,,,,null,,,,,,,,,,,,,,
null,,learn_phase(without_color),290440,black_plus_sign,,,,null,GW/basket.jpg,GW/teeth.jpg,,,,,,,,,,,,
null,,black_cross(without_color),291072,green,,,,null,GW/basket.jpg,GW/teeth.jpg,,,,,,,,,,,,
null,,rt_plussign_withcolor,291577,green,,,,null,GW/basket.jpg,GW/teeth.jpg,,,,,,,,,,,,
1158.5,,rt_thecrossant_black,292962,black_plus_sign,,,,50,,,1,1,,,,,,,,,,
null,,color_black,293072,black_plus_sign,,,,null,,,,,,,,,,,,,,
null,,learn_phase(without_color),295080,black_plus_sign,,,,null,GW/hat.jpg,GW/teeth.jpg,,,,,,,,,,,,
null,,black_cross(without_color),295557,green,,,,null,GW/hat.jpg,GW/teeth.jpg,,,,,,,,,,,,
null,,rt_plussign_withcolor,296063,green,,,,null,GW/hat.jpg,GW/teeth.jpg,,,,,,,,,,,,
806.1000000238419,,rt_thecrossant_black,297598,black_plus_sign,,,,50,,,1,1,,,,,,,,,,
null,,color_black,297708,black_plus_sign,,,,null,,,,,,,,,,,,,,
null,,learn_phase(without_color),299714,black_plus_sign,,,,null,GW/basket.jpg,GW/dustpan.jpg,,,,,,,,,,,,
null,,black_cross(without_color),300492,blue,,,,null,GW/basket.jpg,GW/dustpan.jpg,,,,,,,,,,,,
null,,rt_plussign_withcolor,301002,blue,,,,null,GW/basket.jpg,GW/dustpan.jpg,,,,,,,,,,,,
642.8999999761581,,rt_thecrossant_black,302243,black_plus_sign,,,,49,,,1,1,,,,,,,,,,
null,,color_black,302350,black_plus_sign,,,,null,,,,,,,,,,,,,,
null,,learn_phase(without_color),304360,black_plus_sign,,,,null,GW/jukebox.jpg,GW/basket.jpg,,,,,,,,,,,,
null,,black_cross(without_color),304834,green,,,,null,GW/jukebox.jpg,GW/basket.jpg,,,,,,,,,,,,
null,,rt_plussign_withcolor,305340,green,,,,null,GW/jukebox.jpg,GW/basket.jpg,,,,,,,,,,,,
1014.2000000476837,,rt_thecrossant_black,306872,black_plus_sign,,,,50,,,1,1,,,,,,,,,,
null,,color_black,306980,black_plus_sign,,,,null,,,,,,,,,,,,,,
null,,learn_phase(without_color),308994,black_plus_sign,,,,null,GW/barrel.jpg,GW/snail.jpg,,,,,,,,,,,,
null,,black_cross(without_color),309572,blue,,,,null,GW/barrel.jpg,GW/snail.jpg,,,,,,,,,,,,
null,,rt_plussign_withcolor,310080,blue,,,,null,GW/barrel.jpg,GW/snail.jpg,,,,,,,,,,,,
702.3999999761581,,rt_thecrossant_black,311515,black_plus_sign,,,,49,,,1,1,,,,,,,,,,
null,,color_black,311633,black_plus_sign,,,,null,,,,,,,,,,,,,,
null,,learn_phase(without_color),313639,black_plus_sign,,,,null,GW/wheelchair.jpg,GW/paint.jpg,,,,,,,,,,,,
null,,black_cross(without_color),314378,blue,,,,null,GW/wheelchair.jpg,GW/paint.jpg,,,,,,,,,,,,
null,,rt_plussign_withcolor,314894,blue,,,,null,GW/wheelchair.jpg,GW/paint.jpg,,,,,,,,,,,,
734.7999999523163,,rt_thecrossant_black,316167,black_plus_sign,,,,49,,,1,1,,,,,,,,,,
null,,color_black,316285,black_plus_sign,,,,null,,,,,,,,,,,,,,
null,,learn_phase(without_color),318294,black_plus_sign,,,,null,GW/snail.jpg,GW/hat.jpg,,,,,,,,,,,,
null,,black_cross(without_color),318837,green,,,,null,GW/snail.jpg,GW/hat.jpg,,,,,,,,,,,,
null,,rt_plussign_withcolor,319344,green,,,,null,GW/snail.jpg,GW/hat.jpg,,,,,,,,,,,,
931.1000000238419,,rt_thecrossant_black,320814,black_plus_sign,,,,50,,,1,1,,,,,,,,,,
null,,color_black,320924,black_plus_sign,,,,null,,,,,,,,,,,,,,
null,,learn_phase(without_color),322931,black_plus_sign,,,,null,GW/snail.jpg,GW/wheelchair.jpg,,,,,,,,,,,,
null,,black_cross(without_color),324019,green,,,,null,GW/snail.jpg,GW/wheelchair.jpg,,,,,,,,,,,,
null,,rt_plussign_withcolor,324528,green,,,,null,GW/snail.jpg,GW/wheelchair.jpg,,,,,,,,,,,,
715,,rt_thecrossant_black,325463,black_plus_sign,,,,50,,,1,1,,,,,,,,,,
null,,color_black,325569,black_plus_sign,,,,null,,,,,,,,,,,,,,
null,,learn_phase(without_color),327575,black_plus_sign,,,,null,GW/jukebox.jpg,GW/basket.jpg,,,,,,,,,,,,
null,,black_cross(without_color),328153,green,,,,null,GW/jukebox.jpg,GW/basket.jpg,,,,,,,,,,,,
null,,rt_plussign_withcolor,328668,green,,,,null,GW/jukebox.jpg,GW/basket.jpg,,,,,,,,,,,,
1332.3999999761581,,rt_thecrossant_black,330104,black_plus_sign,,,,50,,,1,1,,,,,,,,,,
null,,color_black,330213,black_plus_sign,,,,null,,,,,,,,,,,,,,
null,,learn_phase(without_color),332220,black_plus_sign,,,,null,GW/hat.jpg,GW/teeth.jpg,,,,,,,,,,,,
null,,black_cross(without_color),332912,blue,,,,null,GW/hat.jpg,GW/teeth.jpg,,,,,,,,,,,,
null,,rt_plussign_withcolor,333427,blue,,,,null,GW/hat.jpg,GW/teeth.jpg,,,,,,,,,,,,
741.7000000476837,,rt_thecrossant_black,334739,black_plus_sign,,,,49,,,1,1,,,,,,,,,,
null,,color_black,334857,black_plus_sign,,,,null,,,,,,,,,,,,,,
null,,learn_phase(without_color),336860,black_plus_sign,,,,null,GW/basket.jpg,GW/teeth.jpg,,,,,,,,,,,,
null,,black_cross(without_color),337639,blue,,,,null,GW/basket.jpg,GW/teeth.jpg,,,,,,,,,,,,
null,,rt_plussign_withcolor,338156,blue,,,,null,GW/basket.jpg,GW/teeth.jpg,,,,,,,,,,,,
832.6000000238419,,rt_thecrossant_black,339393,black_plus_sign,,,,49,,,1,1,,,,,,,,,,
null,,color_black,339502,black_plus_sign,,,,null,,,,,,,,,,,,,,
null,,learn_phase(without_color),341512,black_plus_sign,,,,null,GW/jukebox.jpg,GW/basket.jpg,,,,,,,,,,,,
null,,black_cross(without_color),342194,green,,,,null,GW/jukebox.jpg,GW/basket.jpg,,,,,,,,,,,,
null,,rt_plussign_withcolor,342704,green,,,,null,GW/jukebox.jpg,GW/basket.jpg,,,,,,,,,,,,
1089.8000000715256,,rt_thecrossant_black,344035,black_plus_sign,,,,50,,,1,1,,,,,,,,,,
null,,color_black,344144,black_plus_sign,,,,null,,,,,,,,,,,,,,
null,,learn_phase(without_color),346155,black_plus_sign,,,,null,GW/snail.jpg,GW/wheelchair.jpg,,,,,,,,,,,,
null,,black_cross(without_color),346849,green,,,,null,GW/snail.jpg,GW/wheelchair.jpg,,,,,,,,,,,,
null,,rt_plussign_withcolor,347363,green,,,,null,GW/snail.jpg,GW/wheelchair.jpg,,,,,,,,,,,,
865.9000000953674,,rt_thecrossant_black,348677,black_plus_sign,,,,50,,,1,1,,,,,,,,,,
null,,color_black,348786,black_plus_sign,,,,null,,,,,,,,,,,,,,
null,,learn_phase(without_color),350795,black_plus_sign,,,,null,GW/jukebox.jpg,GW/camera.jpg,,,,,,,,,,,,
null,,black_cross(without_color),351386,blue,,,,null,GW/jukebox.jpg,GW/camera.jpg,,,,,,,,,,,,
null,,rt_plussign_withcolor,351900,blue,,,,null,GW/jukebox.jpg,GW/camera.jpg,,,,,,,,,,,,
822.8999999761581,,rt_thecrossant_black,353320,black_plus_sign,,,,49,,,1,1,,,,,,,,,,
null,,color_black,353429,black_plus_sign,,,,null,,,,,,,,,,,,,,
null,,learn_phase(without_color),355438,black_plus_sign,,,,null,GW/snail.jpg,GW/hat.jpg,,,,,,,,,,,,
null,,black_cross(without_color),355860,green,,,,null,GW/snail.jpg,GW/hat.jpg,,,,,,,,,,,,
null,,rt_plussign_withcolor,356362,green,,,,null,GW/snail.jpg,GW/hat.jpg,,,,,,,,,,,,
846.7999999523163,,rt_thecrossant_black,357952,black_plus_sign,,,,50,,,1,1,,,,,,,,,,
null,,color_black,358061,black_plus_sign,,,,null,,,,,,,,,,,,,,
null,,learn_phase(without_color),360064,black_plus_sign,,,,null,GW/snail.jpg,GW/wheelchair.jpg,,,,,,,,,,,,
null,,black_cross(without_color),361127,green,,,,null,GW/snail.jpg,GW/wheelchair.jpg,,,,,,,,,,,,
null,,rt_plussign_withcolor,361637,green,,,,null,GW/snail.jpg,GW/wheelchair.jpg,,,,,,,,,,,,
636.6999999284744,,rt_thecrossant_black,362589,black_plus_sign,,,,50,,,1,1,,,,,,,,,,
null,,color_black,362698,black_plus_sign,,,,null,,,,,,,,,,,,,,
null,,learn_phase(without_color),364704,black_plus_sign,,,,null,GW/jukebox.jpg,GW/camera.jpg,,,,,,,,,,,,
null,,black_cross(without_color),365670,green,,,,null,GW/jukebox.jpg,GW/camera.jpg,,,,,,,,,,,,
null,,rt_plussign_withcolor,366179,green,,,,null,GW/jukebox.jpg,GW/camera.jpg,,,,,,,,,,,,
1294.7999999523163,,rt_thecrossant_black,367229,black_plus_sign,,,,50,,,1,1,,,,,,,,,,
null,,color_black,367339,black_plus_sign,,,,null,,,,,,,,,,,,,,
null,,learn_phase(without_color),369348,black_plus_sign,,,,null,GW/basket.jpg,GW/dustpan.jpg,,,,,,,,,,,,
null,,black_cross(without_color),369990,green,,,,null,GW/basket.jpg,GW/dustpan.jpg,,,,,,,,,,,,
null,,rt_plussign_withcolor,370500,green,,,,null,GW/basket.jpg,GW/dustpan.jpg,,,,,,,,,,,,
1106.7000000476837,,rt_thecrossant_black,371865,black_plus_sign,,,,50,,,1,1,,,,,,,,,,
null,,color_black,371982,black_plus_sign,,,,null,,,,,,,,,,,,,,
null,,learn_phase(without_color),373990,black_plus_sign,,,,null,GW/snail.jpg,GW/hat.jpg,,,,,,,,,,,,
null,,black_cross(without_color),374756,blue,,,,null,GW/snail.jpg,GW/hat.jpg,,,,,,,,,,,,
504.8000000715256,,rt_plussign_withcolor,375263,blue,,,,49,GW/snail.jpg,GW/hat.jpg,,,,,,,,,,,,
null,,rt_thecrossant_black,376519,black_plus_sign,,,,null,,,1,1,,,,,,,,,,
null,,color_black,376623,black_plus_sign,,,,null,,,,,,,,,,,,,,
null,,learn_phase(without_color),378629,black_plus_sign,,,,null,GW/globe.jpg,GW/barrel.jpg,,,,,,,,,,,,
null,,black_cross(without_color),379127,blue,,,,null,GW/globe.jpg,GW/barrel.jpg,,,,,,,,,,,,
null,,rt_plussign_withcolor,379632,blue,,,,null,GW/globe.jpg,GW/barrel.jpg,,,,,,,,,,,,
876.8000000715256,,rt_thecrossant_black,381153,black_plus_sign,,,,49,,,1,1,,,,,,,,,,
null,,color_black,381262,black_plus_sign,,,,null,,,,,,,,,,,,,,
null,,learn_phase(without_color),383269,black_plus_sign,,,,null,GW/snail.jpg,GW/wheelchair.jpg,,,,,,,,,,,,
null,,black_cross(without_color),383738,green,,,,null,GW/snail.jpg,GW/wheelchair.jpg,,,,,,,,,,,,
null,,rt_plussign_withcolor,384247,green,,,,null,GW/snail.jpg,GW/wheelchair.jpg,,,,,,,,,,,,
662.1999999284744,,rt_thecrossant_black,385795,black_plus_sign,,,,50,,,1,1,,,,,,,,,,
null,,color_black,385905,black_plus_sign,,,,null,,,,,,,,,,,,,,
null,,learn_phase(without_color),387911,black_plus_sign,,,,null,GW/snail.jpg,GW/hat.jpg,,,,,,,,,,,,
null,,black_cross(without_color),388587,blue,,,,null,GW/snail.jpg,GW/hat.jpg,,,,,,,,,,,,
null,,rt_plussign_withcolor,389098,blue,,,,null,GW/snail.jpg,GW/hat.jpg,,,,,,,,,,,,
691.1000000238419,,rt_thecrossant_black,390432,black_plus_sign,,,,49,,,1,1,,,,,,,,,,
null,,color_black,390534,black_plus_sign,,,,null,,,,,,,,,,,,,,
null,,learn_phase(without_color),392543,black_plus_sign,,,,null,GW/basket.jpg,GW/dustpan.jpg,,,,,,,,,,,,
null,,black_cross(without_color),393634,blue,,,,null,GW/basket.jpg,GW/dustpan.jpg,,,,,,,,,,,,
405.60000002384186,,rt_plussign_withcolor,394141,blue,,,,49,GW/basket.jpg,GW/dustpan.jpg,,,,,,,,,,,,
null,,rt_thecrossant_black,395061,black_plus_sign,,,,null,,,1,1,,,,,,,,,,
null,,color_black,395171,black_plus_sign,,,,null,,,,,,,,,,,,,,
null,,learn_phase(without_color),397181,black_plus_sign,,,,null,GW/basket.jpg,GW/teeth.jpg,,,,,,,,,,,,
null,,black_cross(without_color),398088,blue,,,,null,GW/basket.jpg,GW/teeth.jpg,,,,,,,,,,,,
null,,rt_plussign_withcolor,398591,blue,,,,null,GW/basket.jpg,GW/teeth.jpg,,,,,,,,,,,,
1254.5,,rt_thecrossant_black,399703,black_plus_sign,,,,49,,,1,1,,,,,,,,,,
null,,color_black,399813,black_plus_sign,,,,null,,,,,,,,,,,,,,
null,,learn_phase(without_color),401823,black_plus_sign,,,,null,GW/soldier.jpg,GW/gong.jpg,,,,,,,,,,,,
null,,black_cross(without_color),402242,green,,,,null,GW/soldier.jpg,GW/gong.jpg,,,,,,,,,,,,
null,,rt_plussign_withcolor,402747,green,,,,null,GW/soldier.jpg,GW/gong.jpg,,,,,,,,,,,,
1153.3000000715256,,rt_thecrossant_black,404352,black_plus_sign,,,,50,,,1,1,,,,,,,,,,
null,,color_black,404454,black_plus_sign,,,,null,,,,,,,,,,,,,,
null,,learn_phase(without_color),406464,black_plus_sign,,,,null,GW/basket.jpg,GW/teeth.jpg,,,,,,,,,,,,
null,,black_cross(without_color),407428,green,,,,null,GW/basket.jpg,GW/teeth.jpg,,,,,,,,,,,,
null,,rt_plussign_withcolor,407933,green,,,,null,GW/basket.jpg,GW/teeth.jpg,,,,,,,,,,,,
557.7000000476837,,rt_thecrossant_black,408981,black_plus_sign,,,,50,,,1,1,,,,,,,,,,
null,,color_black,409095,black_plus_sign,,,,null,,,,,,,,,,,,,,
null,,learn_phase(without_color),411103,black_plus_sign,,,,null,GW/basket.jpg,GW/dustpan.jpg,,,,,,,,,,,,
null,,black_cross(without_color),411994,green,,,,null,GW/basket.jpg,GW/dustpan.jpg,,,,,,,,,,,,
null,,rt_plussign_withcolor,412496,green,,,,null,GW/basket.jpg,GW/dustpan.jpg,,,,,,,,,,,,
1183,,rt_thecrossant_black,413621,black_plus_sign,,,,50,,,1,1,,,,,,,,,,
null,,color_black,413731,black_plus_sign,,,,null,,,,,,,,,,,,,,
null,,learn_phase(without_color),415736,black_plus_sign,,,,null,GW/basket.jpg,GW/teeth.jpg,,,,,,,,,,,,
null,,black_cross(without_color),416589,blue,,,,null,GW/basket.jpg,GW/teeth.jpg,,,,,,,,,,,,
null,,rt_plussign_withcolor,417090,blue,,,,null,GW/basket.jpg,GW/teeth.jpg,,,,,,,,,,,,
1398.6000000238419,,rt_thecrossant_black,418253,black_plus_sign,,,,49,,,1,1,,,,,,,,,,
null,,color_black,418363,black_plus_sign,,,,null,,,,,,,,,,,,,,
null,,learn_phase(without_color),420368,black_plus_sign,,,,null,GW/soldier.jpg,GW/gong.jpg,,,,,,,,,,,,
null,,black_cross(without_color),421404,green,,,,null,GW/soldier.jpg,GW/gong.jpg,,,,,,,,,,,,
null,,rt_plussign_withcolor,421908,green,,,,null,GW/soldier.jpg,GW/gong.jpg,,,,,,,,,,,,
1224.5,,rt_thecrossant_black,422887,black_plus_sign,,,,50,,,1,1,,,,,,,,,,
null,,color_black,423006,black_plus_sign,,,,null,,,,,,,,,,,,,,
null,,learn_phase(without_color),425011,black_plus_sign,,,,null,GW/wheelchair.jpg,GW/paint.jpg,,,,,,,,,,,,
null,,black_cross(without_color),425790,green,,,,null,GW/wheelchair.jpg,GW/paint.jpg,,,,,,,,,,,,
null,,rt_plussign_withcolor,426299,green,,,,null,GW/wheelchair.jpg,GW/paint.jpg,,,,,,,,,,,,
1215,,rt_thecrossant_black,427533,black_plus_sign,,,,50,,,1,1,,,,,,,,,,
null,,color_black,427641,black_plus_sign,,,,null,,,,,,,,,,,,,,
null,,learn_phase(without_color),429656,black_plus_sign,,,,null,GW/barrel.jpg,GW/snail.jpg,,,,,,,,,,,,
null,,black_cross(without_color),430684,green,,,,null,GW/barrel.jpg,GW/snail.jpg,,,,,,,,,,,,
null,,rt_plussign_withcolor,431191,green,,,,null,GW/barrel.jpg,GW/snail.jpg,,,,,,,,,,,,
977.7999999523163,,rt_thecrossant_black,432186,black_plus_sign,,,,50,,,1,1,,,,,,,,,,
null,,color_black,432288,black_plus_sign,,,,null,,,,,,,,,,,,,,
null,,learn_phase(without_color),434297,black_plus_sign,,,,null,GW/globe.jpg,GW/barrel.jpg,,,,,,,,,,,,
null,,black_cross(without_color),435116,blue,,,,null,GW/globe.jpg,GW/barrel.jpg,,,,,,,,,,,,
null,,rt_plussign_withcolor,435626,blue,,,,null,GW/globe.jpg,GW/barrel.jpg,,,,,,,,,,,,
1411.7999999523163,,rt_thecrossant_black,436823,black_plus_sign,,,,49,,,1,1,,,,,,,,,,
null,,color_black,436927,black_plus_sign,,,,null,,,,,,,,,,,,,,
null,,learn_phase(without_color),438938,black_plus_sign,,,,null,GW/jukebox.jpg,GW/basket.jpg,,,,,,,,,,,,
null,,black_cross(without_color),439514,blue,,,,null,GW/jukebox.jpg,GW/basket.jpg,,,,,,,,,,,,
null,,rt_plussign_withcolor,440028,blue,,,,null,GW/jukebox.jpg,GW/basket.jpg,,,,,,,,,,,,
1109.1000000238419,,rt_thecrossant_black,441470,black_plus_sign,,,,49,,,1,1,,,,,,,,,,
null,,color_black,441579,black_plus_sign,,,,null,,,,,,,,,,,,,,
null,,learn_phase(without_color),443584,black_plus_sign,,,,null,GW/globe.jpg,GW/barrel.jpg,,,,,,,,,,,,
null,,black_cross(without_color),444387,green,,,,null,GW/globe.jpg,GW/barrel.jpg,,,,,,,,,,,,
null,,rt_plussign_withcolor,444889,green,,,,null,GW/globe.jpg,GW/barrel.jpg,,,,,,,,,,,,
1034.5,,rt_thecrossant_black,446095,black_plus_sign,,,,50,,,1,1,,,,,,,,,,
null,,color_black,446205,black_plus_sign,,,,null,,,,,,,,,,,,,,
null,,learn_phase(without_color),448213,black_plus_sign,,,,null,GW/basket.jpg,GW/teeth.jpg,,,,,,,,,,,,
null,,black_cross(without_color),448831,green,,,,null,GW/basket.jpg,GW/teeth.jpg,,,,,,,,,,,,
null,,rt_plussign_withcolor,449335,green,,,,null,GW/basket.jpg,GW/teeth.jpg,,,,,,,,,,,,
1024.3999999761581,,rt_thecrossant_black,450743,black_plus_sign,,,,50,,,1,1,,,,,,,,,,
null,,color_black,450850,black_plus_sign,,,,null,,,,,,,,,,,,,,
null,,learn_phase(without_color),452854,black_plus_sign,,,,null,GW/teeth.jpg,GW/wheelchair.jpg,,,,,,,,,,,,
null,,black_cross(without_color),453883,green,,,,null,GW/teeth.jpg,GW/wheelchair.jpg,,,,,,,,,,,,
371.2000000476837,,rt_plussign_withcolor,454391,green,,,,49,GW/teeth.jpg,GW/wheelchair.jpg,,,,,,,,,,,,
null,,rt_thecrossant_black,455374,black_plus_sign,,,,null,,,0,0.9736842105263158,,,,,,,,,,
null,,color_black,455484,black_plus_sign,,,,null,,,,,,,,,,,,,,
null,,learn_phase(without_color),457487,black_plus_sign,,,,null,GW/hat.jpg,GW/teeth.jpg,,,,,,,,,,,,
null,,black_cross(without_color),458535,blue,,,,null,GW/hat.jpg,GW/teeth.jpg,,,,,,,,,,,,
null,,rt_plussign_withcolor,459037,blue,,,,null,GW/hat.jpg,GW/teeth.jpg,,,,,,,,,,,,
1309.7000000476837,,rt_thecrossant_black,460003,black_plus_sign,,,,49,,,1,0.9743589743589743,,,,,,,,,,
null,,color_black,460111,black_plus_sign,,,,null,,,,,,,,,,,,,,
null,,learn_phase(without_color),462115,black_plus_sign,,,,null,GW/barrel.jpg,GW/snail.jpg,,,,,,,,,,,,
null,,black_cross(without_color),463198,blue,,,,null,GW/barrel.jpg,GW/snail.jpg,,,,,,,,,,,,
null,,rt_plussign_withcolor,463703,blue,,,,null,GW/barrel.jpg,GW/snail.jpg,,,,,,,,,,,,
1142.1999999284744,,rt_thecrossant_black,464630,black_plus_sign,,,,49,,,1,0.975,,,,,,,,,,
null,,color_black,464740,black_plus_sign,,,,null,,,,,,,,,,,,,,
null,,learn_phase(without_color),466744,black_plus_sign,,,,null,GW/teeth.jpg,GW/wheelchair.jpg,,,,,,,,,,,,
null,,black_cross(without_color),467388,green,,,,null,GW/teeth.jpg,GW/wheelchair.jpg,,,,,,,,,,,,
null,,rt_plussign_withcolor,467896,green,,,,null,GW/teeth.jpg,GW/wheelchair.jpg,,,,,,,,,,,,
1399.1000000238419,,rt_thecrossant_black,469274,black_plus_sign,,,,50,,,1,0.975609756097561,,,,,,,,,,
null,,color_black,469382,black_plus_sign,,,,null,,,,,,,,,,,,,,
null,,learn_phase(without_color),471389,black_plus_sign,,,,null,GW/jukebox.jpg,GW/teeth.jpg,,,,,,,,,,,,
null,,black_cross(without_color),471924,blue,,,,null,GW/jukebox.jpg,GW/teeth.jpg,,,,,,,,,,,,
null,,rt_plussign_withcolor,472431,blue,,,,null,GW/jukebox.jpg,GW/teeth.jpg,,,,,,,,,,,,
1073.8000000715256,,rt_thecrossant_black,473914,black_plus_sign,,,,49,,,1,0.9761904761904762,,,,,,,,,,
null,,color_black,474023,black_plus_sign,,,,null,,,,,,,,,,,,,,
null,,learn_phase(without_color),476027,black_plus_sign,,,,null,GW/teeth.jpg,GW/wheelchair.jpg,,,,,,,,,,,,
null,,black_cross(without_color),476803,blue,,,,null,GW/teeth.jpg,GW/wheelchair.jpg,,,,,,,,,,,,
null,,rt_plussign_withcolor,477313,blue,,,,null,GW/teeth.jpg,GW/wheelchair.jpg,,,,,,,,,,,,
953.8000000715256,,rt_thecrossant_black,478556,black_plus_sign,,,,49,,,1,0.9767441860465116,,,,,,,,,,
null,,color_black,478665,black_plus_sign,,,,null,,,,,,,,,,,,,,
null,,learn_phase(without_color),480671,black_plus_sign,,,,null,GW/soldier.jpg,GW/gong.jpg,,,,,,,,,,,,
null,,black_cross(without_color),481623,blue,,,,null,GW/soldier.jpg,GW/gong.jpg,,,,,,,,,,,,
null,,rt_plussign_withcolor,482128,blue,,,,null,GW/soldier.jpg,GW/gong.jpg,,,,,,,,,,,,
1195.6000000238419,,rt_thecrossant_black,483197,black_plus_sign,,,,49,,,1,0.9772727272727273,,,,,,,,,,
null,,color_black,483304,black_plus_sign,,,,null,,,,,,,,,,,,,,
null,,learn_phase(without_color),485309,black_plus_sign,,,,null,GW/wheelchair.jpg,GW/paint.jpg,,,,,,,,,,,,
null,,black_cross(without_color),486317,blue,,,,null,GW/wheelchair.jpg,GW/paint.jpg,,,,,,,,,,,,
null,,rt_plussign_withcolor,486823,blue,,,,null,GW/wheelchair.jpg,GW/paint.jpg,,,,,,,,,,,,
1079.3999999761581,,rt_thecrossant_black,487823,black_plus_sign,,,,49,,,1,0.9777777777777777,,,,,,,,,,
null,,color_black,487932,black_plus_sign,,,,null,,,,,,,,,,,,,,
null,,learn_phase(without_color),489938,black_plus_sign,,,,null,GW/teeth.jpg,GW/wheelchair.jpg,,,,,,,,,,,,
null,,black_cross(without_color),490679,blue,,,,null,GW/teeth.jpg,GW/wheelchair.jpg,,,,,,,,,,,,
null,,rt_plussign_withcolor,491190,blue,,,,null,GW/teeth.jpg,GW/wheelchair.jpg,,,,,,,,,,,,
1363.6000000238419,,rt_thecrossant_black,492469,black_plus_sign,,,,49,,,1,0.9782608695652174,,,,,,,,,,
null,,color_black,492571,black_plus_sign,,,,null,,,,,,,,,,,,,,
null,,learn_phase(without_color),494577,black_plus_sign,,,,null,GW/jukebox.jpg,GW/teeth.jpg,,,,,,,,,,,,
null,,black_cross(without_color),495290,blue,,,,null,GW/jukebox.jpg,GW/teeth.jpg,,,,,,,,,,,,
null,,rt_plussign_withcolor,495798,blue,,,,null,GW/jukebox.jpg,GW/teeth.jpg,,,,,,,,,,,,
1246.2999999523163,,rt_thecrossant_black,497099,black_plus_sign,,,,49,,,1,0.9787234042553191,,,,,,,,,,
null,,color_black,497207,black_plus_sign,,,,null,,,,,,,,,,,,,,
null,,learn_phase(without_color),499214,black_plus_sign,,,,null,GW/jukebox.jpg,GW/camera.jpg,,,,,,,,,,,,
null,,black_cross(without_color),500100,green,,,,null,GW/jukebox.jpg,GW/camera.jpg,,,,,,,,,,,,
null,,rt_plussign_withcolor,500608,green,,,,null,GW/jukebox.jpg,GW/camera.jpg,,,,,,,,,,,,
1180.1999999284744,,rt_thecrossant_black,501736,black_plus_sign,,,,50,,,1,0.9791666666666666,,,,,,,,,,
null,,color_black,501841,black_plus_sign,,,,null,,,,,,,,,,,,,,
null,,learn_phase(without_color),503843,black_plus_sign,,,,null,GW/hat.jpg,GW/jukebox.jpg,,,,,,,,,,,,
null,,black_cross(without_color),504548,green,,,,null,GW/hat.jpg,GW/jukebox.jpg,,,,,,,,,,,,
null,,rt_plussign_withcolor,505058,green,,,,null,GW/hat.jpg,GW/jukebox.jpg,,,,,,,,,,,,
1411.5,,rt_thecrossant_black,506364,black_plus_sign,,,,50,,,1,0.9795918367346939,,,,,,,,,,
null,,color_black,506472,black_plus_sign,,,,null,,,,,,,,,,,,,,
null,,learn_phase(without_color),508479,black_plus_sign,,,,null,GW/soldier.jpg,GW/gong.jpg,,,,,,,,,,,,
null,,black_cross(without_color),509090,blue,,,,null,GW/soldier.jpg,GW/gong.jpg,,,,,,,,,,,,
null,,rt_plussign_withcolor,509593,blue,,,,null,GW/soldier.jpg,GW/gong.jpg,,,,,,,,,,,,
1057.7000000476837,,rt_thecrossant_black,510990,black_plus_sign,,,,49,,,1,0.98,,,,,,,,,,
null,,color_black,511098,black_plus_sign,,,,null,,,,,,,,,,,,,,
null,,learn_phase(without_color),513108,black_plus_sign,,,,null,GW/jukebox.jpg,GW/teeth.jpg,,,,,,,,,,,,
null,,black_cross(without_color),514090,green,,,,null,GW/jukebox.jpg,GW/teeth.jpg,,,,,,,,,,,,
null,,rt_plussign_withcolor,514599,green,,,,null,GW/jukebox.jpg,GW/teeth.jpg,,,,,,,,,,,,
751.1000000238419,,rt_thecrossant_black,515635,black_plus_sign,,,,50,,,1,0.9803921568627451,,,,,,,,,,
null,,color_black,515744,black_plus_sign,,,,null,,,,,,,,,,,,,,
null,,learn_phase(without_color),517753,black_plus_sign,,,,null,GW/soldier.jpg,GW/paint.jpg,,,,,,,,,,,,
null,,black_cross(without_color),518511,green,,,,null,GW/soldier.jpg,GW/paint.jpg,,,,,,,,,,,,
null,,rt_plussign_withcolor,519028,green,,,,null,GW/soldier.jpg,GW/paint.jpg,,,,,,,,,,,,
1338.2000000476837,,rt_thecrossant_black,520291,black_plus_sign,,,,50,,,1,0.9807692307692307,,,,,,,,,,
null,,color_black,520409,black_plus_sign,,,,null,,,,,,,,,,,,,,
null,,learn_phase(without_color),522415,black_plus_sign,,,,null,GW/jukebox.jpg,GW/camera.jpg,,,,,,,,,,,,
null,,black_cross(without_color),522881,green,,,,null,GW/jukebox.jpg,GW/camera.jpg,,,,,,,,,,,,
null,,rt_plussign_withcolor,523383,green,,,,null,GW/jukebox.jpg,GW/camera.jpg,,,,,,,,,,,,
1234.2999999523163,,rt_thecrossant_black,524926,black_plus_sign,,,,50,,,1,0.9811320754716981,,,,,,,,,,
null,,color_black,525029,black_plus_sign,,,,null,,,,,,,,,,,,,,
null,,learn_phase(without_color),527034,black_plus_sign,,,,null,GW/globe.jpg,GW/barrel.jpg,,,,,,,,,,,,
null,,black_cross(without_color),528075,green,,,,null,GW/globe.jpg,GW/barrel.jpg,,,,,,,,,,,,
null,,rt_plussign_withcolor,528584,green,,,,null,GW/globe.jpg,GW/barrel.jpg,,,,,,,,,,,,
900.5,,rt_thecrossant_black,529554,black_plus_sign,,,,50,,,1,0.9814814814814815,,,,,,,,,,
null,,color_black,529665,black_plus_sign,,,,null,,,,,,,,,,,,,,
null,,learn_phase(without_color),531669,black_plus_sign,,,,null,GW/teeth.jpg,GW/wheelchair.jpg,,,,,,,,,,,,
null,,black_cross(without_color),532383,blue,,,,null,GW/teeth.jpg,GW/wheelchair.jpg,,,,,,,,,,,,
null,,rt_plussign_withcolor,532886,blue,,,,null,GW/teeth.jpg,GW/wheelchair.jpg,,,,,,,,,,,,
1468.5,,rt_thecrossant_black,534189,black_plus_sign,,,,49,,,1,0.9818181818181818,,,,,,,,,,
null,,color_black,534299,black_plus_sign,,,,null,,,,,,,,,,,,,,
null,,learn_phase(without_color),536305,black_plus_sign,,,,null,GW/barrel.jpg,GW/snail.jpg,,,,,,,,,,,,
null,,black_cross(without_color),537188,blue,,,,null,GW/barrel.jpg,GW/snail.jpg,,,,,,,,,,,,
null,,rt_plussign_withcolor,537691,blue,,,,null,GW/barrel.jpg,GW/snail.jpg,,,,,,,,,,,,
1103.1000000238419,,rt_thecrossant_black,538827,black_plus_sign,,,,49,,,1,0.9821428571428571,,,,,,,,,,
null,,color_black,538936,black_plus_sign,,,,null,,,,,,,,,,,,,,
null,,learn_phase(without_color),540947,black_plus_sign,,,,null,GW/teeth.jpg,GW/wheelchair.jpg,,,,,,,,,,,,
null,,black_cross(without_color),541802,green,,,,null,GW/teeth.jpg,GW/wheelchair.jpg,,,,,,,,,,,,
null,,rt_plussign_withcolor,542308,green,,,,null,GW/teeth.jpg,GW/wheelchair.jpg,,,,,,,,,,,,
1024.5,,rt_thecrossant_black,543462,black_plus_sign,,,,50,,,1,0.9824561403508771,,,,,,,,,,
null,,color_black,543565,black_plus_sign,,,,null,,,,,,,,,,,,,,
null,,learn_phase(without_color),545572,black_plus_sign,,,,null,GW/hat.jpg,GW/jukebox.jpg,,,,,,,,,,,,
null,,black_cross(without_color),546211,green,,,,null,GW/hat.jpg,GW/jukebox.jpg,,,,,,,,,,,,
null,,rt_plussign_withcolor,546714,green,,,,null,GW/hat.jpg,GW/jukebox.jpg,,,,,,,,,,,,
1246.2000000476837,,rt_thecrossant_black,548083,black_plus_sign,,,,50,,,1,0.9827586206896551,,,,,,,,,,
null,,color_black,548192,black_plus_sign,,,,null,,,,,,,,,,,,,,
null,,learn_phase(without_color),550201,black_plus_sign,,,,null,GW/wheelchair.jpg,GW/paint.jpg,,,,,,,,,,,,
null,,black_cross(without_color),551113,blue,,,,null,GW/wheelchair.jpg,GW/paint.jpg,,,,,,,,,,,,
null,,rt_plussign_withcolor,551621,blue,,,,null,GW/wheelchair.jpg,GW/paint.jpg,,,,,,,,,,,,
800.6999999284744,,rt_thecrossant_black,552726,black_plus_sign,,,,49,,,1,0.9830508474576272,,,,,,,,,,
null,,color_black,552828,black_plus_sign,,,,null,,,,,,,,,,,,,,
null,,learn_phase(without_color),554839,black_plus_sign,,,,null,GW/snail.jpg,GW/wheelchair.jpg,,,,,,,,,,,,
null,,black_cross(without_color),555876,green,,,,null,GW/snail.jpg,GW/wheelchair.jpg,,,,,,,,,,,,
null,,rt_plussign_withcolor,556381,green,,,,null,GW/snail.jpg,GW/wheelchair.jpg,,,,,,,,,,,,
1703.8999999761581,,rt_thecrossant_black,557359,black_plus_sign,,,,50,,,1,0.9833333333333333,,,,,,,,,,
null,,color_black,557468,black_plus_sign,,,,null,,,,,,,,,,,,,,
null,,learn_phase(without_color),559475,black_plus_sign,,,,null,GW/hat.jpg,GW/teeth.jpg,,,,,,,,,,,,
null,,black_cross(without_color),560092,blue,,,,null,GW/hat.jpg,GW/teeth.jpg,,,,,,,,,,,,
null,,rt_plussign_withcolor,560602,blue,,,,null,GW/hat.jpg,GW/teeth.jpg,,,,,,,,,,,,
1598.1999999284744,,rt_thecrossant_black,562003,black_plus_sign,,,,49,,,1,0.9836065573770492,,,,,,,,,,
null,,color_black,562111,black_plus_sign,,,,null,,,,,,,,,,,,,,
null,,learn_phase(without_color),564123,black_plus_sign,,,,null,GW/soldier.jpg,GW/gong.jpg,,,,,,,,,,,,
null,,black_cross(without_color),564793,blue,,,,null,GW/soldier.jpg,GW/gong.jpg,,,,,,,,,,,,
null,,rt_plussign_withcolor,565300,blue,,,,null,GW/soldier.jpg,GW/gong.jpg,,,,,,,,,,,,
1076.7000000476837,,rt_thecrossant_black,566645,black_plus_sign,,,,49,,,1,0.9838709677419355,,,,,,,,,,
null,,color_black,566755,black_plus_sign,,,,null,,,,,,,,,,,,,,
null,,learn_phase(without_color),568761,black_plus_sign,,,,null,GW/barrel.jpg,GW/soldier.jpg,,,,,,,,,,,,
null,,black_cross(without_color),569548,blue,,,,null,GW/barrel.jpg,GW/soldier.jpg,,,,,,,,,,,,
null,,rt_plussign_withcolor,570058,blue,,,,null,GW/barrel.jpg,GW/soldier.jpg,,,,,,,,,,,,
888.3000000715256,,rt_thecrossant_black,571289,black_plus_sign,,,,49,,,1,0.9841269841269841,,,,,,,,,,
null,,color_black,571398,black_plus_sign,,,,null,,,,,,,,,,,,,,
null,,learn_phase(without_color),573406,black_plus_sign,,,,null,GW/basket.jpg,GW/dustpan.jpg,,,,,,,,,,,,
null,,black_cross(without_color),573909,green,,,,null,GW/basket.jpg,GW/dustpan.jpg,,,,,,,,,,,,
null,,rt_plussign_withcolor,574418,green,,,,null,GW/basket.jpg,GW/dustpan.jpg,,,,,,,,,,,,
1065.5,,rt_thecrossant_black,575932,black_plus_sign,,,,50,,,1,0.984375,,,,,,,,,,
null,,color_black,576042,black_plus_sign,,,,null,,,,,,,,,,,,,,
null,,learn_phase(without_color),578051,black_plus_sign,,,,null,GW/wheelchair.jpg,GW/paint.jpg,,,,,,,,,,,,
null,,black_cross(without_color),578916,blue,,,,null,GW/wheelchair.jpg,GW/paint.jpg,,,,,,,,,,,,
null,,rt_plussign_withcolor,579425,blue,,,,null,GW/wheelchair.jpg,GW/paint.jpg,,,,,,,,,,,,
910,,rt_thecrossant_black,580586,black_plus_sign,,,,49,,,1,0.9846153846153847,,,,,,,,,,
null,,color_black,580696,black_plus_sign,,,,null,,,,,,,,,,,,,,
null,,learn_phase(without_color),582700,black_plus_sign,,,,null,GW/hat.jpg,GW/jukebox.jpg,,,,,,,,,,,,
null,,black_cross(without_color),583149,green,,,,null,GW/hat.jpg,GW/jukebox.jpg,,,,,,,,,,,,
null,,rt_plussign_withcolor,583654,green,,,,null,GW/hat.jpg,GW/jukebox.jpg,,,,,,,,,,,,
979.9000000953674,,rt_thecrossant_black,585219,black_plus_sign,,,,50,,,1,0.9848484848484849,,,,,,,,,,
null,,color_black,585326,black_plus_sign,,,,null,,,,,,,,,,,,,,
null,,learn_phase(without_color),587337,black_plus_sign,,,,null,GW/jukebox.jpg,GW/basket.jpg,,,,,,,,,,,,
null,,black_cross(without_color),587987,green,,,,null,GW/jukebox.jpg,GW/basket.jpg,,,,,,,,,,,,
null,,rt_plussign_withcolor,588495,green,,,,null,GW/jukebox.jpg,GW/basket.jpg,,,,,,,,,,,,
666.5,,rt_thecrossant_black,589862,black_plus_sign,,,,50,,,1,0.9850746268656716,,,,,,,,,,
null,,color_black,589965,black_plus_sign,,,,null,,,,,,,,,,,,,,
null,,learn_phase(without_color),591969,black_plus_sign,,,,null,GW/jukebox.jpg,GW/teeth.jpg,,,,,,,,,,,,
null,,black_cross(without_color),592886,green,,,,null,GW/jukebox.jpg,GW/teeth.jpg,,,,,,,,,,,,
null,,rt_plussign_withcolor,593394,green,,,,null,GW/jukebox.jpg,GW/teeth.jpg,,,,,,,,,,,,
1132.8999999761581,,rt_thecrossant_black,594499,black_plus_sign,,,,50,,,1,0.9852941176470589,,,,,,,,,,
null,,color_black,594607,black_plus_sign,,,,null,,,,,,,,,,,,,,
null,,learn_phase(without_color),596614,black_plus_sign,,,,null,GW/barrel.jpg,GW/soldier.jpg,,,,,,,,,,,,
null,,black_cross(without_color),597660,green,,,,null,GW/barrel.jpg,GW/soldier.jpg,,,,,,,,,,,,
null,,rt_plussign_withcolor,598167,green,,,,null,GW/barrel.jpg,GW/soldier.jpg,,,,,,,,,,,,
1881.7000000476837,,rt_thecrossant_black,599129,black_plus_sign,,,,50,,,1,0.9855072463768116,,,,,,,,,,
null,,color_black,599235,black_plus_sign,,,,null,,,,,,,,,,,,,,
null,,learn_phase(without_color),601245,black_plus_sign,,,,null,GW/hat.jpg,GW/jukebox.jpg,,,,,,,,,,,,
null,,black_cross(without_color),601656,green,,,,null,GW/hat.jpg,GW/jukebox.jpg,,,,,,,,,,,,
null,,rt_plussign_withcolor,602166,green,,,,null,GW/hat.jpg,GW/jukebox.jpg,,,,,,,,,,,,
1523,,rt_thecrossant_black,603769,black_plus_sign,,,,50,,,1,0.9857142857142858,,,,,,,,,,
null,,color_black,603877,black_plus_sign,,,,null,,,,,,,,,,,,,,
null,,learn_phase(without_color),605885,black_plus_sign,,,,null,GW/soldier.jpg,GW/paint.jpg,,,,,,,,,,,,
null,,black_cross(without_color),606641,blue,,,,null,GW/soldier.jpg,GW/paint.jpg,,,,,,,,,,,,
null,,rt_plussign_withcolor,607146,blue,,,,null,GW/soldier.jpg,GW/paint.jpg,,,,,,,,,,,,
670.8000000715256,,rt_thecrossant_black,608402,black_plus_sign,,,,49,,,1,0.9859154929577465,,,,,,,,,,
null,,color_black,608509,black_plus_sign,,,,null,,,,,,,,,,,,,,
null,,learn_phase(without_color),610514,black_plus_sign,,,,null,GW/barrel.jpg,GW/snail.jpg,,,,,,,,,,,,
null,,black_cross(without_color),611516,blue,,,,null,GW/barrel.jpg,GW/snail.jpg,,,,,,,,,,,,
null,,rt_plussign_withcolor,612026,blue,,,,null,GW/barrel.jpg,GW/snail.jpg,,,,,,,,,,,,
1198.5,,rt_thecrossant_black,613043,black_plus_sign,,,,49,,,1,0.9861111111111112,,,,,,,,,,
null,,color_black,613151,black_plus_sign,,,,null,,,,,,,,,,,,,,
null,,learn_phase(without_color),615156,black_plus_sign,,,,null,GW/hat.jpg,GW/jukebox.jpg,,,,,,,,,,,,
null,,black_cross(without_color),615745,blue,,,,null,GW/hat.jpg,GW/jukebox.jpg,,,,,,,,,,,,
null,,rt_plussign_withcolor,616249,blue,,,,null,GW/hat.jpg,GW/jukebox.jpg,,,,,,,,,,,,
1463.3000000715256,,rt_thecrossant_black,617682,black_plus_sign,,,,49,,,1,0.9863013698630136,,,,,,,,,,
null,,color_black,617791,black_plus_sign,,,,null,,,,,,,,,,,,,,
null,,learn_phase(without_color),619795,black_plus_sign,,,,null,GW/soldier.jpg,GW/gong.jpg,,,,,,,,,,,,
null,,black_cross(without_color),620841,green,,,,null,GW/soldier.jpg,GW/gong.jpg,,,,,,,,,,,,
null,,rt_plussign_withcolor,621347,green,,,,null,GW/soldier.jpg,GW/gong.jpg,,,,,,,,,,,,
1018.3999999761581,,rt_thecrossant_black,622316,black_plus_sign,,,,50,,,1,0.9864864864864865,,,,,,,,,,
null,,color_black,622419,black_plus_sign,,,,null,,,,,,,,,,,,,,
null,,learn_phase(without_color),624426,black_plus_sign,,,,null,GW/basket.jpg,GW/dustpan.jpg,,,,,,,,,,,,
null,,black_cross(without_color),625535,blue,,,,null,GW/basket.jpg,GW/dustpan.jpg,,,,,,,,,,,,
null,,rt_plussign_withcolor,626041,blue,,,,null,GW/basket.jpg,GW/dustpan.jpg,,,,,,,,,,,,
1429.8999999761581,,rt_thecrossant_black,626962,black_plus_sign,,,,49,,,1,0.9866666666666667,,,,,,,,,,
null,,color_black,627072,black_plus_sign,,,,null,,,,,,,,,,,,,,
null,,learn_phase(without_color),629076,black_plus_sign,,,,null,GW/hat.jpg,GW/teeth.jpg,,,,,,,,,,,,
null,,black_cross(without_color),630035,blue,,,,null,GW/hat.jpg,GW/teeth.jpg,,,,,,,,,,,,
null,,rt_plussign_withcolor,630545,blue,,,,null,GW/hat.jpg,GW/teeth.jpg,,,,,,,,,,,,
1582.6999999284744,,rt_thecrossant_black,631600,black_plus_sign,,,,49,,,1,0.9868421052631579,,,,,,,,,,
null,,color_black,631702,black_plus_sign,,,,null,,,,,,,,,,,,,,
null,,learn_phase(without_color),633714,black_plus_sign,,,,null,GW/snail.jpg,GW/wheelchair.jpg,,,,,,,,,,,,
null,,black_cross(without_color),634400,green,,,,null,GW/snail.jpg,GW/wheelchair.jpg,,,,,,,,,,,,
null,,rt_plussign_withcolor,634910,green,,,,null,GW/snail.jpg,GW/wheelchair.jpg,,,,,,,,,,,,
1384.2000000476837,,rt_thecrossant_black,636235,black_plus_sign,,,,50,,,1,0.987012987012987,,,,,,,,,,
null,,color_black,636344,black_plus_sign,,,,null,,,,,,,,,,,,,,
null,,learn_phase(without_color),638356,black_plus_sign,,,,null,GW/barrel.jpg,GW/soldier.jpg,,,,,,,,,,,,
null,,black_cross(without_color),639076,blue,,,,null,GW/barrel.jpg,GW/soldier.jpg,,,,,,,,,,,,
null,,rt_plussign_withcolor,639585,blue,,,,null,GW/barrel.jpg,GW/soldier.jpg,,,,,,,,,,,,
1249.5,,rt_thecrossant_black,640872,black_plus_sign,,,,49,,,1,0.9871794871794872,,,,,,,,,,
null,,color_black,640981,black_plus_sign,,,,null,,,,,,,,,,,,,,
null,,learn_phase(without_color),642987,black_plus_sign,,,,null,GW/snail.jpg,GW/hat.jpg,,,,,,,,,,,,
null,,black_cross(without_color),643900,green,,,,null,GW/snail.jpg,GW/hat.jpg,,,,,,,,,,,,
null,,rt_plussign_withcolor,644407,green,,,,null,GW/snail.jpg,GW/hat.jpg,,,,,,,,,,,,
1156.1000000238419,,rt_thecrossant_black,645509,black_plus_sign,,,,50,,,1,0.9873417721518988,,,,,,,,,,
null,,color_black,645611,black_plus_sign,,,,null,,,,,,,,,,,,,,
null,,learn_phase(without_color),647616,black_plus_sign,,,,null,GW/soldier.jpg,GW/paint.jpg,,,,,,,,,,,,
null,,black_cross(without_color),648075,blue,,,,null,GW/soldier.jpg,GW/paint.jpg,,,,,,,,,,,,
null,,rt_plussign_withcolor,648581,blue,,,,null,GW/soldier.jpg,GW/paint.jpg,,,,,,,,,,,,
1272.0999999046326,,rt_thecrossant_black,650135,black_plus_sign,,,,49,,,1,0.9875,,,,,,,,,,
null,,color_black,650245,black_plus_sign,,,,null,,,,,,,,,,,,,,
null,,learn_phase(without_color),652256,black_plus_sign,,,,null,GW/globe.jpg,GW/barrel.jpg,,,,,,,,,,,,
null,,black_cross(without_color),652861,blue,,,,null,GW/globe.jpg,GW/barrel.jpg,,,,,,,,,,,,
null,,rt_plussign_withcolor,653378,blue,,,,null,GW/globe.jpg,GW/barrel.jpg,,,,,,,,,,,,
853.1000000238419,,rt_thecrossant_black,654789,black_plus_sign,,,,49,,,1,0.9876543209876543,,,,,,,,,,
null,,color_black,654899,black_plus_sign,,,,null,,,,,,,,,,,,,,
null,,learn_phase(without_color),656904,black_plus_sign,,,,null,GW/snail.jpg,GW/wheelchair.jpg,,,,,,,,,,,,
null,,black_cross(without_color),657447,blue,,,,null,GW/snail.jpg,GW/wheelchair.jpg,,,,,,,,,,,,
null,,rt_plussign_withcolor,657966,blue,,,,null,GW/snail.jpg,GW/wheelchair.jpg,,,,,,,,,,,,
935.7999999523163,,rt_thecrossant_black,659443,black_plus_sign,,,,49,,,1,0.9878048780487805,,,,,,,,,,
null,,color_black,659553,black_plus_sign,,,,null,,,,,,,,,,,,,,
null,,learn_phase(without_color),661562,black_plus_sign,,,,null,GW/globe.jpg,GW/barrel.jpg,,,,,,,,,,,,
null,,black_cross(without_color),662411,green,,,,null,GW/globe.jpg,GW/barrel.jpg,,,,,,,,,,,,
null,,rt_plussign_withcolor,662919,green,,,,null,GW/globe.jpg,GW/barrel.jpg,,,,,,,,,,,,
891.6000000238419,,rt_thecrossant_black,664079,black_plus_sign,,,,50,,,1,0.9879518072289156,,,,,,,,,,
null,,color_black,664188,black_plus_sign,,,,null,,,,,,,,,,,,,,
null,,learn_phase(without_color),666197,black_plus_sign,,,,null,GW/barrel.jpg,GW/snail.jpg,,,,,,,,,,,,
null,,black_cross(without_color),667162,green,,,,null,GW/barrel.jpg,GW/snail.jpg,,,,,,,,,,,,
null,,rt_plussign_withcolor,667669,green,,,,null,GW/barrel.jpg,GW/snail.jpg,,,,,,,,,,,,
1838.3999999761581,,rt_thecrossant_black,668713,black_plus_sign,,,,50,,,1,0.9880952380952381,,,,,,,,,,
null,,color_black,668823,black_plus_sign,,,,null,,,,,,,,,,,,,,
null,,learn_phase(without_color),670827,black_plus_sign,,,,null,GW/jukebox.jpg,GW/camera.jpg,,,,,,,,,,,,
null,,black_cross(without_color),671364,blue,,,,null,GW/jukebox.jpg,GW/camera.jpg,,,,,,,,,,,,
null,,rt_plussign_withcolor,671874,blue,,,,null,GW/jukebox.jpg,GW/camera.jpg,,,,,,,,,,,,
1231.2000000476837,,rt_thecrossant_black,673359,black_plus_sign,,,,49,,,1,0.9882352941176471,,,,,,,,,,
null,,color_black,673468,black_plus_sign,,,,null,,,,,,,,,,,,,,
null,,learn_phase(without_color),675479,black_plus_sign,,,,null,GW/hat.jpg,GW/jukebox.jpg,,,,,,,,,,,,
null,,black_cross(without_color),676027,blue,,,,null,GW/hat.jpg,GW/jukebox.jpg,,,,,,,,,,,,
null,,rt_plussign_withcolor,676538,blue,,,,null,GW/hat.jpg,GW/jukebox.jpg,,,,,,,,,,,,
839.7000000476837,,rt_thecrossant_black,678004,black_plus_sign,,,,49,,,1,0.9883720930232558,,,,,,,,,,
null,,color_black,678114,black_plus_sign,,,,null,,,,,,,,,,,,,,
null,,learn_phase(without_color),680125,black_plus_sign,,,,null,GW/barrel.jpg,GW/soldier.jpg,,,,,,,,,,,,
null,,black_cross(without_color),680903,blue,,,,null,GW/barrel.jpg,GW/soldier.jpg,,,,,,,,,,,,
null,,rt_plussign_withcolor,681412,blue,,,,null,GW/barrel.jpg,GW/soldier.jpg,,,,,,,,,,,,
793.3000000715256,,rt_thecrossant_black,682648,black_plus_sign,,,,49,,,1,0.9885057471264368,,,,,,,,,,
null,,color_black,682758,black_plus_sign,,,,null,,,,,,,,,,,,,,
null,,learn_phase(without_color),684769,black_plus_sign,,,,null,GW/hat.jpg,GW/teeth.jpg,,,,,,,,,,,,
null,,black_cross(without_color),685806,green,,,,null,GW/hat.jpg,GW/teeth.jpg,,,,,,,,,,,,
null,,rt_plussign_withcolor,686309,green,,,,null,GW/hat.jpg,GW/teeth.jpg,,,,,,,,,,,,
1072.3999999761581,,rt_thecrossant_black,687292,black_plus_sign,,,,50,,,1,0.9886363636363636,,,,,,,,,,
null,,color_black,687402,black_plus_sign,,,,null,,,,,,,,,,,,,,
null,,learn_phase(without_color),689410,black_plus_sign,,,,null,GW/hat.jpg,GW/jukebox.jpg,,,,,,,,,,,,
null,,black_cross(without_color),690242,blue,,,,null,GW/hat.jpg,GW/jukebox.jpg,,,,,,,,,,,,
null,,rt_plussign_withcolor,690753,blue,,,,null,GW/hat.jpg,GW/jukebox.jpg,,,,,,,,,,,,
1286.1000000238419,,rt_thecrossant_black,691935,black_plus_sign,,,,49,,,1,0.9887640449438202,,,,,,,,,,
null,,color_black,692038,black_plus_sign,,,,null,,,,,,,,,,,,,,
null,,learn_phase(without_color),694041,black_plus_sign,,,,null,GW/barrel.jpg,GW/snail.jpg,,,,,,,,,,,,
null,,black_cross(without_color),694670,blue,,,,null,GW/barrel.jpg,GW/snail.jpg,,,,,,,,,,,,
null,,rt_plussign_withcolor,695183,blue,,,,null,GW/barrel.jpg,GW/snail.jpg,,,,,,,,,,,,
1139.8999999761581,,rt_thecrossant_black,696574,black_plus_sign,,,,49,,,1,0.9888888888888889,,,,,,,,,,
null,,color_black,696676,black_plus_sign,,,,null,,,,,,,,,,,,,,
null,,learn_phase(without_color),698683,black_plus_sign,,,,null,GW/basket.jpg,GW/dustpan.jpg,,,,,,,,,,,,
null,,black_cross(without_color),699143,green,,,,null,GW/basket.jpg,GW/dustpan.jpg,,,,,,,,,,,,
null,,rt_plussign_withcolor,699654,green,,,,null,GW/basket.jpg,GW/dustpan.jpg,,,,,,,,,,,,
988.0999999046326,,rt_thecrossant_black,701209,black_plus_sign,,,,50,,,1,0.989010989010989,,,,,,,,,,
null,,color_black,701312,black_plus_sign,,,,null,,,,,,,,,,,,,,
null,,learn_phase(without_color),703322,black_plus_sign,,,,null,GW/barrel.jpg,GW/soldier.jpg,,,,,,,,,,,,
null,,black_cross(without_color),704370,green,,,,null,GW/barrel.jpg,GW/soldier.jpg,,,,,,,,,,,,
null,,rt_plussign_withcolor,704873,green,,,,null,GW/barrel.jpg,GW/soldier.jpg,,,,,,,,,,,,
880.8000000715256,,rt_thecrossant_black,705851,black_plus_sign,,,,50,,,1,0.9891304347826086,,,,,,,,,,
null,,color_black,705960,black_plus_sign,,,,null,,,,,,,,,,,,,,
null,,learn_phase(without_color),707971,black_plus_sign,,,,null,GW/barrel.jpg,GW/snail.jpg,,,,,,,,,,,,
null,,black_cross(without_color),708842,blue,,,,null,GW/barrel.jpg,GW/snail.jpg,,,,,,,,,,,,
null,,rt_plussign_withcolor,709345,blue,,,,null,GW/barrel.jpg,GW/snail.jpg,,,,,,,,,,,,
1165.6999999284744,,rt_thecrossant_black,710496,black_plus_sign,,,,49,,,1,0.989247311827957,,,,,,,,,,
null,,color_black,710604,black_plus_sign,,,,null,,,,,,,,,,,,,,
null,,learn_phase(without_color),712610,black_plus_sign,,,,null,GW/snail.jpg,GW/wheelchair.jpg,,,,,,,,,,,,
null,,black_cross(without_color),713592,green,,,,null,GW/snail.jpg,GW/wheelchair.jpg,,,,,,,,,,,,
null,,rt_plussign_withcolor,714100,green,,,,null,GW/snail.jpg,GW/wheelchair.jpg,,,,,,,,,,,,
1059.8999999761581,,rt_thecrossant_black,715136,black_plus_sign,,,,50,,,1,0.9893617021276596,,,,,,,,,,
null,,color_black,715246,black_plus_sign,,,,null,,,,,,,,,,,,,,
null,,learn_phase(without_color),717263,black_plus_sign,,,,null,GW/basket.jpg,GW/teeth.jpg,,,,,,,,,,,,
null,,black_cross(without_color),718313,green,,,,null,GW/basket.jpg,GW/teeth.jpg,,,,,,,,,,,,
null,,rt_plussign_withcolor,718821,green,,,,null,GW/basket.jpg,GW/teeth.jpg,,,,,,,,,,,,
1258.2999999523163,,rt_thecrossant_black,719786,black_plus_sign,,,,50,,,1,0.9894736842105263,,,,,,,,,,
null,,color_black,719895,black_plus_sign,,,,null,,,,,,,,,,,,,,
null,,learn_phase(without_color),721903,black_plus_sign,,,,null,GW/hat.jpg,GW/jukebox.jpg,,,,,,,,,,,,
null,,black_cross(without_color),722894,blue,,,,null,GW/hat.jpg,GW/jukebox.jpg,,,,,,,,,,,,
null,,rt_plussign_withcolor,723403,blue,,,,null,GW/hat.jpg,GW/jukebox.jpg,,,,,,,,,,,,
1412.7999999523163,,rt_thecrossant_black,724434,black_plus_sign,,,,49,,,1,0.9895833333333334,,,,,,,,,,
null,,color_black,724537,black_plus_sign,,,,null,,,,,,,,,,,,,,
null,,learn_phase(without_color),726547,black_plus_sign,,,,null,GW/basket.jpg,GW/teeth.jpg,,,,,,,,,,,,
null,,black_cross(without_color),727121,green,,,,null,GW/basket.jpg,GW/teeth.jpg,,,,,,,,,,,,
501.2000000476837,,rt_plussign_withcolor,727624,green,,,,50,GW/basket.jpg,GW/teeth.jpg,,,,,,,,,,,,
null,,rt_thecrossant_black,729065,black_plus_sign,,,,null,,,1,0.9896907216494846,,,,,,,,,,
null,,color_black,729175,black_plus_sign,,,,null,,,,,,,,,,,,,,
null,,learn_phase(without_color),731186,black_plus_sign,,,,null,GW/globe.jpg,GW/barrel.jpg,,,,,,,,,,,,
null,,black_cross(without_color),731876,blue,,,,null,GW/globe.jpg,GW/barrel.jpg,,,,,,,,,,,,
null,,rt_plussign_withcolor,732393,blue,,,,null,GW/globe.jpg,GW/barrel.jpg,,,,,,,,,,,,
952,,rt_thecrossant_black,733713,black_plus_sign,,,,49,,,1,0.9897959183673469,,,,,,,,,,
null,,color_black,733822,black_plus_sign,,,,null,,,,,,,,,,,,,,
null,,learn_phase(without_color),735831,black_plus_sign,,,,null,GW/jukebox.jpg,GW/camera.jpg,,,,,,,,,,,,
null,,black_cross(without_color),736362,green,,,,null,GW/jukebox.jpg,GW/camera.jpg,,,,,,,,,,,,
null,,rt_plussign_withcolor,736876,green,,,,null,GW/jukebox.jpg,GW/camera.jpg,,,,,,,,,,,,
1027.5999999046326,,rt_thecrossant_black,738363,black_plus_sign,,,,50,,,1,0.98989898989899,,,,,,,,,,
null,,color_black,738472,black_plus_sign,,,,null,,,,,,,,,,,,,,
null,,learn_phase(without_color),740480,black_plus_sign,,,,null,GW/snail.jpg,GW/hat.jpg,,,,,,,,,,,,
null,,black_cross(without_color),741540,green,,,,null,GW/snail.jpg,GW/hat.jpg,,,,,,,,,,,,
null,,rt_plussign_withcolor,742046,green,,,,null,GW/snail.jpg,GW/hat.jpg,,,,,,,,,,,,
746,,rt_thecrossant_black,743013,black_plus_sign,,,,50,,,1,0.99,,,,,,,,,,
null,,color_black,743124,black_plus_sign,,,,null,,,,,,,,,,,,,,
null,,learn_phase(without_color),745132,black_plus_sign,,,,null,GW/jukebox.jpg,GW/camera.jpg,,,,,,,,,,,,
null,,black_cross(without_color),745692,green,,,,null,GW/jukebox.jpg,GW/camera.jpg,,,,,,,,,,,,
null,,rt_plussign_withcolor,746202,green,,,,null,GW/jukebox.jpg,GW/camera.jpg,,,,,,,,,,,,
1298.6000000238419,,rt_thecrossant_black,747659,black_plus_sign,,,,50,,,1,0.9900990099009901,,,,,,,,,,
null,,color_black,747768,black_plus_sign,,,,null,,,,,,,,,,,,,,
null,,learn_phase(without_color),749774,black_plus_sign,,,,null,GW/snail.jpg,GW/hat.jpg,,,,,,,,,,,,
null,,black_cross(without_color),750573,green,,,,null,GW/snail.jpg,GW/hat.jpg,,,,,,,,,,,,
483.5,,rt_plussign_withcolor,751080,green,,,,50,GW/snail.jpg,GW/hat.jpg,,,,,,,,,,,,
null,,rt_thecrossant_black,752292,black_plus_sign,,,,null,,,1,0.9901960784313726,,,,,,,,,,
null,,color_black,752403,black_plus_sign,,,,null,,,,,,,,,,,,,,
null,,learn_phase(without_color),754407,black_plus_sign,,,,null,GW/globe.jpg,GW/barrel.jpg,,,,,,,,,,,,
null,,black_cross(without_color),755024,green,,,,null,GW/globe.jpg,GW/barrel.jpg,,,,,,,,,,,,
null,,rt_plussign_withcolor,755529,green,,,,null,GW/globe.jpg,GW/barrel.jpg,,,,,,,,,,,,
972.3000000715256,,rt_thecrossant_black,756922,black_plus_sign,,,,50,,,1,0.9902912621359223,,,,,,,,,,
null,,color_black,757039,black_plus_sign,,,,null,,,,,,,,,,,,,,
null,,learn_phase(without_color),759046,black_plus_sign,,,,null,GW/soldier.jpg,GW/paint.jpg,,,,,,,,,,,,
null,,black_cross(without_color),759544,green,,,,null,GW/soldier.jpg,GW/paint.jpg,,,,,,,,,,,,
null,,rt_plussign_withcolor,760047,green,,,,null,GW/soldier.jpg,GW/paint.jpg,,,,,,,,,,,,
1087.3000000715256,,rt_thecrossant_black,761572,black_plus_sign,,,,50,,,1,0.9903846153846154,,,,,,,,,,
null,,color_black,761680,black_plus_sign,,,,null,,,,,,,,,,,,,,
null,,learn_phase(without_color),763685,black_plus_sign,,,,null,GW/soldier.jpg,GW/gong.jpg,,,,,,,,,,,,
null,,black_cross(without_color),764634,green,,,,null,GW/soldier.jpg,GW/gong.jpg,,,,,,,,,,,,
null,,rt_plussign_withcolor,765136,green,,,,null,GW/soldier.jpg,GW/gong.jpg,,,,,,,,,,,,
739,,rt_thecrossant_black,766197,black_plus_sign,,,,50,,,1,0.9904761904761905,,,,,,,,,,
null,,color_black,766305,black_plus_sign,,,,null,,,,,,,,,,,,,,
null,,learn_phase(without_color),768311,black_plus_sign,,,,null,GW/jukebox.jpg,GW/basket.jpg,,,,,,,,,,,,
null,,black_cross(without_color),769237,green,,,,null,GW/jukebox.jpg,GW/basket.jpg,,,,,,,,,,,,
null,,rt_plussign_withcolor,769745,green,,,,null,GW/jukebox.jpg,GW/basket.jpg,,,,,,,,,,,,
1554.6000000238419,,rt_thecrossant_black,770829,black_plus_sign,,,,50,,,1,0.9905660377358491,,,,,,,,,,
null,,color_black,770938,black_plus_sign,,,,null,,,,,,,,,,,,,,
null,,learn_phase(without_color),772944,black_plus_sign,,,,null,GW/soldier.jpg,GW/paint.jpg,,,,,,,,,,,,
null,,black_cross(without_color),773905,blue,,,,null,GW/soldier.jpg,GW/paint.jpg,,,,,,,,,,,,
null,,rt_plussign_withcolor,774411,blue,,,,null,GW/soldier.jpg,GW/paint.jpg,,,,,,,,,,,,
1241.3000000715256,,rt_thecrossant_black,775476,black_plus_sign,,,,49,,,1,0.9906542056074766,,,,,,,,,,
null,,color_black,775585,black_plus_sign,,,,null,,,,,,,,,,,,,,
null,,learn_phase(without_color),777589,black_plus_sign,,,,null,GW/wheelchair.jpg,GW/paint.jpg,,,,,,,,,,,,
null,,black_cross(without_color),778662,green,,,,null,GW/wheelchair.jpg,GW/paint.jpg,,,,,,,,,,,,
null,,rt_plussign_withcolor,779170,green,,,,null,GW/wheelchair.jpg,GW/paint.jpg,,,,,,,,,,,,
1117.3999999761581,,rt_thecrossant_black,780114,black_plus_sign,,,,50,,,1,0.9907407407407407,,,,,,,,,,
null,,color_black,780224,black_plus_sign,,,,null,,,,,,,,,,,,,,
null,,learn_phase(without_color),782233,black_plus_sign,,,,null,GW/barrel.jpg,GW/soldier.jpg,,,,,,,,,,,,
null,,black_cross(without_color),782900,green,,,,null,GW/barrel.jpg,GW/soldier.jpg,,,,,,,,,,,,
null,,rt_plussign_withcolor,783410,green,,,,null,GW/barrel.jpg,GW/soldier.jpg,,,,,,,,,,,,
1411.6000000238419,,rt_thecrossant_black,784756,black_plus_sign,,,,50,,,1,0.9908256880733946,,,,,,,,,,
null,,color_black,784863,black_plus_sign,,,,null,,,,,,,,,,,,,,
null,,learn_phase(without_color),786869,black_plus_sign,,,,null,GW/soldier.jpg,GW/gong.jpg,,,,,,,,,,,,
null,,black_cross(without_color),787715,green,,,,null,GW/soldier.jpg,GW/gong.jpg,,,,,,,,,,,,
500.6999999284744,,rt_plussign_withcolor,788217,green,,,,50,GW/soldier.jpg,GW/gong.jpg,,,,,,,,,,,,
null,,rt_thecrossant_black,789396,black_plus_sign,,,,null,,,1,0.990909090909091,,,,,,,,,,
null,,color_black,789505,black_plus_sign,,,,null,,,,,,,,,,,,,,
null,,learn_phase(without_color),791510,black_plus_sign,,,,null,GW/soldier.jpg,GW/paint.jpg,,,,,,,,,,,,
null,,black_cross(without_color),792047,green,,,,null,GW/soldier.jpg,GW/paint.jpg,,,,,,,,,,,,
null,,rt_plussign_withcolor,792557,green,,,,null,GW/soldier.jpg,GW/paint.jpg,,,,,,,,,,,,
1134.2999999523163,,rt_thecrossant_black,794040,black_plus_sign,,,,50,,,1,0.990990990990991,,,,,,,,,,
null,,color_black,794156,black_plus_sign,,,,null,,,,,,,,,,,,,,
null,,learn_phase(without_color),796164,black_plus_sign,,,,null,GW/jukebox.jpg,GW/basket.jpg,,,,,,,,,,,,
null,,black_cross(without_color),796967,blue,,,,null,GW/jukebox.jpg,GW/basket.jpg,,,,,,,,,,,,
null,,rt_plussign_withcolor,797481,blue,,,,null,GW/jukebox.jpg,GW/basket.jpg,,,,,,,,,,,,
821.6999999284744,,rt_thecrossant_black,798691,black_plus_sign,,,,49,,,1,0.9910714285714286,,,,,,,,,,
null,,color_black,798799,black_plus_sign,,,,null,,,,,,,,,,,,,,
null,,learn_phase(without_color),800806,black_plus_sign,,,,null,GW/wheelchair.jpg,GW/paint.jpg,,,,,,,,,,,,
null,,black_cross(without_color),801381,blue,,,,null,GW/wheelchair.jpg,GW/paint.jpg,,,,,,,,,,,,
null,,rt_plussign_withcolor,801892,blue,,,,null,GW/wheelchair.jpg,GW/paint.jpg,,,,,,,,,,,,
1175.5999999046326,,rt_thecrossant_black,803331,black_plus_sign,,,,49,,,1,0.9911504424778761,,,,,,,,,,
null,,color_black,803440,black_plus_sign,,,,null,,,,,,,,,,,,,,
null,,learn_phase(without_color),805445,black_plus_sign,,,,null,GW/jukebox.jpg,GW/teeth.jpg,,,,,,,,,,,,
null,,black_cross(without_color),806500,green,,,,null,GW/jukebox.jpg,GW/teeth.jpg,,,,,,,,,,,,
null,,rt_plussign_withcolor,807006,green,,,,null,GW/jukebox.jpg,GW/teeth.jpg,,,,,,,,,,,,
937.7000000476837,,rt_thecrossant_black,807973,black_plus_sign,,,,50,,,1,0.9912280701754386,,,,,,,,,,
null,,color_black,808082,black_plus_sign,,,,null,,,,,,,,,,,,,,
null,,learn_phase(without_color),810090,black_plus_sign,,,,null,GW/barrel.jpg,GW/soldier.jpg,,,,,,,,,,,,
null,,black_cross(without_color),811073,blue,,,,null,GW/barrel.jpg,GW/soldier.jpg,,,,,,,,,,,,
null,,rt_plussign_withcolor,811582,blue,,,,null,GW/barrel.jpg,GW/soldier.jpg,,,,,,,,,,,,
1367.8999999761581,,rt_thecrossant_black,812611,black_plus_sign,,,,49,,,1,0.991304347826087,,,,,,,,,,
null,,color_black,812713,black_plus_sign,,,,null,,,,,,,,,,,,,,
null,,learn_phase(without_color),814723,black_plus_sign,,,,null,GW/jukebox.jpg,GW/camera.jpg,,,,,,,,,,,,
null,,black_cross(without_color),815150,blue,,,,null,GW/jukebox.jpg,GW/camera.jpg,,,,,,,,,,,,
null,,rt_plussign_withcolor,815656,blue,,,,null,GW/jukebox.jpg,GW/camera.jpg,,,,,,,,,,,,
1425.3999999761581,,rt_thecrossant_black,817245,black_plus_sign,,,,49,,,1,0.9913793103448276,,,,,,,,,,
null,,color_black,817355,black_plus_sign,,,,null,,,,,,,,,,,,,,
null,,learn_phase(without_color),819365,black_plus_sign,,,,null,GW/basket.jpg,GW/dustpan.jpg,,,,,,,,,,,,
null,,black_cross(without_color),820426,green,,,,null,GW/basket.jpg,GW/dustpan.jpg,,,,,,,,,,,,
null,,rt_plussign_withcolor,820932,green,,,,null,GW/basket.jpg,GW/dustpan.jpg,,,,,,,,,,,,
845.1000000238419,,rt_thecrossant_black,821879,black_plus_sign,,,,50,,,1,0.9914529914529915,,,,,,,,,,
null,,color_black,821983,black_plus_sign,,,,null,,,,,,,,,,,,,,
null,,learn_phase(without_color),823990,black_plus_sign,,,,null,GW/jukebox.jpg,GW/teeth.jpg,,,,,,,,,,,,
null,,black_cross(without_color),824960,green,,,,null,GW/jukebox.jpg,GW/teeth.jpg,,,,,,,,,,,,
null,,rt_plussign_withcolor,825469,green,,,,null,GW/jukebox.jpg,GW/teeth.jpg,,,,,,,,,,,,
1202.5,,rt_thecrossant_black,826523,black_plus_sign,,,,50,,,1,0.9915254237288136,,,,,,,,,,
null,,color_black,826632,black_plus_sign,,,,null,,,,,,,,,,,,,,
null,,learn_phase(without_color),828643,black_plus_sign,,,,null,GW/teeth.jpg,GW/wheelchair.jpg,,,,,,,,,,,,
null,,black_cross(without_color),829342,green,,,,null,GW/teeth.jpg,GW/wheelchair.jpg,,,,,,,,,,,,
501.89999997615814,,rt_plussign_withcolor,829845,green,,,,50,GW/teeth.jpg,GW/wheelchair.jpg,,,,,,,,,,,,
null,,rt_thecrossant_black,831159,black_plus_sign,,,,null,,,1,0.9915966386554622,,,,,,,,,,
null,,color_black,831268,black_plus_sign,,,,null,,,,,,,,,,,,,,
null,,learn_phase(without_color),833277,black_plus_sign,,,,null,GW/hat.jpg,GW/teeth.jpg,,,,,,,,,,,,
null,,black_cross(without_color),833842,blue,,,,null,GW/hat.jpg,GW/teeth.jpg,,,,,,,,,,,,
null,,rt_plussign_withcolor,834352,blue,,,,null,GW/hat.jpg,GW/teeth.jpg,,,,,,,,,,,,
837.8000000715256,,rt_thecrossant_black,835798,black_plus_sign,,,,49,,,1,0.9916666666666667,,,,,,,,,,
null,,color_black,835907,black_plus_sign,,,,null,,,,,,,,,,,,,,
null,,learn_phase(without_color),837916,black_plus_sign,,,,null,GW/snail.jpg,GW/hat.jpg,,,,,,,,,,,,
null,,black_cross(without_color),838593,green,,,,null,GW/snail.jpg,GW/hat.jpg,,,,,,,,,,,,
null,,rt_plussign_withcolor,839096,green,,,,null,GW/snail.jpg,GW/hat.jpg,,,,,,,,,,,,
661.3000000715256,,rt_thecrossant_black,840439,black_plus_sign,,,,50,,,1,0.9917355371900827,,,,,,,,,,
null,,color_black,840548,black_plus_sign,,,,null,,,,,,,,,,,,,,
null,,learn_phase(without_color),842558,black_plus_sign,,,,null,GW/hat.jpg,GW/teeth.jpg,,,,,,,,,,,,
null,,black_cross(without_color),843516,green,,,,null,GW/hat.jpg,GW/teeth.jpg,,,,,,,,,,,,
null,,rt_plussign_withcolor,844019,green,,,,null,GW/hat.jpg,GW/teeth.jpg,,,,,,,,,,,,
1077.6999999284744,,rt_thecrossant_black,845083,black_plus_sign,,,,50,,,1,0.9918032786885246,,,,,,,,,,
null,,color_black,845190,black_plus_sign,,,,null,,,,,,,,,,,,,,
null,,learn_phase(without_color),847199,black_plus_sign,,,,null,GW/teeth.jpg,GW/wheelchair.jpg,,,,,,,,,,,,
null,,black_cross(without_color),847655,blue,,,,null,GW/teeth.jpg,GW/wheelchair.jpg,,,,,,,,,,,,
null,,rt_plussign_withcolor,848160,blue,,,,null,GW/teeth.jpg,GW/wheelchair.jpg,,,,,,,,,,,,
1320.6999999284744,,rt_thecrossant_black,849712,black_plus_sign,,,,49,,,1,0.991869918699187,,,,,,,,,,
null,,color_black,849822,black_plus_sign,,,,null,,,,,,,,,,,,,,
null,,learn_phase(without_color),851833,black_plus_sign,,,,null,GW/barrel.jpg,GW/soldier.jpg,,,,,,,,,,,,
null,,black_cross(without_color),852313,green,,,,null,GW/barrel.jpg,GW/soldier.jpg,,,,,,,,,,,,
null,,rt_plussign_withcolor,852818,green,,,,null,GW/barrel.jpg,GW/soldier.jpg,,,,,,,,,,,,
713.8000000715256,,rt_thecrossant_black,854354,black_plus_sign,,,,50,,,1,0.9919354838709677,,,,,,,,,,
null,,color_black,854464,black_plus_sign,,,,null,,,,,,,,,,,,,,
null,,learn_phase(without_color),856470,black_plus_sign,,,,null,GW/jukebox.jpg,GW/teeth.jpg,,,,,,,,,,,,
null,,black_cross(without_color),857116,green,,,,null,GW/jukebox.jpg,GW/teeth.jpg,,,,,,,,,,,,
null,,rt_plussign_withcolor,857627,green,,,,null,GW/jukebox.jpg,GW/teeth.jpg,,,,,,,,,,,,
713.7000000476837,,rt_thecrossant_black,858997,black_plus_sign,,,,50,,,1,0.992,,,,,,,,,,
null,,color_black,859104,black_plus_sign,,,,null,,,,,,,,,,,,,,
null,,learn_phase(without_color),861115,black_plus_sign,,,,null,GW/jukebox.jpg,GW/basket.jpg,,,,,,,,,,,,
null,,black_cross(without_color),862194,blue,,,,null,GW/jukebox.jpg,GW/basket.jpg,,,,,,,,,,,,
null,,rt_plussign_withcolor,862697,blue,,,,null,GW/jukebox.jpg,GW/basket.jpg,,,,,,,,,,,,
766.8999999761581,,rt_thecrossant_black,863645,black_plus_sign,,,,49,,,1,0.9920634920634921,,,,,,,,,,
null,,color_black,863755,black_plus_sign,,,,null,,,,,,,,,,,,,,
null,,learn_phase(without_color),865764,black_plus_sign,,,,null,GW/soldier.jpg,GW/paint.jpg,,,,,,,,,,,,
null,,black_cross(without_color),866256,green,,,,null,GW/soldier.jpg,GW/paint.jpg,,,,,,,,,,,,
null,,rt_plussign_withcolor,866764,green,,,,null,GW/soldier.jpg,GW/paint.jpg,,,,,,,,,,,,
1561.2999999523163,,rt_thecrossant_black,868284,black_plus_sign,,,,50,,,1,0.9921259842519685,,,,,,,,,,
null,,color_black,868393,black_plus_sign,,,,null,,,,,,,,,,,,,,
null,,learn_phase(without_color),870405,black_plus_sign,,,,null,GW/jukebox.jpg,GW/teeth.jpg,,,,,,,,,,,,
null,,black_cross(without_color),871348,green,,,,null,GW/jukebox.jpg,GW/teeth.jpg,,,,,,,,,,,,
null,,rt_plussign_withcolor,871858,green,,,,null,GW/jukebox.jpg,GW/teeth.jpg,,,,,,,,,,,,
777.7999999523163,,rt_thecrossant_black,872940,black_plus_sign,,,,50,,,1,0.9921875,,,,,,,,,,
null,,color_black,873050,black_plus_sign,,,,null,,,,,,,,,,,,,,
12208,,intro_1,885261,instruct,,0,Start,,,,,,,,,,,,,,,
4390.699999928474,,directmemory_phase,889658,GW/barrel.jpg,,,,49,,,0,0,GW/jukebox.jpg,GW/wheelchair.jpg,GW/globe.jpg,GW/globe.jpg,GW/wheelchair.jpg,GW/jukebox.jpg,0.5,closer,,
null,,html-keyboard-response,890663,<p></p>,,,,null,,,,,,,,,,,,,,
2911.2000000476837,,directmemory_phase,893576,GW/wheelchair.jpg,,,,51,,,1,0.5,GW/dustpan.jpg,GW/jukebox.jpg,GW/paint.jpg,GW/paint.jpg,GW/jukebox.jpg,GW/dustpan.jpg,1,,,
null,,html-keyboard-response,894582,<p></p>,,,,null,,,,,,,,,,,,,,
2630.0999999046326,,directmemory_phase,897214,GW/soldier.jpg,,,,49,,,1,0.6666666666666666,GW/barrel.jpg,GW/basket.jpg,GW/snail.jpg,GW/barrel.jpg,GW/snail.jpg,GW/basket.jpg,1,,,
null,,html-keyboard-response,898218,<p></p>,,,,null,,,,,,,,,,,,,,
3562.600000023842,,directmemory_phase,901783,GW/hat.jpg,,,,50,,,1,0.75,GW/camera.jpg,GW/snail.jpg,GW/globe.jpg,GW/snail.jpg,GW/camera.jpg,GW/globe.jpg,1,,,
null,,html-keyboard-response,902792,<p></p>,,,,null,,,,,,,,,,,,,,
1941.6999999284744,,directmemory_phase,904737,GW/paint.jpg,,,,49,,,1,0.8,GW/soldier.jpg,GW/basket.jpg,GW/barrel.jpg,GW/soldier.jpg,GW/barrel.jpg,GW/basket.jpg,1,,,
null,,html-keyboard-response,905748,<p></p>,,,,null,,,,,,,,,,,,,,
1225.8000000715256,,directmemory_phase,906976,GW/wheelchair.jpg,,,,49,,,1,0.8333333333333334,GW/snail.jpg,GW/gong.jpg,GW/basket.jpg,GW/snail.jpg,GW/basket.jpg,GW/gong.jpg,1,,,
null,,html-keyboard-response,907993,<p></p>,,,,null,,,,,,,,,,,,,,
2628.2999999523163,,directmemory_phase,910624,GW/barrel.jpg,,,,49,,,0,0.7142857142857143,GW/jukebox.jpg,GW/wheelchair.jpg,GW/soldier.jpg,GW/soldier.jpg,GW/wheelchair.jpg,GW/jukebox.jpg,0.5,closer,,
null,,html-keyboard-response,911639,<p></p>,,,,null,,,,,,,,,,,,,,
2540.5,,directmemory_phase,914182,GW/snail.jpg,,,,51,,,1,0.75,GW/gong.jpg,GW/soldier.jpg,GW/wheelchair.jpg,GW/wheelchair.jpg,GW/soldier.jpg,GW/gong.jpg,1,,,
null,,html-keyboard-response,915188,<p></p>,,,,null,,,,,,,,,,,,,,
1839.1000000238419,,directmemory_phase,917029,GW/hat.jpg,,,,50,,,1,0.7777777777777778,GW/camera.jpg,GW/teeth.jpg,GW/dustpan.jpg,GW/teeth.jpg,GW/camera.jpg,GW/dustpan.jpg,1,,,
null,,html-keyboard-response,918036,<p></p>,,,,null,,,,,,,,,,,,,,
2287.1999999284744,,directmemory_phase,920326,GW/basket.jpg,,,,51,,,1,0.8,GW/barrel.jpg,GW/hat.jpg,GW/jukebox.jpg,GW/jukebox.jpg,GW/hat.jpg,GW/barrel.jpg,1,,,
null,,html-keyboard-response,921342,<p></p>,,,,null,,,,,,,,,,,,,,
3291.7999999523163,,directmemory_phase,924637,GW/teeth.jpg,,,,51,,,1,0.8181818181818182,GW/soldier.jpg,GW/paint.jpg,GW/wheelchair.jpg,GW/wheelchair.jpg,GW/paint.jpg,GW/soldier.jpg,1,,,
null,,html-keyboard-response,925655,<p></p>,,,,null,,,,,,,,,,,,,,
1758.7999999523163,,directmemory_phase,927416,GW/gong.jpg,,,,49,,,0,0.75,GW/barrel.jpg,GW/soldier.jpg,GW/globe.jpg,GW/soldier.jpg,GW/barrel.jpg,GW/globe.jpg,0.5,closer,,
null,,html-keyboard-response,928426,<p></p>,,,,null,,,,,,,,,,,,,,
2611.6999999284744,,directmemory_phase,931040,GW/wheelchair.jpg,,,,50,,,1,0.7692307692307693,GW/soldier.jpg,GW/teeth.jpg,GW/dustpan.jpg,GW/teeth.jpg,GW/soldier.jpg,GW/dustpan.jpg,1,,,
null,,html-keyboard-response,932048,<p></p>,,,,null,,,,,,,,,,,,,,
2145.899999976158,,directmemory_phase,934196,GW/soldier.jpg,,,,49,,,1,0.7857142857142857,GW/gong.jpg,GW/basket.jpg,GW/snail.jpg,GW/gong.jpg,GW/snail.jpg,GW/basket.jpg,1,,,
null,,html-keyboard-response,935200,<p></p>,,,,null,,,,,,,,,,,,,,
1563.6000000238419,,directmemory_phase,936766,GW/teeth.jpg,,,,49,,,1,0.8,GW/hat.jpg,GW/barrel.jpg,GW/paint.jpg,GW/hat.jpg,GW/paint.jpg,GW/barrel.jpg,1,,,
null,,html-keyboard-response,937777,<p></p>,,,,null,,,,,,,,,,,,,,
2249.100000023842,,directmemory_phase,940028,GW/snail.jpg,,,,50,,,0,0.75,GW/barrel.jpg,GW/basket.jpg,GW/globe.jpg,GW/barrel.jpg,GW/globe.jpg,GW/basket.jpg,0.5,closer,,
null,,html-keyboard-response,941038,<p></p>,,,,null,,,,,,,,,,,,,,
1622.8999999761581,,directmemory_phase,942663,GW/jukebox.jpg,,,,51,,,1,0.7647058823529411,GW/globe.jpg,GW/dustpan.jpg,GW/teeth.jpg,GW/teeth.jpg,GW/dustpan.jpg,GW/globe.jpg,1,,,
null,,html-keyboard-response,943669,<p></p>,,,,null,,,,,,,,,,,,,,
1267.2999999523163,,directmemory_phase,944939,GW/paint.jpg,,,,51,,,1,0.7777777777777778,GW/dustpan.jpg,GW/teeth.jpg,GW/wheelchair.jpg,GW/wheelchair.jpg,GW/teeth.jpg,GW/dustpan.jpg,1,,,
null,,html-keyboard-response,945946,<p></p>,,,,null,,,,,,,,,,,,,,
1278.7000000476837,,directmemory_phase,947227,GW/camera.jpg,,,,50,,,1,0.7894736842105263,GW/hat.jpg,GW/jukebox.jpg,GW/snail.jpg,GW/jukebox.jpg,GW/hat.jpg,GW/snail.jpg,1,,,
null,,html-keyboard-response,948235,<p></p>,,,,null,,,,,,,,,,,,,,
1443.1000000238419,,directmemory_phase,949680,GW/basket.jpg,,,,50,,,0,0.75,GW/soldier.jpg,GW/hat.jpg,GW/teeth.jpg,GW/teeth.jpg,GW/hat.jpg,GW/soldier.jpg,0.5,closer,,
null,,html-keyboard-response,950685,<p></p>,,,,null,,,,,,,,,,,,,,
1683.1000000238419,,directmemory_phase,952370,GW/barrel.jpg,,,,49,,,0,0.7142857142857143,GW/camera.jpg,GW/hat.jpg,GW/snail.jpg,GW/snail.jpg,GW/hat.jpg,GW/camera.jpg,0.5,closer,,
null,,html-keyboard-response,953381,<p></p>,,,,null,,,,,,,,,,,,,,
2045.3999999761581,,directmemory_phase,955429,GW/teeth.jpg,,,,51,,,1,0.7272727272727273,GW/globe.jpg,GW/paint.jpg,GW/jukebox.jpg,GW/jukebox.jpg,GW/paint.jpg,GW/globe.jpg,1,,,
null,,html-keyboard-response,956435,<p></p>,,,,null,,,,,,,,,,,,,,
1806.3000000715256,,directmemory_phase,958244,GW/soldier.jpg,,,,49,,,1,0.7391304347826086,GW/paint.jpg,GW/hat.jpg,GW/snail.jpg,GW/paint.jpg,GW/snail.jpg,GW/hat.jpg,1,,,
null,,html-keyboard-response,959253,<p></p>,,,,null,,,,,,,,,,,,,,
1093.2000000476837,,directmemory_phase,960349,GW/snail.jpg,,,,49,,,1,0.75,GW/hat.jpg,GW/camera.jpg,GW/jukebox.jpg,GW/hat.jpg,GW/jukebox.jpg,GW/camera.jpg,1,,,
null,,html-keyboard-response,961354,<p></p>,,,,null,,,,,,,,,,,,,,
921.9000000953674,,directmemory_phase,962278,GW/globe.jpg,,,,49,,,1,0.76,GW/barrel.jpg,GW/wheelchair.jpg,GW/soldier.jpg,GW/barrel.jpg,GW/soldier.jpg,GW/wheelchair.jpg,1,,,
null,,html-keyboard-response,963293,<p></p>,,,,null,,,,,,,,,,,,,,
2670.2999999523163,,directmemory_phase,965966,GW/basket.jpg,,,,49,,,1,0.7692307692307693,GW/dustpan.jpg,GW/paint.jpg,GW/camera.jpg,GW/dustpan.jpg,GW/camera.jpg,GW/paint.jpg,1,,,
null,,html-keyboard-response,966974,<p></p>,,,,null,,,,,,,,,,,,,,
986.1000000238419,,directmemory_phase,967962,GW/hat.jpg,,,,51,,,0,0.7407407407407407,GW/jukebox.jpg,GW/gong.jpg,GW/basket.jpg,GW/jukebox.jpg,GW/basket.jpg,GW/gong.jpg,0.5,closer,,
null,,html-keyboard-response,968970,<p></p>,,,,null,,,,,,,,,,,,,,
1886,,directmemory_phase,970858,GW/teeth.jpg,,,,51,,,1,0.75,GW/gong.jpg,GW/dustpan.jpg,GW/basket.jpg,GW/basket.jpg,GW/dustpan.jpg,GW/gong.jpg,1,,,
null,,html-keyboard-response,971869,<p></p>,,,,null,,,,,,,,,,,,,,
1568.5,,directmemory_phase,973440,GW/jukebox.jpg,,,,51,,,0,0.7241379310344828,GW/dustpan.jpg,GW/camera.jpg,GW/barrel.jpg,GW/camera.jpg,GW/dustpan.jpg,GW/barrel.jpg,0.5,closer,,
null,,html-keyboard-response,974455,<p></p>,,,,null,,,,,,,,,,,,,,
1054.7999999523163,,directmemory_phase,975512,GW/dustpan.jpg,,,,51,,,1,0.7333333333333333,GW/hat.jpg,GW/teeth.jpg,GW/basket.jpg,GW/basket.jpg,GW/teeth.jpg,GW/hat.jpg,1,,,
null,,html-keyboard-response,976523,<p></p>,,,,null,,,,,,,,,,,,,,
2383.5,,directmemory_phase,978908,GW/jukebox.jpg,,,,49,,,1,0.7419354838709677,GW/hat.jpg,GW/paint.jpg,GW/wheelchair.jpg,GW/hat.jpg,GW/wheelchair.jpg,GW/paint.jpg,1,,,
null,,html-keyboard-response,979920,<p></p>,,,,null,,,,,,,,,,,,,,
4689.100000023842,,directmemory_phase,984611,,,,,51,,,1,0.75,,,,,,,0.5,closer,,
null,,html-keyboard-response,985615,<p></p>,,,,null,,,,,,,,,,,,,,
22075.199999928474,,intro_1,1007692,instruct,,0,,,,,,,,,,,,,,,,
11085.600000023842,,intro_2,1018782,instruct,,1,Next,,,,,,,,,,,,,,,
3524.5,,intro_3,1022310,instruct,,1,Next,,,,,,,,,,,,,,,
5943.600000023842,,intro_4,1028257,instruct,,1,Next,,,,,,,,,,,,,,,
17522.200000047684,,intro_5,1045783,instruct,,1,Next,,,,,,,,,,,,,,,
22263.5,,intro_6,1068051,instruct,,1,Next,,,,,,,,,,,,,,,
6753.700000047684,,intro_7,1074808,instruct,,1,Next,,,,,,,,,,,,,,,
10608.5,,intro_8,1085421,instruct,,1,Next,,,,,,,,,,,,,,,
4337.399999976158,,shortestpath_phase,1089763,GW/camera.jpg,,,,50,GW/barrel.jpg,GW/soldier.jpg,0,0,,,,GW/barrel.jpg,,,,,One Edge Diff,Four Edge Five Edge
null,,html-keyboard-response,1090780,<p></p>,,,,null,,,,,,,,,,,,,,
2326.7999999523163,,shortestpath_phase,1093109,GW/globe.jpg,,,,50,GW/teeth.jpg,GW/soldier.jpg,1,0.5,,,,GW/soldier.jpg,,,,,Two Edge Diff,Two Edge Four Edge
null,,html-keyboard-response,1094127,<p></p>,,,,null,,,,,,,,,,,,,,
5621.300000071526,,shortestpath_phase,1099751,GW/camera.jpg,,,,50,GW/wheelchair.jpg,GW/globe.jpg,0,0.3333333333333333,,,,GW/wheelchair.jpg,,,,,Two Edge Diff,Three Edge Five Edge
null,,html-keyboard-response,1100757,<p></p>,,,,null,,,,,,,,,,,,,,
2536.399999976158,,shortestpath_phase,1103295,GW/gong.jpg,,,,50,GW/barrel.jpg,GW/jukebox.jpg,0,0.25,,,,GW/barrel.jpg,,,,,Three Edge Diff,Three Edge Six Edge
null,,html-keyboard-response,1104309,<p></p>,,,,null,,,,,,,,,,,,,,
1612.1999999284744,,shortestpath_phase,1105924,GW/basket.jpg,,,,49,GW/soldier.jpg,GW/camera.jpg,0,0.2,,,,GW/camera.jpg,,,,,Two Edge Diff,Two Edge Four Edge
null,,html-keyboard-response,1106935,<p></p>,,,,null,,,,,,,,,,,,,,
2112.5,,shortestpath_phase,1109049,GW/dustpan.jpg,,,,50,GW/globe.jpg,GW/paint.jpg,1,0.3333333333333333,,,,GW/paint.jpg,,,,,Two Edge Diff,Four Edge Six Edge
null,,html-keyboard-response,1110065,<p></p>,,,,null,,,,,,,,,,,,,,
1051.6000000238419,,shortestpath_phase,1111119,GW/camera.jpg,,,,49,GW/barrel.jpg,GW/teeth.jpg,0,0.2857142857142857,,,,GW/teeth.jpg,,,,,Two Edge Diff,Two Edge Four Edge
null,,html-keyboard-response,1112124,<p></p>,,,,null,,,,,,,,,,,,,,
1003.7000000476837,,shortestpath_phase,1113130,GW/gong.jpg,,,,50,GW/basket.jpg,GW/barrel.jpg,1,0.375,,,,GW/barrel.jpg,,,,,Three Edge Diff,Two Edge Five Edge
null,,html-keyboard-response,1114142,<p></p>,,,,null,,,,,,,,,,,,,,
1593.2000000476837,,shortestpath_phase,1115738,GW/basket.jpg,,,,50,GW/camera.jpg,GW/snail.jpg,0,0.3333333333333333,,,,GW/camera.jpg,,,,,One Edge Diff,Two Edge Three Edge
null,,html-keyboard-response,1116747,<p></p>,,,,null,,,,,,,,,,,,,,
1529.2000000476837,,shortestpath_phase,1118278,GW/gong.jpg,,,,50,GW/basket.jpg,GW/teeth.jpg,1,0.4,,,,GW/teeth.jpg,,,,,One Edge Diff,Four Edge Five Edge
null,,html-keyboard-response,1119285,<p></p>,,,,null,,,,,,,,,,,,,,
1666.8000000715256,,shortestpath_phase,1120954,GW/globe.jpg,,,,50,GW/dustpan.jpg,GW/snail.jpg,1,0.45454545454545453,,,,GW/snail.jpg,,,,,Four Edge Diff,Two Edge Six Edge
null,,html-keyboard-response,1121972,<p></p>,,,,null,,,,,,,,,,,,,,
918,,shortestpath_phase,1122893,GW/wheelchair.jpg,,,,50,GW/gong.jpg,GW/jukebox.jpg,1,0.5,,,,GW/jukebox.jpg,,,,,One Edge Diff,Two Edge Three Edge
null,,html-keyboard-response,1123904,<p></p>,,,,null,,,,,,,,,,,,,,
813.6000000238419,,shortestpath_phase,1124719,GW/dustpan.jpg,,,,50,GW/gong.jpg,GW/paint.jpg,1,0.5384615384615384,,,,GW/paint.jpg,,,,,Two Edge Diff,Four Edge Six Edge
null,,html-keyboard-response,1125728,<p></p>,,,,null,,,,,,,,,,,,,,
1710.1000000238419,,shortestpath_phase,1127441,GW/globe.jpg,,,,49,GW/wheelchair.jpg,GW/teeth.jpg,1,0.5714285714285714,,,,GW/wheelchair.jpg,,,,,One Edge Diff,Three Edge Four Edge
null,,html-keyboard-response,1128445,<p></p>,,,,null,,,,,,,,,,,,,,
908.1999999284744,,shortestpath_phase,1129356,GW/paint.jpg,,,,50,GW/gong.jpg,GW/jukebox.jpg,0,0.5333333333333333,,,,GW/gong.jpg,,,,,One Edge Diff,Two Edge Three Edge
null,,html-keyboard-response,1130367,<p></p>,,,,null,,,,,,,,,,,,,,
915.1000000238419,,shortestpath_phase,1131285,GW/soldier.jpg,,,,50,GW/teeth.jpg,GW/globe.jpg,1,0.5625,,,,GW/globe.jpg,,,,,One Edge Diff,Two Edge Three Edge
null,,html-keyboard-response,1132297,<p></p>,,,,null,,,,,,,,,,,,,,
548.9000000953674,,shortestpath_phase,1132849,GW/camera.jpg,,,,49,GW/barrel.jpg,GW/gong.jpg,1,0.5882352941176471,,,,GW/barrel.jpg,,,,,Two Edge Diff,Four Edge Six Edge
null,,html-keyboard-response,1133864,<p></p>,,,,null,,,,,,,,,,,,,,
443.1999999284744,,shortestpath_phase,1134309,GW/gong.jpg,,,,50,GW/camera.jpg,GW/jukebox.jpg,1,0.6111111111111112,,,,GW/jukebox.jpg,,,,,One Edge Diff,Five Edge Six Edge
null,,html-keyboard-response,1135318,<p></p>,,,,null,,,,,,,,,,,,,,
668.2000000476837,,shortestpath_phase,1135989,GW/dustpan.jpg,,,,50,GW/barrel.jpg,GW/snail.jpg,1,0.631578947368421,,,,GW/snail.jpg,,,,,One Edge Diff,Four Edge Five Edge
null,,html-keyboard-response,1137006,<p></p>,,,,null,,,,,,,,,,,,,,
1458.9000000953674,,shortestpath_phase,1138467,GW/gong.jpg,,,,49,GW/basket.jpg,GW/hat.jpg,0,0.6,,,,GW/hat.jpg,,,,,One Edge Diff,Four Edge Five Edge
null,,html-keyboard-response,1139479,<p></p>,,,,null,,,,,,,,,,,,,,
1105.5,,shortestpath_phase,1140586,GW/barrel.jpg,,,,50,GW/camera.jpg,GW/jukebox.jpg,1,0.6190476190476191,,,,GW/jukebox.jpg,,,,,One Edge Diff,Three Edge Four Edge
null,,html-keyboard-response,1141592,<p></p>,,,,null,,,,,,,,,,,,,,
1104.8000000715256,,shortestpath_phase,1142700,GW/basket.jpg,,,,49,GW/globe.jpg,GW/wheelchair.jpg,0,0.5909090909090909,,,,GW/wheelchair.jpg,,,,,Three Edge Diff,Three Edge Six Edge
null,,html-keyboard-response,1143714,<p></p>,,,,null,,,,,,,,,,,,,,
903.6000000238419,,shortestpath_phase,1144620,GW/soldier.jpg,,,,50,GW/dustpan.jpg,GW/teeth.jpg,1,0.6086956521739131,,,,GW/teeth.jpg,,,,,Two Edge Diff,Three Edge Five Edge
null,,html-keyboard-response,1145627,<p></p>,,,,null,,,,,,,,,,,,,,
796.5,,shortestpath_phase,1146426,GW/gong.jpg,,,,50,GW/paint.jpg,GW/dustpan.jpg,0,0.5833333333333334,,,,GW/paint.jpg,,,,,Four Edge Diff,Two Edge Six Edge
null,,html-keyboard-response,1147438,<p></p>,,,,null,,,,,,,,,,,,,,
938.5999999046326,,shortestpath_phase,1148378,GW/dustpan.jpg,,,,50,GW/barrel.jpg,GW/wheelchair.jpg,1,0.6,,,,GW/wheelchair.jpg,,,,,Two Edge Diff,Three Edge Five Edge
null,,html-keyboard-response,1149384,<p></p>,,,,null,,,,,,,,,,,,,,
796.7999999523163,,shortestpath_phase,1150184,GW/paint.jpg,,,,50,GW/gong.jpg,GW/camera.jpg,0,0.5769230769230769,,,,GW/gong.jpg,,,,,Two Edge Diff,Two Edge Four Edge
null,,html-keyboard-response,1151202,<p></p>,,,,null,,,,,,,,,,,,,,
907.1000000238419,,shortestpath_phase,1152111,GW/globe.jpg,,,,49,GW/dustpan.jpg,GW/basket.jpg,0,0.5555555555555556,,,,GW/basket.jpg,,,,,One Edge Diff,Five Edge Six Edge
null,,html-keyboard-response,1153119,<p></p>,,,,null,,,,,,,,,,,,,,
1264.6000000238419,,shortestpath_phase,1154386,GW/gong.jpg,,,,49,GW/hat.jpg,GW/camera.jpg,1,0.5714285714285714,,,,GW/hat.jpg,,,,,Two Edge Diff,Four Edge Six Edge
null,,html-keyboard-response,1155402,<p></p>,,,,null,,,,,,,,,,,,,,
917.3999999761581,,shortestpath_phase,1156322,GW/camera.jpg,,,,49,GW/basket.jpg,GW/globe.jpg,1,0.5862068965517241,,,,GW/basket.jpg,,,,,Three Edge Diff,Three Edge Six Edge
null,,html-keyboard-response,1157327,<p></p>,,,,null,,,,,,,,,,,,,,
1067.7999999523163,,shortestpath_phase,1158397,GW/gong.jpg,,,,50,GW/jukebox.jpg,GW/barrel.jpg,1,0.6,,,,GW/barrel.jpg,,,,,Three Edge Diff,Two Edge Five Edge
null,,html-keyboard-response,1159414,<p></p>,,,,null,,,,,,,,,,,,,,
1137.6000000238419,,shortestpath_phase,1160554,GW/teeth.jpg,,,,50,GW/globe.jpg,GW/soldier.jpg,1,0.6129032258064516,,,,GW/soldier.jpg,,,,,One Edge Diff,Three Edge Four Edge
null,,html-keyboard-response,1161563,<p></p>,,,,null,,,,,,,,,,,,,,
1307.5999999046326,,shortestpath_phase,1162872,GW/barrel.jpg,,,,50,GW/dustpan.jpg,GW/hat.jpg,1,0.625,,,,GW/hat.jpg,,,,,Three Edge Diff,Three Edge Six Edge
null,,html-keyboard-response,1163881,<p></p>,,,,null,,,,,,,,,,,,,,
795.6000000238419,,shortestpath_phase,1164679,GW/gong.jpg,,,,50,GW/hat.jpg,GW/wheelchair.jpg,1,0.6363636363636364,,,,GW/wheelchair.jpg,,,,,One Edge Diff,Three Edge Four Edge
null,,html-keyboard-response,1165690,<p></p>,,,,null,,,,,,,,,,,,,,
971.2999999523163,,shortestpath_phase,1166664,GW/basket.jpg,,,,50,GW/gong.jpg,GW/barrel.jpg,1,0.6470588235294118,,,,GW/barrel.jpg,,,,,One Edge Diff,Four Edge Five Edge
null,,html-keyboard-response,1167672,<p></p>,,,,null,,,,,,,,,,,,,,
1124.7000000476837,,shortestpath_phase,1168799,GW/jukebox.jpg,,,,49,GW/gong.jpg,GW/wheelchair.jpg,0,0.6285714285714286,,,,GW/wheelchair.jpg,,,,,Three Edge Diff,Three Edge Six Edge
null,,html-keyboard-response,1169807,<p></p>,,,,null,,,,,,,,,,,,,,
999.8999999761581,,shortestpath_phase,1170810,GW/gong.jpg,,,,50,GW/dustpan.jpg,GW/barrel.jpg,1,0.6388888888888888,,,,GW/barrel.jpg,,,,,Four Edge Diff,Two Edge Six Edge
null,,html-keyboard-response,1171818,<p></p>,,,,null,,,,,,,,,,,,,,
913,,shortestpath_phase,1172734,GW/wheelchair.jpg,,,,50,GW/basket.jpg,GW/gong.jpg,0,0.6216216216216216,,,,GW/basket.jpg,,,,,One Edge Diff,Two Edge Three Edge
null,,html-keyboard-response,1173745,<p></p>,,,,null,,,,,,,,,,,,,,
400.8000000715256,,shortestpath_phase,1174148,GW/globe.jpg,,,,49,GW/soldier.jpg,GW/basket.jpg,1,0.631578947368421,,,,GW/soldier.jpg,,,,,Three Edge Diff,Two Edge Five Edge
null,,html-keyboard-response,1175157,<p></p>,,,,null,,,,,,,,,,,,,,
802.8999999761581,,shortestpath_phase,1175963,GW/barrel.jpg,,,,50,GW/dustpan.jpg,GW/wheelchair.jpg,1,0.6410256410256411,,,,GW/wheelchair.jpg,,,,,Three Edge Diff,Two Edge Five Edge
null,,html-keyboard-response,1176966,<p></p>,,,,null,,,,,,,,,,,,,,
848.7999999523163,,shortestpath_phase,1177817,GW/dustpan.jpg,,,,49,GW/soldier.jpg,GW/teeth.jpg,0,0.625,,,,GW/teeth.jpg,,,,,Three Edge Diff,Two Edge Five Edge
null,,html-keyboard-response,1178824,<p></p>,,,,null,,,,,,,,,,,,,,
1372.1999999284744,,shortestpath_phase,1180198,GW/soldier.jpg,,,,49,GW/snail.jpg,GW/camera.jpg,1,0.6341463414634146,,,,GW/snail.jpg,,,,,Three Edge Diff,Three Edge Six Edge
null,,html-keyboard-response,1181212,<p></p>,,,,null,,,,,,,,,,,,,,
791.3999999761581,,shortestpath_phase,1182006,GW/gong.jpg,,,,49,GW/barrel.jpg,GW/camera.jpg,1,0.6428571428571429,,,,GW/barrel.jpg,,,,,Four Edge Diff,Two Edge Six Edge
null,,html-keyboard-response,1183022,<p></p>,,,,null,,,,,,,,,,,,,,
850.2999999523163,,shortestpath_phase,1183875,GW/soldier.jpg,,,,49,GW/wheelchair.jpg,GW/jukebox.jpg,1,0.6511627906976745,,,,GW/wheelchair.jpg,,,,,Two Edge Diff,Two Edge Four Edge
null,,html-keyboard-response,1184881,<p></p>,,,,null,,,,,,,,,,,,,,
813.6000000238419,,shortestpath_phase,1185697,GW/dustpan.jpg,,,,49,GW/snail.jpg,GW/gong.jpg,1,0.6590909090909091,,,,GW/snail.jpg,,,,,Two Edge Diff,Four Edge Six Edge
null,,html-keyboard-response,1186715,<p></p>,,,,null,,,,,,,,,,,,,,
894.1999999284744,,shortestpath_phase,1187611,GW/gong.jpg,,,,49,GW/dustpan.jpg,GW/basket.jpg,0,0.6444444444444445,,,,GW/basket.jpg,,,,,One Edge Diff,Five Edge Six Edge
null,,html-keyboard-response,1188627,<p></p>,,,,null,,,,,,,,,,,,,,
1120.3999999761581,,shortestpath_phase,1189750,GW/dustpan.jpg,,,,49,GW/barrel.jpg,GW/globe.jpg,1,0.6521739130434783,,,,GW/barrel.jpg,,,,,One Edge Diff,Five Edge Six Edge
null,,html-keyboard-response,1190758,<p></p>,,,,null,,,,,,,,,,,,,,
1048.5,,shortestpath_phase,1191809,GW/gong.jpg,,,,49,GW/dustpan.jpg,GW/hat.jpg,0,0.6382978723404256,,,,GW/hat.jpg,,,,,Two Edge Diff,Four Edge Six Edge
null,,html-keyboard-response,1192829,<p></p>,,,,null,,,,,,,,,,,,,,
1196.2000000476837,,shortestpath_phase,1194027,GW/dustpan.jpg,,,,50,GW/jukebox.jpg,GW/barrel.jpg,0,0.625,,,,GW/jukebox.jpg,,,,,Three Edge Diff,Three Edge Six Edge
null,,html-keyboard-response,1195032,<p></p>,,,,null,,,,,,,,,,,,,,
1512.5,,shortestpath_phase,1196547,GW/soldier.jpg,,,,49,GW/hat.jpg,GW/camera.jpg,1,0.6326530612244898,,,,GW/hat.jpg,,,,,Two Edge Diff,Three Edge Five Edge
null,,html-keyboard-response,1197559,<p></p>,,,,null,,,,,,,,,,,,,,
791.0999999046326,,shortestpath_phase,1198353,GW/jukebox.jpg,,,,50,GW/globe.jpg,GW/barrel.jpg,1,0.64,,,,GW/barrel.jpg,,,,,One Edge Diff,Three Edge Four Edge
null,,html-keyboard-response,1199361,<p></p>,,,,null,,,,,,,,,,,,,,
570.6000000238419,,shortestpath_phase,1199934,GW/camera.jpg,,,,49,GW/gong.jpg,GW/globe.jpg,0,0.6274509803921569,,,,GW/globe.jpg,,,,,One Edge Diff,Five Edge Six Edge
null,,html-keyboard-response,1200947,<p></p>,,,,null,,,,,,,,,,,,,,
603.4000000953674,,shortestpath_phase,1201553,GW/jukebox.jpg,,,,50,GW/gong.jpg,GW/snail.jpg,1,0.6346153846153846,,,,GW/snail.jpg,,,,,Three Edge Diff,Two Edge Five Edge
null,,html-keyboard-response,1202560,<p></p>,,,,null,,,,,,,,,,,,,,
420.1999999284744,,shortestpath_phase,1202982,GW/barrel.jpg,,,,50,GW/gong.jpg,GW/dustpan.jpg,0,0.6226415094339622,,,,GW/gong.jpg,,,,,Three Edge Diff,Three Edge Six Edge
null,,html-keyboard-response,1203991,<p></p>,,,,null,,,,,,,,,,,,,,
96.39999997615814,,shortestpath_phase,1204090,GW/paint.jpg,,,,49,GW/dustpan.jpg,GW/jukebox.jpg,0,0.6111111111111112,,,,GW/jukebox.jpg,,,,,One Edge Diff,Three Edge Four Edge
null,,html-keyboard-response,1205094,<p></p>,,,,null,,,,,,,,,,,,,,
566.5,,shortestpath_phase,1205663,GW/gong.jpg,,,,50,GW/basket.jpg,GW/snail.jpg,1,0.6181818181818182,,,,GW/snail.jpg,,,,,Two Edge Diff,Three Edge Five Edge
null,,html-keyboard-response,1206678,<p></p>,,,,null,,,,,,,,,,,,,,
98.10000002384186,,shortestpath_phase,1206779,GW/camera.jpg,,,,49,GW/wheelchair.jpg,GW/teeth.jpg,0,0.6071428571428571,,,,GW/teeth.jpg,,,,,One Edge Diff,Two Edge Three Edge
null,,html-keyboard-response,1207797,<p></p>,,,,null,,,,,,,,,,,,,,
338.5,,shortestpath_phase,1208137,GW/gong.jpg,,,,49,GW/basket.jpg,GW/camera.jpg,1,0.6140350877192983,,,,GW/basket.jpg,,,,,One Edge Diff,Five Edge Six Edge
null,,html-keyboard-response,1209146,<p></p>,,,,null,,,,,,,,,,,,,,
326.7999999523163,,shortestpath_phase,1209475,GW/camera.jpg,,,,49,GW/paint.jpg,GW/gong.jpg,1,0.6206896551724138,,,,GW/paint.jpg,,,,,Two Edge Diff,Four Edge Six Edge
null,,html-keyboard-response,1210484,<p></p>,,,,null,,,,,,,,,,,,,,
532.1999999284744,,shortestpath_phase,1211018,GW/jukebox.jpg,,,,49,GW/soldier.jpg,GW/gong.jpg,1,0.6271186440677966,,,,GW/soldier.jpg,,,,,One Edge Diff,Four Edge Five Edge
null,,html-keyboard-response,1212024,<p></p>,,,,null,,,,,,,,,,,,,,
576.5,,shortestpath_phase,1212603,GW/gong.jpg,,,,50,GW/paint.jpg,GW/teeth.jpg,0,0.6166666666666667,,,,GW/paint.jpg,,,,,Two Edge Diff,Two Edge Four Edge
null,,html-keyboard-response,1213610,<p></p>,,,,null,,,,,,,,,,,,,,
651.1000000238419,,shortestpath_phase,1214264,GW/dustpan.jpg,,,,50,GW/snail.jpg,GW/globe.jpg,0,0.6065573770491803,,,,GW/snail.jpg,,,,,Two Edge Diff,Four Edge Six Edge
null,,html-keyboard-response,1215280,<p></p>,,,,null,,,,,,,,,,,,,,
14.299999952316284,,shortestpath_phase,1215297,GW/globe.jpg,,,,49,GW/camera.jpg,GW/dustpan.jpg,1,0.6129032258064516,,,,GW/camera.jpg,,,,,One Edge Diff,Five Edge Six Edge
null,,html-keyboard-response,1216311,<p></p>,,,,null,,,,,,,,,,,,,,
468.2999999523163,,shortestpath_phase,1216782,GW/dustpan.jpg,,,,50,GW/gong.jpg,GW/soldier.jpg,1,0.6190476190476191,,,,GW/soldier.jpg,,,,,One Edge Diff,Five Edge Six Edge
null,,html-keyboard-response,1217792,<p></p>,,,,null,,,,,,,,,,,,,,
299,,shortestpath_phase,1218094,GW/globe.jpg,,,,49,GW/basket.jpg,GW/gong.jpg,0,0.609375,,,,GW/gong.jpg,,,,,Two Edge Diff,Three Edge Five Edge
null,,html-keyboard-response,1219097,<p></p>,,,,null,,,,,,,,,,,,,,
179.5,,shortestpath_phase,1219279,GW/dustpan.jpg,,,,50,GW/jukebox.jpg,GW/globe.jpg,0,0.6,,,,GW/jukebox.jpg,,,,,Four Edge Diff,Two Edge Six Edge
null,,html-keyboard-response,1220283,<p></p>,,,,null,,,,,,,,,,,,,,
516.6000000238419,,shortestpath_phase,1220802,GW/globe.jpg,,,,49,GW/teeth.jpg,GW/basket.jpg,1,0.6060606060606061,,,,GW/teeth.jpg,,,,,One Edge Diff,Four Edge Five Edge
null,,html-keyboard-response,1221813,<p></p>,,,,null,,,,,,,,,,,,,,
128.39999997615814,,shortestpath_phase,1221944,GW/jukebox.jpg,,,,50,GW/wheelchair.jpg,GW/gong.jpg,0,0.5970149253731343,,,,GW/wheelchair.jpg,,,,,Three Edge Diff,Two Edge Five Edge
null,,html-keyboard-response,1222951,<p></p>,,,,null,,,,,,,,,,,,,,
622.8000000715256,,shortestpath_phase,1223576,GW/camera.jpg,,,,50,GW/teeth.jpg,GW/gong.jpg,0,0.5882352941176471,,,,GW/teeth.jpg,,,,,Four Edge Diff,Two Edge Six Edge
null,,html-keyboard-response,1224588,<p></p>,,,,null,,,,,,,,,,,,,,
373.60000002384186,,shortestpath_phase,1224964,GW/globe.jpg,,,,50,GW/wheelchair.jpg,GW/basket.jpg,0,0.5797101449275363,,,,GW/wheelchair.jpg,,,,,Two Edge Diff,Three Edge Five Edge
null,,html-keyboard-response,1225975,<p></p>,,,,null,,,,,,,,,,,,,,
327.5,,shortestpath_phase,1226305,GW/gong.jpg,,,,50,GW/jukebox.jpg,GW/dustpan.jpg,0,0.5714285714285714,,,,GW/jukebox.jpg,,,,,One Edge Diff,Five Edge Six Edge
null,,html-keyboard-response,1227322,<p></p>,,,,null,,,,,,,,,,,,,,
356.2000000476837,,shortestpath_phase,1227681,GW/globe.jpg,,,,49,GW/snail.jpg,GW/camera.jpg,1,0.5774647887323944,,,,GW/snail.jpg,,,,,Three Edge Diff,Two Edge Five Edge
null,,html-keyboard-response,1228692,<p></p>,,,,null,,,,,,,,,,,,,,
317.39999997615814,,shortestpath_phase,1229012,GW/gong.jpg,,,,50,GW/paint.jpg,GW/camera.jpg,0,0.5694444444444444,,,,GW/paint.jpg,,,,,Four Edge Diff,Two Edge Six Edge
null,,html-keyboard-response,1230022,<p></p>,,,,null,,,,,,,,,,,,,,
184.20000004768372,,shortestpath_phase,1230209,GW/camera.jpg,,,,49,GW/gong.jpg,GW/basket.jpg,0,0.5616438356164384,,,,GW/basket.jpg,,,,,Four Edge Diff,Two Edge Six Edge
null,,html-keyboard-response,1231218,<p></p>,,,,null,,,,,,,,,,,,,,
213.09999990463257,,shortestpath_phase,1231432,GW/paint.jpg,,,,50,GW/dustpan.jpg,GW/globe.jpg,1,0.5675675675675675,,,,GW/globe.jpg,,,,,One Edge Diff,Three Edge Four Edge
null,,html-keyboard-response,1232442,<p></p>,,,,null,,,,,,,,,,,,,,
330.7000000476837,,shortestpath_phase,1232775,GW/dustpan.jpg,,,,49,GW/globe.jpg,GW/soldier.jpg,0,0.56,,,,GW/soldier.jpg,,,,,One Edge Diff,Five Edge Six Edge
null,,html-keyboard-response,1233792,<p></p>,,,,null,,,,,,,,,,,,,,
315.39999997615814,,shortestpath_phase,1234110,GW/paint.jpg,,,,50,GW/globe.jpg,GW/snail.jpg,1,0.5657894736842105,,,,GW/snail.jpg,,,,,One Edge Diff,Two Edge Three Edge
null,,html-keyboard-response,1235125,<p></p>,,,,null,,,,,,,,,,,,,,
502.1999999284744,,shortestpath_phase,1235630,GW/dustpan.jpg,,,,49,GW/barrel.jpg,GW/teeth.jpg,0,0.5584415584415584,,,,GW/teeth.jpg,,,,,Three Edge Diff,Three Edge Six Edge
null,,html-keyboard-response,1236635,<p></p>,,,,null,,,,,,,,,,,,,,
565.3999999761581,,shortestpath_phase,1237203,GW/soldier.jpg,,,,49,GW/jukebox.jpg,GW/dustpan.jpg,1,0.5641025641025641,,,,GW/jukebox.jpg,,,,,One Edge Diff,Four Edge Five Edge
null,,html-keyboard-response,1238210,<p></p>,,,,null,,,,,,,,,,,,,,
913.2000000476837,,shortestpath_phase,1239125,GW/barrel.jpg,,,,49,GW/basket.jpg,GW/dustpan.jpg,1,0.569620253164557,,,,GW/basket.jpg,,,,,One Edge Diff,Four Edge Five Edge
null,,html-keyboard-response,1240134,<p></p>,,,,null,,,,,,,,,,,,,,
373.5,,shortestpath_phase,1240510,GW/globe.jpg,,,,49,GW/dustpan.jpg,GW/soldier.jpg,0,0.5625,,,,GW/soldier.jpg,,,,,Four Edge Diff,Two Edge Six Edge
null,,html-keyboard-response,1241515,<p></p>,,,,null,,,,,,,,,,,,,,
1249.8999999761581,,shortestpath_phase,1242768,GW/gong.jpg,,,,49,GW/dustpan.jpg,GW/teeth.jpg,0,0.5555555555555556,,,,GW/teeth.jpg,,,,,Two Edge Diff,Four Edge Six Edge
null,,html-keyboard-response,1243779,<p></p>,,,,null,,,,,,,,,,,,,,
null,,shortestpath_phase,1251286,GW/camera.jpg,,,,null,GW/basket.jpg,GW/dustpan.jpg,0,0.5487804878048781,,,,GW/basket.jpg,,,,,One Edge Diff,Two Edge Three Edge
null,,html-keyboard-response,1252292,<p></p>,,,,null,,,,,,,,,,,,,,
2325,,shortestpath_phase,1254620,GW/dustpan.jpg,,,,49,GW/jukebox.jpg,GW/paint.jpg,1,0.5542168674698795,,,,GW/jukebox.jpg,,,,,Two Edge Diff,Two Edge Four Edge
null,,html-keyboard-response,1255633,<p></p>,,,,null,,,,,,,,,,,,,,
535.8999999761581,,shortestpath_phase,1256171,GW/paint.jpg,,,,50,GW/snail.jpg,GW/jukebox.jpg,0,0.5476190476190477,,,,GW/snail.jpg,,,,,One Edge Diff,Two Edge Three Edge
null,,html-keyboard-response,1257186,<p></p>,,,,null,,,,,,,,,,,,,,
651,,shortestpath_phase,1257840,GW/soldier.jpg,,,,49,GW/camera.jpg,GW/teeth.jpg,0,0.5411764705882353,,,,GW/teeth.jpg,,,,,Two Edge Diff,Three Edge Five Edge
null,,html-keyboard-response,1258852,<p></p>,,,,null,,,,,,,,,,,,,,
370.39999997615814,,shortestpath_phase,1259225,GW/paint.jpg,,,,50,GW/hat.jpg,GW/camera.jpg,0,0.5348837209302325,,,,GW/hat.jpg,,,,,One Edge Diff,Three Edge Four Edge
null,,html-keyboard-response,1260230,<p></p>,,,,null,,,,,,,,,,,,,,
332.39999997615814,,shortestpath_phase,1260564,GW/dustpan.jpg,,,,50,GW/snail.jpg,GW/soldier.jpg,0,0.5287356321839081,,,,GW/snail.jpg,,,,,One Edge Diff,Four Edge Five Edge
null,,html-keyboard-response,1261584,<p></p>,,,,null,,,,,,,,,,,,,,
295.2000000476837,,shortestpath_phase,1261881,GW/basket.jpg,,,,50,GW/paint.jpg,GW/gong.jpg,0,0.5227272727272727,,,,GW/paint.jpg,,,,,Two Edge Diff,Three Edge Five Edge
null,,html-keyboard-response,1262890,<p></p>,,,,null,,,,,,,,,,,,,,
253.60000002384186,,shortestpath_phase,1263146,GW/soldier.jpg,,,,50,GW/basket.jpg,GW/snail.jpg,1,0.5280898876404494,,,,GW/snail.jpg,,,,,Two Edge Diff,Two Edge Four Edge
null,,html-keyboard-response,1264157,<p></p>,,,,null,,,,,,,,,,,,,,
270.3000000715256,,shortestpath_phase,1264429,GW/jukebox.jpg,,,,50,GW/dustpan.jpg,GW/soldier.jpg,0,0.5222222222222223,,,,GW/dustpan.jpg,,,,,Two Edge Diff,Two Edge Four Edge
null,,html-keyboard-response,1265443,<p></p>,,,,null,,,,,,,,,,,,,,
200,,shortestpath_phase,1265646,GW/camera.jpg,,,,49,GW/soldier.jpg,GW/wheelchair.jpg,0,0.5164835164835165,,,,GW/wheelchair.jpg,,,,,Two Edge Diff,Three Edge Five Edge
null,,html-keyboard-response,1266651,<p></p>,,,,null,,,,,,,,,,,,,,
199.59999990463257,,shortestpath_phase,1266853,GW/basket.jpg,,,,50,GW/barrel.jpg,GW/paint.jpg,1,0.5217391304347826,,,,GW/paint.jpg,,,,,One Edge Diff,Three Edge Four Edge
null,,html-keyboard-response,1267865,<p></p>,,,,null,,,,,,,,,,,,,,
130.39999997615814,,shortestpath_phase,1267998,GW/dustpan.jpg,,,,49,GW/jukebox.jpg,GW/gong.jpg,1,0.5268817204301075,,,,GW/jukebox.jpg,,,,,Four Edge Diff,Two Edge Six Edge
null,,html-keyboard-response,1269006,<p></p>,,,,null,,,,,,,,,,,,,,
145.39999997615814,,shortestpath_phase,1269152,GW/soldier.jpg,,,,50,GW/basket.jpg,GW/camera.jpg,0,0.5212765957446809,,,,GW/basket.jpg,,,,,One Edge Diff,Four Edge Five Edge
null,,html-keyboard-response,1270158,<p></p>,,,,null,,,,,,,,,,,,,,
96.20000004768372,,shortestpath_phase,1270256,GW/jukebox.jpg,,,,49,GW/dustpan.jpg,GW/gong.jpg,1,0.5263157894736842,,,,GW/dustpan.jpg,,,,,Three Edge Diff,Two Edge Five Edge
null,,html-keyboard-response,1271268,<p></p>,,,,null,,,,,,,,,,,,,,
183.60000002384186,,shortestpath_phase,1271454,GW/globe.jpg,,,,50,GW/dustpan.jpg,GW/teeth.jpg,1,0.53125,,,,GW/teeth.jpg,,,,,Two Edge Diff,Four Edge Six Edge
null,,html-keyboard-response,1272466,<p></p>,,,,null,,,,,,,,,,,,,,
67.20000004768372,,shortestpath_phase,1272536,GW/camera.jpg,,,,49,GW/hat.jpg,GW/gong.jpg,1,0.5360824742268041,,,,GW/hat.jpg,,,,,Four Edge Diff,Two Edge Six Edge
null,,html-keyboard-response,1273554,<p></p>,,,,null,,,,,,,,,,,,,,
149.10000002384186,,shortestpath_phase,1273706,GW/globe.jpg,,,,50,GW/jukebox.jpg,GW/dustpan.jpg,0,0.5306122448979592,,,,GW/jukebox.jpg,,,,,Two Edge Diff,Four Edge Six Edge
null,,html-keyboard-response,1274718,<p></p>,,,,null,,,,,,,,,,,,,,
227.5,,shortestpath_phase,1274948,GW/barrel.jpg,,,,49,GW/dustpan.jpg,GW/teeth.jpg,0,0.5252525252525253,,,,GW/teeth.jpg,,,,,Two Edge Diff,Three Edge Five Edge
null,,html-keyboard-response,1275963,<p></p>,,,,null,,,,,,,,,,,,,,
246.40000009536743,,shortestpath_phase,1276211,GW/globe.jpg,,,,50,GW/hat.jpg,GW/camera.jpg,0,0.52,,,,GW/hat.jpg,,,,,Two Edge Diff,Three Edge Five Edge
null,,html-keyboard-response,1277219,<p></p>,,,,null,,,,,,,,,,,,,,
195,,shortestpath_phase,1277417,GW/jukebox.jpg,,,,49,GW/soldier.jpg,GW/barrel.jpg,0,0.5148514851485149,,,,GW/barrel.jpg,,,,,One Edge Diff,Three Edge Four Edge
null,,html-keyboard-response,1278434,<p></p>,,,,null,,,,,,,,,,,,,,
333,,shortestpath_phase,1278770,GW/dustpan.jpg,,,,50,GW/gong.jpg,GW/teeth.jpg,1,0.5196078431372549,,,,GW/teeth.jpg,,,,,Four Edge Diff,Two Edge Six Edge
null,,html-keyboard-response,1279778,<p></p>,,,,null,,,,,,,,,,,,,,
235.40000009536743,,shortestpath_phase,1280016,GW/basket.jpg,,,,50,GW/gong.jpg,GW/camera.jpg,1,0.5242718446601942,,,,GW/camera.jpg,,,,,Three Edge Diff,Two Edge Five Edge
null,,html-keyboard-response,1281026,<p></p>,,,,null,,,,,,,,,,,,,,
234.10000002384186,,shortestpath_phase,1281263,GW/paint.jpg,,,,50,GW/teeth.jpg,GW/jukebox.jpg,0,0.5192307692307693,,,,GW/teeth.jpg,,,,,One Edge Diff,Two Edge Three Edge
null,,html-keyboard-response,1282281,<p></p>,,,,null,,,,,,,,,,,,,,
208.10000002384186,,shortestpath_phase,1282492,GW/basket.jpg,,,,50,GW/soldier.jpg,GW/hat.jpg,1,0.5238095238095238,,,,GW/hat.jpg,,,,,Two Edge Diff,Two Edge Four Edge
null,,html-keyboard-response,1283510,<p></p>,,,,null,,,,,,,,,,,,,,
190.39999997615814,,shortestpath_phase,1283703,GW/dustpan.jpg,,,,50,GW/snail.jpg,GW/jukebox.jpg,1,0.5283018867924528,,,,GW/jukebox.jpg,,,,,Two Edge Diff,Two Edge Four Edge
null,,html-keyboard-response,1284713,<p></p>,,,,null,,,,,,,,,,,,,,
308.60000002384186,,shortestpath_phase,1285024,GW/basket.jpg,,,,50,GW/globe.jpg,GW/soldier.jpg,1,0.5327102803738317,,,,GW/soldier.jpg,,,,,One Edge Diff,Four Edge Five Edge
null,,html-keyboard-response,1286042,<p></p>,,,,null,,,,,,,,,,,,,,
451,,shortestpath_phase,1286495,GW/gong.jpg,,,,50,GW/teeth.jpg,GW/camera.jpg,0,0.5277777777777778,,,,GW/teeth.jpg,,,,,Two Edge Diff,Four Edge Six Edge
null,,html-keyboard-response,1287501,<p></p>,,,,null,,,,,,,,,,,,,,
389.8000000715256,,shortestpath_phase,1287894,GW/hat.jpg,,,,50,GW/wheelchair.jpg,GW/soldier.jpg,0,0.5229357798165137,,,,GW/wheelchair.jpg,,,,,One Edge Diff,Two Edge Three Edge
null,,html-keyboard-response,1288901,<p></p>,,,,null,,,,,,,,,,,,,,
398.89999997615814,,shortestpath_phase,1289303,GW/camera.jpg,,,,50,GW/soldier.jpg,GW/gong.jpg,0,0.5181818181818182,,,,GW/soldier.jpg,,,,,One Edge Diff,Five Edge Six Edge
null,,html-keyboard-response,1290308,<p></p>,,,,null,,,,,,,,,,,,,,
218.29999995231628,,shortestpath_phase,1290529,GW/gong.jpg,,,,50,GW/jukebox.jpg,GW/paint.jpg,1,0.5225225225225225,,,,GW/paint.jpg,,,,,Three Edge Diff,Two Edge Five Edge
null,,html-keyboard-response,1291533,<p></p>,,,,null,,,,,,,,,,,,,,
195.5,,shortestpath_phase,1291731,GW/camera.jpg,,,,50,GW/hat.jpg,GW/soldier.jpg,0,0.5178571428571429,,,,GW/hat.jpg,,,,,Three Edge Diff,Two Edge Five Edge
null,,html-keyboard-response,1292736,<p></p>,,,,null,,,,,,,,,,,,,,
298.89999997615814,,shortestpath_phase,1293037,GW/dustpan.jpg,,,,49,GW/gong.jpg,GW/barrel.jpg,0,0.5132743362831859,,,,GW/barrel.jpg,,,,,One Edge Diff,Five Edge Six Edge
null,,html-keyboard-response,1294044,<p></p>,,,,null,,,,,,,,,,,,,,
129.20000004768372,,shortestpath_phase,1294176,GW/paint.jpg,,,,50,GW/snail.jpg,GW/camera.jpg,0,0.5087719298245614,,,,GW/snail.jpg,,,,,Two Edge Diff,Two Edge Four Edge
null,,html-keyboard-response,1295184,<p></p>,,,,null,,,,,,,,,,,,,,
280.3000000715256,,shortestpath_phase,1295467,GW/basket.jpg,,,,50,GW/hat.jpg,GW/gong.jpg,0,0.5043478260869565,,,,GW/hat.jpg,,,,,Three Edge Diff,Three Edge Six Edge
null,,html-keyboard-response,1296485,<p></p>,,,,null,,,,,,,,,,,,,,
337.2999999523163,,shortestpath_phase,1296824,GW/barrel.jpg,,,,50,GW/paint.jpg,GW/dustpan.jpg,0,0.5,,,,GW/paint.jpg,,,,,Three Edge Diff,Three Edge Six Edge
null,,html-keyboard-response,1297836,<p></p>,,,,null,,,,,,,,,,,,,,
65.10000002384186,,shortestpath_phase,1297904,GW/hat.jpg,,,,50,GW/dustpan.jpg,GW/gong.jpg,0,0.49572649572649574,,,,GW/dustpan.jpg,,,,,One Edge Diff,Three Edge Four Edge
null,,html-keyboard-response,1298916,<p></p>,,,,null,,,,,,,,,,,,,,
222.10000002384186,,shortestpath_phase,1299141,GW/teeth.jpg,,,,49,GW/barrel.jpg,GW/camera.jpg,0,0.4915254237288136,,,,GW/camera.jpg,,,,,One Edge Diff,Two Edge Three Edge
null,,html-keyboard-response,1300153,<p></p>,,,,null,,,,,,,,,,,,,,
243.5,,shortestpath_phase,1300399,GW/globe.jpg,,,,50,GW/paint.jpg,GW/jukebox.jpg,0,0.48739495798319327,,,,GW/paint.jpg,,,,,One Edge Diff,Three Edge Four Edge
null,,html-keyboard-response,1301410,<p></p>,,,,null,,,,,,,,,,,,,,
279.60000002384186,,shortestpath_phase,1301692,GW/dustpan.jpg,,,,49,GW/globe.jpg,GW/teeth.jpg,0,0.48333333333333334,,,,GW/teeth.jpg,,,,,Four Edge Diff,Two Edge Six Edge
null,,html-keyboard-response,1302699,<p></p>,,,,null,,,,,,,,,,,,,,
230.30000007152557,,shortestpath_phase,1302931,GW/basket.jpg,,,,50,GW/hat.jpg,GW/globe.jpg,0,0.4793388429752066,,,,GW/hat.jpg,,,,,Three Edge Diff,Three Edge Six Edge
null,,html-keyboard-response,1303936,<p></p>,,,,null,,,,,,,,,,,,,,
84143.60000002384,,intro_1,1388082,instruct,,0,,,,,,,,,,,,,,,,
63165.40000009537,,intro_2,1451255,instruct,,1,Next,,,,,,,,,,,,,,,
11974.100000023842,,intro_3,1463234,instruct,,1,Next,,,,,,,,,,,,,,,
