rt,responses,trial_type,time_elapsed,stimulus,graphorder,button_pressed,response,key_press,stimulus_left,stimulus_right,cumulative_accuracy,accuracy,stimulus_down_left,stimulus_down_mid,stimulus_down_right,stimulus_correct,stimulus_short,stimulus_far,weighted_accuracy,missedtrial,condition,specific_pairs
4833.5,{worker_id:67ef8c6bf0eff27d92180ffe},id_enter,4843,id_enter,GW/jukebox.jpg; GW/wheelchair.jpg; GW/camera.jpg; GW/basket.jpg; GW/hat.jpg; GW/globe.jpg; GW/paint.jpg; GW/teeth.jpg; GW/snail.jpg; GW/dustpan.jpg; GW/barrel.jpg; GW/gong.jpg; GW/soldier.jpg,,,,,,,,,,,,,,,,,
23712.900000002235,,fullscreen,28586,fullscreen,,0,,,,,,,,,,,,,,,,
16819.300000000745,,intro_1,45417,instruct,,0,,,,,,,,,,,,,,,,
24136.70000000298,,intro_2,69560,instruct,,1,Next,,,,,,,,,,,,,,,
24155.39999999851,,intro_3,93719,instruct,,1,Next,,,,,,,,,,,,,,,
null,,learn_prac_1,95726,lean_prac_1,,,,null,,,,,,,,,,,,,,
null,,html-keyboard-response,96731,<p></p>,,,,null,,,,,,,,,,,,,,
7793.5,,intro_1,104528,instruct,,0,,,,,,,,,,,,,,,,
9730.300000000745,,intro_2,114265,instruct,,1,Next,,,,,,,,,,,,,,,
null,,learn_prac_2,116273,lean_prac_2,,,,null,,,,,,,,,,,,,,
null,,html-keyboard-response,117276,<p></p>,,,,null,,,,,,,,,,,,,,
4089.800000000745,,intro_1,121369,instruct,,0,,,,,,,,,,,,,,,,
6475.10000000149,,intro_2,127849,instruct,,1,Next,,,,,,,,,,,,,,,
52058.800000000745,,intro_3,179912,instruct,,1,Next,,,,,,,,,,,,,,,
null,,prac_atten_color_black,180774,black_plus_sign,,,,null,,,,,,,,,,,,,,
null,,prac_atten_color,181332,prac_stop_color,,,,null,,,,,,,,,,,,,,
220.5,,prac_atten_color_black,183346,black_plus_sign,,,,49,,,,,,,,,,,,,,
null,,prac_atten_color_black,184198,black_plus_sign,,,,null,,,,,,,,,,,,,,
476.69999999925494,,prac_atten_color,184837,prac_stop_color,,,,50,,,,,,,,,,,,,,
null,,prac_atten_color_black,186842,black_plus_sign,,,,null,,,,,,,,,,,,,,
null,,prac_atten_color_black,187612,black_plus_sign,,,,null,,,,,,,,,,,,,,
null,,prac_atten_color,188025,prac_stop_color,,,,null,,,,,,,,,,,,,,
410.30000000074506,,prac_atten_color_black,190028,black_plus_sign,,,,50,,,,,,,,,,,,,,
null,,prac_atten_color_black,191034,black_plus_sign,,,,null,,,,,,,,,,,,,,
455.79999999701977,,prac_atten_color,192093,prac_stop_color,,,,49,,,,,,,,,,,,,,
null,,prac_atten_color_black,194101,black_plus_sign,,,,null,,,,,,,,,,,,,,
null,,prac_atten_color_black,194461,black_plus_sign,,,,null,,,,,,,,,,,,,,
425.70000000298023,,prac_atten_color,195076,prac_stop_color,,,,50,,,,,,,,,,,,,,
null,,prac_atten_color_black,197079,black_plus_sign,,,,null,,,,,,,,,,,,,,
null,,prac_atten_color_black,197882,black_plus_sign,,,,null,,,,,,,,,,,,,,
481.30000000074506,,prac_atten_color,198612,prac_stop_color,,,,50,,,,,,,,,,,,,,
null,,prac_atten_color_black,200615,black_plus_sign,,,,null,,,,,,,,,,,,,,
null,,prac_atten_color_black,201293,black_plus_sign,,,,null,,,,,,,,,,,,,,
487.3999999985099,,prac_atten_color,201969,prac_stop_color,,,,49,,,,,,,,,,,,,,
null,,prac_atten_color_black,203972,black_plus_sign,,,,null,,,,,,,,,,,,,,
null,,prac_atten_color_black,204707,black_plus_sign,,,,null,,,,,,,,,,,,,,
425,,prac_atten_color,205374,prac_stop_color,,,,50,,,,,,,,,,,,,,
null,,prac_atten_color_black,207389,black_plus_sign,,,,null,,,,,,,,,,,,,,
null,,prac_atten_color_black,208154,black_plus_sign,,,,null,,,,,,,,,,,,,,
425.80000000074506,,prac_atten_color,209246,prac_stop_color,,,,49,,,,,,,,,,,,,,
null,,prac_atten_color_black,211261,black_plus_sign,,,,null,,,,,,,,,,,,,,
null,,prac_atten_color_black,211579,black_plus_sign,,,,null,,,,,,,,,,,,,,
528.3999999985099,,prac_atten_color,212539,prac_stop_color,,,,49,,,,,,,,,,,,,,
null,,prac_atten_color_black,214546,black_plus_sign,,,,null,,,,,,,,,,,,,,
10338.5,,attentioncheck_feedback,224889,cross_check_feedback,,0,,,,,,,,,,,,,,,,
43768.39999999851,,last_instruct,268660,instruct,,,,32,,,,,,,,,,,,,,
null,,learn_phase(without_color),270664,black_plus_sign,,,,null,GW/camera.jpg,GW/globe.jpg,,,,,,,,,,,,
null,,black_cross(without_color),271767,green,,,,null,GW/camera.jpg,GW/globe.jpg,,,,,,,,,,,,
null,,rt_plussign_withcolor,272271,green,,,,null,GW/camera.jpg,GW/globe.jpg,,,,,,,,,,,,
null,,rt_thecrossant_black,273178,black_plus_sign,,,,null,,,NaN,,,,,,,,,,,
null,,color_black,273285,black_plus_sign,,,,null,,,,,,,,,,,,,,
null,,learn_phase(without_color),275291,black_plus_sign,,,,null,GW/globe.jpg,GW/paint.jpg,,,,,,,,,,,,
null,,black_cross(without_color),275805,blue,,,,null,GW/globe.jpg,GW/paint.jpg,,,,,,,,,,,,
null,,rt_plussign_withcolor,276318,blue,,,,null,GW/globe.jpg,GW/paint.jpg,,,,,,,,,,,,
1159.2999999970198,,rt_thecrossant_black,277812,black_plus_sign,,,,49,,,1,1,,,,,,,,,,
null,,color_black,277915,black_plus_sign,,,,null,,,,,,,,,,,,,,
null,,learn_phase(without_color),279921,black_plus_sign,,,,null,GW/globe.jpg,GW/snail.jpg,,,,,,,,,,,,
null,,black_cross(without_color),280330,blue,,,,null,GW/globe.jpg,GW/snail.jpg,,,,,,,,,,,,
null,,rt_plussign_withcolor,280832,blue,,,,null,GW/globe.jpg,GW/snail.jpg,,,,,,,,,,,,
2094.099999997765,,rt_thecrossant_black,282432,black_plus_sign,,,,49,,,1,1,,,,,,,,,,
null,,color_black,282536,black_plus_sign,,,,null,,,,,,,,,,,,,,
null,,learn_phase(without_color),284543,black_plus_sign,,,,null,GW/paint.jpg,GW/snail.jpg,,,,,,,,,,,,
null,,black_cross(without_color),285239,green,,,,null,GW/paint.jpg,GW/snail.jpg,,,,,,,,,,,,
null,,rt_plussign_withcolor,285742,green,,,,null,GW/paint.jpg,GW/snail.jpg,,,,,,,,,,,,
null,,rt_thecrossant_black,287053,black_plus_sign,,,,null,,,1,,,,,,,,,,,
null,,color_black,287157,black_plus_sign,,,,null,,,,,,,,,,,,,,
null,,learn_phase(without_color),289162,black_plus_sign,,,,null,GW/camera.jpg,GW/globe.jpg,,,,,,,,,,,,
null,,black_cross(without_color),289894,blue,,,,null,GW/camera.jpg,GW/globe.jpg,,,,,,,,,,,,
null,,rt_plussign_withcolor,290399,blue,,,,null,GW/camera.jpg,GW/globe.jpg,,,,,,,,,,,,
1068.800000000745,,rt_thecrossant_black,291679,black_plus_sign,,,,49,,,1,1,,,,,,,,,,
null,,color_black,291796,black_plus_sign,,,,null,,,,,,,,,,,,,,
null,,learn_phase(without_color),293801,black_plus_sign,,,,null,GW/basket.jpg,GW/gong.jpg,,,,,,,,,,,,
null,,black_cross(without_color),294690,green,,,,null,GW/basket.jpg,GW/gong.jpg,,,,,,,,,,,,
null,,rt_plussign_withcolor,295202,green,,,,null,GW/basket.jpg,GW/gong.jpg,,,,,,,,,,,,
null,,rt_thecrossant_black,296322,black_plus_sign,,,,null,,,1,,,,,,,,,,,
null,,color_black,296427,black_plus_sign,,,,null,,,,,,,,,,,,,,
null,,learn_phase(without_color),298431,black_plus_sign,,,,null,GW/paint.jpg,GW/teeth.jpg,,,,,,,,,,,,
null,,black_cross(without_color),299082,green,,,,null,GW/paint.jpg,GW/teeth.jpg,,,,,,,,,,,,
null,,rt_plussign_withcolor,299585,green,,,,null,GW/paint.jpg,GW/teeth.jpg,,,,,,,,,,,,
null,,rt_thecrossant_black,300953,black_plus_sign,,,,null,,,1,,,,,,,,,,,
null,,warning_page,303959,warning,,,,null,,,,,,,,,,,,,,
null,,color_black,304062,black_plus_sign,,,,null,,,,,,,,,,,,,,
null,,learn_phase(without_color),306090,black_plus_sign,,,,null,GW/camera.jpg,GW/barrel.jpg,,,,,,,,,,,,
null,,black_cross(without_color),307007,green,,,,null,GW/camera.jpg,GW/barrel.jpg,,,,,,,,,,,,
null,,rt_plussign_withcolor,307520,green,,,,null,GW/camera.jpg,GW/barrel.jpg,,,,,,,,,,,,
1067.199999999255,,rt_thecrossant_black,308623,black_plus_sign,,,,50,,,1,1,,,,,,,,,,
null,,color_black,308727,black_plus_sign,,,,null,,,,,,,,,,,,,,
null,,learn_phase(without_color),310734,black_plus_sign,,,,null,GW/paint.jpg,GW/teeth.jpg,,,,,,,,,,,,
null,,black_cross(without_color),311230,blue,,,,null,GW/paint.jpg,GW/teeth.jpg,,,,,,,,,,,,
null,,rt_plussign_withcolor,311734,blue,,,,null,GW/paint.jpg,GW/teeth.jpg,,,,,,,,,,,,
1384.6000000014901,,rt_thecrossant_black,313247,black_plus_sign,,,,49,,,1,1,,,,,,,,,,
null,,color_black,313351,black_plus_sign,,,,null,,,,,,,,,,,,,,
null,,learn_phase(without_color),315357,black_plus_sign,,,,null,GW/wheelchair.jpg,GW/camera.jpg,,,,,,,,,,,,
null,,black_cross(without_color),316292,blue,,,,null,GW/wheelchair.jpg,GW/camera.jpg,,,,,,,,,,,,
null,,rt_plussign_withcolor,316807,blue,,,,null,GW/wheelchair.jpg,GW/camera.jpg,,,,,,,,,,,,
920.3999999985099,,rt_thecrossant_black,317884,black_plus_sign,,,,49,,,1,1,,,,,,,,,,
null,,color_black,317992,black_plus_sign,,,,null,,,,,,,,,,,,,,
null,,learn_phase(without_color),319998,black_plus_sign,,,,null,GW/camera.jpg,GW/barrel.jpg,,,,,,,,,,,,
null,,black_cross(without_color),320968,blue,,,,null,GW/camera.jpg,GW/barrel.jpg,,,,,,,,,,,,
null,,rt_plussign_withcolor,321473,blue,,,,null,GW/camera.jpg,GW/barrel.jpg,,,,,,,,,,,,
1269.199999999255,,rt_thecrossant_black,322512,black_plus_sign,,,,49,,,1,1,,,,,,,,,,
null,,color_black,322616,black_plus_sign,,,,null,,,,,,,,,,,,,,
null,,learn_phase(without_color),324622,black_plus_sign,,,,null,GW/paint.jpg,GW/snail.jpg,,,,,,,,,,,,
null,,black_cross(without_color),325457,green,,,,null,GW/paint.jpg,GW/snail.jpg,,,,,,,,,,,,
508.5,,rt_plussign_withcolor,325976,green,,,,50,GW/paint.jpg,GW/snail.jpg,,,,,,,,,,,,
null,,rt_thecrossant_black,327151,black_plus_sign,,,,null,,,1,1,,,,,,,,,,
null,,color_black,327255,black_plus_sign,,,,null,,,,,,,,,,,,,,
null,,learn_phase(without_color),329261,black_plus_sign,,,,null,GW/snail.jpg,GW/barrel.jpg,,,,,,,,,,,,
null,,black_cross(without_color),329794,green,,,,null,GW/snail.jpg,GW/barrel.jpg,,,,,,,,,,,,
null,,rt_plussign_withcolor,330303,green,,,,null,GW/snail.jpg,GW/barrel.jpg,,,,,,,,,,,,
1237.300000000745,,rt_thecrossant_black,331793,black_plus_sign,,,,49,,,0.8888888888888888,0,,,,,,,,,,
null,,color_black,331898,black_plus_sign,,,,null,,,,,,,,,,,,,,
null,,learn_phase(without_color),333914,black_plus_sign,,,,null,GW/teeth.jpg,GW/dustpan.jpg,,,,,,,,,,,,
null,,black_cross(without_color),334622,green,,,,null,GW/teeth.jpg,GW/dustpan.jpg,,,,,,,,,,,,
null,,rt_plussign_withcolor,335132,green,,,,null,GW/teeth.jpg,GW/dustpan.jpg,,,,,,,,,,,,
844.8000000007451,,rt_thecrossant_black,336443,black_plus_sign,,,,50,,,0.9,1,,,,,,,,,,
null,,color_black,336547,black_plus_sign,,,,null,,,,,,,,,,,,,,
null,,learn_phase(without_color),338554,black_plus_sign,,,,null,GW/paint.jpg,GW/snail.jpg,,,,,,,,,,,,
null,,black_cross(without_color),339135,green,,,,null,GW/paint.jpg,GW/snail.jpg,,,,,,,,,,,,
null,,rt_plussign_withcolor,339638,green,,,,null,GW/paint.jpg,GW/snail.jpg,,,,,,,,,,,,
1036.1000000014901,,rt_thecrossant_black,341077,black_plus_sign,,,,50,,,0.9090909090909091,1,,,,,,,,,,
null,,color_black,341184,black_plus_sign,,,,null,,,,,,,,,,,,,,
null,,learn_phase(without_color),343190,black_plus_sign,,,,null,GW/wheelchair.jpg,GW/camera.jpg,,,,,,,,,,,,
null,,black_cross(without_color),344197,green,,,,null,GW/wheelchair.jpg,GW/camera.jpg,,,,,,,,,,,,
null,,rt_plussign_withcolor,344701,green,,,,null,GW/wheelchair.jpg,GW/camera.jpg,,,,,,,,,,,,
993.8000000007451,,rt_thecrossant_black,345702,black_plus_sign,,,,50,,,0.9166666666666666,1,,,,,,,,,,
null,,color_black,345807,black_plus_sign,,,,null,,,,,,,,,,,,,,
null,,learn_phase(without_color),347813,black_plus_sign,,,,null,GW/camera.jpg,GW/globe.jpg,,,,,,,,,,,,
null,,black_cross(without_color),348654,blue,,,,null,GW/camera.jpg,GW/globe.jpg,,,,,,,,,,,,
null,,rt_plussign_withcolor,349159,blue,,,,null,GW/camera.jpg,GW/globe.jpg,,,,,,,,,,,,
1408.699999999255,,rt_thecrossant_black,350335,black_plus_sign,,,,49,,,0.9230769230769231,1,,,,,,,,,,
null,,color_black,350444,black_plus_sign,,,,null,,,,,,,,,,,,,,
null,,learn_phase(without_color),352449,black_plus_sign,,,,null,GW/basket.jpg,GW/gong.jpg,,,,,,,,,,,,
null,,black_cross(without_color),353149,blue,,,,null,GW/basket.jpg,GW/gong.jpg,,,,,,,,,,,,
null,,rt_plussign_withcolor,353654,blue,,,,null,GW/basket.jpg,GW/gong.jpg,,,,,,,,,,,,
1269.2999999970198,,rt_thecrossant_black,354979,black_plus_sign,,,,49,,,0.9285714285714286,1,,,,,,,,,,
null,,color_black,355084,black_plus_sign,,,,null,,,,,,,,,,,,,,
null,,learn_phase(without_color),357107,black_plus_sign,,,,null,GW/teeth.jpg,GW/snail.jpg,,,,,,,,,,,,
null,,black_cross(without_color),358135,green,,,,null,GW/teeth.jpg,GW/snail.jpg,,,,,,,,,,,,
null,,rt_plussign_withcolor,358638,green,,,,null,GW/teeth.jpg,GW/snail.jpg,,,,,,,,,,,,
1011.1999999992549,,rt_thecrossant_black,359630,black_plus_sign,,,,50,,,0.9333333333333333,1,,,,,,,,,,
null,,color_black,359734,black_plus_sign,,,,null,,,,,,,,,,,,,,
null,,learn_phase(without_color),361739,black_plus_sign,,,,null,GW/globe.jpg,GW/paint.jpg,,,,,,,,,,,,
null,,black_cross(without_color),362412,blue,,,,null,GW/globe.jpg,GW/paint.jpg,,,,,,,,,,,,
null,,rt_plussign_withcolor,362917,blue,,,,null,GW/globe.jpg,GW/paint.jpg,,,,,,,,,,,,
2206.7999999970198,,rt_thecrossant_black,364254,black_plus_sign,,,,50,,,0.875,0,,,,,,,,,,
null,,color_black,364360,black_plus_sign,,,,null,,,,,,,,,,,,,,
null,,learn_phase(without_color),366375,black_plus_sign,,,,null,GW/teeth.jpg,GW/dustpan.jpg,,,,,,,,,,,,
null,,black_cross(without_color),367231,green,,,,null,GW/teeth.jpg,GW/dustpan.jpg,,,,,,,,,,,,
null,,rt_plussign_withcolor,367736,green,,,,null,GW/teeth.jpg,GW/dustpan.jpg,,,,,,,,,,,,
1073.199999999255,,rt_thecrossant_black,368901,black_plus_sign,,,,50,,,0.8823529411764706,1,,,,,,,,,,
null,,color_black,369007,black_plus_sign,,,,null,,,,,,,,,,,,,,
null,,learn_phase(without_color),371014,black_plus_sign,,,,null,GW/snail.jpg,GW/barrel.jpg,,,,,,,,,,,,
null,,black_cross(without_color),372041,blue,,,,null,GW/snail.jpg,GW/barrel.jpg,,,,,,,,,,,,
null,,rt_plussign_withcolor,372544,blue,,,,null,GW/snail.jpg,GW/barrel.jpg,,,,,,,,,,,,
1205.5,,rt_thecrossant_black,373535,black_plus_sign,,,,49,,,0.8888888888888888,1,,,,,,,,,,
null,,color_black,373640,black_plus_sign,,,,null,,,,,,,,,,,,,,
null,,learn_phase(without_color),375657,black_plus_sign,,,,null,GW/globe.jpg,GW/paint.jpg,,,,,,,,,,,,
null,,black_cross(without_color),376442,green,,,,null,GW/globe.jpg,GW/paint.jpg,,,,,,,,,,,,
null,,rt_plussign_withcolor,376953,green,,,,null,GW/globe.jpg,GW/paint.jpg,,,,,,,,,,,,
1330.9000000022352,,rt_thecrossant_black,378182,black_plus_sign,,,,50,,,0.8947368421052632,1,,,,,,,,,,
null,,color_black,378288,black_plus_sign,,,,null,,,,,,,,,,,,,,
null,,learn_phase(without_color),380294,black_plus_sign,,,,null,GW/barrel.jpg,GW/gong.jpg,,,,,,,,,,,,
null,,black_cross(without_color),381300,blue,,,,null,GW/barrel.jpg,GW/gong.jpg,,,,,,,,,,,,
null,,rt_plussign_withcolor,381804,blue,,,,null,GW/barrel.jpg,GW/gong.jpg,,,,,,,,,,,,
1195.800000000745,,rt_thecrossant_black,382818,black_plus_sign,,,,49,,,0.9,1,,,,,,,,,,
null,,color_black,382925,black_plus_sign,,,,null,,,,,,,,,,,,,,
null,,learn_phase(without_color),384931,black_plus_sign,,,,null,GW/wheelchair.jpg,GW/basket.jpg,,,,,,,,,,,,
null,,black_cross(without_color),385382,green,,,,null,GW/wheelchair.jpg,GW/basket.jpg,,,,,,,,,,,,
null,,rt_plussign_withcolor,385892,green,,,,null,GW/wheelchair.jpg,GW/basket.jpg,,,,,,,,,,,,
1501.800000000745,,rt_thecrossant_black,387453,black_plus_sign,,,,50,,,0.9047619047619048,1,,,,,,,,,,
null,,color_black,387557,black_plus_sign,,,,null,,,,,,,,,,,,,,
null,,learn_phase(without_color),389563,black_plus_sign,,,,null,GW/snail.jpg,GW/barrel.jpg,,,,,,,,,,,,
null,,black_cross(without_color),390051,green,,,,null,GW/snail.jpg,GW/barrel.jpg,,,,,,,,,,,,
null,,rt_plussign_withcolor,390554,green,,,,null,GW/snail.jpg,GW/barrel.jpg,,,,,,,,,,,,
930.1000000014901,,rt_thecrossant_black,392086,black_plus_sign,,,,50,,,0.9090909090909091,1,,,,,,,,,,
null,,color_black,392190,black_plus_sign,,,,null,,,,,,,,,,,,,,
null,,learn_phase(without_color),394202,black_plus_sign,,,,null,GW/paint.jpg,GW/soldier.jpg,,,,,,,,,,,,
null,,black_cross(without_color),395192,blue,,,,null,GW/paint.jpg,GW/soldier.jpg,,,,,,,,,,,,
null,,rt_plussign_withcolor,395696,blue,,,,null,GW/paint.jpg,GW/soldier.jpg,,,,,,,,,,,,
595.2999999970198,,rt_thecrossant_black,396734,black_plus_sign,,,,49,,,0.9130434782608695,1,,,,,,,,,,
null,,color_black,396838,black_plus_sign,,,,null,,,,,,,,,,,,,,
null,,learn_phase(without_color),398853,black_plus_sign,,,,null,GW/globe.jpg,GW/paint.jpg,,,,,,,,,,,,
null,,black_cross(without_color),399671,green,,,,null,GW/globe.jpg,GW/paint.jpg,,,,,,,,,,,,
null,,rt_plussign_withcolor,400177,green,,,,null,GW/globe.jpg,GW/paint.jpg,,,,,,,,,,,,
1225.8999999985099,,rt_thecrossant_black,401384,black_plus_sign,,,,50,,,0.9166666666666666,1,,,,,,,,,,
null,,color_black,401490,black_plus_sign,,,,null,,,,,,,,,,,,,,
null,,learn_phase(without_color),403504,black_plus_sign,,,,null,GW/basket.jpg,GW/hat.jpg,,,,,,,,,,,,
null,,black_cross(without_color),403965,blue,,,,null,GW/basket.jpg,GW/hat.jpg,,,,,,,,,,,,
null,,rt_plussign_withcolor,404471,blue,,,,null,GW/basket.jpg,GW/hat.jpg,,,,,,,,,,,,
1344.7999999970198,,rt_thecrossant_black,406042,black_plus_sign,,,,49,,,0.92,1,,,,,,,,,,
null,,color_black,406147,black_plus_sign,,,,null,,,,,,,,,,,,,,
null,,learn_phase(without_color),408162,black_plus_sign,,,,null,GW/paint.jpg,GW/soldier.jpg,,,,,,,,,,,,
null,,black_cross(without_color),409088,blue,,,,null,GW/paint.jpg,GW/soldier.jpg,,,,,,,,,,,,
null,,rt_plussign_withcolor,409592,blue,,,,null,GW/paint.jpg,GW/soldier.jpg,,,,,,,,,,,,
803.5,,rt_thecrossant_black,410682,black_plus_sign,,,,49,,,0.9230769230769231,1,,,,,,,,,,
null,,color_black,410788,black_plus_sign,,,,null,,,,,,,,,,,,,,
null,,learn_phase(without_color),412803,black_plus_sign,,,,null,GW/snail.jpg,GW/barrel.jpg,,,,,,,,,,,,
null,,black_cross(without_color),413235,blue,,,,null,GW/snail.jpg,GW/barrel.jpg,,,,,,,,,,,,
null,,rt_plussign_withcolor,413737,blue,,,,null,GW/snail.jpg,GW/barrel.jpg,,,,,,,,,,,,
1296.5,,rt_thecrossant_black,415334,black_plus_sign,,,,49,,,0.9259259259259259,1,,,,,,,,,,
null,,color_black,415438,black_plus_sign,,,,null,,,,,,,,,,,,,,
null,,learn_phase(without_color),417461,black_plus_sign,,,,null,GW/paint.jpg,GW/teeth.jpg,,,,,,,,,,,,
null,,black_cross(without_color),418172,green,,,,null,GW/paint.jpg,GW/teeth.jpg,,,,,,,,,,,,
null,,rt_plussign_withcolor,418676,green,,,,null,GW/paint.jpg,GW/teeth.jpg,,,,,,,,,,,,
833.8000000007451,,rt_thecrossant_black,419989,black_plus_sign,,,,50,,,0.9285714285714286,1,,,,,,,,,,
null,,color_black,420100,black_plus_sign,,,,null,,,,,,,,,,,,,,
null,,learn_phase(without_color),422115,black_plus_sign,,,,null,GW/basket.jpg,GW/gong.jpg,,,,,,,,,,,,
null,,black_cross(without_color),422828,blue,,,,null,GW/basket.jpg,GW/gong.jpg,,,,,,,,,,,,
null,,rt_plussign_withcolor,423333,blue,,,,null,GW/basket.jpg,GW/gong.jpg,,,,,,,,,,,,
1165.9000000022352,,rt_thecrossant_black,424641,black_plus_sign,,,,49,,,0.9310344827586207,1,,,,,,,,,,
null,,color_black,424759,black_plus_sign,,,,null,,,,,,,,,,,,,,
null,,learn_phase(without_color),426765,black_plus_sign,,,,null,GW/teeth.jpg,GW/snail.jpg,,,,,,,,,,,,
null,,black_cross(without_color),427745,green,,,,null,GW/teeth.jpg,GW/snail.jpg,,,,,,,,,,,,
null,,rt_plussign_withcolor,428248,green,,,,null,GW/teeth.jpg,GW/snail.jpg,,,,,,,,,,,,
1070.699999999255,,rt_thecrossant_black,429286,black_plus_sign,,,,50,,,0.9333333333333333,1,,,,,,,,,,
null,,color_black,429390,black_plus_sign,,,,null,,,,,,,,,,,,,,
null,,learn_phase(without_color),431401,black_plus_sign,,,,null,GW/camera.jpg,GW/globe.jpg,,,,,,,,,,,,
null,,black_cross(without_color),432469,green,,,,null,GW/camera.jpg,GW/globe.jpg,,,,,,,,,,,,
null,,rt_plussign_withcolor,432976,green,,,,null,GW/camera.jpg,GW/globe.jpg,,,,,,,,,,,,
1392.3999999985099,,rt_thecrossant_black,433918,black_plus_sign,,,,50,,,0.9354838709677419,1,,,,,,,,,,
null,,color_black,434023,black_plus_sign,,,,null,,,,,,,,,,,,,,
null,,learn_phase(without_color),436038,black_plus_sign,,,,null,GW/globe.jpg,GW/snail.jpg,,,,,,,,,,,,
null,,black_cross(without_color),436525,blue,,,,null,GW/globe.jpg,GW/snail.jpg,,,,,,,,,,,,
null,,rt_plussign_withcolor,437028,blue,,,,null,GW/globe.jpg,GW/snail.jpg,,,,,,,,,,,,
1531.199999999255,,rt_thecrossant_black,438554,black_plus_sign,,,,49,,,0.9375,1,,,,,,,,,,
null,,color_black,438658,black_plus_sign,,,,null,,,,,,,,,,,,,,
null,,learn_phase(without_color),440668,black_plus_sign,,,,null,GW/teeth.jpg,GW/snail.jpg,,,,,,,,,,,,
null,,black_cross(without_color),441420,blue,,,,null,GW/teeth.jpg,GW/snail.jpg,,,,,,,,,,,,
null,,rt_plussign_withcolor,441923,blue,,,,null,GW/teeth.jpg,GW/snail.jpg,,,,,,,,,,,,
920.8000000007451,,rt_thecrossant_black,443201,black_plus_sign,,,,49,,,0.9393939393939394,1,,,,,,,,,,
null,,color_black,443304,black_plus_sign,,,,null,,,,,,,,,,,,,,
null,,learn_phase(without_color),445320,black_plus_sign,,,,null,GW/barrel.jpg,GW/gong.jpg,,,,,,,,,,,,
null,,black_cross(without_color),445839,green,,,,null,GW/barrel.jpg,GW/gong.jpg,,,,,,,,,,,,
null,,rt_plussign_withcolor,446343,green,,,,null,GW/barrel.jpg,GW/gong.jpg,,,,,,,,,,,,
1248.699999999255,,rt_thecrossant_black,447844,black_plus_sign,,,,50,,,0.9411764705882353,1,,,,,,,,,,
null,,color_black,447948,black_plus_sign,,,,null,,,,,,,,,,,,,,
null,,learn_phase(without_color),449964,black_plus_sign,,,,null,GW/teeth.jpg,GW/dustpan.jpg,,,,,,,,,,,,
null,,black_cross(without_color),450757,green,,,,null,GW/teeth.jpg,GW/dustpan.jpg,,,,,,,,,,,,
null,,rt_plussign_withcolor,451263,green,,,,null,GW/teeth.jpg,GW/dustpan.jpg,,,,,,,,,,,,
836.8000000007451,,rt_thecrossant_black,452489,black_plus_sign,,,,50,,,0.9428571428571428,1,,,,,,,,,,
null,,color_black,452596,black_plus_sign,,,,null,,,,,,,,,,,,,,
null,,learn_phase(without_color),454603,black_plus_sign,,,,null,GW/camera.jpg,GW/barrel.jpg,,,,,,,,,,,,
null,,black_cross(without_color),455562,green,,,,null,GW/camera.jpg,GW/barrel.jpg,,,,,,,,,,,,
null,,rt_plussign_withcolor,456069,green,,,,null,GW/camera.jpg,GW/barrel.jpg,,,,,,,,,,,,
1035.0999999977648,,rt_thecrossant_black,457119,black_plus_sign,,,,50,,,0.9444444444444444,1,,,,,,,,,,
null,,color_black,457224,black_plus_sign,,,,null,,,,,,,,,,,,,,
null,,learn_phase(without_color),459240,black_plus_sign,,,,null,GW/paint.jpg,GW/soldier.jpg,,,,,,,,,,,,
null,,black_cross(without_color),459953,blue,,,,null,GW/paint.jpg,GW/soldier.jpg,,,,,,,,,,,,
null,,rt_plussign_withcolor,460455,blue,,,,null,GW/paint.jpg,GW/soldier.jpg,,,,,,,,,,,,
1313.0999999977648,,rt_thecrossant_black,461752,black_plus_sign,,,,49,,,0.9459459459459459,1,,,,,,,,,,
null,,color_black,461857,black_plus_sign,,,,null,,,,,,,,,,,,,,
null,,learn_phase(without_color),463862,black_plus_sign,,,,null,GW/teeth.jpg,GW/dustpan.jpg,,,,,,,,,,,,
null,,black_cross(without_color),464311,blue,,,,null,GW/teeth.jpg,GW/dustpan.jpg,,,,,,,,,,,,
null,,rt_plussign_withcolor,464822,blue,,,,null,GW/teeth.jpg,GW/dustpan.jpg,,,,,,,,,,,,
1099.0999999977648,,rt_thecrossant_black,466394,black_plus_sign,,,,49,,,0.9473684210526315,1,,,,,,,,,,
null,,color_black,466498,black_plus_sign,,,,null,,,,,,,,,,,,,,
null,,learn_phase(without_color),468507,black_plus_sign,,,,null,GW/camera.jpg,GW/barrel.jpg,,,,,,,,,,,,
null,,black_cross(without_color),469052,green,,,,null,GW/camera.jpg,GW/barrel.jpg,,,,,,,,,,,,
null,,rt_plussign_withcolor,469557,green,,,,null,GW/camera.jpg,GW/barrel.jpg,,,,,,,,,,,,
995.1999999992549,,rt_thecrossant_black,471029,black_plus_sign,,,,50,,,0.9487179487179487,1,,,,,,,,,,
null,,color_black,471134,black_plus_sign,,,,null,,,,,,,,,,,,,,
null,,learn_phase(without_color),473150,black_plus_sign,,,,null,GW/snail.jpg,GW/barrel.jpg,,,,,,,,,,,,
null,,black_cross(without_color),474229,blue,,,,null,GW/snail.jpg,GW/barrel.jpg,,,,,,,,,,,,
null,,rt_plussign_withcolor,474731,blue,,,,null,GW/snail.jpg,GW/barrel.jpg,,,,,,,,,,,,
944.8999999985099,,rt_thecrossant_black,475683,black_plus_sign,,,,49,,,0.95,1,,,,,,,,,,
null,,color_black,475787,black_plus_sign,,,,null,,,,,,,,,,,,,,
null,,learn_phase(without_color),477792,black_plus_sign,,,,null,GW/basket.jpg,GW/hat.jpg,,,,,,,,,,,,
null,,black_cross(without_color),478398,blue,,,,null,GW/basket.jpg,GW/hat.jpg,,,,,,,,,,,,
null,,rt_plussign_withcolor,478901,blue,,,,null,GW/basket.jpg,GW/hat.jpg,,,,,,,,,,,,
1553.0999999977648,,rt_thecrossant_black,480316,black_plus_sign,,,,49,,,0.9512195121951219,1,,,,,,,,,,
null,,color_black,480420,black_plus_sign,,,,null,,,,,,,,,,,,,,
null,,learn_phase(without_color),482433,black_plus_sign,,,,null,GW/teeth.jpg,GW/snail.jpg,,,,,,,,,,,,
null,,black_cross(without_color),483436,green,,,,null,GW/teeth.jpg,GW/snail.jpg,,,,,,,,,,,,
null,,rt_plussign_withcolor,483949,green,,,,null,GW/teeth.jpg,GW/snail.jpg,,,,,,,,,,,,
808.5999999977648,,rt_thecrossant_black,484974,black_plus_sign,,,,50,,,0.9523809523809523,1,,,,,,,,,,
null,,color_black,485078,black_plus_sign,,,,null,,,,,,,,,,,,,,
null,,learn_phase(without_color),487084,black_plus_sign,,,,null,GW/globe.jpg,GW/snail.jpg,,,,,,,,,,,,
null,,black_cross(without_color),488148,blue,,,,null,GW/globe.jpg,GW/snail.jpg,,,,,,,,,,,,
null,,rt_plussign_withcolor,488656,blue,,,,null,GW/globe.jpg,GW/snail.jpg,,,,,,,,,,,,
1091.6000000014901,,rt_thecrossant_black,489609,black_plus_sign,,,,49,,,0.9534883720930233,1,,,,,,,,,,
null,,color_black,489717,black_plus_sign,,,,null,,,,,,,,,,,,,,
null,,learn_phase(without_color),491723,black_plus_sign,,,,null,GW/camera.jpg,GW/globe.jpg,,,,,,,,,,,,
null,,black_cross(without_color),492570,green,,,,null,GW/camera.jpg,GW/globe.jpg,,,,,,,,,,,,
null,,rt_plussign_withcolor,493073,green,,,,null,GW/camera.jpg,GW/globe.jpg,,,,,,,,,,,,
1481.5,,rt_thecrossant_black,494252,black_plus_sign,,,,50,,,0.9545454545454546,1,,,,,,,,,,
null,,color_black,494358,black_plus_sign,,,,null,,,,,,,,,,,,,,
null,,learn_phase(without_color),496373,black_plus_sign,,,,null,GW/teeth.jpg,GW/snail.jpg,,,,,,,,,,,,
null,,black_cross(without_color),497121,blue,,,,null,GW/teeth.jpg,GW/snail.jpg,,,,,,,,,,,,
null,,rt_plussign_withcolor,497635,blue,,,,null,GW/teeth.jpg,GW/snail.jpg,,,,,,,,,,,,
1327.8999999985099,,rt_thecrossant_black,498916,black_plus_sign,,,,49,,,0.9555555555555556,1,,,,,,,,,,
null,,color_black,499020,black_plus_sign,,,,null,,,,,,,,,,,,,,
null,,learn_phase(without_color),501033,black_plus_sign,,,,null,GW/jukebox.jpg,GW/wheelchair.jpg,,,,,,,,,,,,
null,,black_cross(without_color),501795,blue,,,,null,GW/jukebox.jpg,GW/wheelchair.jpg,,,,,,,,,,,,
null,,rt_plussign_withcolor,502309,blue,,,,null,GW/jukebox.jpg,GW/wheelchair.jpg,,,,,,,,,,,,
1161.7999999970198,,rt_thecrossant_black,503555,black_plus_sign,,,,49,,,0.9565217391304348,1,,,,,,,,,,
null,,color_black,503659,black_plus_sign,,,,null,,,,,,,,,,,,,,
null,,learn_phase(without_color),505666,black_plus_sign,,,,null,GW/globe.jpg,GW/snail.jpg,,,,,,,,,,,,
null,,black_cross(without_color),506322,green,,,,null,GW/globe.jpg,GW/snail.jpg,,,,,,,,,,,,
null,,rt_plussign_withcolor,506826,green,,,,null,GW/globe.jpg,GW/snail.jpg,,,,,,,,,,,,
1215.8999999985099,,rt_thecrossant_black,508180,black_plus_sign,,,,50,,,0.9574468085106383,1,,,,,,,,,,
null,,color_black,508287,black_plus_sign,,,,null,,,,,,,,,,,,,,
null,,learn_phase(without_color),510293,black_plus_sign,,,,null,GW/teeth.jpg,GW/snail.jpg,,,,,,,,,,,,
null,,black_cross(without_color),511305,green,,,,null,GW/teeth.jpg,GW/snail.jpg,,,,,,,,,,,,
null,,rt_plussign_withcolor,511808,green,,,,null,GW/teeth.jpg,GW/snail.jpg,,,,,,,,,,,,
1113.800000000745,,rt_thecrossant_black,512806,black_plus_sign,,,,50,,,0.9583333333333334,1,,,,,,,,,,
null,,color_black,512912,black_plus_sign,,,,null,,,,,,,,,,,,,,
null,,learn_phase(without_color),514922,black_plus_sign,,,,null,GW/jukebox.jpg,GW/wheelchair.jpg,,,,,,,,,,,,
null,,black_cross(without_color),515594,blue,,,,null,GW/jukebox.jpg,GW/wheelchair.jpg,,,,,,,,,,,,
null,,rt_plussign_withcolor,516098,blue,,,,null,GW/jukebox.jpg,GW/wheelchair.jpg,,,,,,,,,,,,
1234.300000000745,,rt_thecrossant_black,517438,black_plus_sign,,,,49,,,0.9591836734693877,1,,,,,,,,,,
null,,color_black,517551,black_plus_sign,,,,null,,,,,,,,,,,,,,
null,,learn_phase(without_color),519559,black_plus_sign,,,,null,GW/globe.jpg,GW/paint.jpg,,,,,,,,,,,,
null,,black_cross(without_color),520629,green,,,,null,GW/globe.jpg,GW/paint.jpg,,,,,,,,,,,,
null,,rt_plussign_withcolor,521133,green,,,,null,GW/globe.jpg,GW/paint.jpg,,,,,,,,,,,,
927.6000000014901,,rt_thecrossant_black,522073,black_plus_sign,,,,50,,,0.96,1,,,,,,,,,,
null,,color_black,522177,black_plus_sign,,,,null,,,,,,,,,,,,,,
null,,learn_phase(without_color),524193,black_plus_sign,,,,null,GW/camera.jpg,GW/globe.jpg,,,,,,,,,,,,
null,,black_cross(without_color),524908,blue,,,,null,GW/camera.jpg,GW/globe.jpg,,,,,,,,,,,,
null,,rt_plussign_withcolor,525411,blue,,,,null,GW/camera.jpg,GW/globe.jpg,,,,,,,,,,,,
1410.300000000745,,rt_thecrossant_black,526704,black_plus_sign,,,,49,,,0.9607843137254902,1,,,,,,,,,,
null,,color_black,526808,black_plus_sign,,,,null,,,,,,,,,,,,,,
null,,learn_phase(without_color),528822,black_plus_sign,,,,null,GW/basket.jpg,GW/gong.jpg,,,,,,,,,,,,
null,,black_cross(without_color),529531,green,,,,null,GW/basket.jpg,GW/gong.jpg,,,,,,,,,,,,
null,,rt_plussign_withcolor,530042,green,,,,null,GW/basket.jpg,GW/gong.jpg,,,,,,,,,,,,
1170.4000000022352,,rt_thecrossant_black,531354,black_plus_sign,,,,50,,,0.9615384615384616,1,,,,,,,,,,
null,,color_black,531458,black_plus_sign,,,,null,,,,,,,,,,,,,,
null,,learn_phase(without_color),533465,black_plus_sign,,,,null,GW/paint.jpg,GW/soldier.jpg,,,,,,,,,,,,
null,,black_cross(without_color),534176,blue,,,,null,GW/paint.jpg,GW/soldier.jpg,,,,,,,,,,,,
null,,rt_plussign_withcolor,534687,blue,,,,null,GW/paint.jpg,GW/soldier.jpg,,,,,,,,,,,,
819.2999999970198,,rt_thecrossant_black,535997,black_plus_sign,,,,49,,,0.9622641509433962,1,,,,,,,,,,
null,,color_black,536102,black_plus_sign,,,,null,,,,,,,,,,,,,,
null,,learn_phase(without_color),538108,black_plus_sign,,,,null,GW/basket.jpg,GW/hat.jpg,,,,,,,,,,,,
null,,black_cross(without_color),538621,blue,,,,null,GW/basket.jpg,GW/hat.jpg,,,,,,,,,,,,
null,,rt_plussign_withcolor,539125,blue,,,,null,GW/basket.jpg,GW/hat.jpg,,,,,,,,,,,,
1376,,rt_thecrossant_black,540621,black_plus_sign,,,,49,,,0.9629629629629629,1,,,,,,,,,,
null,,color_black,540725,black_plus_sign,,,,null,,,,,,,,,,,,,,
null,,learn_phase(without_color),542731,black_plus_sign,,,,null,GW/snail.jpg,GW/barrel.jpg,,,,,,,,,,,,
null,,black_cross(without_color),543285,blue,,,,null,GW/snail.jpg,GW/barrel.jpg,,,,,,,,,,,,
null,,rt_plussign_withcolor,543789,blue,,,,null,GW/snail.jpg,GW/barrel.jpg,,,,,,,,,,,,
873.3999999985099,,rt_thecrossant_black,545243,black_plus_sign,,,,49,,,0.9636363636363636,1,,,,,,,,,,
null,,color_black,545348,black_plus_sign,,,,null,,,,,,,,,,,,,,
null,,learn_phase(without_color),547353,black_plus_sign,,,,null,GW/wheelchair.jpg,GW/camera.jpg,,,,,,,,,,,,
null,,black_cross(without_color),547857,green,,,,null,GW/wheelchair.jpg,GW/camera.jpg,,,,,,,,,,,,
null,,rt_plussign_withcolor,548361,green,,,,null,GW/wheelchair.jpg,GW/camera.jpg,,,,,,,,,,,,
1050.300000000745,,rt_thecrossant_black,549879,black_plus_sign,,,,50,,,0.9642857142857143,1,,,,,,,,,,
null,,color_black,549996,black_plus_sign,,,,null,,,,,,,,,,,,,,
null,,learn_phase(without_color),552002,black_plus_sign,,,,null,GW/basket.jpg,GW/hat.jpg,,,,,,,,,,,,
null,,black_cross(without_color),552951,blue,,,,null,GW/basket.jpg,GW/hat.jpg,,,,,,,,,,,,
null,,rt_plussign_withcolor,553464,blue,,,,null,GW/basket.jpg,GW/hat.jpg,,,,,,,,,,,,
1040.9000000022352,,rt_thecrossant_black,554541,black_plus_sign,,,,49,,,0.9649122807017544,1,,,,,,,,,,
null,,color_black,554645,black_plus_sign,,,,null,,,,,,,,,,,,,,
null,,learn_phase(without_color),556652,black_plus_sign,,,,null,GW/basket.jpg,GW/gong.jpg,,,,,,,,,,,,
null,,black_cross(without_color),557274,blue,,,,null,GW/basket.jpg,GW/gong.jpg,,,,,,,,,,,,
null,,rt_plussign_withcolor,557778,blue,,,,null,GW/basket.jpg,GW/gong.jpg,,,,,,,,,,,,
1427,,rt_thecrossant_black,559172,black_plus_sign,,,,49,,,0.9655172413793104,1,,,,,,,,,,
null,,color_black,559277,black_plus_sign,,,,null,,,,,,,,,,,,,,
null,,learn_phase(without_color),561293,black_plus_sign,,,,null,GW/barrel.jpg,GW/gong.jpg,,,,,,,,,,,,
null,,black_cross(without_color),562315,blue,,,,null,GW/barrel.jpg,GW/gong.jpg,,,,,,,,,,,,
null,,rt_plussign_withcolor,562826,blue,,,,null,GW/barrel.jpg,GW/gong.jpg,,,,,,,,,,,,
734.7999999970198,,rt_thecrossant_black,563824,black_plus_sign,,,,49,,,0.9661016949152542,1,,,,,,,,,,
null,,color_black,563930,black_plus_sign,,,,null,,,,,,,,,,,,,,
null,,learn_phase(without_color),565946,black_plus_sign,,,,null,GW/paint.jpg,GW/snail.jpg,,,,,,,,,,,,
null,,black_cross(without_color),566404,blue,,,,null,GW/paint.jpg,GW/snail.jpg,,,,,,,,,,,,
null,,rt_plussign_withcolor,566910,blue,,,,null,GW/paint.jpg,GW/snail.jpg,,,,,,,,,,,,
1367.5,,rt_thecrossant_black,568469,black_plus_sign,,,,49,,,0.9666666666666667,1,,,,,,,,,,
null,,color_black,568573,black_plus_sign,,,,null,,,,,,,,,,,,,,
null,,learn_phase(without_color),570579,black_plus_sign,,,,null,GW/wheelchair.jpg,GW/basket.jpg,,,,,,,,,,,,
null,,black_cross(without_color),571522,green,,,,null,GW/wheelchair.jpg,GW/basket.jpg,,,,,,,,,,,,
null,,rt_plussign_withcolor,572027,green,,,,null,GW/wheelchair.jpg,GW/basket.jpg,,,,,,,,,,,,
1147.3999999985099,,rt_thecrossant_black,573104,black_plus_sign,,,,50,,,0.9672131147540983,1,,,,,,,,,,
null,,color_black,573208,black_plus_sign,,,,null,,,,,,,,,,,,,,
null,,learn_phase(without_color),575222,black_plus_sign,,,,null,GW/paint.jpg,GW/teeth.jpg,,,,,,,,,,,,
null,,black_cross(without_color),576165,blue,,,,null,GW/paint.jpg,GW/teeth.jpg,,,,,,,,,,,,
null,,rt_plussign_withcolor,576668,blue,,,,null,GW/paint.jpg,GW/teeth.jpg,,,,,,,,,,,,
1454.3999999985099,,rt_thecrossant_black,577735,black_plus_sign,,,,49,,,0.967741935483871,1,,,,,,,,,,
null,,color_black,577841,black_plus_sign,,,,null,,,,,,,,,,,,,,
null,,learn_phase(without_color),579856,black_plus_sign,,,,null,GW/camera.jpg,GW/globe.jpg,,,,,,,,,,,,
null,,black_cross(without_color),580936,green,,,,null,GW/camera.jpg,GW/globe.jpg,,,,,,,,,,,,
null,,rt_plussign_withcolor,581450,green,,,,null,GW/camera.jpg,GW/globe.jpg,,,,,,,,,,,,
1277.199999999255,,rt_thecrossant_black,582394,black_plus_sign,,,,50,,,0.9682539682539683,1,,,,,,,,,,
null,,color_black,582499,black_plus_sign,,,,null,,,,,,,,,,,,,,
null,,learn_phase(without_color),584515,black_plus_sign,,,,null,GW/globe.jpg,GW/snail.jpg,,,,,,,,,,,,
null,,black_cross(without_color),584974,green,,,,null,GW/globe.jpg,GW/snail.jpg,,,,,,,,,,,,
null,,rt_plussign_withcolor,585478,green,,,,null,GW/globe.jpg,GW/snail.jpg,,,,,,,,,,,,
1472.6000000014901,,rt_thecrossant_black,587035,black_plus_sign,,,,50,,,0.96875,1,,,,,,,,,,
null,,color_black,587140,black_plus_sign,,,,null,,,,,,,,,,,,,,
null,,learn_phase(without_color),589147,black_plus_sign,,,,null,GW/camera.jpg,GW/barrel.jpg,,,,,,,,,,,,
null,,black_cross(without_color),589841,green,,,,null,GW/camera.jpg,GW/barrel.jpg,,,,,,,,,,,,
null,,rt_plussign_withcolor,590345,green,,,,null,GW/camera.jpg,GW/barrel.jpg,,,,,,,,,,,,
868.8000000007451,,rt_thecrossant_black,591673,black_plus_sign,,,,50,,,0.9692307692307692,1,,,,,,,,,,
null,,color_black,591777,black_plus_sign,,,,null,,,,,,,,,,,,,,
null,,learn_phase(without_color),593781,black_plus_sign,,,,null,GW/paint.jpg,GW/teeth.jpg,,,,,,,,,,,,
null,,black_cross(without_color),594804,blue,,,,null,GW/paint.jpg,GW/teeth.jpg,,,,,,,,,,,,
null,,rt_plussign_withcolor,595308,blue,,,,null,GW/paint.jpg,GW/teeth.jpg,,,,,,,,,,,,
1028.300000000745,,rt_thecrossant_black,596313,black_plus_sign,,,,49,,,0.9696969696969697,1,,,,,,,,,,
null,,color_black,596418,black_plus_sign,,,,null,,,,,,,,,,,,,,
null,,learn_phase(without_color),598425,black_plus_sign,,,,null,GW/barrel.jpg,GW/gong.jpg,,,,,,,,,,,,
null,,black_cross(without_color),599319,blue,,,,null,GW/barrel.jpg,GW/gong.jpg,,,,,,,,,,,,
null,,rt_plussign_withcolor,599823,blue,,,,null,GW/barrel.jpg,GW/gong.jpg,,,,,,,,,,,,
1448.5999999977648,,rt_thecrossant_black,600940,black_plus_sign,,,,49,,,0.9701492537313433,1,,,,,,,,,,
null,,color_black,601045,black_plus_sign,,,,null,,,,,,,,,,,,,,
null,,learn_phase(without_color),603051,black_plus_sign,,,,null,GW/teeth.jpg,GW/snail.jpg,,,,,,,,,,,,
null,,black_cross(without_color),603618,green,,,,null,GW/teeth.jpg,GW/snail.jpg,,,,,,,,,,,,
null,,rt_plussign_withcolor,604131,green,,,,null,GW/teeth.jpg,GW/snail.jpg,,,,,,,,,,,,
1432.4000000022352,,rt_thecrossant_black,605581,black_plus_sign,,,,50,,,0.9705882352941176,1,,,,,,,,,,
null,,color_black,605686,black_plus_sign,,,,null,,,,,,,,,,,,,,
null,,learn_phase(without_color),607696,black_plus_sign,,,,null,GW/paint.jpg,GW/snail.jpg,,,,,,,,,,,,
null,,black_cross(without_color),608112,blue,,,,null,GW/paint.jpg,GW/snail.jpg,,,,,,,,,,,,
null,,rt_plussign_withcolor,608617,blue,,,,null,GW/paint.jpg,GW/snail.jpg,,,,,,,,,,,,
1066.800000000745,,rt_thecrossant_black,610218,black_plus_sign,,,,49,,,0.9710144927536232,1,,,,,,,,,,
null,,color_black,610324,black_plus_sign,,,,null,,,,,,,,,,,,,,
null,,learn_phase(without_color),612334,black_plus_sign,,,,null,GW/basket.jpg,GW/gong.jpg,,,,,,,,,,,,
null,,black_cross(without_color),612842,blue,,,,null,GW/basket.jpg,GW/gong.jpg,,,,,,,,,,,,
null,,rt_plussign_withcolor,613346,blue,,,,null,GW/basket.jpg,GW/gong.jpg,,,,,,,,,,,,
874.7999999970198,,rt_thecrossant_black,614848,black_plus_sign,,,,49,,,0.9714285714285714,1,,,,,,,,,,
null,,color_black,614953,black_plus_sign,,,,null,,,,,,,,,,,,,,
null,,learn_phase(without_color),616968,black_plus_sign,,,,null,GW/globe.jpg,GW/snail.jpg,,,,,,,,,,,,
null,,black_cross(without_color),618012,green,,,,null,GW/globe.jpg,GW/snail.jpg,,,,,,,,,,,,
null,,rt_plussign_withcolor,618517,green,,,,null,GW/globe.jpg,GW/snail.jpg,,,,,,,,,,,,
923.0999999977648,,rt_thecrossant_black,619492,black_plus_sign,,,,50,,,0.971830985915493,1,,,,,,,,,,
null,,color_black,619597,black_plus_sign,,,,null,,,,,,,,,,,,,,
null,,learn_phase(without_color),621613,black_plus_sign,,,,null,GW/barrel.jpg,GW/gong.jpg,,,,,,,,,,,,
null,,black_cross(without_color),622425,blue,,,,null,GW/barrel.jpg,GW/gong.jpg,,,,,,,,,,,,
null,,rt_plussign_withcolor,622928,blue,,,,null,GW/barrel.jpg,GW/gong.jpg,,,,,,,,,,,,
1333.199999999255,,rt_thecrossant_black,624147,black_plus_sign,,,,49,,,0.9722222222222222,1,,,,,,,,,,
null,,color_black,624253,black_plus_sign,,,,null,,,,,,,,,,,,,,
null,,learn_phase(without_color),626269,black_plus_sign,,,,null,GW/basket.jpg,GW/gong.jpg,,,,,,,,,,,,
null,,black_cross(without_color),626860,blue,,,,null,GW/basket.jpg,GW/gong.jpg,,,,,,,,,,,,
null,,rt_plussign_withcolor,627374,blue,,,,null,GW/basket.jpg,GW/gong.jpg,,,,,,,,,,,,
1191.199999999255,,rt_thecrossant_black,628790,black_plus_sign,,,,49,,,0.9726027397260274,1,,,,,,,,,,
null,,color_black,628898,black_plus_sign,,,,null,,,,,,,,,,,,,,
null,,learn_phase(without_color),630915,black_plus_sign,,,,null,GW/globe.jpg,GW/snail.jpg,,,,,,,,,,,,
null,,black_cross(without_color),631995,green,,,,null,GW/globe.jpg,GW/snail.jpg,,,,,,,,,,,,
null,,rt_plussign_withcolor,632507,green,,,,null,GW/globe.jpg,GW/snail.jpg,,,,,,,,,,,,
791.9000000022352,,rt_thecrossant_black,633448,black_plus_sign,,,,50,,,0.972972972972973,1,,,,,,,,,,
null,,color_black,633554,black_plus_sign,,,,null,,,,,,,,,,,,,,
null,,learn_phase(without_color),635565,black_plus_sign,,,,null,GW/paint.jpg,GW/soldier.jpg,,,,,,,,,,,,
null,,black_cross(without_color),636652,blue,,,,null,GW/paint.jpg,GW/soldier.jpg,,,,,,,,,,,,
null,,rt_plussign_withcolor,637156,blue,,,,null,GW/paint.jpg,GW/soldier.jpg,,,,,,,,,,,,
1432.3999999985099,,rt_thecrossant_black,638079,black_plus_sign,,,,49,,,0.9733333333333334,1,,,,,,,,,,
null,,color_black,638184,black_plus_sign,,,,null,,,,,,,,,,,,,,
null,,learn_phase(without_color),640191,black_plus_sign,,,,null,GW/wheelchair.jpg,GW/basket.jpg,,,,,,,,,,,,
null,,black_cross(without_color),641027,blue,,,,null,GW/wheelchair.jpg,GW/basket.jpg,,,,,,,,,,,,
null,,rt_plussign_withcolor,641541,blue,,,,null,GW/wheelchair.jpg,GW/basket.jpg,,,,,,,,,,,,
1972.199999999255,,rt_thecrossant_black,642722,black_plus_sign,,,,49,,,0.9736842105263158,1,,,,,,,,,,
null,,color_black,642828,black_plus_sign,,,,null,,,,,,,,,,,,,,
null,,learn_phase(without_color),644836,black_plus_sign,,,,null,GW/globe.jpg,GW/snail.jpg,,,,,,,,,,,,
null,,black_cross(without_color),645477,blue,,,,null,GW/globe.jpg,GW/snail.jpg,,,,,,,,,,,,
null,,rt_plussign_withcolor,645982,blue,,,,null,GW/globe.jpg,GW/snail.jpg,,,,,,,,,,,,
1320.0999999977648,,rt_thecrossant_black,647360,black_plus_sign,,,,49,,,0.974025974025974,1,,,,,,,,,,
null,,color_black,647466,black_plus_sign,,,,null,,,,,,,,,,,,,,
null,,learn_phase(without_color),649483,black_plus_sign,,,,null,GW/teeth.jpg,GW/dustpan.jpg,,,,,,,,,,,,
null,,black_cross(without_color),649949,blue,,,,null,GW/teeth.jpg,GW/dustpan.jpg,,,,,,,,,,,,
null,,rt_plussign_withcolor,650462,blue,,,,null,GW/teeth.jpg,GW/dustpan.jpg,,,,,,,,,,,,
965.8999999985099,,rt_thecrossant_black,652021,black_plus_sign,,,,49,,,0.9743589743589743,1,,,,,,,,,,
null,,color_black,652128,black_plus_sign,,,,null,,,,,,,,,,,,,,
null,,learn_phase(without_color),654144,black_plus_sign,,,,null,GW/paint.jpg,GW/teeth.jpg,,,,,,,,,,,,
null,,black_cross(without_color),654956,green,,,,null,GW/paint.jpg,GW/teeth.jpg,,,,,,,,,,,,
null,,rt_plussign_withcolor,655468,green,,,,null,GW/paint.jpg,GW/teeth.jpg,,,,,,,,,,,,
768,,rt_thecrossant_black,656678,black_plus_sign,,,,50,,,0.9746835443037974,1,,,,,,,,,,
null,,color_black,656799,black_plus_sign,,,,null,,,,,,,,,,,,,,
null,,learn_phase(without_color),658817,black_plus_sign,,,,null,GW/jukebox.jpg,GW/wheelchair.jpg,,,,,,,,,,,,
null,,black_cross(without_color),659354,green,,,,null,GW/jukebox.jpg,GW/wheelchair.jpg,,,,,,,,,,,,
null,,rt_plussign_withcolor,659857,green,,,,null,GW/jukebox.jpg,GW/wheelchair.jpg,,,,,,,,,,,,
1331.5,,rt_thecrossant_black,661341,black_plus_sign,,,,50,,,0.975,1,,,,,,,,,,
null,,color_black,661444,black_plus_sign,,,,null,,,,,,,,,,,,,,
null,,learn_phase(without_color),663451,black_plus_sign,,,,null,GW/paint.jpg,GW/snail.jpg,,,,,,,,,,,,
null,,black_cross(without_color),664453,green,,,,null,GW/paint.jpg,GW/snail.jpg,,,,,,,,,,,,
null,,rt_plussign_withcolor,664966,green,,,,null,GW/paint.jpg,GW/snail.jpg,,,,,,,,,,,,
978.6000000014901,,rt_thecrossant_black,665984,black_plus_sign,,,,50,,,0.9753086419753086,1,,,,,,,,,,
null,,color_black,666090,black_plus_sign,,,,null,,,,,,,,,,,,,,
null,,learn_phase(without_color),668103,black_plus_sign,,,,null,GW/camera.jpg,GW/barrel.jpg,,,,,,,,,,,,
null,,black_cross(without_color),668734,blue,,,,null,GW/camera.jpg,GW/barrel.jpg,,,,,,,,,,,,
null,,rt_plussign_withcolor,669237,blue,,,,null,GW/camera.jpg,GW/barrel.jpg,,,,,,,,,,,,
1516.8999999985099,,rt_thecrossant_black,670617,black_plus_sign,,,,49,,,0.975609756097561,1,,,,,,,,,,
null,,color_black,670723,black_plus_sign,,,,null,,,,,,,,,,,,,,
null,,learn_phase(without_color),672730,black_plus_sign,,,,null,GW/teeth.jpg,GW/snail.jpg,,,,,,,,,,,,
null,,black_cross(without_color),673827,blue,,,,null,GW/teeth.jpg,GW/snail.jpg,,,,,,,,,,,,
null,,rt_plussign_withcolor,674330,blue,,,,null,GW/teeth.jpg,GW/snail.jpg,,,,,,,,,,,,
1089.6000000014901,,rt_thecrossant_black,675243,black_plus_sign,,,,49,,,0.9759036144578314,1,,,,,,,,,,
null,,color_black,675347,black_plus_sign,,,,null,,,,,,,,,,,,,,
null,,learn_phase(without_color),677355,black_plus_sign,,,,null,GW/camera.jpg,GW/globe.jpg,,,,,,,,,,,,
null,,black_cross(without_color),678093,green,,,,null,GW/camera.jpg,GW/globe.jpg,,,,,,,,,,,,
null,,rt_plussign_withcolor,678602,green,,,,null,GW/camera.jpg,GW/globe.jpg,,,,,,,,,,,,
1636.0999999977648,,rt_thecrossant_black,679876,black_plus_sign,,,,50,,,0.9761904761904762,1,,,,,,,,,,
null,,color_black,679982,black_plus_sign,,,,null,,,,,,,,,,,,,,
null,,learn_phase(without_color),681989,black_plus_sign,,,,null,GW/teeth.jpg,GW/dustpan.jpg,,,,,,,,,,,,
null,,black_cross(without_color),682528,blue,,,,null,GW/teeth.jpg,GW/dustpan.jpg,,,,,,,,,,,,
null,,rt_plussign_withcolor,683032,blue,,,,null,GW/teeth.jpg,GW/dustpan.jpg,,,,,,,,,,,,
1209,,rt_thecrossant_black,684514,black_plus_sign,,,,49,,,0.9764705882352941,1,,,,,,,,,,
null,,color_black,684618,black_plus_sign,,,,null,,,,,,,,,,,,,,
null,,learn_phase(without_color),686625,black_plus_sign,,,,null,GW/barrel.jpg,GW/gong.jpg,,,,,,,,,,,,
null,,black_cross(without_color),687235,blue,,,,null,GW/barrel.jpg,GW/gong.jpg,,,,,,,,,,,,
null,,rt_plussign_withcolor,687738,blue,,,,null,GW/barrel.jpg,GW/gong.jpg,,,,,,,,,,,,
994.7000000029802,,rt_thecrossant_black,689155,black_plus_sign,,,,49,,,0.9767441860465116,1,,,,,,,,,,
null,,color_black,689259,black_plus_sign,,,,null,,,,,,,,,,,,,,
null,,learn_phase(without_color),691277,black_plus_sign,,,,null,GW/globe.jpg,GW/paint.jpg,,,,,,,,,,,,
null,,black_cross(without_color),692132,green,,,,null,GW/globe.jpg,GW/paint.jpg,,,,,,,,,,,,
null,,rt_plussign_withcolor,692636,green,,,,null,GW/globe.jpg,GW/paint.jpg,,,,,,,,,,,,
950.3000000007451,,rt_thecrossant_black,693791,black_plus_sign,,,,50,,,0.9770114942528736,1,,,,,,,,,,
null,,color_black,693896,black_plus_sign,,,,null,,,,,,,,,,,,,,
null,,learn_phase(without_color),695903,black_plus_sign,,,,null,GW/paint.jpg,GW/snail.jpg,,,,,,,,,,,,
null,,black_cross(without_color),696649,green,,,,null,GW/paint.jpg,GW/snail.jpg,,,,,,,,,,,,
null,,rt_plussign_withcolor,697152,green,,,,null,GW/paint.jpg,GW/snail.jpg,,,,,,,,,,,,
1303.1000000014901,,rt_thecrossant_black,698424,black_plus_sign,,,,50,,,0.9772727272727273,1,,,,,,,,,,
null,,color_black,698531,black_plus_sign,,,,null,,,,,,,,,,,,,,
null,,learn_phase(without_color),700550,black_plus_sign,,,,null,GW/teeth.jpg,GW/dustpan.jpg,,,,,,,,,,,,
null,,black_cross(without_color),701426,blue,,,,null,GW/teeth.jpg,GW/dustpan.jpg,,,,,,,,,,,,
null,,rt_plussign_withcolor,701938,blue,,,,null,GW/teeth.jpg,GW/dustpan.jpg,,,,,,,,,,,,
1131.1000000014901,,rt_thecrossant_black,703083,black_plus_sign,,,,49,,,0.9775280898876404,1,,,,,,,,,,
null,,color_black,703189,black_plus_sign,,,,null,,,,,,,,,,,,,,
null,,learn_phase(without_color),705196,black_plus_sign,,,,null,GW/globe.jpg,GW/paint.jpg,,,,,,,,,,,,
null,,black_cross(without_color),706243,blue,,,,null,GW/globe.jpg,GW/paint.jpg,,,,,,,,,,,,
null,,rt_plussign_withcolor,706747,blue,,,,null,GW/globe.jpg,GW/paint.jpg,,,,,,,,,,,,
1278.300000000745,,rt_thecrossant_black,707709,black_plus_sign,,,,49,,,0.9777777777777777,1,,,,,,,,,,
null,,color_black,707814,black_plus_sign,,,,null,,,,,,,,,,,,,,
null,,learn_phase(without_color),709820,black_plus_sign,,,,null,GW/paint.jpg,GW/snail.jpg,,,,,,,,,,,,
null,,black_cross(without_color),710607,blue,,,,null,GW/paint.jpg,GW/snail.jpg,,,,,,,,,,,,
null,,rt_plussign_withcolor,711110,blue,,,,null,GW/paint.jpg,GW/snail.jpg,,,,,,,,,,,,
1411.1000000014901,,rt_thecrossant_black,712352,black_plus_sign,,,,49,,,0.978021978021978,1,,,,,,,,,,
null,,color_black,712457,black_plus_sign,,,,null,,,,,,,,,,,,,,
null,,learn_phase(without_color),714463,black_plus_sign,,,,null,GW/barrel.jpg,GW/gong.jpg,,,,,,,,,,,,
null,,black_cross(without_color),714952,blue,,,,null,GW/barrel.jpg,GW/gong.jpg,,,,,,,,,,,,
null,,rt_plussign_withcolor,715467,blue,,,,null,GW/barrel.jpg,GW/gong.jpg,,,,,,,,,,,,
1188.2999999970198,,rt_thecrossant_black,716997,black_plus_sign,,,,49,,,0.9782608695652174,1,,,,,,,,,,
null,,color_black,717101,black_plus_sign,,,,null,,,,,,,,,,,,,,
null,,learn_phase(without_color),719117,black_plus_sign,,,,null,GW/globe.jpg,GW/paint.jpg,,,,,,,,,,,,
null,,black_cross(without_color),720009,blue,,,,null,GW/globe.jpg,GW/paint.jpg,,,,,,,,,,,,
null,,rt_plussign_withcolor,720517,blue,,,,null,GW/globe.jpg,GW/paint.jpg,,,,,,,,,,,,
833.1000000014901,,rt_thecrossant_black,721645,black_plus_sign,,,,49,,,0.978494623655914,1,,,,,,,,,,
null,,color_black,721749,black_plus_sign,,,,null,,,,,,,,,,,,,,
null,,learn_phase(without_color),723754,black_plus_sign,,,,null,GW/snail.jpg,GW/barrel.jpg,,,,,,,,,,,,
null,,black_cross(without_color),724291,green,,,,null,GW/snail.jpg,GW/barrel.jpg,,,,,,,,,,,,
null,,rt_plussign_withcolor,724795,green,,,,null,GW/snail.jpg,GW/barrel.jpg,,,,,,,,,,,,
1422.800000000745,,rt_thecrossant_black,726266,black_plus_sign,,,,50,,,0.9787234042553191,1,,,,,,,,,,
null,,color_black,726370,black_plus_sign,,,,null,,,,,,,,,,,,,,
null,,learn_phase(without_color),728376,black_plus_sign,,,,null,GW/wheelchair.jpg,GW/basket.jpg,,,,,,,,,,,,
null,,black_cross(without_color),728884,blue,,,,null,GW/wheelchair.jpg,GW/basket.jpg,,,,,,,,,,,,
null,,rt_plussign_withcolor,729388,blue,,,,null,GW/wheelchair.jpg,GW/basket.jpg,,,,,,,,,,,,
1148.0999999977648,,rt_thecrossant_black,730891,black_plus_sign,,,,49,,,0.9789473684210527,1,,,,,,,,,,
null,,color_black,730996,black_plus_sign,,,,null,,,,,,,,,,,,,,
null,,learn_phase(without_color),733013,black_plus_sign,,,,null,GW/wheelchair.jpg,GW/camera.jpg,,,,,,,,,,,,
null,,black_cross(without_color),733532,blue,,,,null,GW/wheelchair.jpg,GW/camera.jpg,,,,,,,,,,,,
null,,rt_plussign_withcolor,734035,blue,,,,null,GW/wheelchair.jpg,GW/camera.jpg,,,,,,,,,,,,
1007.7000000029802,,rt_thecrossant_black,735530,black_plus_sign,,,,49,,,0.9791666666666666,1,,,,,,,,,,
null,,color_black,735635,black_plus_sign,,,,null,,,,,,,,,,,,,,
null,,learn_phase(without_color),737643,black_plus_sign,,,,null,GW/paint.jpg,GW/teeth.jpg,,,,,,,,,,,,
null,,black_cross(without_color),738107,blue,,,,null,GW/paint.jpg,GW/teeth.jpg,,,,,,,,,,,,
null,,rt_plussign_withcolor,738618,blue,,,,null,GW/paint.jpg,GW/teeth.jpg,,,,,,,,,,,,
821,,rt_thecrossant_black,740183,black_plus_sign,,,,49,,,0.979381443298969,1,,,,,,,,,,
null,,color_black,740290,black_plus_sign,,,,null,,,,,,,,,,,,,,
null,,learn_phase(without_color),742308,black_plus_sign,,,,null,GW/wheelchair.jpg,GW/basket.jpg,,,,,,,,,,,,
null,,black_cross(without_color),743059,blue,,,,null,GW/wheelchair.jpg,GW/basket.jpg,,,,,,,,,,,,
null,,rt_plussign_withcolor,743563,blue,,,,null,GW/wheelchair.jpg,GW/basket.jpg,,,,,,,,,,,,
799.0999999977648,,rt_thecrossant_black,744821,black_plus_sign,,,,49,,,0.9795918367346939,1,,,,,,,,,,
null,,color_black,744942,black_plus_sign,,,,null,,,,,,,,,,,,,,
null,,learn_phase(without_color),746948,black_plus_sign,,,,null,GW/wheelchair.jpg,GW/camera.jpg,,,,,,,,,,,,
null,,black_cross(without_color),747437,green,,,,null,GW/wheelchair.jpg,GW/camera.jpg,,,,,,,,,,,,
null,,rt_plussign_withcolor,747951,green,,,,null,GW/wheelchair.jpg,GW/camera.jpg,,,,,,,,,,,,
1353.1000000014901,,rt_thecrossant_black,749481,black_plus_sign,,,,50,,,0.9797979797979798,1,,,,,,,,,,
null,,color_black,749585,black_plus_sign,,,,null,,,,,,,,,,,,,,
null,,learn_phase(without_color),751591,black_plus_sign,,,,null,GW/camera.jpg,GW/barrel.jpg,,,,,,,,,,,,
null,,black_cross(without_color),752098,green,,,,null,GW/camera.jpg,GW/barrel.jpg,,,,,,,,,,,,
null,,rt_plussign_withcolor,752602,green,,,,null,GW/camera.jpg,GW/barrel.jpg,,,,,,,,,,,,
1013.5,,rt_thecrossant_black,754134,black_plus_sign,,,,50,,,0.98,1,,,,,,,,,,
null,,color_black,754239,black_plus_sign,,,,null,,,,,,,,,,,,,,
null,,learn_phase(without_color),756246,black_plus_sign,,,,null,GW/jukebox.jpg,GW/wheelchair.jpg,,,,,,,,,,,,
null,,black_cross(without_color),756883,green,,,,null,GW/jukebox.jpg,GW/wheelchair.jpg,,,,,,,,,,,,
null,,rt_plussign_withcolor,757395,green,,,,null,GW/jukebox.jpg,GW/wheelchair.jpg,,,,,,,,,,,,
1266.7999999970198,,rt_thecrossant_black,758777,black_plus_sign,,,,50,,,0.9801980198019802,1,,,,,,,,,,
null,,color_black,758883,black_plus_sign,,,,null,,,,,,,,,,,,,,
null,,learn_phase(without_color),760891,black_plus_sign,,,,null,GW/wheelchair.jpg,GW/camera.jpg,,,,,,,,,,,,
null,,black_cross(without_color),761451,green,,,,null,GW/wheelchair.jpg,GW/camera.jpg,,,,,,,,,,,,
null,,rt_plussign_withcolor,761954,green,,,,null,GW/wheelchair.jpg,GW/camera.jpg,,,,,,,,,,,,
1041.2000000029802,,rt_thecrossant_black,763404,black_plus_sign,,,,50,,,0.9803921568627451,1,,,,,,,,,,
null,,color_black,763509,black_plus_sign,,,,null,,,,,,,,,,,,,,
null,,learn_phase(without_color),765518,black_plus_sign,,,,null,GW/basket.jpg,GW/hat.jpg,,,,,,,,,,,,
null,,black_cross(without_color),766081,green,,,,null,GW/basket.jpg,GW/hat.jpg,,,,,,,,,,,,
null,,rt_plussign_withcolor,766585,green,,,,null,GW/basket.jpg,GW/hat.jpg,,,,,,,,,,,,
1047.699999999255,,rt_thecrossant_black,768033,black_plus_sign,,,,50,,,0.9805825242718447,1,,,,,,,,,,
null,,color_black,768138,black_plus_sign,,,,null,,,,,,,,,,,,,,
null,,learn_phase(without_color),770154,black_plus_sign,,,,null,GW/jukebox.jpg,GW/wheelchair.jpg,,,,,,,,,,,,
null,,black_cross(without_color),770592,blue,,,,null,GW/jukebox.jpg,GW/wheelchair.jpg,,,,,,,,,,,,
null,,rt_plussign_withcolor,771095,blue,,,,null,GW/jukebox.jpg,GW/wheelchair.jpg,,,,,,,,,,,,
1665.199999999255,,rt_thecrossant_black,772674,black_plus_sign,,,,49,,,0.9807692307692307,1,,,,,,,,,,
null,,color_black,772779,black_plus_sign,,,,null,,,,,,,,,,,,,,
null,,learn_phase(without_color),774795,black_plus_sign,,,,null,GW/basket.jpg,GW/hat.jpg,,,,,,,,,,,,
null,,black_cross(without_color),775482,green,,,,null,GW/basket.jpg,GW/hat.jpg,,,,,,,,,,,,
null,,rt_plussign_withcolor,775996,green,,,,null,GW/basket.jpg,GW/hat.jpg,,,,,,,,,,,,
786.6000000014901,,rt_thecrossant_black,777327,black_plus_sign,,,,50,,,0.9809523809523809,1,,,,,,,,,,
null,,color_black,777453,black_plus_sign,,,,null,,,,,,,,,,,,,,
null,,learn_phase(without_color),779458,black_plus_sign,,,,null,GW/camera.jpg,GW/barrel.jpg,,,,,,,,,,,,
null,,black_cross(without_color),780525,blue,,,,null,GW/camera.jpg,GW/barrel.jpg,,,,,,,,,,,,
null,,rt_plussign_withcolor,781038,blue,,,,null,GW/camera.jpg,GW/barrel.jpg,,,,,,,,,,,,
1044.6000000014901,,rt_thecrossant_black,781989,black_plus_sign,,,,49,,,0.9811320754716981,1,,,,,,,,,,
null,,color_black,782093,black_plus_sign,,,,null,,,,,,,,,,,,,,
null,,learn_phase(without_color),784112,black_plus_sign,,,,null,GW/jukebox.jpg,GW/wheelchair.jpg,,,,,,,,,,,,
null,,black_cross(without_color),785044,green,,,,null,GW/jukebox.jpg,GW/wheelchair.jpg,,,,,,,,,,,,
null,,rt_plussign_withcolor,785553,green,,,,null,GW/jukebox.jpg,GW/wheelchair.jpg,,,,,,,,,,,,
1627.199999999255,,rt_thecrossant_black,786637,black_plus_sign,,,,50,,,0.9813084112149533,1,,,,,,,,,,
null,,color_black,786743,black_plus_sign,,,,null,,,,,,,,,,,,,,
null,,learn_phase(without_color),788750,black_plus_sign,,,,null,GW/basket.jpg,GW/hat.jpg,,,,,,,,,,,,
null,,black_cross(without_color),789753,green,,,,null,GW/basket.jpg,GW/hat.jpg,,,,,,,,,,,,
null,,rt_plussign_withcolor,790257,green,,,,null,GW/basket.jpg,GW/hat.jpg,,,,,,,,,,,,
1499.8999999985099,,rt_thecrossant_black,791263,black_plus_sign,,,,50,,,0.9814814814814815,1,,,,,,,,,,
null,,color_black,791369,black_plus_sign,,,,null,,,,,,,,,,,,,,
null,,learn_phase(without_color),793383,black_plus_sign,,,,null,GW/paint.jpg,GW/soldier.jpg,,,,,,,,,,,,
null,,black_cross(without_color),793954,blue,,,,null,GW/paint.jpg,GW/soldier.jpg,,,,,,,,,,,,
null,,rt_plussign_withcolor,794457,blue,,,,null,GW/paint.jpg,GW/soldier.jpg,,,,,,,,,,,,
1480.5999999977648,,rt_thecrossant_black,795898,black_plus_sign,,,,49,,,0.981651376146789,1,,,,,,,,,,
null,,color_black,796004,black_plus_sign,,,,null,,,,,,,,,,,,,,
null,,learn_phase(without_color),798022,black_plus_sign,,,,null,GW/jukebox.jpg,GW/wheelchair.jpg,,,,,,,,,,,,
null,,black_cross(without_color),798574,blue,,,,null,GW/jukebox.jpg,GW/wheelchair.jpg,,,,,,,,,,,,
null,,rt_plussign_withcolor,799083,blue,,,,null,GW/jukebox.jpg,GW/wheelchair.jpg,,,,,,,,,,,,
1024.6000000014901,,rt_thecrossant_black,800540,black_plus_sign,,,,49,,,0.9818181818181818,1,,,,,,,,,,
null,,color_black,800647,black_plus_sign,,,,null,,,,,,,,,,,,,,
null,,learn_phase(without_color),802654,black_plus_sign,,,,null,GW/basket.jpg,GW/hat.jpg,,,,,,,,,,,,
null,,black_cross(without_color),803123,blue,,,,null,GW/basket.jpg,GW/hat.jpg,,,,,,,,,,,,
null,,rt_plussign_withcolor,803628,blue,,,,null,GW/basket.jpg,GW/hat.jpg,,,,,,,,,,,,
1182.5999999977648,,rt_thecrossant_black,805181,black_plus_sign,,,,50,,,0.972972972972973,0,,,,,,,,,,
null,,color_black,805287,black_plus_sign,,,,null,,,,,,,,,,,,,,
null,,learn_phase(without_color),807293,black_plus_sign,,,,null,GW/jukebox.jpg,GW/wheelchair.jpg,,,,,,,,,,,,
null,,black_cross(without_color),808376,green,,,,null,GW/jukebox.jpg,GW/wheelchair.jpg,,,,,,,,,,,,
null,,rt_plussign_withcolor,808893,green,,,,null,GW/jukebox.jpg,GW/wheelchair.jpg,,,,,,,,,,,,
899.8999999985099,,rt_thecrossant_black,809842,black_plus_sign,,,,50,,,0.9732142857142857,1,,,,,,,,,,
null,,color_black,809947,black_plus_sign,,,,null,,,,,,,,,,,,,,
null,,learn_phase(without_color),811968,black_plus_sign,,,,null,GW/snail.jpg,GW/barrel.jpg,,,,,,,,,,,,
null,,black_cross(without_color),812760,green,,,,null,GW/snail.jpg,GW/barrel.jpg,,,,,,,,,,,,
null,,rt_plussign_withcolor,813272,green,,,,null,GW/snail.jpg,GW/barrel.jpg,,,,,,,,,,,,
1420.3999999985099,,rt_thecrossant_black,814503,black_plus_sign,,,,50,,,0.9734513274336283,1,,,,,,,,,,
null,,color_black,814608,black_plus_sign,,,,null,,,,,,,,,,,,,,
null,,learn_phase(without_color),816615,black_plus_sign,,,,null,GW/wheelchair.jpg,GW/basket.jpg,,,,,,,,,,,,
null,,black_cross(without_color),817710,green,,,,null,GW/wheelchair.jpg,GW/basket.jpg,,,,,,,,,,,,
null,,rt_plussign_withcolor,818215,green,,,,null,GW/wheelchair.jpg,GW/basket.jpg,,,,,,,,,,,,
1145.8999999985099,,rt_thecrossant_black,819130,black_plus_sign,,,,50,,,0.9736842105263158,1,,,,,,,,,,
null,,color_black,819236,black_plus_sign,,,,null,,,,,,,,,,,,,,
null,,learn_phase(without_color),821247,black_plus_sign,,,,null,GW/barrel.jpg,GW/gong.jpg,,,,,,,,,,,,
null,,black_cross(without_color),821795,blue,,,,null,GW/barrel.jpg,GW/gong.jpg,,,,,,,,,,,,
null,,rt_plussign_withcolor,822298,blue,,,,null,GW/barrel.jpg,GW/gong.jpg,,,,,,,,,,,,
1622.9000000022352,,rt_thecrossant_black,823761,black_plus_sign,,,,49,,,0.9739130434782609,1,,,,,,,,,,
null,,color_black,823865,black_plus_sign,,,,null,,,,,,,,,,,,,,
null,,learn_phase(without_color),825881,black_plus_sign,,,,null,GW/wheelchair.jpg,GW/camera.jpg,,,,,,,,,,,,
null,,black_cross(without_color),826373,blue,,,,null,GW/wheelchair.jpg,GW/camera.jpg,,,,,,,,,,,,
null,,rt_plussign_withcolor,826876,blue,,,,null,GW/wheelchair.jpg,GW/camera.jpg,,,,,,,,,,,,
945.7000000029802,,rt_thecrossant_black,828404,black_plus_sign,,,,49,,,0.9741379310344828,1,,,,,,,,,,
null,,color_black,828508,black_plus_sign,,,,null,,,,,,,,,,,,,,
null,,learn_phase(without_color),830515,black_plus_sign,,,,null,GW/basket.jpg,GW/gong.jpg,,,,,,,,,,,,
null,,black_cross(without_color),831193,blue,,,,null,GW/basket.jpg,GW/gong.jpg,,,,,,,,,,,,
null,,rt_plussign_withcolor,831697,blue,,,,null,GW/basket.jpg,GW/gong.jpg,,,,,,,,,,,,
1044,,rt_thecrossant_black,833043,black_plus_sign,,,,49,,,0.9743589743589743,1,,,,,,,,,,
null,,color_black,833149,black_plus_sign,,,,null,,,,,,,,,,,,,,
null,,learn_phase(without_color),835155,black_plus_sign,,,,null,GW/paint.jpg,GW/teeth.jpg,,,,,,,,,,,,
null,,black_cross(without_color),835769,blue,,,,null,GW/paint.jpg,GW/teeth.jpg,,,,,,,,,,,,
null,,rt_plussign_withcolor,836272,blue,,,,null,GW/paint.jpg,GW/teeth.jpg,,,,,,,,,,,,
1096.699999999255,,rt_thecrossant_black,837667,black_plus_sign,,,,49,,,0.9745762711864406,1,,,,,,,,,,
null,,color_black,837778,black_plus_sign,,,,null,,,,,,,,,,,,,,
null,,learn_phase(without_color),839784,black_plus_sign,,,,null,GW/wheelchair.jpg,GW/basket.jpg,,,,,,,,,,,,
null,,black_cross(without_color),840467,green,,,,null,GW/wheelchair.jpg,GW/basket.jpg,,,,,,,,,,,,
null,,rt_plussign_withcolor,840984,green,,,,null,GW/wheelchair.jpg,GW/basket.jpg,,,,,,,,,,,,
1160.2000000029802,,rt_thecrossant_black,842313,black_plus_sign,,,,50,,,0.9747899159663865,1,,,,,,,,,,
null,,color_black,842419,black_plus_sign,,,,null,,,,,,,,,,,,,,
null,,learn_phase(without_color),844436,black_plus_sign,,,,null,GW/paint.jpg,GW/soldier.jpg,,,,,,,,,,,,
null,,black_cross(without_color),845474,blue,,,,null,GW/paint.jpg,GW/soldier.jpg,,,,,,,,,,,,
null,,rt_plussign_withcolor,845988,blue,,,,null,GW/paint.jpg,GW/soldier.jpg,,,,,,,,,,,,
1058.1000000014901,,rt_thecrossant_black,846977,black_plus_sign,,,,49,,,0.975,1,,,,,,,,,,
null,,color_black,847085,black_plus_sign,,,,null,,,,,,,,,,,,,,
null,,learn_phase(without_color),849103,black_plus_sign,,,,null,GW/teeth.jpg,GW/dustpan.jpg,,,,,,,,,,,,
null,,black_cross(without_color),849802,green,,,,null,GW/teeth.jpg,GW/dustpan.jpg,,,,,,,,,,,,
null,,rt_plussign_withcolor,850318,green,,,,null,GW/teeth.jpg,GW/dustpan.jpg,,,,,,,,,,,,
1707.5,,rt_thecrossant_black,851629,black_plus_sign,,,,50,,,0.9752066115702479,1,,,,,,,,,,
null,,color_black,851734,black_plus_sign,,,,null,,,,,,,,,,,,,,
null,,learn_phase(without_color),853740,black_plus_sign,,,,null,GW/wheelchair.jpg,GW/basket.jpg,,,,,,,,,,,,
null,,black_cross(without_color),854546,blue,,,,null,GW/wheelchair.jpg,GW/basket.jpg,,,,,,,,,,,,
null,,rt_plussign_withcolor,855059,blue,,,,null,GW/wheelchair.jpg,GW/basket.jpg,,,,,,,,,,,,
1169.300000000745,,rt_thecrossant_black,856284,black_plus_sign,,,,49,,,0.9754098360655737,1,,,,,,,,,,
null,,color_black,856389,black_plus_sign,,,,null,,,,,,,,,,,,,,
null,,learn_phase(without_color),858397,black_plus_sign,,,,null,GW/paint.jpg,GW/soldier.jpg,,,,,,,,,,,,
null,,black_cross(without_color),859351,green,,,,null,GW/paint.jpg,GW/soldier.jpg,,,,,,,,,,,,
null,,rt_plussign_withcolor,859856,green,,,,null,GW/paint.jpg,GW/soldier.jpg,,,,,,,,,,,,
1256.199999999255,,rt_thecrossant_black,860928,black_plus_sign,,,,50,,,0.975609756097561,1,,,,,,,,,,
null,,color_black,861035,black_plus_sign,,,,null,,,,,,,,,,,,,,
null,,learn_phase(without_color),863042,black_plus_sign,,,,null,GW/wheelchair.jpg,GW/camera.jpg,,,,,,,,,,,,
null,,black_cross(without_color),863900,green,,,,null,GW/wheelchair.jpg,GW/camera.jpg,,,,,,,,,,,,
null,,rt_plussign_withcolor,864411,green,,,,null,GW/wheelchair.jpg,GW/camera.jpg,,,,,,,,,,,,
1288.199999999255,,rt_thecrossant_black,865577,black_plus_sign,,,,50,,,0.9758064516129032,1,,,,,,,,,,
null,,color_black,865683,black_plus_sign,,,,null,,,,,,,,,,,,,,
36415.099999997765,,intro_1,902104,instruct,,0,Start,,,,,,,,,,,,,,,
6424.10000000149,,directmemory_phase,908535,GW/teeth.jpg,,,,49,,,1,1,GW/paint.jpg,GW/basket.jpg,GW/globe.jpg,GW/paint.jpg,GW/globe.jpg,GW/basket.jpg,1,,,
null,,html-keyboard-response,909548,<p></p>,,,,null,,,,,,,,,,,,,,
null,,directmemory_phase,916064,GW/basket.jpg,,,,null,,,0.5,0,GW/snail.jpg,GW/camera.jpg,GW/hat.jpg,GW/hat.jpg,GW/camera.jpg,GW/snail.jpg,0,,,
null,,html-keyboard-response,917069,<p></p>,,,,null,,,,,,,,,,,,,,
3409.699999999255,,directmemory_phase,920483,GW/paint.jpg,,,,49,,,0.3333333333333333,0,GW/jukebox.jpg,GW/camera.jpg,GW/soldier.jpg,GW/soldier.jpg,GW/camera.jpg,GW/jukebox.jpg,0.5,closer,,
null,,html-keyboard-response,921488,<p></p>,,,,null,,,,,,,,,,,,,,
3318.800000000745,,directmemory_phase,924812,GW/gong.jpg,,,,50,,,0.5,1,GW/hat.jpg,GW/basket.jpg,GW/jukebox.jpg,GW/basket.jpg,GW/hat.jpg,GW/jukebox.jpg,1,,,
null,,html-keyboard-response,925817,<p></p>,,,,null,,,,,,,,,,,,,,
2832.7000000029802,,directmemory_phase,928653,GW/camera.jpg,,,,50,,,0.6,1,GW/paint.jpg,GW/globe.jpg,GW/teeth.jpg,GW/globe.jpg,GW/paint.jpg,GW/teeth.jpg,1,,,
null,,html-keyboard-response,929659,<p></p>,,,,null,,,,,,,,,,,,,,
2838.699999999255,,directmemory_phase,932501,GW/snail.jpg,,,,51,,,0.6666666666666666,1,GW/hat.jpg,GW/gong.jpg,GW/teeth.jpg,GW/teeth.jpg,GW/gong.jpg,GW/hat.jpg,1,,,
null,,html-keyboard-response,933506,<p></p>,,,,null,,,,,,,,,,,,,,
2273.699999999255,,directmemory_phase,935784,GW/basket.jpg,,,,51,,,0.5714285714285714,0,GW/jukebox.jpg,GW/gong.jpg,GW/teeth.jpg,GW/gong.jpg,GW/jukebox.jpg,GW/teeth.jpg,0.5,closer,,
null,,html-keyboard-response,936794,<p></p>,,,,null,,,,,,,,,,,,,,
2274.39999999851,,directmemory_phase,939073,GW/jukebox.jpg,,,,49,,,0.625,1,GW/wheelchair.jpg,GW/paint.jpg,GW/basket.jpg,GW/wheelchair.jpg,GW/basket.jpg,GW/paint.jpg,1,,,
null,,html-keyboard-response,940092,<p></p>,,,,null,,,,,,,,,,,,,,
2500.400000002235,,directmemory_phase,942596,GW/dustpan.jpg,,,,49,,,0.5555555555555556,0,GW/paint.jpg,GW/teeth.jpg,GW/soldier.jpg,GW/teeth.jpg,GW/paint.jpg,GW/soldier.jpg,0.5,closer,,
null,,html-keyboard-response,943603,<p></p>,,,,null,,,,,,,,,,,,,,
3381.39999999851,,directmemory_phase,946988,GW/basket.jpg,,,,50,,,0.5,0,GW/wheelchair.jpg,GW/globe.jpg,GW/jukebox.jpg,GW/wheelchair.jpg,GW/jukebox.jpg,GW/globe.jpg,0.5,closer,,
null,,html-keyboard-response,948000,<p></p>,,,,null,,,,,,,,,,,,,,
2845,,directmemory_phase,950848,GW/snail.jpg,,,,50,,,0.5454545454545454,1,GW/soldier.jpg,GW/globe.jpg,GW/hat.jpg,GW/globe.jpg,GW/soldier.jpg,GW/hat.jpg,1,,,
null,,html-keyboard-response,951854,<p></p>,,,,null,,,,,,,,,,,,,,
2697.89999999851,,directmemory_phase,954556,GW/soldier.jpg,,,,51,,,0.5833333333333334,1,GW/dustpan.jpg,GW/snail.jpg,GW/paint.jpg,GW/paint.jpg,GW/snail.jpg,GW/dustpan.jpg,1,,,
null,,html-keyboard-response,955562,<p></p>,,,,null,,,,,,,,,,,,,,
2660.2000000029802,,directmemory_phase,958226,GW/barrel.jpg,,,,50,,,0.5384615384615384,0,GW/snail.jpg,GW/dustpan.jpg,GW/wheelchair.jpg,GW/snail.jpg,GW/wheelchair.jpg,GW/dustpan.jpg,0.5,closer,,
null,,html-keyboard-response,959231,<p></p>,,,,null,,,,,,,,,,,,,,
2969.5,,directmemory_phase,962204,GW/wheelchair.jpg,,,,51,,,0.5,0,GW/globe.jpg,GW/jukebox.jpg,GW/paint.jpg,GW/jukebox.jpg,GW/globe.jpg,GW/paint.jpg,0.5,closer,,
null,,html-keyboard-response,963212,<p></p>,,,,null,,,,,,,,,,,,,,
3253.099999997765,,directmemory_phase,966470,GW/hat.jpg,,,,51,,,0.4666666666666667,0,GW/gong.jpg,GW/basket.jpg,GW/snail.jpg,GW/basket.jpg,GW/gong.jpg,GW/snail.jpg,0.5,closer,,
null,,html-keyboard-response,967478,<p></p>,,,,null,,,,,,,,,,,,,,
3366.300000000745,,directmemory_phase,970849,GW/wheelchair.jpg,,,,50,,,0.5,1,GW/barrel.jpg,GW/camera.jpg,GW/teeth.jpg,GW/camera.jpg,GW/barrel.jpg,GW/teeth.jpg,1,,,
null,,html-keyboard-response,971854,<p></p>,,,,null,,,,,,,,,,,,,,
2691.39999999851,,directmemory_phase,974549,GW/teeth.jpg,,,,49,,,0.5294117647058824,1,GW/snail.jpg,GW/wheelchair.jpg,GW/soldier.jpg,GW/snail.jpg,GW/soldier.jpg,GW/wheelchair.jpg,1,,,
null,,html-keyboard-response,975555,<p></p>,,,,null,,,,,,,,,,,,,,
2448.900000002235,,directmemory_phase,978008,GW/wheelchair.jpg,,,,49,,,0.5,0,GW/paint.jpg,GW/globe.jpg,GW/basket.jpg,GW/basket.jpg,GW/globe.jpg,GW/paint.jpg,0.5,closer,,
null,,html-keyboard-response,979015,<p></p>,,,,null,,,,,,,,,,,,,,
2307,,directmemory_phase,981328,GW/paint.jpg,,,,50,,,0.47368421052631576,0,GW/teeth.jpg,GW/jukebox.jpg,GW/dustpan.jpg,GW/teeth.jpg,GW/dustpan.jpg,GW/jukebox.jpg,0.5,closer,,
null,,html-keyboard-response,982338,<p></p>,,,,null,,,,,,,,,,,,,,
1782,,directmemory_phase,984125,GW/camera.jpg,,,,49,,,0.5,1,GW/wheelchair.jpg,GW/dustpan.jpg,GW/gong.jpg,GW/wheelchair.jpg,GW/gong.jpg,GW/dustpan.jpg,1,,,
null,,html-keyboard-response,985131,<p></p>,,,,null,,,,,,,,,,,,,,
2394.699999999255,,directmemory_phase,987529,GW/globe.jpg,,,,49,,,0.47619047619047616,0,GW/basket.jpg,GW/barrel.jpg,GW/paint.jpg,GW/paint.jpg,GW/barrel.jpg,GW/basket.jpg,0.5,closer,,
null,,html-keyboard-response,988536,<p></p>,,,,null,,,,,,,,,,,,,,
2255.599999997765,,directmemory_phase,990795,GW/camera.jpg,,,,49,,,0.45454545454545453,0,GW/snail.jpg,GW/barrel.jpg,GW/dustpan.jpg,GW/barrel.jpg,GW/snail.jpg,GW/dustpan.jpg,0.5,closer,,
null,,html-keyboard-response,991800,<p></p>,,,,null,,,,,,,,,,,,,,
2360.5,,directmemory_phase,994164,GW/teeth.jpg,,,,49,,,0.43478260869565216,0,GW/basket.jpg,GW/globe.jpg,GW/dustpan.jpg,GW/dustpan.jpg,GW/globe.jpg,GW/basket.jpg,0.5,closer,,
null,,html-keyboard-response,995174,<p></p>,,,,null,,,,,,,,,,,,,,
2300.2999999970198,,directmemory_phase,997478,GW/barrel.jpg,,,,50,,,0.4166666666666667,0,GW/gong.jpg,GW/soldier.jpg,GW/teeth.jpg,GW/gong.jpg,GW/teeth.jpg,GW/soldier.jpg,0.5,closer,,
null,,html-keyboard-response,998488,<p></p>,,,,null,,,,,,,,,,,,,,
2641.5,,directmemory_phase,1001133,GW/paint.jpg,,,,51,,,0.44,1,GW/basket.jpg,GW/camera.jpg,GW/globe.jpg,GW/globe.jpg,GW/camera.jpg,GW/basket.jpg,1,,,
null,,html-keyboard-response,1002138,<p></p>,,,,null,,,,,,,,,,,,,,
1974.8999999985099,,directmemory_phase,1004117,GW/barrel.jpg,,,,49,,,0.46153846153846156,1,GW/camera.jpg,GW/dustpan.jpg,GW/globe.jpg,GW/camera.jpg,GW/globe.jpg,GW/dustpan.jpg,1,,,
null,,html-keyboard-response,1005123,<p></p>,,,,null,,,,,,,,,,,,,,
2199.300000000745,,directmemory_phase,1007327,GW/snail.jpg,,,,49,,,0.48148148148148145,1,GW/paint.jpg,GW/jukebox.jpg,GW/camera.jpg,GW/paint.jpg,GW/camera.jpg,GW/jukebox.jpg,1,,,
null,,html-keyboard-response,1008332,<p></p>,,,,null,,,,,,,,,,,,,,
2435.300000000745,,directmemory_phase,1010772,GW/globe.jpg,,,,51,,,0.5,1,GW/dustpan.jpg,GW/teeth.jpg,GW/camera.jpg,GW/camera.jpg,GW/teeth.jpg,GW/dustpan.jpg,1,,,
null,,html-keyboard-response,1011776,<p></p>,,,,null,,,,,,,,,,,,,,
3027.400000002235,,directmemory_phase,1014807,GW/snail.jpg,,,,50,,,0.4827586206896552,0,GW/jukebox.jpg,GW/gong.jpg,GW/barrel.jpg,GW/barrel.jpg,GW/gong.jpg,GW/jukebox.jpg,0.5,closer,,
null,,html-keyboard-response,1015813,<p></p>,,,,null,,,,,,,,,,,,,,
4686,,directmemory_phase,1020503,,,,,50,,,0.5,1,,,,,,,0.5,closer,,
null,,html-keyboard-response,1021511,<p></p>,,,,null,,,,,,,,,,,,,,
3616.699999999255,,directmemory_phase,1025132,,,,,51,,,0.5161290322580645,1,,,,,,,0.5,closer,,
null,,html-keyboard-response,1026140,<p></p>,,,,null,,,,,,,,,,,,,,
3555.10000000149,,directmemory_phase,1029698,,,,,50,,,0.53125,1,,,,,,,0.5,closer,,
null,,html-keyboard-response,1030705,<p></p>,,,,null,,,,,,,,,,,,,,
28964.300000000745,,intro_1,1059673,instruct,,0,,,,,,,,,,,,,,,,
10387.10000000149,,intro_2,1070066,instruct,,1,Next,,,,,,,,,,,,,,,
12534.800000000745,,intro_3,1082607,instruct,,1,Next,,,,,,,,,,,,,,,
6323.89999999851,,intro_4,1088936,instruct,,1,Next,,,,,,,,,,,,,,,
13122.70000000298,,intro_5,1102065,instruct,,1,Next,,,,,,,,,,,,,,,
4745.60000000149,,intro_6,1106816,instruct,,1,Next,,,,,,,,,,,,,,,
11795.099999997765,,intro_7,1118617,instruct,,1,Next,,,,,,,,,,,,,,,
26825.60000000149,,intro_8,1145449,instruct,,1,Next,,,,,,,,,,,,,,,
1891.5,,shortestpath_phase,1147347,GW/paint.jpg,,,,49,GW/hat.jpg,GW/wheelchair.jpg,0,0,,,,GW/wheelchair.jpg,,,,,Two Edge Diff,Three Edge Five Edge
null,,html-keyboard-response,1148354,<p></p>,,,,null,,,,,,,,,,,,,,
2463.60000000149,,shortestpath_phase,1150822,GW/soldier.jpg,,,,50,GW/basket.jpg,GW/dustpan.jpg,0.5,1,,,,GW/dustpan.jpg,,,,,Two Edge Diff,Three Edge Five Edge
null,,html-keyboard-response,1151840,<p></p>,,,,null,,,,,,,,,,,,,,
2580,,shortestpath_phase,1154424,GW/jukebox.jpg,,,,49,GW/paint.jpg,GW/soldier.jpg,0.6666666666666666,1,,,,GW/paint.jpg,,,,,One Edge Diff,Four Edge Five Edge
null,,html-keyboard-response,1155438,<p></p>,,,,null,,,,,,,,,,,,,,
1628,,shortestpath_phase,1157073,GW/dustpan.jpg,,,,49,GW/hat.jpg,GW/camera.jpg,0.5,0,,,,GW/camera.jpg,,,,,Two Edge Diff,Four Edge Six Edge
null,,html-keyboard-response,1158081,<p></p>,,,,null,,,,,,,,,,,,,,
1549.8999999985099,,shortestpath_phase,1159635,GW/paint.jpg,,,,50,GW/gong.jpg,GW/hat.jpg,0.4,0,,,,GW/gong.jpg,,,,,Two Edge Diff,Three Edge Five Edge
null,,html-keyboard-response,1160643,<p></p>,,,,null,,,,,,,,,,,,,,
1777.5,,shortestpath_phase,1162424,GW/hat.jpg,,,,50,GW/dustpan.jpg,GW/teeth.jpg,0.5,1,,,,GW/teeth.jpg,,,,,One Edge Diff,Five Edge Six Edge
null,,html-keyboard-response,1163431,<p></p>,,,,null,,,,,,,,,,,,,,
1551,,shortestpath_phase,1164985,GW/basket.jpg,,,,50,GW/soldier.jpg,GW/paint.jpg,0.5714285714285714,1,,,,GW/paint.jpg,,,,,One Edge Diff,Four Edge Five Edge
null,,html-keyboard-response,1165993,<p></p>,,,,null,,,,,,,,,,,,,,
1585.800000000745,,shortestpath_phase,1167582,GW/soldier.jpg,,,,50,GW/gong.jpg,GW/basket.jpg,0.5,0,,,,GW/gong.jpg,,,,,One Edge Diff,Four Edge Five Edge
null,,html-keyboard-response,1168587,<p></p>,,,,null,,,,,,,,,,,,,,
1889.3999999985099,,shortestpath_phase,1170481,GW/dustpan.jpg,,,,49,GW/jukebox.jpg,GW/paint.jpg,0.4444444444444444,0,,,,GW/paint.jpg,,,,,Four Edge Diff,Two Edge Six Edge
null,,html-keyboard-response,1171490,<p></p>,,,,null,,,,,,,,,,,,,,
2796.900000002235,,shortestpath_phase,1174294,GW/jukebox.jpg,,,,50,GW/basket.jpg,GW/soldier.jpg,0.4,0,,,,GW/basket.jpg,,,,,Three Edge Diff,Two Edge Five Edge
null,,html-keyboard-response,1175299,<p></p>,,,,null,,,,,,,,,,,,,,
2529.5,,shortestpath_phase,1177832,GW/dustpan.jpg,,,,50,GW/jukebox.jpg,GW/gong.jpg,0.45454545454545453,1,,,,GW/gong.jpg,,,,,Two Edge Diff,Four Edge Six Edge
null,,html-keyboard-response,1178851,<p></p>,,,,null,,,,,,,,,,,,,,
2324.7000000029802,,shortestpath_phase,1181181,GW/hat.jpg,,,,50,GW/teeth.jpg,GW/soldier.jpg,0.4166666666666667,0,,,,GW/teeth.jpg,,,,,One Edge Diff,Five Edge Six Edge
null,,html-keyboard-response,1182189,<p></p>,,,,null,,,,,,,,,,,,,,
2525,,shortestpath_phase,1184718,GW/dustpan.jpg,,,,50,GW/paint.jpg,GW/hat.jpg,0.38461538461538464,0,,,,GW/paint.jpg,,,,,Four Edge Diff,Two Edge Six Edge
null,,html-keyboard-response,1185723,<p></p>,,,,null,,,,,,,,,,,,,,
2405.39999999851,,shortestpath_phase,1188132,GW/snail.jpg,,,,49,GW/soldier.jpg,GW/basket.jpg,0.42857142857142855,1,,,,GW/soldier.jpg,,,,,One Edge Diff,Two Edge Three Edge
null,,html-keyboard-response,1189140,<p></p>,,,,null,,,,,,,,,,,,,,
1794,,shortestpath_phase,1190938,GW/hat.jpg,,,,49,GW/soldier.jpg,GW/globe.jpg,0.4,0,,,,GW/globe.jpg,,,,,Two Edge Diff,Four Edge Six Edge
null,,html-keyboard-response,1191946,<p></p>,,,,null,,,,,,,,,,,,,,
1581.1000000014901,,shortestpath_phase,1193532,GW/dustpan.jpg,,,,49,GW/gong.jpg,GW/soldier.jpg,0.375,0,,,,GW/soldier.jpg,,,,,One Edge Diff,Three Edge Four Edge
null,,html-keyboard-response,1194540,<p></p>,,,,null,,,,,,,,,,,,,,
2444.900000002235,,shortestpath_phase,1196988,GW/globe.jpg,,,,50,GW/wheelchair.jpg,GW/hat.jpg,0.35294117647058826,0,,,,GW/wheelchair.jpg,,,,,Two Edge Diff,Two Edge Four Edge
null,,html-keyboard-response,1197993,<p></p>,,,,null,,,,,,,,,,,,,,
3030.2999999970198,,shortestpath_phase,1201028,GW/soldier.jpg,,,,49,GW/teeth.jpg,GW/hat.jpg,0.3888888888888889,1,,,,GW/teeth.jpg,,,,,Four Edge Diff,Two Edge Six Edge
null,,html-keyboard-response,1202036,<p></p>,,,,null,,,,,,,,,,,,,,
2114.300000000745,,shortestpath_phase,1204154,GW/dustpan.jpg,,,,49,GW/paint.jpg,GW/wheelchair.jpg,0.42105263157894735,1,,,,GW/paint.jpg,,,,,Three Edge Diff,Two Edge Five Edge
null,,html-keyboard-response,1205161,<p></p>,,,,null,,,,,,,,,,,,,,
2028.5,,shortestpath_phase,1207193,GW/soldier.jpg,,,,50,GW/jukebox.jpg,GW/hat.jpg,0.4,0,,,,GW/jukebox.jpg,,,,,One Edge Diff,Five Edge Six Edge
null,,html-keyboard-response,1208201,<p></p>,,,,null,,,,,,,,,,,,,,
2212.300000000745,,shortestpath_phase,1210418,GW/basket.jpg,,,,50,GW/camera.jpg,GW/dustpan.jpg,0.38095238095238093,0,,,,GW/camera.jpg,,,,,Three Edge Diff,Three Edge Six Edge
null,,html-keyboard-response,1211427,<p></p>,,,,null,,,,,,,,,,,,,,
1623.0999999977648,,shortestpath_phase,1213054,GW/snail.jpg,,,,50,GW/wheelchair.jpg,GW/hat.jpg,0.36363636363636365,0,,,,GW/wheelchair.jpg,,,,,One Edge Diff,Three Edge Four Edge
null,,html-keyboard-response,1214062,<p></p>,,,,null,,,,,,,,,,,,,,
1677,,shortestpath_phase,1215743,GW/basket.jpg,,,,49,GW/soldier.jpg,GW/globe.jpg,0.34782608695652173,0,,,,GW/globe.jpg,,,,,Two Edge Diff,Three Edge Five Edge
null,,html-keyboard-response,1216752,<p></p>,,,,null,,,,,,,,,,,,,,
2418.7000000029802,,shortestpath_phase,1219175,GW/gong.jpg,,,,50,GW/teeth.jpg,GW/wheelchair.jpg,0.375,1,,,,GW/wheelchair.jpg,,,,,One Edge Diff,Two Edge Three Edge
null,,html-keyboard-response,1220184,<p></p>,,,,null,,,,,,,,,,,,,,
1556.199999999255,,shortestpath_phase,1221743,GW/basket.jpg,,,,49,GW/soldier.jpg,GW/barrel.jpg,0.36,0,,,,GW/barrel.jpg,,,,,Three Edge Diff,Three Edge Six Edge
null,,html-keyboard-response,1222748,<p></p>,,,,null,,,,,,,,,,,,,,
2628.900000002235,,shortestpath_phase,1225381,GW/teeth.jpg,,,,50,GW/camera.jpg,GW/jukebox.jpg,0.34615384615384615,0,,,,GW/camera.jpg,,,,,Two Edge Diff,Three Edge Five Edge
null,,html-keyboard-response,1226390,<p></p>,,,,null,,,,,,,,,,,,,,
1923.5,,shortestpath_phase,1228317,GW/soldier.jpg,,,,50,GW/gong.jpg,GW/hat.jpg,0.3333333333333333,0,,,,GW/gong.jpg,,,,,Two Edge Diff,Four Edge Six Edge
null,,html-keyboard-response,1229324,<p></p>,,,,null,,,,,,,,,,,,,,
1971.1000000014901,,shortestpath_phase,1231299,GW/jukebox.jpg,,,,49,GW/gong.jpg,GW/camera.jpg,0.32142857142857145,0,,,,GW/camera.jpg,,,,,One Edge Diff,Two Edge Three Edge
null,,html-keyboard-response,1232307,<p></p>,,,,null,,,,,,,,,,,,,,
1743.2999999970198,,shortestpath_phase,1234054,GW/teeth.jpg,,,,50,GW/barrel.jpg,GW/hat.jpg,0.3103448275862069,0,,,,GW/barrel.jpg,,,,,Three Edge Diff,Three Edge Six Edge
null,,html-keyboard-response,1235059,<p></p>,,,,null,,,,,,,,,,,,,,
2307.300000000745,,shortestpath_phase,1237371,GW/soldier.jpg,,,,50,GW/wheelchair.jpg,GW/hat.jpg,0.3,0,,,,GW/wheelchair.jpg,,,,,Two Edge Diff,Four Edge Six Edge
null,,html-keyboard-response,1238380,<p></p>,,,,null,,,,,,,,,,,,,,
2368.7999999970198,,shortestpath_phase,1240753,GW/dustpan.jpg,,,,50,GW/barrel.jpg,GW/paint.jpg,0.3225806451612903,1,,,,GW/paint.jpg,,,,,One Edge Diff,Two Edge Three Edge
null,,html-keyboard-response,1241758,<p></p>,,,,null,,,,,,,,,,,,,,
1639.5999999977648,,shortestpath_phase,1243401,GW/hat.jpg,,,,50,GW/wheelchair.jpg,GW/teeth.jpg,0.3125,0,,,,GW/wheelchair.jpg,,,,,Three Edge Diff,Two Edge Five Edge
null,,html-keyboard-response,1244408,<p></p>,,,,null,,,,,,,,,,,,,,
1900.0999999977648,,shortestpath_phase,1246312,GW/paint.jpg,,,,49,GW/barrel.jpg,GW/jukebox.jpg,0.3333333333333333,1,,,,GW/barrel.jpg,,,,,Two Edge Diff,Two Edge Four Edge
null,,html-keyboard-response,1247323,<p></p>,,,,null,,,,,,,,,,,,,,
2591.60000000149,,shortestpath_phase,1249919,GW/soldier.jpg,,,,50,GW/dustpan.jpg,GW/wheelchair.jpg,0.3235294117647059,0,,,,GW/dustpan.jpg,,,,,One Edge Diff,Three Edge Four Edge
null,,html-keyboard-response,1250927,<p></p>,,,,null,,,,,,,,,,,,,,
2052.5,,shortestpath_phase,1252986,GW/hat.jpg,,,,50,GW/wheelchair.jpg,GW/paint.jpg,0.3142857142857143,0,,,,GW/wheelchair.jpg,,,,,Three Edge Diff,Three Edge Six Edge
null,,html-keyboard-response,1253990,<p></p>,,,,null,,,,,,,,,,,,,,
2220.300000000745,,shortestpath_phase,1256215,GW/basket.jpg,,,,50,GW/soldier.jpg,GW/teeth.jpg,0.3333333333333333,1,,,,GW/teeth.jpg,,,,,One Edge Diff,Four Edge Five Edge
null,,html-keyboard-response,1257229,<p></p>,,,,null,,,,,,,,,,,,,,
1312.5,,shortestpath_phase,1258546,GW/paint.jpg,,,,50,GW/dustpan.jpg,GW/hat.jpg,0.32432432432432434,0,,,,GW/dustpan.jpg,,,,,Three Edge Diff,Two Edge Five Edge
null,,html-keyboard-response,1259553,<p></p>,,,,null,,,,,,,,,,,,,,
1829.8999999985099,,shortestpath_phase,1261389,GW/teeth.jpg,,,,49,GW/soldier.jpg,GW/hat.jpg,0.34210526315789475,1,,,,GW/soldier.jpg,,,,,Three Edge Diff,Three Edge Six Edge
null,,html-keyboard-response,1262400,<p></p>,,,,null,,,,,,,,,,,,,,
1869.199999999255,,shortestpath_phase,1264276,GW/gong.jpg,,,,49,GW/jukebox.jpg,GW/wheelchair.jpg,0.3333333333333333,0,,,,GW/wheelchair.jpg,,,,,One Edge Diff,Two Edge Three Edge
null,,html-keyboard-response,1265287,<p></p>,,,,null,,,,,,,,,,,,,,
2068.89999999851,,shortestpath_phase,1267360,GW/hat.jpg,,,,49,GW/paint.jpg,GW/soldier.jpg,0.35,1,,,,GW/paint.jpg,,,,,One Edge Diff,Five Edge Six Edge
null,,html-keyboard-response,1268367,<p></p>,,,,null,,,,,,,,,,,,,,
2186.400000002235,,shortestpath_phase,1270557,GW/wheelchair.jpg,,,,50,GW/dustpan.jpg,GW/barrel.jpg,0.36585365853658536,1,,,,GW/barrel.jpg,,,,,Three Edge Diff,Two Edge Five Edge
null,,html-keyboard-response,1271565,<p></p>,,,,null,,,,,,,,,,,,,,
2021.7999999970198,,shortestpath_phase,1273591,GW/hat.jpg,,,,50,GW/globe.jpg,GW/paint.jpg,0.35714285714285715,0,,,,GW/globe.jpg,,,,,One Edge Diff,Four Edge Five Edge
null,,html-keyboard-response,1274595,<p></p>,,,,null,,,,,,,,,,,,,,
2432.7000000029802,,shortestpath_phase,1277031,GW/dustpan.jpg,,,,49,GW/basket.jpg,GW/hat.jpg,0.37209302325581395,1,,,,GW/basket.jpg,,,,,One Edge Diff,Five Edge Six Edge
null,,html-keyboard-response,1278041,<p></p>,,,,null,,,,,,,,,,,,,,
1844.8999999985099,,shortestpath_phase,1279889,GW/jukebox.jpg,,,,50,GW/camera.jpg,GW/soldier.jpg,0.36363636363636365,0,,,,GW/camera.jpg,,,,,Three Edge Diff,Three Edge Six Edge
null,,html-keyboard-response,1280896,<p></p>,,,,null,,,,,,,,,,,,,,
1536.8999999985099,,shortestpath_phase,1282437,GW/paint.jpg,,,,49,GW/hat.jpg,GW/basket.jpg,0.35555555555555557,0,,,,GW/basket.jpg,,,,,One Edge Diff,Four Edge Five Edge
null,,html-keyboard-response,1283445,<p></p>,,,,null,,,,,,,,,,,,,,
2583.2000000029802,,shortestpath_phase,1286034,GW/jukebox.jpg,,,,50,GW/camera.jpg,GW/dustpan.jpg,0.34782608695652173,0,,,,GW/camera.jpg,,,,,Four Edge Diff,Two Edge Six Edge
null,,html-keyboard-response,1287042,<p></p>,,,,null,,,,,,,,,,,,,,
1374.9000000022352,,shortestpath_phase,1288423,GW/dustpan.jpg,,,,49,GW/basket.jpg,GW/jukebox.jpg,0.3617021276595745,1,,,,GW/basket.jpg,,,,,One Edge Diff,Five Edge Six Edge
null,,html-keyboard-response,1289428,<p></p>,,,,null,,,,,,,,,,,,,,
1881.2000000029802,,shortestpath_phase,1291313,GW/hat.jpg,,,,50,GW/gong.jpg,GW/soldier.jpg,0.3541666666666667,0,,,,GW/gong.jpg,,,,,Four Edge Diff,Two Edge Six Edge
null,,html-keyboard-response,1292321,<p></p>,,,,null,,,,,,,,,,,,,,
2282,,shortestpath_phase,1294610,GW/basket.jpg,,,,50,GW/camera.jpg,GW/soldier.jpg,0.3469387755102041,0,,,,GW/camera.jpg,,,,,Three Edge Diff,Three Edge Six Edge
null,,html-keyboard-response,1295615,<p></p>,,,,null,,,,,,,,,,,,,,
2338.900000002235,,shortestpath_phase,1297958,GW/dustpan.jpg,,,,50,GW/globe.jpg,GW/wheelchair.jpg,0.34,0,,,,GW/globe.jpg,,,,,Two Edge Diff,Three Edge Five Edge
null,,html-keyboard-response,1298969,<p></p>,,,,null,,,,,,,,,,,,,,
2200.199999999255,,shortestpath_phase,1301173,GW/basket.jpg,,,,49,GW/paint.jpg,GW/dustpan.jpg,0.35294117647058826,1,,,,GW/paint.jpg,,,,,One Edge Diff,Four Edge Five Edge
null,,html-keyboard-response,1302184,<p></p>,,,,null,,,,,,,,,,,,,,
2133.900000002235,,shortestpath_phase,1304321,GW/camera.jpg,,,,49,GW/teeth.jpg,GW/dustpan.jpg,0.36538461538461536,1,,,,GW/teeth.jpg,,,,,One Edge Diff,Three Edge Four Edge
null,,html-keyboard-response,1305331,<p></p>,,,,null,,,,,,,,,,,,,,
2672.300000000745,,shortestpath_phase,1308009,GW/basket.jpg,,,,49,GW/dustpan.jpg,GW/globe.jpg,0.3584905660377358,0,,,,GW/globe.jpg,,,,,Two Edge Diff,Three Edge Five Edge
null,,html-keyboard-response,1309016,<p></p>,,,,null,,,,,,,,,,,,,,
1366.2999999970198,,shortestpath_phase,1310386,GW/dustpan.jpg,,,,50,GW/camera.jpg,GW/paint.jpg,0.37037037037037035,1,,,,GW/paint.jpg,,,,,Two Edge Diff,Two Edge Four Edge
null,,html-keyboard-response,1311393,<p></p>,,,,null,,,,,,,,,,,,,,
2108.800000000745,,shortestpath_phase,1313506,GW/basket.jpg,,,,49,GW/dustpan.jpg,GW/snail.jpg,0.36363636363636365,0,,,,GW/snail.jpg,,,,,Two Edge Diff,Three Edge Five Edge
null,,html-keyboard-response,1314511,<p></p>,,,,null,,,,,,,,,,,,,,
2208.7000000029802,,shortestpath_phase,1316723,GW/teeth.jpg,,,,49,GW/basket.jpg,GW/globe.jpg,0.35714285714285715,0,,,,GW/globe.jpg,,,,,Two Edge Diff,Two Edge Four Edge
null,,html-keyboard-response,1317729,<p></p>,,,,null,,,,,,,,,,,,,,
1701.6000000014901,,shortestpath_phase,1319435,GW/soldier.jpg,,,,50,GW/snail.jpg,GW/jukebox.jpg,0.3508771929824561,0,,,,GW/snail.jpg,,,,,Three Edge Diff,Two Edge Five Edge
null,,html-keyboard-response,1320440,<p></p>,,,,null,,,,,,,,,,,,,,
1298.3999999985099,,shortestpath_phase,1321742,GW/gong.jpg,,,,49,GW/globe.jpg,GW/hat.jpg,0.3448275862068966,0,,,,GW/hat.jpg,,,,,One Edge Diff,Two Edge Three Edge
null,,html-keyboard-response,1322751,<p></p>,,,,null,,,,,,,,,,,,,,
1625.800000000745,,shortestpath_phase,1324381,GW/soldier.jpg,,,,49,GW/globe.jpg,GW/hat.jpg,0.3559322033898305,1,,,,GW/globe.jpg,,,,,Four Edge Diff,Two Edge Six Edge
null,,html-keyboard-response,1325393,<p></p>,,,,null,,,,,,,,,,,,,,
1666.300000000745,,shortestpath_phase,1327064,GW/jukebox.jpg,,,,49,GW/globe.jpg,GW/camera.jpg,0.35,0,,,,GW/camera.jpg,,,,,One Edge Diff,Two Edge Three Edge
null,,html-keyboard-response,1328074,<p></p>,,,,null,,,,,,,,,,,,,,
2621.699999999255,,shortestpath_phase,1330699,GW/teeth.jpg,,,,50,GW/wheelchair.jpg,GW/gong.jpg,0.36065573770491804,1,,,,GW/gong.jpg,,,,,One Edge Diff,Three Edge Four Edge
null,,html-keyboard-response,1331705,<p></p>,,,,null,,,,,,,,,,,,,,
1254,,shortestpath_phase,1332963,GW/soldier.jpg,,,,49,GW/basket.jpg,GW/snail.jpg,0.3548387096774194,0,,,,GW/snail.jpg,,,,,Three Edge Diff,Two Edge Five Edge
null,,html-keyboard-response,1333969,<p></p>,,,,null,,,,,,,,,,,,,,
2288.10000000149,,shortestpath_phase,1336262,GW/dustpan.jpg,,,,49,GW/hat.jpg,GW/wheelchair.jpg,0.3492063492063492,0,,,,GW/wheelchair.jpg,,,,,One Edge Diff,Five Edge Six Edge
null,,html-keyboard-response,1337268,<p></p>,,,,null,,,,,,,,,,,,,,
1884.800000000745,,shortestpath_phase,1339157,GW/jukebox.jpg,,,,49,GW/dustpan.jpg,GW/snail.jpg,0.34375,0,,,,GW/snail.jpg,,,,,Two Edge Diff,Four Edge Six Edge
null,,html-keyboard-response,1340167,<p></p>,,,,null,,,,,,,,,,,,,,
2109.2000000029802,,shortestpath_phase,1342280,GW/dustpan.jpg,,,,50,GW/camera.jpg,GW/jukebox.jpg,0.3384615384615385,0,,,,GW/camera.jpg,,,,,Two Edge Diff,Four Edge Six Edge
null,,html-keyboard-response,1343286,<p></p>,,,,null,,,,,,,,,,,,,,
2271.300000000745,,shortestpath_phase,1345561,GW/teeth.jpg,,,,50,GW/barrel.jpg,GW/hat.jpg,0.3333333333333333,0,,,,GW/barrel.jpg,,,,,Three Edge Diff,Two Edge Five Edge
null,,html-keyboard-response,1346567,<p></p>,,,,null,,,,,,,,,,,,,,
2465.5,,shortestpath_phase,1349037,GW/snail.jpg,,,,50,GW/jukebox.jpg,GW/basket.jpg,0.34328358208955223,1,,,,GW/basket.jpg,,,,,One Edge Diff,Three Edge Four Edge
null,,html-keyboard-response,1350045,<p></p>,,,,null,,,,,,,,,,,,,,
1237.8999999985099,,shortestpath_phase,1351288,GW/hat.jpg,,,,49,GW/barrel.jpg,GW/teeth.jpg,0.35294117647058826,1,,,,GW/barrel.jpg,,,,,Two Edge Diff,Three Edge Five Edge
null,,html-keyboard-response,1352295,<p></p>,,,,null,,,,,,,,,,,,,,
1411.1000000014901,,shortestpath_phase,1353712,GW/dustpan.jpg,,,,50,GW/snail.jpg,GW/basket.jpg,0.34782608695652173,0,,,,GW/snail.jpg,,,,,Three Edge Diff,Three Edge Six Edge
null,,html-keyboard-response,1354719,<p></p>,,,,null,,,,,,,,,,,,,,
1559.0999999977648,,shortestpath_phase,1356282,GW/gong.jpg,,,,49,GW/soldier.jpg,GW/camera.jpg,0.34285714285714286,0,,,,GW/camera.jpg,,,,,Two Edge Diff,Two Edge Four Edge
null,,html-keyboard-response,1357288,<p></p>,,,,null,,,,,,,,,,,,,,
1286.9000000022352,,shortestpath_phase,1358579,GW/soldier.jpg,,,,49,GW/gong.jpg,GW/dustpan.jpg,0.3380281690140845,0,,,,GW/dustpan.jpg,,,,,One Edge Diff,Three Edge Four Edge
null,,html-keyboard-response,1359586,<p></p>,,,,null,,,,,,,,,,,,,,
1697.5,,shortestpath_phase,1361288,GW/hat.jpg,,,,50,GW/camera.jpg,GW/paint.jpg,0.3333333333333333,0,,,,GW/camera.jpg,,,,,Two Edge Diff,Three Edge Five Edge
null,,html-keyboard-response,1362297,<p></p>,,,,null,,,,,,,,,,,,,,
2106.5,,shortestpath_phase,1364407,GW/dustpan.jpg,,,,49,GW/gong.jpg,GW/hat.jpg,0.3424657534246575,1,,,,GW/gong.jpg,,,,,Two Edge Diff,Four Edge Six Edge
null,,html-keyboard-response,1365412,<p></p>,,,,null,,,,,,,,,,,,,,
1487.300000000745,,shortestpath_phase,1366904,GW/jukebox.jpg,,,,50,GW/snail.jpg,GW/soldier.jpg,0.33783783783783783,0,,,,GW/snail.jpg,,,,,One Edge Diff,Four Edge Five Edge
null,,html-keyboard-response,1367909,<p></p>,,,,null,,,,,,,,,,,,,,
1462.3999999985099,,shortestpath_phase,1369376,GW/dustpan.jpg,,,,49,GW/basket.jpg,GW/gong.jpg,0.3333333333333333,0,,,,GW/gong.jpg,,,,,One Edge Diff,Four Edge Five Edge
null,,html-keyboard-response,1370385,<p></p>,,,,null,,,,,,,,,,,,,,
2836.199999999255,,shortestpath_phase,1373225,GW/teeth.jpg,,,,49,GW/jukebox.jpg,GW/globe.jpg,0.32894736842105265,0,,,,GW/globe.jpg,,,,,Three Edge Diff,Two Edge Five Edge
null,,html-keyboard-response,1374232,<p></p>,,,,null,,,,,,,,,,,,,,
1492.7000000029802,,shortestpath_phase,1375728,GW/dustpan.jpg,,,,50,GW/wheelchair.jpg,GW/jukebox.jpg,0.3246753246753247,0,,,,GW/wheelchair.jpg,,,,,One Edge Diff,Five Edge Six Edge
null,,html-keyboard-response,1376734,<p></p>,,,,null,,,,,,,,,,,,,,
993.1000000014901,,shortestpath_phase,1377731,GW/jukebox.jpg,,,,49,GW/dustpan.jpg,GW/soldier.jpg,0.32051282051282054,0,,,,GW/soldier.jpg,,,,,One Edge Diff,Five Edge Six Edge
null,,html-keyboard-response,1378752,<p></p>,,,,null,,,,,,,,,,,,,,
1385.5999999977648,,shortestpath_phase,1380143,GW/dustpan.jpg,,,,49,GW/hat.jpg,GW/snail.jpg,0.31645569620253167,0,,,,GW/snail.jpg,,,,,Four Edge Diff,Two Edge Six Edge
null,,html-keyboard-response,1381159,<p></p>,,,,null,,,,,,,,,,,,,,
2982.800000000745,,shortestpath_phase,1384146,GW/soldier.jpg,,,,49,GW/hat.jpg,GW/basket.jpg,0.3125,0,,,,GW/basket.jpg,,,,,One Edge Diff,Five Edge Six Edge
null,,html-keyboard-response,1385155,<p></p>,,,,null,,,,,,,,,,,,,,
2489.300000000745,,shortestpath_phase,1387648,GW/jukebox.jpg,,,,50,GW/snail.jpg,GW/teeth.jpg,0.30864197530864196,0,,,,GW/snail.jpg,,,,,One Edge Diff,Four Edge Five Edge
null,,html-keyboard-response,1388656,<p></p>,,,,null,,,,,,,,,,,,,,
2585.599999997765,,shortestpath_phase,1391246,GW/soldier.jpg,,,,49,GW/barrel.jpg,GW/basket.jpg,0.3170731707317073,1,,,,GW/barrel.jpg,,,,,Two Edge Diff,Three Edge Five Edge
null,,html-keyboard-response,1392253,<p></p>,,,,null,,,,,,,,,,,,,,
2060.300000000745,,shortestpath_phase,1394318,GW/globe.jpg,,,,49,GW/hat.jpg,GW/dustpan.jpg,0.3132530120481928,0,,,,GW/dustpan.jpg,,,,,One Edge Diff,Three Edge Four Edge
null,,html-keyboard-response,1395325,<p></p>,,,,null,,,,,,,,,,,,,,
1741.4000000022352,,shortestpath_phase,1397072,GW/soldier.jpg,,,,49,GW/basket.jpg,GW/snail.jpg,0.30952380952380953,0,,,,GW/snail.jpg,,,,,Three Edge Diff,Three Edge Six Edge
null,,html-keyboard-response,1398077,<p></p>,,,,null,,,,,,,,,,,,,,
2359.699999999255,,shortestpath_phase,1400441,GW/gong.jpg,,,,49,GW/paint.jpg,GW/hat.jpg,0.3058823529411765,0,,,,GW/hat.jpg,,,,,One Edge Diff,Two Edge Three Edge
null,,html-keyboard-response,1401446,<p></p>,,,,null,,,,,,,,,,,,,,
2977.300000000745,,shortestpath_phase,1404428,GW/dustpan.jpg,,,,50,GW/snail.jpg,GW/jukebox.jpg,0.3023255813953488,0,,,,GW/snail.jpg,,,,,Four Edge Diff,Two Edge Six Edge
null,,html-keyboard-response,1405435,<p></p>,,,,null,,,,,,,,,,,,,,
2900.300000000745,,shortestpath_phase,1408340,GW/hat.jpg,,,,49,GW/dustpan.jpg,GW/globe.jpg,0.2988505747126437,0,,,,GW/globe.jpg,,,,,Two Edge Diff,Four Edge Six Edge
null,,html-keyboard-response,1409346,<p></p>,,,,null,,,,,,,,,,,,,,
1992.800000000745,,shortestpath_phase,1411343,GW/dustpan.jpg,,,,50,GW/gong.jpg,GW/barrel.jpg,0.3068181818181818,1,,,,GW/barrel.jpg,,,,,One Edge Diff,Three Edge Four Edge
null,,html-keyboard-response,1412348,<p></p>,,,,null,,,,,,,,,,,,,,
1914.6000000014901,,shortestpath_phase,1414267,GW/hat.jpg,,,,50,GW/snail.jpg,GW/soldier.jpg,0.30337078651685395,0,,,,GW/snail.jpg,,,,,Two Edge Diff,Four Edge Six Edge
null,,html-keyboard-response,1415277,<p></p>,,,,null,,,,,,,,,,,,,,
2260.900000002235,,shortestpath_phase,1417542,GW/jukebox.jpg,,,,49,GW/basket.jpg,GW/paint.jpg,0.3111111111111111,1,,,,GW/basket.jpg,,,,,Two Edge Diff,Two Edge Four Edge
null,,html-keyboard-response,1418553,<p></p>,,,,null,,,,,,,,,,,,,,
1271.800000000745,,shortestpath_phase,1419828,GW/hat.jpg,,,,49,GW/paint.jpg,GW/snail.jpg,0.3076923076923077,0,,,,GW/snail.jpg,,,,,One Edge Diff,Four Edge Five Edge
null,,html-keyboard-response,1420835,<p></p>,,,,null,,,,,,,,,,,,,,
1807.5,,shortestpath_phase,1422646,GW/paint.jpg,,,,49,GW/jukebox.jpg,GW/camera.jpg,0.30434782608695654,0,,,,GW/camera.jpg,,,,,Two Edge Diff,Two Edge Four Edge
null,,html-keyboard-response,1423652,<p></p>,,,,null,,,,,,,,,,,,,,
1765.1000000014901,,shortestpath_phase,1425422,GW/hat.jpg,,,,49,GW/teeth.jpg,GW/gong.jpg,0.3010752688172043,0,,,,GW/gong.jpg,,,,,Three Edge Diff,Three Edge Six Edge
null,,html-keyboard-response,1426427,<p></p>,,,,null,,,,,,,,,,,,,,
2662.89999999851,,shortestpath_phase,1429095,GW/globe.jpg,,,,50,GW/dustpan.jpg,GW/soldier.jpg,0.30851063829787234,1,,,,GW/soldier.jpg,,,,,One Edge Diff,Two Edge Three Edge
null,,html-keyboard-response,1430101,<p></p>,,,,null,,,,,,,,,,,,,,
1402.3999999985099,,shortestpath_phase,1431508,GW/hat.jpg,,,,49,GW/dustpan.jpg,GW/wheelchair.jpg,0.30526315789473685,0,,,,GW/wheelchair.jpg,,,,,Four Edge Diff,Two Edge Six Edge
null,,html-keyboard-response,1432516,<p></p>,,,,null,,,,,,,,,,,,,,
1697.0999999977648,,shortestpath_phase,1434219,GW/jukebox.jpg,,,,49,GW/globe.jpg,GW/snail.jpg,0.3125,1,,,,GW/globe.jpg,,,,,One Edge Diff,Three Edge Four Edge
null,,html-keyboard-response,1435227,<p></p>,,,,null,,,,,,,,,,,,,,
2103.599999997765,,shortestpath_phase,1437335,GW/hat.jpg,,,,49,GW/dustpan.jpg,GW/gong.jpg,0.30927835051546393,0,,,,GW/gong.jpg,,,,,Four Edge Diff,Two Edge Six Edge
null,,html-keyboard-response,1438341,<p></p>,,,,null,,,,,,,,,,,,,,
1373.199999999255,,shortestpath_phase,1439718,GW/jukebox.jpg,,,,49,GW/dustpan.jpg,GW/paint.jpg,0.30612244897959184,0,,,,GW/paint.jpg,,,,,Two Edge Diff,Four Edge Six Edge
null,,html-keyboard-response,1440723,<p></p>,,,,null,,,,,,,,,,,,,,
1419.6000000014901,,shortestpath_phase,1442147,GW/soldier.jpg,,,,50,GW/snail.jpg,GW/hat.jpg,0.30303030303030304,0,,,,GW/snail.jpg,,,,,Four Edge Diff,Two Edge Six Edge
null,,html-keyboard-response,1443155,<p></p>,,,,null,,,,,,,,,,,,,,
1292.5,,shortestpath_phase,1444454,GW/gong.jpg,,,,49,GW/globe.jpg,GW/camera.jpg,0.3,0,,,,GW/camera.jpg,,,,,One Edge Diff,Two Edge Three Edge
null,,html-keyboard-response,1445462,<p></p>,,,,null,,,,,,,,,,,,,,
1961.699999999255,,shortestpath_phase,1447428,GW/soldier.jpg,,,,49,GW/gong.jpg,GW/snail.jpg,0.297029702970297,0,,,,GW/snail.jpg,,,,,Two Edge Diff,Two Edge Four Edge
null,,html-keyboard-response,1448434,<p></p>,,,,null,,,,,,,,,,,,,,
1088.800000000745,,shortestpath_phase,1449528,GW/jukebox.jpg,,,,49,GW/dustpan.jpg,GW/basket.jpg,0.29411764705882354,0,,,,GW/basket.jpg,,,,,Four Edge Diff,Two Edge Six Edge
null,,html-keyboard-response,1450533,<p></p>,,,,null,,,,,,,,,,,,,,
1226.800000000745,,shortestpath_phase,1451765,GW/hat.jpg,,,,50,GW/wheelchair.jpg,GW/soldier.jpg,0.2912621359223301,0,,,,GW/wheelchair.jpg,,,,,Four Edge Diff,Two Edge Six Edge
null,,html-keyboard-response,1452773,<p></p>,,,,null,,,,,,,,,,,,,,
4273.300000000745,,shortestpath_phase,1457050,GW/soldier.jpg,,,,50,GW/globe.jpg,GW/jukebox.jpg,0.28846153846153844,0,,,,GW/globe.jpg,,,,,Three Edge Diff,Two Edge Five Edge
null,,html-keyboard-response,1458058,<p></p>,,,,null,,,,,,,,,,,,,,
1325.0999999977648,,shortestpath_phase,1459390,GW/wheelchair.jpg,,,,50,GW/teeth.jpg,GW/gong.jpg,0.29523809523809524,1,,,,GW/gong.jpg,,,,,Two Edge Diff,Two Edge Four Edge
null,,html-keyboard-response,1460398,<p></p>,,,,null,,,,,,,,,,,,,,
3099.400000002235,,shortestpath_phase,1463502,GW/jukebox.jpg,,,,49,GW/soldier.jpg,GW/hat.jpg,0.29245283018867924,0,,,,GW/hat.jpg,,,,,Two Edge Diff,Three Edge Five Edge
null,,html-keyboard-response,1464512,<p></p>,,,,null,,,,,,,,,,,,,,
1385.8999999985099,,shortestpath_phase,1465903,GW/paint.jpg,,,,50,GW/dustpan.jpg,GW/hat.jpg,0.2897196261682243,0,,,,GW/dustpan.jpg,,,,,Three Edge Diff,Three Edge Six Edge
null,,html-keyboard-response,1466908,<p></p>,,,,null,,,,,,,,,,,,,,
1187.199999999255,,shortestpath_phase,1468099,GW/hat.jpg,,,,49,GW/dustpan.jpg,GW/snail.jpg,0.28703703703703703,0,,,,GW/snail.jpg,,,,,Two Edge Diff,Four Edge Six Edge
null,,html-keyboard-response,1469107,<p></p>,,,,null,,,,,,,,,,,,,,
3299.800000000745,,shortestpath_phase,1472411,GW/jukebox.jpg,,,,50,GW/dustpan.jpg,GW/teeth.jpg,0.29357798165137616,1,,,,GW/teeth.jpg,,,,,One Edge Diff,Five Edge Six Edge
null,,html-keyboard-response,1473418,<p></p>,,,,null,,,,,,,,,,,,,,
2485.699999999255,,shortestpath_phase,1475908,GW/gong.jpg,,,,49,GW/soldier.jpg,GW/paint.jpg,0.2909090909090909,0,,,,GW/paint.jpg,,,,,One Edge Diff,Three Edge Four Edge
null,,html-keyboard-response,1476918,<p></p>,,,,null,,,,,,,,,,,,,,
2775.2000000029802,,shortestpath_phase,1479697,GW/teeth.jpg,,,,49,GW/globe.jpg,GW/gong.jpg,0.2972972972972973,1,,,,GW/globe.jpg,,,,,One Edge Diff,Two Edge Three Edge
null,,html-keyboard-response,1480716,<p></p>,,,,null,,,,,,,,,,,,,,
1531,,shortestpath_phase,1482254,GW/basket.jpg,,,,49,GW/jukebox.jpg,GW/snail.jpg,0.30357142857142855,1,,,,GW/jukebox.jpg,,,,,One Edge Diff,Two Edge Three Edge
null,,html-keyboard-response,1483261,<p></p>,,,,null,,,,,,,,,,,,,,
1175.2999999970198,,shortestpath_phase,1484441,GW/paint.jpg,,,,50,GW/barrel.jpg,GW/hat.jpg,0.3008849557522124,0,,,,GW/barrel.jpg,,,,,Three Edge Diff,Three Edge Six Edge
null,,html-keyboard-response,1485448,<p></p>,,,,null,,,,,,,,,,,,,,
1860.3999999985099,,shortestpath_phase,1487313,GW/jukebox.jpg,,,,50,GW/camera.jpg,GW/teeth.jpg,0.2982456140350877,0,,,,GW/camera.jpg,,,,,Three Edge Diff,Two Edge Five Edge
null,,html-keyboard-response,1488332,<p></p>,,,,null,,,,,,,,,,,,,,
3122.800000000745,,shortestpath_phase,1491458,GW/teeth.jpg,,,,50,GW/basket.jpg,GW/hat.jpg,0.2956521739130435,0,,,,GW/basket.jpg,,,,,One Edge Diff,Four Edge Five Edge
null,,html-keyboard-response,1492467,<p></p>,,,,null,,,,,,,,,,,,,,
1993.800000000745,,shortestpath_phase,1494465,GW/gong.jpg,,,,49,GW/jukebox.jpg,GW/soldier.jpg,0.3017241379310345,1,,,,GW/jukebox.jpg,,,,,One Edge Diff,Three Edge Four Edge
null,,html-keyboard-response,1495473,<p></p>,,,,null,,,,,,,,,,,,,,
1407.1000000014901,,shortestpath_phase,1496884,GW/basket.jpg,,,,50,GW/camera.jpg,GW/paint.jpg,0.29914529914529914,0,,,,GW/camera.jpg,,,,,Two Edge Diff,Two Edge Four Edge
null,,html-keyboard-response,1497890,<p></p>,,,,null,,,,,,,,,,,,,,
2155.900000002235,,shortestpath_phase,1500049,GW/hat.jpg,,,,50,GW/dustpan.jpg,GW/paint.jpg,0.3050847457627119,1,,,,GW/paint.jpg,,,,,One Edge Diff,Five Edge Six Edge
null,,html-keyboard-response,1501059,<p></p>,,,,null,,,,,,,,,,,,,,
1552.6000000014901,,shortestpath_phase,1502617,GW/soldier.jpg,,,,50,GW/snail.jpg,GW/wheelchair.jpg,0.3025210084033613,0,,,,GW/snail.jpg,,,,,Two Edge Diff,Two Edge Four Edge
null,,html-keyboard-response,1503623,<p></p>,,,,null,,,,,,,,,,,,,,
1014.1999999992549,,shortestpath_phase,1504642,GW/basket.jpg,,,,49,GW/dustpan.jpg,GW/camera.jpg,0.3,0,,,,GW/camera.jpg,,,,,Three Edge Diff,Two Edge Five Edge
null,,html-keyboard-response,1505650,<p></p>,,,,null,,,,,,,,,,,,,,
1690.0999999977648,,shortestpath_phase,1507346,GW/dustpan.jpg,,,,49,GW/paint.jpg,GW/gong.jpg,0.30578512396694213,1,,,,GW/paint.jpg,,,,,Two Edge Diff,Two Edge Four Edge
null,,html-keyboard-response,1508352,<p></p>,,,,null,,,,,,,,,,,,,,
45506.70000000298,,intro_1,1553862,instruct,,0,,,,,,,,,,,,,,,,
53930.099999997765,,intro_2,1607799,instruct,,1,Next,,,,,,,,,,,,,,,
7883.39999999851,,intro_3,1615689,instruct,,1,Next,,,,,,,,,,,,,,,
