rt,responses,trial_type,time_elapsed,stimulus,graphorder,button_pressed,response,key_press,stimulus_left,stimulus_right,accuracy,cumulative_accuracy,stimulus_down_left,stimulus_down_mid,stimulus_down_right,stimulus_correct,stimulus_short,stimulus_far,weighted_accuracy,missedtrial,condition,specific_pairs
132418.39999999106,{worker_id:67dcc12657e2fe1375df7f89},id_enter,132428,id_enter,GW/hat.jpg; GW/camera.jpg; GW/soldier.jpg; GW/jukebox.jpg; GW/barrel.jpg; GW/snail.jpg; GW/wheelchair.jpg; GW/basket.jpg; GW/teeth.jpg; GW/paint.jpg; GW/dustpan.jpg; GW/globe.jpg; GW/gong.jpg,,,,,,,,,,,,,,,,,
199738.89999999106,,fullscreen,332185,fullscreen,,0,,,,,,,,,,,,,,,,
140040.69999998808,,intro_1,472232,instruct,,0,,,,,,,,,,,,,,,,
21067.79999999702,,intro_2,493304,instruct,,1,Next,,,,,,,,,,,,,,,
21868,,intro_3,515176,instruct,,1,Next,,,,,,,,,,,,,,,
null,,learn_prac_1,517188,lean_prac_1,,,,null,,,,,,,,,,,,,,
null,,html-keyboard-response,518204,<p></p>,,,,null,,,,,,,,,,,,,,
98754.90000000596,,intro_1,616961,instruct,,0,,,,,,,,,,,,,,,,
155355.29999999702,,intro_2,772320,instruct,,1,Next,,,,,,,,,,,,,,,
null,,learn_prac_2,774336,lean_prac_2,,,,null,,,,,,,,,,,,,,
null,,html-keyboard-response,775340,<p></p>,,,,null,,,,,,,,,,,,,,
161994.5,,intro_1,937336,instruct,,0,,,,,,,,,,,,,,,,
10732.89999999106,,intro_2,948072,instruct,,1,Next,,,,,,,,,,,,,,,
642228.299999997,,intro_3,1590304,instruct,,1,Next,,,,,,,,,,,,,,,
null,,prac_atten_color_black,1590701,black_plus_sign,,,,null,,,,,,,,,,,,,,
430.1000000089407,,prac_atten_color,1591735,prac_stop_color,,,,49,,,,,,,,,,,,,,
null,,prac_atten_color_black,1593742,black_plus_sign,,,,null,,,,,,,,,,,,,,
null,,prac_atten_color_black,1594139,black_plus_sign,,,,null,,,,,,,,,,,,,,
415.5,,prac_atten_color,1595170,prac_stop_color,,,,50,,,,,,,,,,,,,,
null,,prac_atten_color_black,1597184,black_plus_sign,,,,null,,,,,,,,,,,,,,
null,,prac_atten_color_black,1597566,black_plus_sign,,,,null,,,,,,,,,,,,,,
592.7999999970198,,prac_atten_color,1598411,prac_stop_color,,,,50,,,,,,,,,,,,,,
null,,prac_atten_color_black,1600429,black_plus_sign,,,,null,,,,,,,,,,,,,,
null,,prac_atten_color_black,1601012,black_plus_sign,,,,null,,,,,,,,,,,,,,
480.40000000596046,,prac_atten_color,1601524,prac_stop_color,,,,49,,,,,,,,,,,,,,
null,,prac_atten_color_black,1603533,black_plus_sign,,,,null,,,,,,,,,,,,,,
null,,prac_atten_color_black,1604434,black_plus_sign,,,,null,,,,,,,,,,,,,,
451.29999999701977,,prac_atten_color,1605352,prac_stop_color,,,,50,,,,,,,,,,,,,,
null,,prac_atten_color_black,1607358,black_plus_sign,,,,null,,,,,,,,,,,,,,
null,,prac_atten_color_black,1607872,black_plus_sign,,,,null,,,,,,,,,,,,,,
528.0999999940395,,prac_atten_color,1608540,prac_stop_color,,,,50,,,,,,,,,,,,,,
null,,prac_atten_color_black,1610543,black_plus_sign,,,,null,,,,,,,,,,,,,,
null,,prac_atten_color_black,1611299,black_plus_sign,,,,null,,,,,,,,,,,,,,
487.90000000596046,,prac_atten_color,1611963,prac_stop_color,,,,49,,,,,,,,,,,,,,
null,,prac_atten_color_black,1613967,black_plus_sign,,,,null,,,,,,,,,,,,,,
null,,prac_atten_color_black,1614738,black_plus_sign,,,,null,,,,,,,,,,,,,,
null,,prac_atten_color,1615213,prac_stop_color,,,,null,,,,,,,,,,,,,,
81,,prac_atten_color_black,1617219,black_plus_sign,,,,50,,,,,,,,,,,,,,
null,,prac_atten_color_black,1618172,black_plus_sign,,,,null,,,,,,,,,,,,,,
407.09999999403954,,prac_atten_color,1618726,prac_stop_color,,,,49,,,,,,,,,,,,,,
null,,prac_atten_color_black,1620733,black_plus_sign,,,,null,,,,,,,,,,,,,,
null,,prac_atten_color_black,1621603,black_plus_sign,,,,null,,,,,,,,,,,,,,
511.5,,prac_atten_color,1622449,prac_stop_color,,,,49,,,,,,,,,,,,,,
null,,prac_atten_color_black,1624453,black_plus_sign,,,,null,,,,,,,,,,,,,,
33491.09999999404,,attentioncheck_feedback,1657947,cross_check_feedback,,0,,,,,,,,,,,,,,,,
248890.90000000596,,last_instruct,1906840,instruct,,,,32,,,,,,,,,,,,,,
null,,learn_phase(without_color),1908847,black_plus_sign,,,,null,GW/camera.jpg,GW/jukebox.jpg,,,,,,,,,,,,
null,,black_cross(without_color),1909637,blue,,,,null,GW/camera.jpg,GW/jukebox.jpg,,,,,,,,,,,,
null,,rt_plussign_withcolor,1910139,blue,,,,null,GW/camera.jpg,GW/jukebox.jpg,,,,,,,,,,,,
958.0999999940395,,rt_thecrossant_black,1911365,black_plus_sign,,,,49,,,1,1,,,,,,,,,,
null,,color_black,1911475,black_plus_sign,,,,null,,,,,,,,,,,,,,
null,,learn_phase(without_color),1913494,black_plus_sign,,,,null,GW/basket.jpg,GW/teeth.jpg,,,,,,,,,,,,
null,,black_cross(without_color),1914531,blue,,,,null,GW/basket.jpg,GW/teeth.jpg,,,,,,,,,,,,
null,,rt_plussign_withcolor,1915039,blue,,,,null,GW/basket.jpg,GW/teeth.jpg,,,,,,,,,,,,
873.0999999940395,,rt_thecrossant_black,1916029,black_plus_sign,,,,49,,,1,1,,,,,,,,,,
null,,color_black,1916136,black_plus_sign,,,,null,,,,,,,,,,,,,,
null,,learn_phase(without_color),1918143,black_plus_sign,,,,null,GW/wheelchair.jpg,GW/basket.jpg,,,,,,,,,,,,
null,,black_cross(without_color),1918664,blue,,,,null,GW/wheelchair.jpg,GW/basket.jpg,,,,,,,,,,,,
447.79999999701977,,rt_plussign_withcolor,1919168,blue,,,,49,GW/wheelchair.jpg,GW/basket.jpg,,,,,,,,,,,,
null,,rt_thecrossant_black,1920660,black_plus_sign,,,,null,,,1,1,,,,,,,,,,
null,,color_black,1920765,black_plus_sign,,,,null,,,,,,,,,,,,,,
null,,learn_phase(without_color),1922774,black_plus_sign,,,,null,GW/soldier.jpg,GW/snail.jpg,,,,,,,,,,,,
null,,black_cross(without_color),1923489,green,,,,null,GW/soldier.jpg,GW/snail.jpg,,,,,,,,,,,,
442,,rt_plussign_withcolor,1924006,green,,,,50,GW/soldier.jpg,GW/snail.jpg,,,,,,,,,,,,
null,,rt_thecrossant_black,1925313,black_plus_sign,,,,null,,,1,1,,,,,,,,,,
null,,color_black,1925427,black_plus_sign,,,,null,,,,,,,,,,,,,,
null,,learn_phase(without_color),1927443,black_plus_sign,,,,null,GW/camera.jpg,GW/soldier.jpg,,,,,,,,,,,,
null,,black_cross(without_color),1928481,green,,,,null,GW/camera.jpg,GW/soldier.jpg,,,,,,,,,,,,
null,,rt_plussign_withcolor,1928997,green,,,,null,GW/camera.jpg,GW/soldier.jpg,,,,,,,,,,,,
1106.7000000029802,,rt_thecrossant_black,1929975,black_plus_sign,,,,50,,,1,1,,,,,,,,,,
null,,color_black,1930092,black_plus_sign,,,,null,,,,,,,,,,,,,,
null,,learn_phase(without_color),1932096,black_plus_sign,,,,null,GW/snail.jpg,GW/teeth.jpg,,,,,,,,,,,,
null,,black_cross(without_color),1932637,blue,,,,null,GW/snail.jpg,GW/teeth.jpg,,,,,,,,,,,,
423.5,,rt_plussign_withcolor,1933144,blue,,,,49,GW/snail.jpg,GW/teeth.jpg,,,,,,,,,,,,
null,,rt_thecrossant_black,1934631,black_plus_sign,,,,null,,,1,1,,,,,,,,,,
null,,color_black,1934741,black_plus_sign,,,,null,,,,,,,,,,,,,,
null,,learn_phase(without_color),1936758,black_plus_sign,,,,null,GW/basket.jpg,GW/paint.jpg,,,,,,,,,,,,
null,,black_cross(without_color),1937608,green,,,,null,GW/basket.jpg,GW/paint.jpg,,,,,,,,,,,,
null,,rt_plussign_withcolor,1938111,green,,,,null,GW/basket.jpg,GW/paint.jpg,,,,,,,,,,,,
689,,rt_thecrossant_black,1939284,black_plus_sign,,,,50,,,1,1,,,,,,,,,,
null,,color_black,1939396,black_plus_sign,,,,null,,,,,,,,,,,,,,
null,,learn_phase(without_color),1941404,black_plus_sign,,,,null,GW/wheelchair.jpg,GW/teeth.jpg,,,,,,,,,,,,
null,,black_cross(without_color),1942179,green,,,,null,GW/wheelchair.jpg,GW/teeth.jpg,,,,,,,,,,,,
null,,rt_plussign_withcolor,1942694,green,,,,null,GW/wheelchair.jpg,GW/teeth.jpg,,,,,,,,,,,,
941.4000000059605,,rt_thecrossant_black,1943950,black_plus_sign,,,,50,,,1,1,,,,,,,,,,
null,,color_black,1944069,black_plus_sign,,,,null,,,,,,,,,,,,,,
null,,learn_phase(without_color),1946075,black_plus_sign,,,,null,GW/soldier.jpg,GW/snail.jpg,,,,,,,,,,,,
null,,black_cross(without_color),1946961,blue,,,,null,GW/soldier.jpg,GW/snail.jpg,,,,,,,,,,,,
441.5,,rt_plussign_withcolor,1947463,blue,,,,49,GW/soldier.jpg,GW/snail.jpg,,,,,,,,,,,,
null,,rt_thecrossant_black,1948593,black_plus_sign,,,,null,,,1,1,,,,,,,,,,
null,,color_black,1948700,black_plus_sign,,,,null,,,,,,,,,,,,,,
null,,learn_phase(without_color),1950708,black_plus_sign,,,,null,GW/wheelchair.jpg,GW/basket.jpg,,,,,,,,,,,,
null,,black_cross(without_color),1951251,green,,,,null,GW/wheelchair.jpg,GW/basket.jpg,,,,,,,,,,,,
null,,rt_plussign_withcolor,1951752,green,,,,null,GW/wheelchair.jpg,GW/basket.jpg,,,,,,,,,,,,
1058.2999999970198,,rt_thecrossant_black,1953229,black_plus_sign,,,,50,,,1,1,,,,,,,,,,
null,,color_black,1953339,black_plus_sign,,,,null,,,,,,,,,,,,,,
null,,learn_phase(without_color),1955356,black_plus_sign,,,,null,GW/camera.jpg,GW/jukebox.jpg,,,,,,,,,,,,
null,,black_cross(without_color),1956329,green,,,,null,GW/camera.jpg,GW/jukebox.jpg,,,,,,,,,,,,
null,,rt_plussign_withcolor,1956842,green,,,,null,GW/camera.jpg,GW/jukebox.jpg,,,,,,,,,,,,
692.1999999880791,,rt_thecrossant_black,1957876,black_plus_sign,,,,50,,,1,1,,,,,,,,,,
null,,color_black,1957986,black_plus_sign,,,,null,,,,,,,,,,,,,,
null,,learn_phase(without_color),1959995,black_plus_sign,,,,null,GW/snail.jpg,GW/teeth.jpg,,,,,,,,,,,,
null,,black_cross(without_color),1961092,green,,,,null,GW/snail.jpg,GW/teeth.jpg,,,,,,,,,,,,
null,,rt_plussign_withcolor,1961599,green,,,,null,GW/snail.jpg,GW/teeth.jpg,,,,,,,,,,,,
1136.5,,rt_thecrossant_black,1962514,black_plus_sign,,,,50,,,1,1,,,,,,,,,,
null,,color_black,1962624,black_plus_sign,,,,null,,,,,,,,,,,,,,
null,,learn_phase(without_color),1964633,black_plus_sign,,,,null,GW/camera.jpg,GW/jukebox.jpg,,,,,,,,,,,,
null,,black_cross(without_color),1965472,blue,,,,null,GW/camera.jpg,GW/jukebox.jpg,,,,,,,,,,,,
484.29999999701977,,rt_plussign_withcolor,1965976,blue,,,,49,GW/camera.jpg,GW/jukebox.jpg,,,,,,,,,,,,
null,,rt_thecrossant_black,1967156,black_plus_sign,,,,null,,,1,1,,,,,,,,,,
null,,color_black,1967265,black_plus_sign,,,,null,,,,,,,,,,,,,,
null,,learn_phase(without_color),1969280,black_plus_sign,,,,null,GW/basket.jpg,GW/paint.jpg,,,,,,,,,,,,
null,,black_cross(without_color),1970340,blue,,,,null,GW/basket.jpg,GW/paint.jpg,,,,,,,,,,,,
null,,rt_plussign_withcolor,1970844,blue,,,,null,GW/basket.jpg,GW/paint.jpg,,,,,,,,,,,,
1076,,rt_thecrossant_black,1971807,black_plus_sign,,,,49,,,1,1,,,,,,,,,,
null,,color_black,1971919,black_plus_sign,,,,null,,,,,,,,,,,,,,
null,,learn_phase(without_color),1973936,black_plus_sign,,,,null,GW/camera.jpg,GW/soldier.jpg,,,,,,,,,,,,
null,,black_cross(without_color),1974433,blue,,,,null,GW/camera.jpg,GW/soldier.jpg,,,,,,,,,,,,
null,,rt_plussign_withcolor,1974947,blue,,,,null,GW/camera.jpg,GW/soldier.jpg,,,,,,,,,,,,
1206.1000000089407,,rt_thecrossant_black,1976471,black_plus_sign,,,,49,,,1,1,,,,,,,,,,
null,,color_black,1976580,black_plus_sign,,,,null,,,,,,,,,,,,,,
null,,learn_phase(without_color),1978593,black_plus_sign,,,,null,GW/basket.jpg,GW/teeth.jpg,,,,,,,,,,,,
null,,black_cross(without_color),1979260,blue,,,,null,GW/basket.jpg,GW/teeth.jpg,,,,,,,,,,,,
null,,rt_plussign_withcolor,1979762,blue,,,,null,GW/basket.jpg,GW/teeth.jpg,,,,,,,,,,,,
624.6999999880791,,rt_thecrossant_black,1981104,black_plus_sign,,,,49,,,1,1,,,,,,,,,,
null,,color_black,1981214,black_plus_sign,,,,null,,,,,,,,,,,,,,
null,,learn_phase(without_color),1983221,black_plus_sign,,,,null,GW/basket.jpg,GW/paint.jpg,,,,,,,,,,,,
null,,black_cross(without_color),1983848,blue,,,,null,GW/basket.jpg,GW/paint.jpg,,,,,,,,,,,,
null,,rt_plussign_withcolor,1984355,blue,,,,null,GW/basket.jpg,GW/paint.jpg,,,,,,,,,,,,
763.2999999970198,,rt_thecrossant_black,1985747,black_plus_sign,,,,49,,,1,1,,,,,,,,,,
null,,color_black,1985855,black_plus_sign,,,,null,,,,,,,,,,,,,,
null,,learn_phase(without_color),1987870,black_plus_sign,,,,null,GW/wheelchair.jpg,GW/gong.jpg,,,,,,,,,,,,
null,,black_cross(without_color),1988526,blue,,,,null,GW/wheelchair.jpg,GW/gong.jpg,,,,,,,,,,,,
null,,rt_plussign_withcolor,1989045,blue,,,,null,GW/wheelchair.jpg,GW/gong.jpg,,,,,,,,,,,,
790.4000000059605,,rt_thecrossant_black,1990401,black_plus_sign,,,,49,,,1,1,,,,,,,,,,
null,,color_black,1990508,black_plus_sign,,,,null,,,,,,,,,,,,,,
null,,learn_phase(without_color),1992522,black_plus_sign,,,,null,GW/jukebox.jpg,GW/globe.jpg,,,,,,,,,,,,
null,,black_cross(without_color),1993587,green,,,,null,GW/jukebox.jpg,GW/globe.jpg,,,,,,,,,,,,
491.40000000596046,,rt_plussign_withcolor,1994093,green,,,,50,GW/jukebox.jpg,GW/globe.jpg,,,,,,,,,,,,
null,,rt_thecrossant_black,1995050,black_plus_sign,,,,null,,,1,1,,,,,,,,,,
null,,color_black,1995155,black_plus_sign,,,,null,,,,,,,,,,,,,,
null,,learn_phase(without_color),1997183,black_plus_sign,,,,null,GW/jukebox.jpg,GW/barrel.jpg,,,,,,,,,,,,
null,,black_cross(without_color),1998183,green,,,,null,GW/jukebox.jpg,GW/barrel.jpg,,,,,,,,,,,,
null,,rt_plussign_withcolor,1998694,green,,,,null,GW/jukebox.jpg,GW/barrel.jpg,,,,,,,,,,,,
1154.4000000059605,,rt_thecrossant_black,1999722,black_plus_sign,,,,50,,,1,1,,,,,,,,,,
null,,color_black,1999828,black_plus_sign,,,,null,,,,,,,,,,,,,,
null,,learn_phase(without_color),2001840,black_plus_sign,,,,null,GW/wheelchair.jpg,GW/gong.jpg,,,,,,,,,,,,
null,,black_cross(without_color),2002833,green,,,,null,GW/wheelchair.jpg,GW/gong.jpg,,,,,,,,,,,,
null,,rt_plussign_withcolor,2003337,green,,,,null,GW/wheelchair.jpg,GW/gong.jpg,,,,,,,,,,,,
1090.7000000029802,,rt_thecrossant_black,2004367,black_plus_sign,,,,50,,,1,1,,,,,,,,,,
null,,color_black,2004471,black_plus_sign,,,,null,,,,,,,,,,,,,,
null,,learn_phase(without_color),2006480,black_plus_sign,,,,null,GW/wheelchair.jpg,GW/basket.jpg,,,,,,,,,,,,
null,,black_cross(without_color),2007510,green,,,,null,GW/wheelchair.jpg,GW/basket.jpg,,,,,,,,,,,,
null,,rt_plussign_withcolor,2008011,green,,,,null,GW/wheelchair.jpg,GW/basket.jpg,,,,,,,,,,,,
1102.2000000029802,,rt_thecrossant_black,2009004,black_plus_sign,,,,50,,,1,1,,,,,,,,,,
null,,color_black,2009118,black_plus_sign,,,,null,,,,,,,,,,,,,,
null,,learn_phase(without_color),2011135,black_plus_sign,,,,null,GW/teeth.jpg,GW/dustpan.jpg,,,,,,,,,,,,
null,,black_cross(without_color),2011920,blue,,,,null,GW/teeth.jpg,GW/dustpan.jpg,,,,,,,,,,,,
null,,rt_plussign_withcolor,2012427,blue,,,,null,GW/teeth.jpg,GW/dustpan.jpg,,,,,,,,,,,,
1130,,rt_thecrossant_black,2013662,black_plus_sign,,,,49,,,1,1,,,,,,,,,,
null,,color_black,2013766,black_plus_sign,,,,null,,,,,,,,,,,,,,
null,,learn_phase(without_color),2015772,black_plus_sign,,,,null,GW/hat.jpg,GW/camera.jpg,,,,,,,,,,,,
null,,black_cross(without_color),2016423,green,,,,null,GW/hat.jpg,GW/camera.jpg,,,,,,,,,,,,
475.79999999701977,,rt_plussign_withcolor,2016933,green,,,,50,GW/hat.jpg,GW/camera.jpg,,,,,,,,,,,,
null,,rt_thecrossant_black,2018312,black_plus_sign,,,,null,,,1,1,,,,,,,,,,
null,,color_black,2018421,black_plus_sign,,,,null,,,,,,,,,,,,,,
null,,learn_phase(without_color),2020431,black_plus_sign,,,,null,GW/dustpan.jpg,GW/globe.jpg,,,,,,,,,,,,
null,,black_cross(without_color),2020851,green,,,,null,GW/dustpan.jpg,GW/globe.jpg,,,,,,,,,,,,
null,,rt_plussign_withcolor,2021363,green,,,,null,GW/dustpan.jpg,GW/globe.jpg,,,,,,,,,,,,
769.2999999970198,,rt_thecrossant_black,2022963,black_plus_sign,,,,49,,,0,0.96,,,,,,,,,,
null,,color_black,2023078,black_plus_sign,,,,null,,,,,,,,,,,,,,
null,,learn_phase(without_color),2025089,black_plus_sign,,,,null,GW/teeth.jpg,GW/dustpan.jpg,,,,,,,,,,,,
null,,black_cross(without_color),2025939,blue,,,,null,GW/teeth.jpg,GW/dustpan.jpg,,,,,,,,,,,,
466.70000000298023,,rt_plussign_withcolor,2026451,blue,,,,49,GW/teeth.jpg,GW/dustpan.jpg,,,,,,,,,,,,
null,,rt_thecrossant_black,2027623,black_plus_sign,,,,null,,,1,0.9615384615384616,,,,,,,,,,
null,,color_black,2027738,black_plus_sign,,,,null,,,,,,,,,,,,,,
null,,learn_phase(without_color),2029744,black_plus_sign,,,,null,GW/camera.jpg,GW/jukebox.jpg,,,,,,,,,,,,
null,,black_cross(without_color),2030567,green,,,,null,GW/camera.jpg,GW/jukebox.jpg,,,,,,,,,,,,
null,,rt_plussign_withcolor,2031070,green,,,,null,GW/camera.jpg,GW/jukebox.jpg,,,,,,,,,,,,
1023.2000000029802,,rt_thecrossant_black,2032274,black_plus_sign,,,,50,,,1,0.9629629629629629,,,,,,,,,,
null,,color_black,2032382,black_plus_sign,,,,null,,,,,,,,,,,,,,
null,,learn_phase(without_color),2034388,black_plus_sign,,,,null,GW/soldier.jpg,GW/snail.jpg,,,,,,,,,,,,
null,,black_cross(without_color),2035436,blue,,,,null,GW/soldier.jpg,GW/snail.jpg,,,,,,,,,,,,
495,,rt_plussign_withcolor,2035946,blue,,,,49,GW/soldier.jpg,GW/snail.jpg,,,,,,,,,,,,
null,,rt_thecrossant_black,2036923,black_plus_sign,,,,null,,,1,0.9642857142857143,,,,,,,,,,
null,,color_black,2037038,black_plus_sign,,,,null,,,,,,,,,,,,,,
null,,learn_phase(without_color),2039042,black_plus_sign,,,,null,GW/teeth.jpg,GW/dustpan.jpg,,,,,,,,,,,,
null,,black_cross(without_color),2039482,blue,,,,null,GW/teeth.jpg,GW/dustpan.jpg,,,,,,,,,,,,
null,,rt_plussign_withcolor,2039987,blue,,,,null,GW/teeth.jpg,GW/dustpan.jpg,,,,,,,,,,,,
1265.4000000059605,,rt_thecrossant_black,2041572,black_plus_sign,,,,49,,,1,0.9655172413793104,,,,,,,,,,
null,,color_black,2041684,black_plus_sign,,,,null,,,,,,,,,,,,,,
null,,learn_phase(without_color),2043703,black_plus_sign,,,,null,GW/snail.jpg,GW/wheelchair.jpg,,,,,,,,,,,,
null,,black_cross(without_color),2044286,blue,,,,null,GW/snail.jpg,GW/wheelchair.jpg,,,,,,,,,,,,
null,,rt_plussign_withcolor,2044796,blue,,,,null,GW/snail.jpg,GW/wheelchair.jpg,,,,,,,,,,,,
597.5,,rt_thecrossant_black,2046241,black_plus_sign,,,,49,,,1,0.9666666666666667,,,,,,,,,,
null,,color_black,2046349,black_plus_sign,,,,null,,,,,,,,,,,,,,
null,,learn_phase(without_color),2048355,black_plus_sign,,,,null,GW/teeth.jpg,GW/dustpan.jpg,,,,,,,,,,,,
null,,black_cross(without_color),2049027,green,,,,null,GW/teeth.jpg,GW/dustpan.jpg,,,,,,,,,,,,
null,,rt_plussign_withcolor,2049538,green,,,,null,GW/teeth.jpg,GW/dustpan.jpg,,,,,,,,,,,,
680.7999999970198,,rt_thecrossant_black,2050879,black_plus_sign,,,,50,,,1,0.967741935483871,,,,,,,,,,
null,,color_black,2050989,black_plus_sign,,,,null,,,,,,,,,,,,,,
null,,learn_phase(without_color),2052994,black_plus_sign,,,,null,GW/wheelchair.jpg,GW/basket.jpg,,,,,,,,,,,,
null,,black_cross(without_color),2053434,blue,,,,null,GW/wheelchair.jpg,GW/basket.jpg,,,,,,,,,,,,
null,,rt_plussign_withcolor,2053939,blue,,,,null,GW/wheelchair.jpg,GW/basket.jpg,,,,,,,,,,,,
799.5,,rt_thecrossant_black,2055522,black_plus_sign,,,,49,,,1,0.96875,,,,,,,,,,
null,,color_black,2055632,black_plus_sign,,,,null,,,,,,,,,,,,,,
null,,learn_phase(without_color),2057641,black_plus_sign,,,,null,GW/dustpan.jpg,GW/globe.jpg,,,,,,,,,,,,
null,,black_cross(without_color),2058576,green,,,,null,GW/dustpan.jpg,GW/globe.jpg,,,,,,,,,,,,
457.29999999701977,,rt_plussign_withcolor,2059079,green,,,,50,GW/dustpan.jpg,GW/globe.jpg,,,,,,,,,,,,
null,,rt_thecrossant_black,2060152,black_plus_sign,,,,null,,,1,0.9696969696969697,,,,,,,,,,
null,,color_black,2060257,black_plus_sign,,,,null,,,,,,,,,,,,,,
null,,learn_phase(without_color),2062265,black_plus_sign,,,,null,GW/jukebox.jpg,GW/barrel.jpg,,,,,,,,,,,,
null,,black_cross(without_color),2063057,blue,,,,null,GW/jukebox.jpg,GW/barrel.jpg,,,,,,,,,,,,
null,,rt_plussign_withcolor,2063567,blue,,,,null,GW/jukebox.jpg,GW/barrel.jpg,,,,,,,,,,,,
1104.0999999940395,,rt_thecrossant_black,2064800,black_plus_sign,,,,49,,,1,0.9705882352941176,,,,,,,,,,
null,,color_black,2064909,black_plus_sign,,,,null,,,,,,,,,,,,,,
null,,learn_phase(without_color),2066918,black_plus_sign,,,,null,GW/hat.jpg,GW/camera.jpg,,,,,,,,,,,,
null,,black_cross(without_color),2067904,blue,,,,null,GW/hat.jpg,GW/camera.jpg,,,,,,,,,,,,
null,,rt_plussign_withcolor,2068411,blue,,,,null,GW/hat.jpg,GW/camera.jpg,,,,,,,,,,,,
885.7000000029802,,rt_thecrossant_black,2069447,black_plus_sign,,,,49,,,1,0.9714285714285714,,,,,,,,,,
null,,color_black,2069555,black_plus_sign,,,,null,,,,,,,,,,,,,,
null,,learn_phase(without_color),2071569,black_plus_sign,,,,null,GW/snail.jpg,GW/teeth.jpg,,,,,,,,,,,,
null,,black_cross(without_color),2072571,blue,,,,null,GW/snail.jpg,GW/teeth.jpg,,,,,,,,,,,,
480.09999999403954,,rt_plussign_withcolor,2073079,blue,,,,49,GW/snail.jpg,GW/teeth.jpg,,,,,,,,,,,,
null,,rt_thecrossant_black,2074101,black_plus_sign,,,,null,,,1,0.9722222222222222,,,,,,,,,,
null,,color_black,2074208,black_plus_sign,,,,null,,,,,,,,,,,,,,
null,,learn_phase(without_color),2076219,black_plus_sign,,,,null,GW/jukebox.jpg,GW/barrel.jpg,,,,,,,,,,,,
null,,black_cross(without_color),2077161,green,,,,null,GW/jukebox.jpg,GW/barrel.jpg,,,,,,,,,,,,
null,,rt_plussign_withcolor,2077673,green,,,,null,GW/jukebox.jpg,GW/barrel.jpg,,,,,,,,,,,,
1179,,rt_thecrossant_black,2078751,black_plus_sign,,,,50,,,1,0.972972972972973,,,,,,,,,,
null,,color_black,2078868,black_plus_sign,,,,null,,,,,,,,,,,,,,
null,,learn_phase(without_color),2080879,black_plus_sign,,,,null,GW/hat.jpg,GW/camera.jpg,,,,,,,,,,,,
null,,black_cross(without_color),2081873,green,,,,null,GW/hat.jpg,GW/camera.jpg,,,,,,,,,,,,
477,,rt_plussign_withcolor,2082374,green,,,,50,GW/hat.jpg,GW/camera.jpg,,,,,,,,,,,,
null,,rt_thecrossant_black,2083401,black_plus_sign,,,,null,,,1,0.9736842105263158,,,,,,,,,,
null,,color_black,2083507,black_plus_sign,,,,null,,,,,,,,,,,,,,
null,,learn_phase(without_color),2085514,black_plus_sign,,,,null,GW/basket.jpg,GW/paint.jpg,,,,,,,,,,,,
null,,black_cross(without_color),2086208,blue,,,,null,GW/basket.jpg,GW/paint.jpg,,,,,,,,,,,,
null,,rt_plussign_withcolor,2086722,blue,,,,null,GW/basket.jpg,GW/paint.jpg,,,,,,,,,,,,
1127.199999988079,,rt_thecrossant_black,2088052,black_plus_sign,,,,49,,,1,0.9743589743589743,,,,,,,,,,
null,,color_black,2088165,black_plus_sign,,,,null,,,,,,,,,,,,,,
null,,learn_phase(without_color),2090176,black_plus_sign,,,,null,GW/soldier.jpg,GW/dustpan.jpg,,,,,,,,,,,,
null,,black_cross(without_color),2091234,blue,,,,null,GW/soldier.jpg,GW/dustpan.jpg,,,,,,,,,,,,
498,,rt_plussign_withcolor,2091741,blue,,,,49,GW/soldier.jpg,GW/dustpan.jpg,,,,,,,,,,,,
null,,rt_thecrossant_black,2092706,black_plus_sign,,,,null,,,1,0.975,,,,,,,,,,
null,,color_black,2092814,black_plus_sign,,,,null,,,,,,,,,,,,,,
null,,learn_phase(without_color),2094831,black_plus_sign,,,,null,GW/snail.jpg,GW/wheelchair.jpg,,,,,,,,,,,,
null,,black_cross(without_color),2095394,blue,,,,null,GW/snail.jpg,GW/wheelchair.jpg,,,,,,,,,,,,
466.29999999701977,,rt_plussign_withcolor,2095900,blue,,,,49,GW/snail.jpg,GW/wheelchair.jpg,,,,,,,,,,,,
null,,rt_thecrossant_black,2097352,black_plus_sign,,,,null,,,1,0.975609756097561,,,,,,,,,,
null,,color_black,2097457,black_plus_sign,,,,null,,,,,,,,,,,,,,
null,,learn_phase(without_color),2099463,black_plus_sign,,,,null,GW/wheelchair.jpg,GW/teeth.jpg,,,,,,,,,,,,
null,,black_cross(without_color),2099935,blue,,,,null,GW/wheelchair.jpg,GW/teeth.jpg,,,,,,,,,,,,
493.6000000089407,,rt_plussign_withcolor,2100439,blue,,,,49,GW/wheelchair.jpg,GW/teeth.jpg,,,,,,,,,,,,
null,,rt_thecrossant_black,2101985,black_plus_sign,,,,null,,,1,0.9761904761904762,,,,,,,,,,
null,,color_black,2102101,black_plus_sign,,,,null,,,,,,,,,,,,,,
null,,learn_phase(without_color),2104116,black_plus_sign,,,,null,GW/camera.jpg,GW/soldier.jpg,,,,,,,,,,,,
null,,black_cross(without_color),2104637,blue,,,,null,GW/camera.jpg,GW/soldier.jpg,,,,,,,,,,,,
null,,rt_plussign_withcolor,2105149,blue,,,,null,GW/camera.jpg,GW/soldier.jpg,,,,,,,,,,,,
565.5,,rt_thecrossant_black,2106651,black_plus_sign,,,,49,,,1,0.9767441860465116,,,,,,,,,,
null,,color_black,2106761,black_plus_sign,,,,null,,,,,,,,,,,,,,
null,,learn_phase(without_color),2108777,black_plus_sign,,,,null,GW/snail.jpg,GW/wheelchair.jpg,,,,,,,,,,,,
null,,black_cross(without_color),2109547,blue,,,,null,GW/snail.jpg,GW/wheelchair.jpg,,,,,,,,,,,,
null,,rt_plussign_withcolor,2110057,blue,,,,null,GW/snail.jpg,GW/wheelchair.jpg,,,,,,,,,,,,
650.3000000119209,,rt_thecrossant_black,2111310,black_plus_sign,,,,49,,,1,0.9772727272727273,,,,,,,,,,
null,,color_black,2111419,black_plus_sign,,,,null,,,,,,,,,,,,,,
null,,learn_phase(without_color),2113428,black_plus_sign,,,,null,GW/wheelchair.jpg,GW/gong.jpg,,,,,,,,,,,,
null,,black_cross(without_color),2114231,blue,,,,null,GW/wheelchair.jpg,GW/gong.jpg,,,,,,,,,,,,
null,,rt_plussign_withcolor,2114733,blue,,,,null,GW/wheelchair.jpg,GW/gong.jpg,,,,,,,,,,,,
883.2000000029802,,rt_thecrossant_black,2115947,black_plus_sign,,,,49,,,1,0.9777777777777777,,,,,,,,,,
null,,color_black,2116054,black_plus_sign,,,,null,,,,,,,,,,,,,,
null,,learn_phase(without_color),2118068,black_plus_sign,,,,null,GW/jukebox.jpg,GW/barrel.jpg,,,,,,,,,,,,
null,,black_cross(without_color),2118548,green,,,,null,GW/jukebox.jpg,GW/barrel.jpg,,,,,,,,,,,,
null,,rt_plussign_withcolor,2119064,green,,,,null,GW/jukebox.jpg,GW/barrel.jpg,,,,,,,,,,,,
951,,rt_thecrossant_black,2120599,black_plus_sign,,,,50,,,1,0.9782608695652174,,,,,,,,,,
null,,color_black,2120713,black_plus_sign,,,,null,,,,,,,,,,,,,,
null,,learn_phase(without_color),2122723,black_plus_sign,,,,null,GW/snail.jpg,GW/teeth.jpg,,,,,,,,,,,,
null,,black_cross(without_color),2123624,blue,,,,null,GW/snail.jpg,GW/teeth.jpg,,,,,,,,,,,,
null,,rt_plussign_withcolor,2124134,blue,,,,null,GW/snail.jpg,GW/teeth.jpg,,,,,,,,,,,,
651.2999999970198,,rt_thecrossant_black,2125253,black_plus_sign,,,,49,,,1,0.9787234042553191,,,,,,,,,,
null,,color_black,2125364,black_plus_sign,,,,null,,,,,,,,,,,,,,
null,,learn_phase(without_color),2127383,black_plus_sign,,,,null,GW/dustpan.jpg,GW/globe.jpg,,,,,,,,,,,,
null,,black_cross(without_color),2128196,blue,,,,null,GW/dustpan.jpg,GW/globe.jpg,,,,,,,,,,,,
null,,rt_plussign_withcolor,2128709,blue,,,,null,GW/dustpan.jpg,GW/globe.jpg,,,,,,,,,,,,
1053.2000000029802,,rt_thecrossant_black,2129927,black_plus_sign,,,,49,,,1,0.9791666666666666,,,,,,,,,,
null,,color_black,2130032,black_plus_sign,,,,null,,,,,,,,,,,,,,
null,,learn_phase(without_color),2132040,black_plus_sign,,,,null,GW/camera.jpg,GW/jukebox.jpg,,,,,,,,,,,,
null,,black_cross(without_color),2133092,green,,,,null,GW/camera.jpg,GW/jukebox.jpg,,,,,,,,,,,,
495.79999999701977,,rt_plussign_withcolor,2133599,green,,,,50,GW/camera.jpg,GW/jukebox.jpg,,,,,,,,,,,,
null,,rt_thecrossant_black,2134569,black_plus_sign,,,,null,,,1,0.9795918367346939,,,,,,,,,,
null,,color_black,2134684,black_plus_sign,,,,null,,,,,,,,,,,,,,
null,,learn_phase(without_color),2136704,black_plus_sign,,,,null,GW/wheelchair.jpg,GW/basket.jpg,,,,,,,,,,,,
null,,black_cross(without_color),2137776,blue,,,,null,GW/wheelchair.jpg,GW/basket.jpg,,,,,,,,,,,,
475.20000000298023,,rt_plussign_withcolor,2138291,blue,,,,50,GW/wheelchair.jpg,GW/basket.jpg,,,,,,,,,,,,
null,,rt_thecrossant_black,2139241,black_plus_sign,,,,null,,,0,0.96,,,,,,,,,,
null,,color_black,2139353,black_plus_sign,,,,null,,,,,,,,,,,,,,
null,,learn_phase(without_color),2141363,black_plus_sign,,,,null,GW/dustpan.jpg,GW/globe.jpg,,,,,,,,,,,,
null,,black_cross(without_color),2141812,green,,,,null,GW/dustpan.jpg,GW/globe.jpg,,,,,,,,,,,,
null,,rt_plussign_withcolor,2142327,green,,,,null,GW/dustpan.jpg,GW/globe.jpg,,,,,,,,,,,,
1292.2999999970198,,rt_thecrossant_black,2143903,black_plus_sign,,,,50,,,1,0.9607843137254902,,,,,,,,,,
null,,color_black,2144015,black_plus_sign,,,,null,,,,,,,,,,,,,,
null,,learn_phase(without_color),2146031,black_plus_sign,,,,null,GW/jukebox.jpg,GW/barrel.jpg,,,,,,,,,,,,
null,,black_cross(without_color),2146649,blue,,,,null,GW/jukebox.jpg,GW/barrel.jpg,,,,,,,,,,,,
null,,rt_plussign_withcolor,2147162,blue,,,,null,GW/jukebox.jpg,GW/barrel.jpg,,,,,,,,,,,,
588.2999999970198,,rt_thecrossant_black,2148575,black_plus_sign,,,,49,,,1,0.9615384615384616,,,,,,,,,,
null,,color_black,2148679,black_plus_sign,,,,null,,,,,,,,,,,,,,
null,,learn_phase(without_color),2150693,black_plus_sign,,,,null,GW/teeth.jpg,GW/dustpan.jpg,,,,,,,,,,,,
null,,black_cross(without_color),2151225,blue,,,,null,GW/teeth.jpg,GW/dustpan.jpg,,,,,,,,,,,,
null,,rt_plussign_withcolor,2151736,blue,,,,null,GW/teeth.jpg,GW/dustpan.jpg,,,,,,,,,,,,
830.1000000089407,,rt_thecrossant_black,2153222,black_plus_sign,,,,49,,,1,0.9622641509433962,,,,,,,,,,
null,,color_black,2153342,black_plus_sign,,,,null,,,,,,,,,,,,,,
null,,learn_phase(without_color),2155352,black_plus_sign,,,,null,GW/camera.jpg,GW/soldier.jpg,,,,,,,,,,,,
null,,black_cross(without_color),2155845,blue,,,,null,GW/camera.jpg,GW/soldier.jpg,,,,,,,,,,,,
null,,rt_plussign_withcolor,2156355,blue,,,,null,GW/camera.jpg,GW/soldier.jpg,,,,,,,,,,,,
656.5999999940395,,rt_thecrossant_black,2157881,black_plus_sign,,,,49,,,1,0.9629629629629629,,,,,,,,,,
null,,color_black,2157993,black_plus_sign,,,,null,,,,,,,,,,,,,,
null,,learn_phase(without_color),2160009,black_plus_sign,,,,null,GW/jukebox.jpg,GW/globe.jpg,,,,,,,,,,,,
null,,black_cross(without_color),2160963,blue,,,,null,GW/jukebox.jpg,GW/globe.jpg,,,,,,,,,,,,
null,,rt_plussign_withcolor,2161475,blue,,,,null,GW/jukebox.jpg,GW/globe.jpg,,,,,,,,,,,,
834.7000000029802,,rt_thecrossant_black,2162541,black_plus_sign,,,,50,,,0,0.9454545454545454,,,,,,,,,,
null,,color_black,2162651,black_plus_sign,,,,null,,,,,,,,,,,,,,
null,,learn_phase(without_color),2164656,black_plus_sign,,,,null,GW/basket.jpg,GW/teeth.jpg,,,,,,,,,,,,
null,,black_cross(without_color),2165412,blue,,,,null,GW/basket.jpg,GW/teeth.jpg,,,,,,,,,,,,
null,,rt_plussign_withcolor,2165919,blue,,,,null,GW/basket.jpg,GW/teeth.jpg,,,,,,,,,,,,
1105.2000000029802,,rt_thecrossant_black,2167180,black_plus_sign,,,,49,,,1,0.9464285714285714,,,,,,,,,,
null,,color_black,2167290,black_plus_sign,,,,null,,,,,,,,,,,,,,
null,,learn_phase(without_color),2169306,black_plus_sign,,,,null,GW/wheelchair.jpg,GW/basket.jpg,,,,,,,,,,,,
null,,black_cross(without_color),2170396,green,,,,null,GW/wheelchair.jpg,GW/basket.jpg,,,,,,,,,,,,
489.70000000298023,,rt_plussign_withcolor,2170900,green,,,,50,GW/wheelchair.jpg,GW/basket.jpg,,,,,,,,,,,,
null,,rt_thecrossant_black,2171832,black_plus_sign,,,,null,,,1,0.9473684210526315,,,,,,,,,,
null,,color_black,2171942,black_plus_sign,,,,null,,,,,,,,,,,,,,
null,,learn_phase(without_color),2173960,black_plus_sign,,,,null,GW/dustpan.jpg,GW/globe.jpg,,,,,,,,,,,,
null,,black_cross(without_color),2174729,blue,,,,null,GW/dustpan.jpg,GW/globe.jpg,,,,,,,,,,,,
null,,rt_plussign_withcolor,2175236,blue,,,,null,GW/dustpan.jpg,GW/globe.jpg,,,,,,,,,,,,
1212.8999999910593,,rt_thecrossant_black,2176488,black_plus_sign,,,,49,,,1,0.9482758620689655,,,,,,,,,,
null,,color_black,2176591,black_plus_sign,,,,null,,,,,,,,,,,,,,
null,,learn_phase(without_color),2178596,black_plus_sign,,,,null,GW/jukebox.jpg,GW/globe.jpg,,,,,,,,,,,,
null,,black_cross(without_color),2179569,blue,,,,null,GW/jukebox.jpg,GW/globe.jpg,,,,,,,,,,,,
null,,rt_plussign_withcolor,2180075,blue,,,,null,GW/jukebox.jpg,GW/globe.jpg,,,,,,,,,,,,
1085.2999999970198,,rt_thecrossant_black,2181119,black_plus_sign,,,,49,,,1,0.9491525423728814,,,,,,,,,,
null,,color_black,2181228,black_plus_sign,,,,null,,,,,,,,,,,,,,
null,,learn_phase(without_color),2183241,black_plus_sign,,,,null,GW/soldier.jpg,GW/snail.jpg,,,,,,,,,,,,
null,,black_cross(without_color),2184029,blue,,,,null,GW/soldier.jpg,GW/snail.jpg,,,,,,,,,,,,
null,,rt_plussign_withcolor,2184533,blue,,,,null,GW/soldier.jpg,GW/snail.jpg,,,,,,,,,,,,
1147.0999999940395,,rt_thecrossant_black,2185768,black_plus_sign,,,,49,,,1,0.95,,,,,,,,,,
null,,color_black,2185882,black_plus_sign,,,,null,,,,,,,,,,,,,,
null,,learn_phase(without_color),2187888,black_plus_sign,,,,null,GW/hat.jpg,GW/camera.jpg,,,,,,,,,,,,
null,,black_cross(without_color),2188965,blue,,,,null,GW/hat.jpg,GW/camera.jpg,,,,,,,,,,,,
null,,rt_plussign_withcolor,2189474,blue,,,,null,GW/hat.jpg,GW/camera.jpg,,,,,,,,,,,,
899.2999999970198,,rt_thecrossant_black,2190411,black_plus_sign,,,,49,,,1,0.9508196721311475,,,,,,,,,,
null,,color_black,2190522,black_plus_sign,,,,null,,,,,,,,,,,,,,
null,,learn_phase(without_color),2192537,black_plus_sign,,,,null,GW/soldier.jpg,GW/snail.jpg,,,,,,,,,,,,
null,,black_cross(without_color),2193498,blue,,,,null,GW/soldier.jpg,GW/snail.jpg,,,,,,,,,,,,
null,,rt_plussign_withcolor,2194008,blue,,,,null,GW/soldier.jpg,GW/snail.jpg,,,,,,,,,,,,
1194.7000000029802,,rt_thecrossant_black,2195063,black_plus_sign,,,,49,,,1,0.9516129032258065,,,,,,,,,,
null,,color_black,2195171,black_plus_sign,,,,null,,,,,,,,,,,,,,
null,,learn_phase(without_color),2197184,black_plus_sign,,,,null,GW/wheelchair.jpg,GW/gong.jpg,,,,,,,,,,,,
null,,black_cross(without_color),2197730,blue,,,,null,GW/wheelchair.jpg,GW/gong.jpg,,,,,,,,,,,,
null,,rt_plussign_withcolor,2198233,blue,,,,null,GW/wheelchair.jpg,GW/gong.jpg,,,,,,,,,,,,
1160.5,,rt_thecrossant_black,2199710,black_plus_sign,,,,49,,,1,0.9523809523809523,,,,,,,,,,
null,,color_black,2199829,black_plus_sign,,,,null,,,,,,,,,,,,,,
null,,learn_phase(without_color),2201834,black_plus_sign,,,,null,GW/wheelchair.jpg,GW/teeth.jpg,,,,,,,,,,,,
null,,black_cross(without_color),2202634,green,,,,null,GW/wheelchair.jpg,GW/teeth.jpg,,,,,,,,,,,,
null,,rt_plussign_withcolor,2203142,green,,,,null,GW/wheelchair.jpg,GW/teeth.jpg,,,,,,,,,,,,
807.7999999970198,,rt_thecrossant_black,2204360,black_plus_sign,,,,50,,,1,0.953125,,,,,,,,,,
null,,color_black,2204468,black_plus_sign,,,,null,,,,,,,,,,,,,,
null,,learn_phase(without_color),2206483,black_plus_sign,,,,null,GW/hat.jpg,GW/camera.jpg,,,,,,,,,,,,
null,,black_cross(without_color),2207133,green,,,,null,GW/hat.jpg,GW/camera.jpg,,,,,,,,,,,,
null,,rt_plussign_withcolor,2207649,green,,,,null,GW/hat.jpg,GW/camera.jpg,,,,,,,,,,,,
1075.699999988079,,rt_thecrossant_black,2209008,black_plus_sign,,,,50,,,1,0.9538461538461539,,,,,,,,,,
null,,color_black,2209124,black_plus_sign,,,,null,,,,,,,,,,,,,,
null,,learn_phase(without_color),2211129,black_plus_sign,,,,null,GW/basket.jpg,GW/paint.jpg,,,,,,,,,,,,
null,,black_cross(without_color),2211672,green,,,,null,GW/basket.jpg,GW/paint.jpg,,,,,,,,,,,,
null,,rt_plussign_withcolor,2212203,green,,,,null,GW/basket.jpg,GW/paint.jpg,,,,,,,,,,,,
839.2000000029802,,rt_thecrossant_black,2213683,black_plus_sign,,,,50,,,1,0.9545454545454546,,,,,,,,,,
null,,color_black,2213792,black_plus_sign,,,,null,,,,,,,,,,,,,,
null,,learn_phase(without_color),2215806,black_plus_sign,,,,null,GW/basket.jpg,GW/teeth.jpg,,,,,,,,,,,,
null,,black_cross(without_color),2216714,green,,,,null,GW/basket.jpg,GW/teeth.jpg,,,,,,,,,,,,
null,,rt_plussign_withcolor,2217223,green,,,,null,GW/basket.jpg,GW/teeth.jpg,,,,,,,,,,,,
829.1000000089407,,rt_thecrossant_black,2218337,black_plus_sign,,,,50,,,1,0.9552238805970149,,,,,,,,,,
null,,color_black,2218455,black_plus_sign,,,,null,,,,,,,,,,,,,,
null,,learn_phase(without_color),2220463,black_plus_sign,,,,null,GW/dustpan.jpg,GW/globe.jpg,,,,,,,,,,,,
null,,black_cross(without_color),2221187,blue,,,,null,GW/dustpan.jpg,GW/globe.jpg,,,,,,,,,,,,
null,,rt_plussign_withcolor,2221693,blue,,,,null,GW/dustpan.jpg,GW/globe.jpg,,,,,,,,,,,,
1069,,rt_thecrossant_black,2223004,black_plus_sign,,,,49,,,1,0.9558823529411765,,,,,,,,,,
null,,color_black,2223109,black_plus_sign,,,,null,,,,,,,,,,,,,,
null,,learn_phase(without_color),2225121,black_plus_sign,,,,null,GW/teeth.jpg,GW/dustpan.jpg,,,,,,,,,,,,
null,,black_cross(without_color),2226208,green,,,,null,GW/teeth.jpg,GW/dustpan.jpg,,,,,,,,,,,,
null,,rt_plussign_withcolor,2226711,green,,,,null,GW/teeth.jpg,GW/dustpan.jpg,,,,,,,,,,,,
941.9000000059605,,rt_thecrossant_black,2227637,black_plus_sign,,,,50,,,1,0.9565217391304348,,,,,,,,,,
null,,color_black,2227741,black_plus_sign,,,,null,,,,,,,,,,,,,,
null,,learn_phase(without_color),2229756,black_plus_sign,,,,null,GW/jukebox.jpg,GW/barrel.jpg,,,,,,,,,,,,
null,,black_cross(without_color),2230198,blue,,,,null,GW/jukebox.jpg,GW/barrel.jpg,,,,,,,,,,,,
null,,rt_plussign_withcolor,2230715,blue,,,,null,GW/jukebox.jpg,GW/barrel.jpg,,,,,,,,,,,,
1250,,rt_thecrossant_black,2232294,black_plus_sign,,,,49,,,1,0.9571428571428572,,,,,,,,,,
null,,color_black,2232413,black_plus_sign,,,,null,,,,,,,,,,,,,,
null,,learn_phase(without_color),2234420,black_plus_sign,,,,null,GW/snail.jpg,GW/teeth.jpg,,,,,,,,,,,,
null,,black_cross(without_color),2235513,blue,,,,null,GW/snail.jpg,GW/teeth.jpg,,,,,,,,,,,,
null,,rt_plussign_withcolor,2236021,blue,,,,null,GW/snail.jpg,GW/teeth.jpg,,,,,,,,,,,,
623.7999999970198,,rt_thecrossant_black,2236950,black_plus_sign,,,,49,,,1,0.9577464788732394,,,,,,,,,,
null,,color_black,2237069,black_plus_sign,,,,null,,,,,,,,,,,,,,
null,,learn_phase(without_color),2239085,black_plus_sign,,,,null,GW/camera.jpg,GW/soldier.jpg,,,,,,,,,,,,
null,,black_cross(without_color),2240083,green,,,,null,GW/camera.jpg,GW/soldier.jpg,,,,,,,,,,,,
null,,rt_plussign_withcolor,2240606,green,,,,null,GW/camera.jpg,GW/soldier.jpg,,,,,,,,,,,,
1208,,rt_thecrossant_black,2241638,black_plus_sign,,,,50,,,1,0.9583333333333334,,,,,,,,,,
null,,color_black,2241750,black_plus_sign,,,,null,,,,,,,,,,,,,,
null,,learn_phase(without_color),2243771,black_plus_sign,,,,null,GW/hat.jpg,GW/camera.jpg,,,,,,,,,,,,
null,,black_cross(without_color),2244825,blue,,,,null,GW/hat.jpg,GW/camera.jpg,,,,,,,,,,,,
null,,rt_plussign_withcolor,2245336,blue,,,,null,GW/hat.jpg,GW/camera.jpg,,,,,,,,,,,,
1148.5,,rt_thecrossant_black,2246293,black_plus_sign,,,,49,,,1,0.958904109589041,,,,,,,,,,
null,,color_black,2246401,black_plus_sign,,,,null,,,,,,,,,,,,,,
null,,learn_phase(without_color),2248408,black_plus_sign,,,,null,GW/soldier.jpg,GW/dustpan.jpg,,,,,,,,,,,,
null,,black_cross(without_color),2249361,blue,,,,null,GW/soldier.jpg,GW/dustpan.jpg,,,,,,,,,,,,
null,,rt_plussign_withcolor,2249885,blue,,,,null,GW/soldier.jpg,GW/dustpan.jpg,,,,,,,,,,,,
1173,,rt_thecrossant_black,2250951,black_plus_sign,,,,49,,,1,0.9594594594594594,,,,,,,,,,
null,,color_black,2251061,black_plus_sign,,,,null,,,,,,,,,,,,,,
null,,learn_phase(without_color),2253073,black_plus_sign,,,,null,GW/snail.jpg,GW/wheelchair.jpg,,,,,,,,,,,,
null,,black_cross(without_color),2253862,blue,,,,null,GW/snail.jpg,GW/wheelchair.jpg,,,,,,,,,,,,
null,,rt_plussign_withcolor,2254365,blue,,,,null,GW/snail.jpg,GW/wheelchair.jpg,,,,,,,,,,,,
1116.4000000059605,,rt_thecrossant_black,2255599,black_plus_sign,,,,49,,,1,0.96,,,,,,,,,,
null,,color_black,2255709,black_plus_sign,,,,null,,,,,,,,,,,,,,
null,,learn_phase(without_color),2257724,black_plus_sign,,,,null,GW/wheelchair.jpg,GW/gong.jpg,,,,,,,,,,,,
null,,black_cross(without_color),2258696,green,,,,null,GW/wheelchair.jpg,GW/gong.jpg,,,,,,,,,,,,
null,,rt_plussign_withcolor,2259206,green,,,,null,GW/wheelchair.jpg,GW/gong.jpg,,,,,,,,,,,,
1035,,rt_thecrossant_black,2260254,black_plus_sign,,,,50,,,1,0.9605263157894737,,,,,,,,,,
null,,color_black,2260370,black_plus_sign,,,,null,,,,,,,,,,,,,,
null,,learn_phase(without_color),2262383,black_plus_sign,,,,null,GW/snail.jpg,GW/wheelchair.jpg,,,,,,,,,,,,
null,,black_cross(without_color),2263134,green,,,,null,GW/snail.jpg,GW/wheelchair.jpg,,,,,,,,,,,,
null,,rt_plussign_withcolor,2263642,green,,,,null,GW/snail.jpg,GW/wheelchair.jpg,,,,,,,,,,,,
1266.3999999910593,,rt_thecrossant_black,2264902,black_plus_sign,,,,50,,,1,0.961038961038961,,,,,,,,,,
null,,color_black,2265015,black_plus_sign,,,,null,,,,,,,,,,,,,,
null,,learn_phase(without_color),2267024,black_plus_sign,,,,null,GW/jukebox.jpg,GW/globe.jpg,,,,,,,,,,,,
null,,black_cross(without_color),2267455,blue,,,,null,GW/jukebox.jpg,GW/globe.jpg,,,,,,,,,,,,
null,,rt_plussign_withcolor,2267960,blue,,,,null,GW/jukebox.jpg,GW/globe.jpg,,,,,,,,,,,,
971.7999999970198,,rt_thecrossant_black,2269547,black_plus_sign,,,,49,,,1,0.9615384615384616,,,,,,,,,,
null,,color_black,2269659,black_plus_sign,,,,null,,,,,,,,,,,,,,
null,,learn_phase(without_color),2271675,black_plus_sign,,,,null,GW/snail.jpg,GW/teeth.jpg,,,,,,,,,,,,
null,,black_cross(without_color),2272665,blue,,,,null,GW/snail.jpg,GW/teeth.jpg,,,,,,,,,,,,
null,,rt_plussign_withcolor,2273179,blue,,,,null,GW/snail.jpg,GW/teeth.jpg,,,,,,,,,,,,
652.9000000059605,,rt_thecrossant_black,2274200,black_plus_sign,,,,49,,,1,0.9620253164556962,,,,,,,,,,
null,,color_black,2274317,black_plus_sign,,,,null,,,,,,,,,,,,,,
null,,learn_phase(without_color),2276336,black_plus_sign,,,,null,GW/snail.jpg,GW/wheelchair.jpg,,,,,,,,,,,,
null,,black_cross(without_color),2277128,blue,,,,null,GW/snail.jpg,GW/wheelchair.jpg,,,,,,,,,,,,
null,,rt_plussign_withcolor,2277637,blue,,,,null,GW/snail.jpg,GW/wheelchair.jpg,,,,,,,,,,,,
1212.5,,rt_thecrossant_black,2278870,black_plus_sign,,,,49,,,1,0.9625,,,,,,,,,,
null,,color_black,2278983,black_plus_sign,,,,null,,,,,,,,,,,,,,
null,,learn_phase(without_color),2280993,black_plus_sign,,,,null,GW/jukebox.jpg,GW/globe.jpg,,,,,,,,,,,,
null,,black_cross(without_color),2281589,blue,,,,null,GW/jukebox.jpg,GW/globe.jpg,,,,,,,,,,,,
null,,rt_plussign_withcolor,2282103,blue,,,,null,GW/jukebox.jpg,GW/globe.jpg,,,,,,,,,,,,
1008.7999999970198,,rt_thecrossant_black,2283533,black_plus_sign,,,,49,,,1,0.9629629629629629,,,,,,,,,,
null,,color_black,2283641,black_plus_sign,,,,null,,,,,,,,,,,,,,
null,,learn_phase(without_color),2285649,black_plus_sign,,,,null,GW/camera.jpg,GW/soldier.jpg,,,,,,,,,,,,
null,,black_cross(without_color),2286120,blue,,,,null,GW/camera.jpg,GW/soldier.jpg,,,,,,,,,,,,
null,,rt_plussign_withcolor,2286634,blue,,,,null,GW/camera.jpg,GW/soldier.jpg,,,,,,,,,,,,
779.9000000059605,,rt_thecrossant_black,2288176,black_plus_sign,,,,49,,,1,0.9634146341463414,,,,,,,,,,
null,,color_black,2288282,black_plus_sign,,,,null,,,,,,,,,,,,,,
null,,learn_phase(without_color),2290293,black_plus_sign,,,,null,GW/teeth.jpg,GW/dustpan.jpg,,,,,,,,,,,,
null,,black_cross(without_color),2290818,green,,,,null,GW/teeth.jpg,GW/dustpan.jpg,,,,,,,,,,,,
null,,rt_plussign_withcolor,2291333,green,,,,null,GW/teeth.jpg,GW/dustpan.jpg,,,,,,,,,,,,
686.5999999940395,,rt_thecrossant_black,2292831,black_plus_sign,,,,50,,,1,0.963855421686747,,,,,,,,,,
null,,color_black,2292935,black_plus_sign,,,,null,,,,,,,,,,,,,,
null,,learn_phase(without_color),2294948,black_plus_sign,,,,null,GW/hat.jpg,GW/camera.jpg,,,,,,,,,,,,
null,,black_cross(without_color),2295913,blue,,,,null,GW/hat.jpg,GW/camera.jpg,,,,,,,,,,,,
null,,rt_plussign_withcolor,2296425,blue,,,,null,GW/hat.jpg,GW/camera.jpg,,,,,,,,,,,,
793.5,,rt_thecrossant_black,2297479,black_plus_sign,,,,49,,,1,0.9642857142857143,,,,,,,,,,
null,,color_black,2297591,black_plus_sign,,,,null,,,,,,,,,,,,,,
null,,learn_phase(without_color),2299603,black_plus_sign,,,,null,GW/jukebox.jpg,GW/barrel.jpg,,,,,,,,,,,,
null,,black_cross(without_color),2300276,green,,,,null,GW/jukebox.jpg,GW/barrel.jpg,,,,,,,,,,,,
null,,rt_plussign_withcolor,2300791,green,,,,null,GW/jukebox.jpg,GW/barrel.jpg,,,,,,,,,,,,
1186.3999999910593,,rt_thecrossant_black,2302133,black_plus_sign,,,,50,,,1,0.9647058823529412,,,,,,,,,,
null,,color_black,2302244,black_plus_sign,,,,null,,,,,,,,,,,,,,
null,,learn_phase(without_color),2304261,black_plus_sign,,,,null,GW/jukebox.jpg,GW/globe.jpg,,,,,,,,,,,,
null,,black_cross(without_color),2304745,green,,,,null,GW/jukebox.jpg,GW/globe.jpg,,,,,,,,,,,,
null,,rt_plussign_withcolor,2305258,green,,,,null,GW/jukebox.jpg,GW/globe.jpg,,,,,,,,,,,,
925.3999999910593,,rt_thecrossant_black,2306794,black_plus_sign,,,,50,,,1,0.9651162790697675,,,,,,,,,,
null,,color_black,2306911,black_plus_sign,,,,null,,,,,,,,,,,,,,
null,,learn_phase(without_color),2308920,black_plus_sign,,,,null,GW/camera.jpg,GW/jukebox.jpg,,,,,,,,,,,,
null,,black_cross(without_color),2310021,green,,,,null,GW/camera.jpg,GW/jukebox.jpg,,,,,,,,,,,,
507.70000000298023,,rt_plussign_withcolor,2310533,green,,,,50,GW/camera.jpg,GW/jukebox.jpg,,,,,,,,,,,,
null,,rt_thecrossant_black,2311471,black_plus_sign,,,,null,,,1,0.9655172413793104,,,,,,,,,,
null,,color_black,2311575,black_plus_sign,,,,null,,,,,,,,,,,,,,
null,,learn_phase(without_color),2313585,black_plus_sign,,,,null,GW/basket.jpg,GW/teeth.jpg,,,,,,,,,,,,
null,,black_cross(without_color),2314343,blue,,,,null,GW/basket.jpg,GW/teeth.jpg,,,,,,,,,,,,
null,,rt_plussign_withcolor,2314857,blue,,,,null,GW/basket.jpg,GW/teeth.jpg,,,,,,,,,,,,
1270.0999999940395,,rt_thecrossant_black,2316122,black_plus_sign,,,,49,,,1,0.9659090909090909,,,,,,,,,,
null,,color_black,2316235,black_plus_sign,,,,null,,,,,,,,,,,,,,
null,,learn_phase(without_color),2318239,black_plus_sign,,,,null,GW/wheelchair.jpg,GW/gong.jpg,,,,,,,,,,,,
null,,black_cross(without_color),2319206,blue,,,,null,GW/wheelchair.jpg,GW/gong.jpg,,,,,,,,,,,,
null,,rt_plussign_withcolor,2319712,blue,,,,null,GW/wheelchair.jpg,GW/gong.jpg,,,,,,,,,,,,
978.5,,rt_thecrossant_black,2320771,black_plus_sign,,,,49,,,1,0.9662921348314607,,,,,,,,,,
null,,color_black,2320882,black_plus_sign,,,,null,,,,,,,,,,,,,,
null,,learn_phase(without_color),2322906,black_plus_sign,,,,null,GW/basket.jpg,GW/paint.jpg,,,,,,,,,,,,
null,,black_cross(without_color),2323549,green,,,,null,GW/basket.jpg,GW/paint.jpg,,,,,,,,,,,,
null,,rt_plussign_withcolor,2324054,green,,,,null,GW/basket.jpg,GW/paint.jpg,,,,,,,,,,,,
1180.9000000059605,,rt_thecrossant_black,2325443,black_plus_sign,,,,50,,,1,0.9666666666666667,,,,,,,,,,
null,,color_black,2325552,black_plus_sign,,,,null,,,,,,,,,,,,,,
null,,learn_phase(without_color),2327564,black_plus_sign,,,,null,GW/snail.jpg,GW/teeth.jpg,,,,,,,,,,,,
null,,black_cross(without_color),2328588,green,,,,null,GW/snail.jpg,GW/teeth.jpg,,,,,,,,,,,,
null,,rt_plussign_withcolor,2329091,green,,,,null,GW/snail.jpg,GW/teeth.jpg,,,,,,,,,,,,
780.3000000119209,,rt_thecrossant_black,2330095,black_plus_sign,,,,50,,,1,0.967032967032967,,,,,,,,,,
null,,color_black,2330208,black_plus_sign,,,,null,,,,,,,,,,,,,,
null,,learn_phase(without_color),2332217,black_plus_sign,,,,null,GW/soldier.jpg,GW/dustpan.jpg,,,,,,,,,,,,
null,,black_cross(without_color),2332700,blue,,,,null,GW/soldier.jpg,GW/dustpan.jpg,,,,,,,,,,,,
null,,rt_plussign_withcolor,2333205,blue,,,,null,GW/soldier.jpg,GW/dustpan.jpg,,,,,,,,,,,,
1219.5,,rt_thecrossant_black,2334744,black_plus_sign,,,,49,,,1,0.967391304347826,,,,,,,,,,
null,,color_black,2334856,black_plus_sign,,,,null,,,,,,,,,,,,,,
null,,learn_phase(without_color),2336872,black_plus_sign,,,,null,GW/wheelchair.jpg,GW/teeth.jpg,,,,,,,,,,,,
null,,black_cross(without_color),2337952,blue,,,,null,GW/wheelchair.jpg,GW/teeth.jpg,,,,,,,,,,,,
null,,rt_plussign_withcolor,2338458,blue,,,,null,GW/wheelchair.jpg,GW/teeth.jpg,,,,,,,,,,,,
632.2000000029802,,rt_thecrossant_black,2339400,black_plus_sign,,,,49,,,1,0.967741935483871,,,,,,,,,,
null,,color_black,2339505,black_plus_sign,,,,null,,,,,,,,,,,,,,
null,,learn_phase(without_color),2341523,black_plus_sign,,,,null,GW/snail.jpg,GW/teeth.jpg,,,,,,,,,,,,
null,,black_cross(without_color),2342472,green,,,,null,GW/snail.jpg,GW/teeth.jpg,,,,,,,,,,,,
null,,rt_plussign_withcolor,2342977,green,,,,null,GW/snail.jpg,GW/teeth.jpg,,,,,,,,,,,,
1209.5999999940395,,rt_thecrossant_black,2344059,black_plus_sign,,,,50,,,1,0.9680851063829787,,,,,,,,,,
null,,color_black,2344168,black_plus_sign,,,,null,,,,,,,,,,,,,,
null,,learn_phase(without_color),2346185,black_plus_sign,,,,null,GW/hat.jpg,GW/camera.jpg,,,,,,,,,,,,
null,,black_cross(without_color),2346790,green,,,,null,GW/hat.jpg,GW/camera.jpg,,,,,,,,,,,,
null,,rt_plussign_withcolor,2347295,green,,,,null,GW/hat.jpg,GW/camera.jpg,,,,,,,,,,,,
1098,,rt_thecrossant_black,2348721,black_plus_sign,,,,50,,,1,0.968421052631579,,,,,,,,,,
null,,color_black,2348833,black_plus_sign,,,,null,,,,,,,,,,,,,,
null,,learn_phase(without_color),2350850,black_plus_sign,,,,null,GW/wheelchair.jpg,GW/teeth.jpg,,,,,,,,,,,,
null,,black_cross(without_color),2351327,green,,,,null,GW/wheelchair.jpg,GW/teeth.jpg,,,,,,,,,,,,
null,,rt_plussign_withcolor,2351841,green,,,,null,GW/wheelchair.jpg,GW/teeth.jpg,,,,,,,,,,,,
824.6000000089407,,rt_thecrossant_black,2353397,black_plus_sign,,,,50,,,1,0.96875,,,,,,,,,,
null,,color_black,2353502,black_plus_sign,,,,null,,,,,,,,,,,,,,
null,,learn_phase(without_color),2355512,black_plus_sign,,,,null,GW/soldier.jpg,GW/dustpan.jpg,,,,,,,,,,,,
null,,black_cross(without_color),2356545,blue,,,,null,GW/soldier.jpg,GW/dustpan.jpg,,,,,,,,,,,,
null,,rt_plussign_withcolor,2357054,blue,,,,null,GW/soldier.jpg,GW/dustpan.jpg,,,,,,,,,,,,
639,,rt_thecrossant_black,2358037,black_plus_sign,,,,49,,,1,0.9690721649484536,,,,,,,,,,
null,,color_black,2358147,black_plus_sign,,,,null,,,,,,,,,,,,,,
null,,learn_phase(without_color),2360171,black_plus_sign,,,,null,GW/soldier.jpg,GW/snail.jpg,,,,,,,,,,,,
null,,black_cross(without_color),2360619,green,,,,null,GW/soldier.jpg,GW/snail.jpg,,,,,,,,,,,,
null,,rt_plussign_withcolor,2361129,green,,,,null,GW/soldier.jpg,GW/snail.jpg,,,,,,,,,,,,
1283.9000000059605,,rt_thecrossant_black,2362693,black_plus_sign,,,,50,,,1,0.9693877551020408,,,,,,,,,,
null,,color_black,2362807,black_plus_sign,,,,null,,,,,,,,,,,,,,
null,,learn_phase(without_color),2364822,black_plus_sign,,,,null,GW/wheelchair.jpg,GW/teeth.jpg,,,,,,,,,,,,
null,,black_cross(without_color),2365384,blue,,,,null,GW/wheelchair.jpg,GW/teeth.jpg,,,,,,,,,,,,
null,,rt_plussign_withcolor,2365900,blue,,,,null,GW/wheelchair.jpg,GW/teeth.jpg,,,,,,,,,,,,
560.2999999970198,,rt_thecrossant_black,2367363,black_plus_sign,,,,49,,,1,0.9696969696969697,,,,,,,,,,
null,,color_black,2367475,black_plus_sign,,,,null,,,,,,,,,,,,,,
null,,learn_phase(without_color),2369487,black_plus_sign,,,,null,GW/soldier.jpg,GW/dustpan.jpg,,,,,,,,,,,,
null,,black_cross(without_color),2370420,blue,,,,null,GW/soldier.jpg,GW/dustpan.jpg,,,,,,,,,,,,
null,,rt_plussign_withcolor,2370936,blue,,,,null,GW/soldier.jpg,GW/dustpan.jpg,,,,,,,,,,,,
743.5999999940395,,rt_thecrossant_black,2372028,black_plus_sign,,,,49,,,1,0.97,,,,,,,,,,
null,,color_black,2372132,black_plus_sign,,,,null,,,,,,,,,,,,,,
null,,learn_phase(without_color),2374145,black_plus_sign,,,,null,GW/wheelchair.jpg,GW/teeth.jpg,,,,,,,,,,,,
null,,black_cross(without_color),2375166,green,,,,null,GW/wheelchair.jpg,GW/teeth.jpg,,,,,,,,,,,,
null,,rt_plussign_withcolor,2375678,green,,,,null,GW/wheelchair.jpg,GW/teeth.jpg,,,,,,,,,,,,
1103.800000011921,,rt_thecrossant_black,2376677,black_plus_sign,,,,50,,,1,0.9702970297029703,,,,,,,,,,
null,,color_black,2376794,black_plus_sign,,,,null,,,,,,,,,,,,,,
null,,learn_phase(without_color),2378807,black_plus_sign,,,,null,GW/soldier.jpg,GW/snail.jpg,,,,,,,,,,,,
null,,black_cross(without_color),2379336,green,,,,null,GW/soldier.jpg,GW/snail.jpg,,,,,,,,,,,,
null,,rt_plussign_withcolor,2379852,green,,,,null,GW/soldier.jpg,GW/snail.jpg,,,,,,,,,,,,
1267.8999999910593,,rt_thecrossant_black,2381350,black_plus_sign,,,,50,,,1,0.9705882352941176,,,,,,,,,,
null,,color_black,2381458,black_plus_sign,,,,null,,,,,,,,,,,,,,
null,,learn_phase(without_color),2383467,black_plus_sign,,,,null,GW/wheelchair.jpg,GW/gong.jpg,,,,,,,,,,,,
null,,black_cross(without_color),2384285,blue,,,,null,GW/wheelchair.jpg,GW/gong.jpg,,,,,,,,,,,,
null,,rt_plussign_withcolor,2384793,blue,,,,null,GW/wheelchair.jpg,GW/gong.jpg,,,,,,,,,,,,
735.0999999940395,,rt_thecrossant_black,2385990,black_plus_sign,,,,49,,,1,0.970873786407767,,,,,,,,,,
null,,color_black,2386097,black_plus_sign,,,,null,,,,,,,,,,,,,,
null,,learn_phase(without_color),2388107,black_plus_sign,,,,null,GW/camera.jpg,GW/jukebox.jpg,,,,,,,,,,,,
null,,black_cross(without_color),2388607,blue,,,,null,GW/camera.jpg,GW/jukebox.jpg,,,,,,,,,,,,
null,,rt_plussign_withcolor,2389117,blue,,,,null,GW/camera.jpg,GW/jukebox.jpg,,,,,,,,,,,,
1065.7999999970198,,rt_thecrossant_black,2390648,black_plus_sign,,,,49,,,1,0.9711538461538461,,,,,,,,,,
null,,color_black,2390759,black_plus_sign,,,,null,,,,,,,,,,,,,,
null,,learn_phase(without_color),2392774,black_plus_sign,,,,null,GW/jukebox.jpg,GW/globe.jpg,,,,,,,,,,,,
null,,black_cross(without_color),2393727,blue,,,,null,GW/jukebox.jpg,GW/globe.jpg,,,,,,,,,,,,
null,,rt_plussign_withcolor,2394243,blue,,,,null,GW/jukebox.jpg,GW/globe.jpg,,,,,,,,,,,,
694.6999999880791,,rt_thecrossant_black,2395313,black_plus_sign,,,,49,,,1,0.9714285714285714,,,,,,,,,,
null,,color_black,2395418,black_plus_sign,,,,null,,,,,,,,,,,,,,
null,,learn_phase(without_color),2397436,black_plus_sign,,,,null,GW/soldier.jpg,GW/dustpan.jpg,,,,,,,,,,,,
null,,black_cross(without_color),2398246,blue,,,,null,GW/soldier.jpg,GW/dustpan.jpg,,,,,,,,,,,,
null,,rt_plussign_withcolor,2398758,blue,,,,null,GW/soldier.jpg,GW/dustpan.jpg,,,,,,,,,,,,
1101.0999999940395,,rt_thecrossant_black,2399980,black_plus_sign,,,,49,,,1,0.9716981132075472,,,,,,,,,,
null,,color_black,2400093,black_plus_sign,,,,null,,,,,,,,,,,,,,
null,,learn_phase(without_color),2402102,black_plus_sign,,,,null,GW/basket.jpg,GW/paint.jpg,,,,,,,,,,,,
null,,black_cross(without_color),2403060,green,,,,null,GW/basket.jpg,GW/paint.jpg,,,,,,,,,,,,
null,,rt_plussign_withcolor,2403564,green,,,,null,GW/basket.jpg,GW/paint.jpg,,,,,,,,,,,,
1097.7999999970198,,rt_thecrossant_black,2404622,black_plus_sign,,,,50,,,1,0.9719626168224299,,,,,,,,,,
null,,color_black,2404739,black_plus_sign,,,,null,,,,,,,,,,,,,,
null,,learn_phase(without_color),2406754,black_plus_sign,,,,null,GW/camera.jpg,GW/soldier.jpg,,,,,,,,,,,,
null,,black_cross(without_color),2407646,green,,,,null,GW/camera.jpg,GW/soldier.jpg,,,,,,,,,,,,
null,,rt_plussign_withcolor,2408170,green,,,,null,GW/camera.jpg,GW/soldier.jpg,,,,,,,,,,,,
1170.199999988079,,rt_thecrossant_black,2409288,black_plus_sign,,,,50,,,1,0.9722222222222222,,,,,,,,,,
null,,color_black,2409400,black_plus_sign,,,,null,,,,,,,,,,,,,,
null,,learn_phase(without_color),2411410,black_plus_sign,,,,null,GW/camera.jpg,GW/jukebox.jpg,,,,,,,,,,,,
null,,black_cross(without_color),2412101,blue,,,,null,GW/camera.jpg,GW/jukebox.jpg,,,,,,,,,,,,
null,,rt_plussign_withcolor,2412608,blue,,,,null,GW/camera.jpg,GW/jukebox.jpg,,,,,,,,,,,,
1113.3999999910593,,rt_thecrossant_black,2413931,black_plus_sign,,,,49,,,1,0.9724770642201835,,,,,,,,,,
null,,color_black,2414040,black_plus_sign,,,,null,,,,,,,,,,,,,,
null,,learn_phase(without_color),2416046,black_plus_sign,,,,null,GW/soldier.jpg,GW/dustpan.jpg,,,,,,,,,,,,
null,,black_cross(without_color),2416982,blue,,,,null,GW/soldier.jpg,GW/dustpan.jpg,,,,,,,,,,,,
null,,rt_plussign_withcolor,2417503,blue,,,,null,GW/soldier.jpg,GW/dustpan.jpg,,,,,,,,,,,,
786,,rt_thecrossant_black,2418596,black_plus_sign,,,,49,,,1,0.9727272727272728,,,,,,,,,,
null,,color_black,2418705,black_plus_sign,,,,null,,,,,,,,,,,,,,
null,,learn_phase(without_color),2420711,black_plus_sign,,,,null,GW/dustpan.jpg,GW/globe.jpg,,,,,,,,,,,,
null,,black_cross(without_color),2421215,blue,,,,null,GW/dustpan.jpg,GW/globe.jpg,,,,,,,,,,,,
null,,rt_plussign_withcolor,2421730,blue,,,,null,GW/dustpan.jpg,GW/globe.jpg,,,,,,,,,,,,
1075.2000000029802,,rt_thecrossant_black,2423248,black_plus_sign,,,,49,,,1,0.972972972972973,,,,,,,,,,
null,,color_black,2423352,black_plus_sign,,,,null,,,,,,,,,,,,,,
null,,learn_phase(without_color),2425365,black_plus_sign,,,,null,GW/soldier.jpg,GW/snail.jpg,,,,,,,,,,,,
null,,black_cross(without_color),2426217,blue,,,,null,GW/soldier.jpg,GW/snail.jpg,,,,,,,,,,,,
null,,rt_plussign_withcolor,2426725,blue,,,,null,GW/soldier.jpg,GW/snail.jpg,,,,,,,,,,,,
635.8000000119209,,rt_thecrossant_black,2427886,black_plus_sign,,,,49,,,1,0.9732142857142857,,,,,,,,,,
null,,color_black,2427995,black_plus_sign,,,,null,,,,,,,,,,,,,,
null,,learn_phase(without_color),2430004,black_plus_sign,,,,null,GW/snail.jpg,GW/wheelchair.jpg,,,,,,,,,,,,
null,,black_cross(without_color),2430710,green,,,,null,GW/snail.jpg,GW/wheelchair.jpg,,,,,,,,,,,,
null,,rt_plussign_withcolor,2431215,green,,,,null,GW/snail.jpg,GW/wheelchair.jpg,,,,,,,,,,,,
1043.4000000059605,,rt_thecrossant_black,2432525,black_plus_sign,,,,50,,,1,0.9734513274336283,,,,,,,,,,
null,,color_black,2432635,black_plus_sign,,,,null,,,,,,,,,,,,,,
null,,learn_phase(without_color),2434654,black_plus_sign,,,,null,GW/basket.jpg,GW/teeth.jpg,,,,,,,,,,,,
null,,black_cross(without_color),2435280,green,,,,null,GW/basket.jpg,GW/teeth.jpg,,,,,,,,,,,,
null,,rt_plussign_withcolor,2435797,green,,,,null,GW/basket.jpg,GW/teeth.jpg,,,,,,,,,,,,
834.7999999970198,,rt_thecrossant_black,2437189,black_plus_sign,,,,50,,,1,0.9736842105263158,,,,,,,,,,
null,,color_black,2437297,black_plus_sign,,,,null,,,,,,,,,,,,,,
null,,learn_phase(without_color),2439302,black_plus_sign,,,,null,GW/snail.jpg,GW/wheelchair.jpg,,,,,,,,,,,,
null,,black_cross(without_color),2440247,blue,,,,null,GW/snail.jpg,GW/wheelchair.jpg,,,,,,,,,,,,
null,,rt_plussign_withcolor,2440751,blue,,,,null,GW/snail.jpg,GW/wheelchair.jpg,,,,,,,,,,,,
833.9000000059605,,rt_thecrossant_black,2441840,black_plus_sign,,,,49,,,1,0.9739130434782609,,,,,,,,,,
null,,color_black,2441944,black_plus_sign,,,,null,,,,,,,,,,,,,,
null,,learn_phase(without_color),2443959,black_plus_sign,,,,null,GW/soldier.jpg,GW/dustpan.jpg,,,,,,,,,,,,
null,,black_cross(without_color),2444807,blue,,,,null,GW/soldier.jpg,GW/dustpan.jpg,,,,,,,,,,,,
null,,rt_plussign_withcolor,2445314,blue,,,,null,GW/soldier.jpg,GW/dustpan.jpg,,,,,,,,,,,,
1117.7000000029802,,rt_thecrossant_black,2446483,black_plus_sign,,,,49,,,1,0.9741379310344828,,,,,,,,,,
null,,color_black,2446590,black_plus_sign,,,,null,,,,,,,,,,,,,,
null,,learn_phase(without_color),2448609,black_plus_sign,,,,null,GW/camera.jpg,GW/soldier.jpg,,,,,,,,,,,,
null,,black_cross(without_color),2449422,green,,,,null,GW/camera.jpg,GW/soldier.jpg,,,,,,,,,,,,
507.8999999910593,,rt_plussign_withcolor,2449933,green,,,,50,GW/camera.jpg,GW/soldier.jpg,,,,,,,,,,,,
null,,rt_thecrossant_black,2451138,black_plus_sign,,,,null,,,1,0.9743589743589743,,,,,,,,,,
null,,color_black,2451249,black_plus_sign,,,,null,,,,,,,,,,,,,,
null,,learn_phase(without_color),2453264,black_plus_sign,,,,null,GW/basket.jpg,GW/paint.jpg,,,,,,,,,,,,
null,,black_cross(without_color),2454089,green,,,,null,GW/basket.jpg,GW/paint.jpg,,,,,,,,,,,,
null,,rt_plussign_withcolor,2454599,green,,,,null,GW/basket.jpg,GW/paint.jpg,,,,,,,,,,,,
1184.0999999940395,,rt_thecrossant_black,2455792,black_plus_sign,,,,50,,,1,0.9745762711864406,,,,,,,,,,
null,,color_black,2455904,black_plus_sign,,,,null,,,,,,,,,,,,,,
null,,learn_phase(without_color),2457915,black_plus_sign,,,,null,GW/jukebox.jpg,GW/barrel.jpg,,,,,,,,,,,,
null,,black_cross(without_color),2458975,blue,,,,null,GW/jukebox.jpg,GW/barrel.jpg,,,,,,,,,,,,
null,,rt_plussign_withcolor,2459482,blue,,,,null,GW/jukebox.jpg,GW/barrel.jpg,,,,,,,,,,,,
973.5,,rt_thecrossant_black,2460443,black_plus_sign,,,,49,,,1,0.9747899159663865,,,,,,,,,,
null,,color_black,2460555,black_plus_sign,,,,null,,,,,,,,,,,,,,
null,,learn_phase(without_color),2462561,black_plus_sign,,,,null,GW/basket.jpg,GW/teeth.jpg,,,,,,,,,,,,
null,,black_cross(without_color),2463236,blue,,,,null,GW/basket.jpg,GW/teeth.jpg,,,,,,,,,,,,
null,,rt_plussign_withcolor,2463749,blue,,,,null,GW/basket.jpg,GW/teeth.jpg,,,,,,,,,,,,
1233.5,,rt_thecrossant_black,2465094,black_plus_sign,,,,49,,,1,0.975,,,,,,,,,,
null,,color_black,2465197,black_plus_sign,,,,null,,,,,,,,,,,,,,
null,,learn_phase(without_color),2467217,black_plus_sign,,,,null,GW/wheelchair.jpg,GW/basket.jpg,,,,,,,,,,,,
null,,black_cross(without_color),2468053,blue,,,,null,GW/wheelchair.jpg,GW/basket.jpg,,,,,,,,,,,,
null,,rt_plussign_withcolor,2468559,blue,,,,null,GW/wheelchair.jpg,GW/basket.jpg,,,,,,,,,,,,
936.1999999880791,,rt_thecrossant_black,2469749,black_plus_sign,,,,49,,,1,0.9752066115702479,,,,,,,,,,
null,,color_black,2469865,black_plus_sign,,,,null,,,,,,,,,,,,,,
null,,learn_phase(without_color),2471881,black_plus_sign,,,,null,GW/teeth.jpg,GW/dustpan.jpg,,,,,,,,,,,,
null,,black_cross(without_color),2472729,green,,,,null,GW/teeth.jpg,GW/dustpan.jpg,,,,,,,,,,,,
null,,rt_plussign_withcolor,2473243,green,,,,null,GW/teeth.jpg,GW/dustpan.jpg,,,,,,,,,,,,
972.8999999910593,,rt_thecrossant_black,2474422,black_plus_sign,,,,50,,,1,0.9754098360655737,,,,,,,,,,
null,,color_black,2474528,black_plus_sign,,,,null,,,,,,,,,,,,,,
null,,learn_phase(without_color),2476548,black_plus_sign,,,,null,GW/wheelchair.jpg,GW/gong.jpg,,,,,,,,,,,,
null,,black_cross(without_color),2477296,blue,,,,null,GW/wheelchair.jpg,GW/gong.jpg,,,,,,,,,,,,
501.3999999910593,,rt_plussign_withcolor,2477800,blue,,,,49,GW/wheelchair.jpg,GW/gong.jpg,,,,,,,,,,,,
null,,rt_thecrossant_black,2479070,black_plus_sign,,,,null,,,1,0.975609756097561,,,,,,,,,,
null,,color_black,2479186,black_plus_sign,,,,null,,,,,,,,,,,,,,
null,,learn_phase(without_color),2481194,black_plus_sign,,,,null,GW/wheelchair.jpg,GW/teeth.jpg,,,,,,,,,,,,
null,,black_cross(without_color),2481974,green,,,,null,GW/wheelchair.jpg,GW/teeth.jpg,,,,,,,,,,,,
null,,rt_plussign_withcolor,2482485,green,,,,null,GW/wheelchair.jpg,GW/teeth.jpg,,,,,,,,,,,,
870.4000000059605,,rt_thecrossant_black,2483740,black_plus_sign,,,,50,,,1,0.9758064516129032,,,,,,,,,,
null,,color_black,2483857,black_plus_sign,,,,null,,,,,,,,,,,,,,
null,,learn_phase(without_color),2485874,black_plus_sign,,,,null,GW/dustpan.jpg,GW/globe.jpg,,,,,,,,,,,,
null,,black_cross(without_color),2486796,green,,,,null,GW/dustpan.jpg,GW/globe.jpg,,,,,,,,,,,,
null,,rt_plussign_withcolor,2487305,green,,,,null,GW/dustpan.jpg,GW/globe.jpg,,,,,,,,,,,,
946.2999999970198,,rt_thecrossant_black,2488392,black_plus_sign,,,,50,,,1,0.976,,,,,,,,,,
null,,color_black,2488505,black_plus_sign,,,,null,,,,,,,,,,,,,,
null,,learn_phase(without_color),2490512,black_plus_sign,,,,null,GW/jukebox.jpg,GW/globe.jpg,,,,,,,,,,,,
null,,black_cross(without_color),2491559,blue,,,,null,GW/jukebox.jpg,GW/globe.jpg,,,,,,,,,,,,
null,,rt_plussign_withcolor,2492073,blue,,,,null,GW/jukebox.jpg,GW/globe.jpg,,,,,,,,,,,,
1132,,rt_thecrossant_black,2493044,black_plus_sign,,,,49,,,1,0.9761904761904762,,,,,,,,,,
null,,color_black,2493156,black_plus_sign,,,,null,,,,,,,,,,,,,,
null,,learn_phase(without_color),2495165,black_plus_sign,,,,null,GW/wheelchair.jpg,GW/basket.jpg,,,,,,,,,,,,
null,,black_cross(without_color),2496101,blue,,,,null,GW/wheelchair.jpg,GW/basket.jpg,,,,,,,,,,,,
null,,rt_plussign_withcolor,2496611,blue,,,,null,GW/wheelchair.jpg,GW/basket.jpg,,,,,,,,,,,,
1229.5999999940395,,rt_thecrossant_black,2497698,black_plus_sign,,,,49,,,1,0.9763779527559056,,,,,,,,,,
null,,color_black,2497805,black_plus_sign,,,,null,,,,,,,,,,,,,,
null,,learn_phase(without_color),2499810,black_plus_sign,,,,null,GW/basket.jpg,GW/teeth.jpg,,,,,,,,,,,,
null,,black_cross(without_color),2500313,blue,,,,null,GW/basket.jpg,GW/teeth.jpg,,,,,,,,,,,,
null,,rt_plussign_withcolor,2500820,blue,,,,null,GW/basket.jpg,GW/teeth.jpg,,,,,,,,,,,,
1221.1000000089407,,rt_thecrossant_black,2502335,black_plus_sign,,,,49,,,1,0.9765625,,,,,,,,,,
null,,color_black,2502444,black_plus_sign,,,,null,,,,,,,,,,,,,,
170439.79999999702,,intro_1,2672889,instruct,,0,Start,,,,,,,,,,,,,,,
2641.9000000059605,,directmemory_phase,2675535,GW/teeth.jpg,,,,51,,,1,1,GW/hat.jpg,GW/gong.jpg,GW/snail.jpg,GW/snail.jpg,GW/gong.jpg,GW/hat.jpg,1,,,
null,,html-keyboard-response,2676555,<p></p>,,,,null,,,,,,,,,,,,,,
2749.2000000029802,,directmemory_phase,2679307,GW/hat.jpg,,,,51,,,0,0.5,GW/jukebox.jpg,GW/camera.jpg,GW/dustpan.jpg,GW/camera.jpg,GW/jukebox.jpg,GW/dustpan.jpg,0.5,closer,,
null,,html-keyboard-response,2680314,<p></p>,,,,null,,,,,,,,,,,,,,
2410.0999999940395,,directmemory_phase,2682727,GW/dustpan.jpg,,,,50,,,1,0.6666666666666666,GW/basket.jpg,GW/soldier.jpg,GW/gong.jpg,GW/soldier.jpg,GW/basket.jpg,GW/gong.jpg,1,,,
null,,html-keyboard-response,2683741,<p></p>,,,,null,,,,,,,,,,,,,,
2559.5999999940395,,directmemory_phase,2686304,GW/camera.jpg,,,,49,,,1,0.75,GW/jukebox.jpg,GW/basket.jpg,GW/snail.jpg,GW/jukebox.jpg,GW/snail.jpg,GW/basket.jpg,1,,,
null,,html-keyboard-response,2687323,<p></p>,,,,null,,,,,,,,,,,,,,
4452,,directmemory_phase,2691777,GW/teeth.jpg,,,,50,,,0,0.6,GW/wheelchair.jpg,GW/hat.jpg,GW/soldier.jpg,GW/wheelchair.jpg,GW/soldier.jpg,GW/hat.jpg,0.5,closer,,
null,,html-keyboard-response,2692782,<p></p>,,,,null,,,,,,,,,,,,,,
6194,,directmemory_phase,2698979,GW/soldier.jpg,,,,49,,,0,0.5,GW/hat.jpg,GW/snail.jpg,GW/gong.jpg,GW/snail.jpg,GW/hat.jpg,GW/gong.jpg,0.5,closer,,
null,,html-keyboard-response,2699989,<p></p>,,,,null,,,,,,,,,,,,,,
null,,directmemory_phase,2706498,GW/teeth.jpg,,,,null,,,0,0.42857142857142855,GW/hat.jpg,GW/gong.jpg,GW/basket.jpg,GW/basket.jpg,GW/gong.jpg,GW/hat.jpg,0,,,
null,,html-keyboard-response,2707520,<p></p>,,,,null,,,,,,,,,,,,,,
2022.8999999910593,,directmemory_phase,2709546,GW/jukebox.jpg,,,,51,,,1,0.5,GW/teeth.jpg,GW/hat.jpg,GW/globe.jpg,GW/globe.jpg,GW/hat.jpg,GW/teeth.jpg,1,,,
null,,html-keyboard-response,2710556,<p></p>,,,,null,,,,,,,,,,,,,,
2478.5,,directmemory_phase,2713036,GW/wheelchair.jpg,,,,50,,,0,0.4444444444444444,GW/snail.jpg,GW/jukebox.jpg,GW/soldier.jpg,GW/snail.jpg,GW/soldier.jpg,GW/jukebox.jpg,0.5,closer,,
null,,html-keyboard-response,2714050,<p></p>,,,,null,,,,,,,,,,,,,,
2470.5,,directmemory_phase,2716523,GW/dustpan.jpg,,,,49,,,0,0.4,GW/jukebox.jpg,GW/globe.jpg,GW/hat.jpg,GW/globe.jpg,GW/jukebox.jpg,GW/hat.jpg,0.5,closer,,
null,,html-keyboard-response,2717528,<p></p>,,,,null,,,,,,,,,,,,,,
2135.0999999940395,,directmemory_phase,2719665,GW/camera.jpg,,,,50,,,0,0.36363636363636365,GW/wheelchair.jpg,GW/dustpan.jpg,GW/soldier.jpg,GW/soldier.jpg,GW/dustpan.jpg,GW/wheelchair.jpg,0.5,closer,,
null,,html-keyboard-response,2720682,<p></p>,,,,null,,,,,,,,,,,,,,
1772.300000011921,,directmemory_phase,2722456,GW/globe.jpg,,,,50,,,0,0.3333333333333333,GW/gong.jpg,GW/barrel.jpg,GW/dustpan.jpg,GW/dustpan.jpg,GW/barrel.jpg,GW/gong.jpg,0.5,closer,,
null,,html-keyboard-response,2723464,<p></p>,,,,null,,,,,,,,,,,,,,
1935.2000000029802,,directmemory_phase,2725402,GW/wheelchair.jpg,,,,51,,,1,0.38461538461538464,GW/globe.jpg,GW/dustpan.jpg,GW/teeth.jpg,GW/teeth.jpg,GW/dustpan.jpg,GW/globe.jpg,1,,,
null,,html-keyboard-response,2726407,<p></p>,,,,null,,,,,,,,,,,,,,
1771.2999999970198,,directmemory_phase,2728181,GW/barrel.jpg,,,,49,,,1,0.42857142857142855,GW/jukebox.jpg,GW/teeth.jpg,GW/globe.jpg,GW/jukebox.jpg,GW/globe.jpg,GW/teeth.jpg,1,,,
null,,html-keyboard-response,2729185,<p></p>,,,,null,,,,,,,,,,,,,,
2027.7000000029802,,directmemory_phase,2731215,GW/camera.jpg,,,,50,,,0,0.4,GW/wheelchair.jpg,GW/barrel.jpg,GW/hat.jpg,GW/hat.jpg,GW/barrel.jpg,GW/wheelchair.jpg,0.5,closer,,
null,,html-keyboard-response,2732225,<p></p>,,,,null,,,,,,,,,,,,,,
1672.2000000029802,,directmemory_phase,2733899,GW/jukebox.jpg,,,,49,,,1,0.4375,GW/barrel.jpg,GW/teeth.jpg,GW/dustpan.jpg,GW/barrel.jpg,GW/dustpan.jpg,GW/teeth.jpg,1,,,
null,,html-keyboard-response,2734917,<p></p>,,,,null,,,,,,,,,,,,,,
1597.7999999970198,,directmemory_phase,2736517,GW/soldier.jpg,,,,50,,,0,0.4117647058823529,GW/camera.jpg,GW/paint.jpg,GW/jukebox.jpg,GW/camera.jpg,GW/jukebox.jpg,GW/paint.jpg,0.5,closer,,
null,,html-keyboard-response,2737531,<p></p>,,,,null,,,,,,,,,,,,,,
1849.5,,directmemory_phase,2739383,GW/basket.jpg,,,,50,,,0,0.3888888888888889,GW/paint.jpg,GW/jukebox.jpg,GW/dustpan.jpg,GW/paint.jpg,GW/dustpan.jpg,GW/jukebox.jpg,0.5,closer,,
null,,html-keyboard-response,2740396,<p></p>,,,,null,,,,,,,,,,,,,,
1839.4000000059605,,directmemory_phase,2742238,GW/jukebox.jpg,,,,51,,,1,0.42105263157894735,GW/basket.jpg,GW/dustpan.jpg,GW/camera.jpg,GW/camera.jpg,GW/dustpan.jpg,GW/basket.jpg,1,,,
null,,html-keyboard-response,2743251,<p></p>,,,,null,,,,,,,,,,,,,,
1233.9000000059605,,directmemory_phase,2744488,GW/snail.jpg,,,,50,,,1,0.45,GW/gong.jpg,GW/teeth.jpg,GW/jukebox.jpg,GW/teeth.jpg,GW/gong.jpg,GW/jukebox.jpg,1,,,
null,,html-keyboard-response,2745498,<p></p>,,,,null,,,,,,,,,,,,,,
1171.5999999940395,,directmemory_phase,2746673,GW/gong.jpg,,,,51,,,1,0.47619047619047616,GW/globe.jpg,GW/teeth.jpg,GW/wheelchair.jpg,GW/wheelchair.jpg,GW/teeth.jpg,GW/globe.jpg,1,,,
null,,html-keyboard-response,2747677,<p></p>,,,,null,,,,,,,,,,,,,,
1457.300000011921,,directmemory_phase,2749137,GW/snail.jpg,,,,49,,,0,0.45454545454545453,GW/paint.jpg,GW/basket.jpg,GW/soldier.jpg,GW/soldier.jpg,GW/basket.jpg,GW/paint.jpg,0.5,closer,,
null,,html-keyboard-response,2750149,<p></p>,,,,null,,,,,,,,,,,,,,
1370,,directmemory_phase,2751522,GW/basket.jpg,,,,50,,,0,0.43478260869565216,GW/soldier.jpg,GW/gong.jpg,GW/wheelchair.jpg,GW/wheelchair.jpg,GW/gong.jpg,GW/soldier.jpg,0.5,closer,,
null,,html-keyboard-response,2752528,<p></p>,,,,null,,,,,,,,,,,,,,
2121.2000000029802,,directmemory_phase,2754652,GW/globe.jpg,,,,49,,,0,0.4166666666666667,GW/snail.jpg,GW/barrel.jpg,GW/jukebox.jpg,GW/jukebox.jpg,GW/barrel.jpg,GW/snail.jpg,0.5,closer,,
null,,html-keyboard-response,2755658,<p></p>,,,,null,,,,,,,,,,,,,,
1502.0999999940395,,directmemory_phase,2757164,GW/wheelchair.jpg,,,,50,,,1,0.44,GW/dustpan.jpg,GW/basket.jpg,GW/globe.jpg,GW/basket.jpg,GW/dustpan.jpg,GW/globe.jpg,1,,,
null,,html-keyboard-response,2758178,<p></p>,,,,null,,,,,,,,,,,,,,
2407.6000000089407,,directmemory_phase,2760589,GW/soldier.jpg,,,,51,,,1,0.46153846153846156,GW/barrel.jpg,GW/wheelchair.jpg,GW/dustpan.jpg,GW/dustpan.jpg,GW/wheelchair.jpg,GW/barrel.jpg,1,,,
null,,html-keyboard-response,2761597,<p></p>,,,,null,,,,,,,,,,,,,,
1787.5999999940395,,directmemory_phase,2763388,GW/paint.jpg,,,,49,,,1,0.48148148148148145,GW/basket.jpg,GW/globe.jpg,GW/teeth.jpg,GW/basket.jpg,GW/teeth.jpg,GW/globe.jpg,1,,,
null,,html-keyboard-response,2764400,<p></p>,,,,null,,,,,,,,,,,,,,
1768.5999999940395,,directmemory_phase,2766172,GW/dustpan.jpg,,,,50,,,0,0.4642857142857143,GW/teeth.jpg,GW/hat.jpg,GW/wheelchair.jpg,GW/teeth.jpg,GW/wheelchair.jpg,GW/hat.jpg,0.5,closer,,
null,,html-keyboard-response,2767182,<p></p>,,,,null,,,,,,,,,,,,,,
2072.1000000089407,,directmemory_phase,2769257,GW/wheelchair.jpg,,,,49,,,0,0.4482758620689655,GW/camera.jpg,GW/soldier.jpg,GW/gong.jpg,GW/gong.jpg,GW/soldier.jpg,GW/camera.jpg,0.5,closer,,
null,,html-keyboard-response,2770269,<p></p>,,,,null,,,,,,,,,,,,,,
1742.7000000029802,,directmemory_phase,2772014,GW/teeth.jpg,,,,51,,,0,0.43333333333333335,GW/gong.jpg,GW/dustpan.jpg,GW/camera.jpg,GW/dustpan.jpg,GW/gong.jpg,GW/camera.jpg,0.5,closer,,
null,,html-keyboard-response,2773027,<p></p>,,,,null,,,,,,,,,,,,,,
2077.7000000029802,,directmemory_phase,2775108,GW/snail.jpg,,,,50,,,0,0.41935483870967744,GW/paint.jpg,GW/gong.jpg,GW/wheelchair.jpg,GW/wheelchair.jpg,GW/gong.jpg,GW/paint.jpg,0.5,closer,,
null,,html-keyboard-response,2776124,<p></p>,,,,null,,,,,,,,,,,,,,
2443.9000000059605,,directmemory_phase,2778571,GW/basket.jpg,,,,50,,,0,0.40625,GW/teeth.jpg,GW/jukebox.jpg,GW/dustpan.jpg,GW/teeth.jpg,GW/dustpan.jpg,GW/jukebox.jpg,0.5,closer,,
null,,html-keyboard-response,2779584,<p></p>,,,,null,,,,,,,,,,,,,,
345569.700000003,,intro_1,3125156,instruct,,0,,,,,,,,,,,,,,,,
25739.19999998808,,intro_2,3150903,instruct,,1,Next,,,,,,,,,,,,,,,
2545.3999999910593,,intro_3,3153453,instruct,,1,Next,,,,,,,,,,,,,,,
20995.10000000894,,intro_4,3174452,instruct,,1,Next,,,,,,,,,,,,,,,
68862.29999999702,,intro_5,3243320,instruct,,1,Next,,,,,,,,,,,,,,,
26154.59999999404,,intro_6,3269483,instruct,,1,Next,,,,,,,,,,,,,,,
148468,,intro_7,3417957,instruct,,1,Next,,,,,,,,,,,,,,,
63024.79999999702,,intro_8,3480985,instruct,,1,Next,,,,,,,,,,,,,,,
1581.699999988079,,shortestpath_phase,3482573,GW/barrel.jpg,,,,49,GW/gong.jpg,GW/snail.jpg,0,0,,,,GW/snail.jpg,,,,,Two Edge Diff,Four Edge Six Edge
null,,html-keyboard-response,3483584,<p></p>,,,,null,,,,,,,,,,,,,,
1325.5999999940395,,shortestpath_phase,3484912,GW/hat.jpg,,,,49,GW/gong.jpg,GW/soldier.jpg,0,0,,,,GW/soldier.jpg,,,,,Three Edge Diff,Two Edge Five Edge
null,,html-keyboard-response,3485929,<p></p>,,,,null,,,,,,,,,,,,,,
1476.800000011921,,shortestpath_phase,3487408,GW/paint.jpg,,,,49,GW/globe.jpg,GW/camera.jpg,1,0.3333333333333333,,,,GW/globe.jpg,,,,,One Edge Diff,Four Edge Five Edge
null,,html-keyboard-response,3488428,<p></p>,,,,null,,,,,,,,,,,,,,
1651.699999988079,,shortestpath_phase,3490082,GW/gong.jpg,,,,50,GW/teeth.jpg,GW/barrel.jpg,0,0.25,,,,GW/teeth.jpg,,,,,Four Edge Diff,Two Edge Six Edge
null,,html-keyboard-response,3491088,<p></p>,,,,null,,,,,,,,,,,,,,
1197.9000000059605,,shortestpath_phase,3492289,GW/basket.jpg,,,,50,GW/hat.jpg,GW/dustpan.jpg,1,0.4,,,,GW/dustpan.jpg,,,,,Three Edge Diff,Three Edge Six Edge
null,,html-keyboard-response,3493307,<p></p>,,,,null,,,,,,,,,,,,,,
955.8999999910593,,shortestpath_phase,3494265,GW/paint.jpg,,,,50,GW/camera.jpg,GW/teeth.jpg,1,0.5,,,,GW/teeth.jpg,,,,,Three Edge Diff,Two Edge Five Edge
null,,html-keyboard-response,3495273,<p></p>,,,,null,,,,,,,,,,,,,,
1578.2000000029802,,shortestpath_phase,3496854,GW/barrel.jpg,,,,50,GW/globe.jpg,GW/gong.jpg,0,0.42857142857142855,,,,GW/globe.jpg,,,,,Four Edge Diff,Two Edge Six Edge
null,,html-keyboard-response,3497861,<p></p>,,,,null,,,,,,,,,,,,,,
1743.3999999910593,,shortestpath_phase,3499607,GW/snail.jpg,,,,49,GW/paint.jpg,GW/basket.jpg,0,0.375,,,,GW/basket.jpg,,,,,One Edge Diff,Two Edge Three Edge
null,,html-keyboard-response,3500615,<p></p>,,,,null,,,,,,,,,,,,,,
1125,,shortestpath_phase,3501742,GW/barrel.jpg,,,,50,GW/paint.jpg,GW/wheelchair.jpg,1,0.4444444444444444,,,,GW/wheelchair.jpg,,,,,One Edge Diff,Five Edge Six Edge
null,,html-keyboard-response,3502749,<p></p>,,,,null,,,,,,,,,,,,,,
1960.199999988079,,shortestpath_phase,3504712,GW/gong.jpg,,,,49,GW/hat.jpg,GW/teeth.jpg,0,0.4,,,,GW/teeth.jpg,,,,,Three Edge Diff,Two Edge Five Edge
null,,html-keyboard-response,3505720,<p></p>,,,,null,,,,,,,,,,,,,,
1450.5999999940395,,shortestpath_phase,3507172,GW/barrel.jpg,,,,50,GW/basket.jpg,GW/gong.jpg,0,0.36363636363636365,,,,GW/basket.jpg,,,,,One Edge Diff,Five Edge Six Edge
null,,html-keyboard-response,3508180,<p></p>,,,,null,,,,,,,,,,,,,,
1774.2999999970198,,shortestpath_phase,3509957,GW/camera.jpg,,,,50,GW/teeth.jpg,GW/gong.jpg,0,0.3333333333333333,,,,GW/teeth.jpg,,,,,One Edge Diff,Three Edge Four Edge
null,,html-keyboard-response,3510963,<p></p>,,,,null,,,,,,,,,,,,,,
1803.2999999970198,,shortestpath_phase,3512770,GW/hat.jpg,,,,49,GW/basket.jpg,GW/globe.jpg,0,0.3076923076923077,,,,GW/globe.jpg,,,,,Two Edge Diff,Three Edge Five Edge
null,,html-keyboard-response,3513780,<p></p>,,,,null,,,,,,,,,,,,,,
1585,,shortestpath_phase,3515368,GW/paint.jpg,,,,49,GW/hat.jpg,GW/teeth.jpg,0,0.2857142857142857,,,,GW/teeth.jpg,,,,,Four Edge Diff,Two Edge Six Edge
null,,html-keyboard-response,3516376,<p></p>,,,,null,,,,,,,,,,,,,,
1195.7999999970198,,shortestpath_phase,3517574,GW/barrel.jpg,,,,50,GW/paint.jpg,GW/globe.jpg,1,0.3333333333333333,,,,GW/globe.jpg,,,,,Four Edge Diff,Two Edge Six Edge
null,,html-keyboard-response,3518586,<p></p>,,,,null,,,,,,,,,,,,,,
1840.8999999910593,,shortestpath_phase,3520430,GW/gong.jpg,,,,49,GW/camera.jpg,GW/basket.jpg,0,0.3125,,,,GW/basket.jpg,,,,,Two Edge Diff,Two Edge Four Edge
null,,html-keyboard-response,3521443,<p></p>,,,,null,,,,,,,,,,,,,,
1247.2999999970198,,shortestpath_phase,3522693,GW/barrel.jpg,,,,50,GW/paint.jpg,GW/teeth.jpg,1,0.35294117647058826,,,,GW/teeth.jpg,,,,,Two Edge Diff,Four Edge Six Edge
null,,html-keyboard-response,3523702,<p></p>,,,,null,,,,,,,,,,,,,,
1260.2999999970198,,shortestpath_phase,3524965,GW/hat.jpg,,,,49,GW/paint.jpg,GW/gong.jpg,0,0.3333333333333333,,,,GW/gong.jpg,,,,,One Edge Diff,Five Edge Six Edge
null,,html-keyboard-response,3525984,<p></p>,,,,null,,,,,,,,,,,,,,
1378.9000000059605,,shortestpath_phase,3527366,GW/barrel.jpg,,,,49,GW/wheelchair.jpg,GW/camera.jpg,0,0.3157894736842105,,,,GW/camera.jpg,,,,,Three Edge Diff,Three Edge Six Edge
null,,html-keyboard-response,3528385,<p></p>,,,,null,,,,,,,,,,,,,,
1799.7000000029802,,shortestpath_phase,3530188,GW/gong.jpg,,,,49,GW/hat.jpg,GW/basket.jpg,0,0.3,,,,GW/basket.jpg,,,,,Three Edge Diff,Three Edge Six Edge
null,,html-keyboard-response,3531195,<p></p>,,,,null,,,,,,,,,,,,,,
1099.9000000059605,,shortestpath_phase,3532298,GW/soldier.jpg,,,,50,GW/barrel.jpg,GW/paint.jpg,0,0.2857142857142857,,,,GW/barrel.jpg,,,,,One Edge Diff,Three Edge Four Edge
null,,html-keyboard-response,3533309,<p></p>,,,,null,,,,,,,,,,,,,,
1208,,shortestpath_phase,3534520,GW/dustpan.jpg,,,,50,GW/gong.jpg,GW/basket.jpg,1,0.3181818181818182,,,,GW/basket.jpg,,,,,One Edge Diff,Two Edge Three Edge
null,,html-keyboard-response,3535532,<p></p>,,,,null,,,,,,,,,,,,,,
1663.1000000089407,,shortestpath_phase,3537198,GW/wheelchair.jpg,,,,50,GW/hat.jpg,GW/paint.jpg,1,0.34782608695652173,,,,GW/paint.jpg,,,,,Two Edge Diff,Two Edge Four Edge
null,,html-keyboard-response,3538212,<p></p>,,,,null,,,,,,,,,,,,,,
1420.7999999970198,,shortestpath_phase,3539636,GW/barrel.jpg,,,,49,GW/wheelchair.jpg,GW/hat.jpg,0,0.3333333333333333,,,,GW/hat.jpg,,,,,Two Edge Diff,Three Edge Five Edge
null,,html-keyboard-response,3540648,<p></p>,,,,null,,,,,,,,,,,,,,
1559.2000000029802,,shortestpath_phase,3542209,GW/paint.jpg,,,,50,GW/soldier.jpg,GW/camera.jpg,0,0.32,,,,GW/soldier.jpg,,,,,One Edge Diff,Four Edge Five Edge
null,,html-keyboard-response,3543218,<p></p>,,,,null,,,,,,,,,,,,,,
1952.2999999970198,,shortestpath_phase,3545173,GW/camera.jpg,,,,50,GW/globe.jpg,GW/wheelchair.jpg,0,0.3076923076923077,,,,GW/globe.jpg,,,,,One Edge Diff,Two Edge Three Edge
null,,html-keyboard-response,3546195,<p></p>,,,,null,,,,,,,,,,,,,,
1164.7999999970198,,shortestpath_phase,3547362,GW/teeth.jpg,,,,49,GW/hat.jpg,GW/gong.jpg,0,0.2962962962962963,,,,GW/gong.jpg,,,,,Two Edge Diff,Two Edge Four Edge
null,,html-keyboard-response,3548368,<p></p>,,,,null,,,,,,,,,,,,,,
2101.2000000029802,,shortestpath_phase,3550471,GW/barrel.jpg,,,,49,GW/hat.jpg,GW/basket.jpg,1,0.32142857142857145,,,,GW/hat.jpg,,,,,Two Edge Diff,Three Edge Five Edge
null,,html-keyboard-response,3551490,<p></p>,,,,null,,,,,,,,,,,,,,
1209.6000000089407,,shortestpath_phase,3552703,GW/globe.jpg,,,,50,GW/wheelchair.jpg,GW/paint.jpg,0,0.3103448275862069,,,,GW/wheelchair.jpg,,,,,One Edge Diff,Three Edge Four Edge
null,,html-keyboard-response,3553709,<p></p>,,,,null,,,,,,,,,,,,,,
1603.5,,shortestpath_phase,3555315,GW/barrel.jpg,,,,50,GW/dustpan.jpg,GW/snail.jpg,0,0.3,,,,GW/dustpan.jpg,,,,,One Edge Diff,Three Edge Four Edge
null,,html-keyboard-response,3556332,<p></p>,,,,null,,,,,,,,,,,,,,
2177.1000000089407,,shortestpath_phase,3558513,GW/paint.jpg,,,,49,GW/barrel.jpg,GW/wheelchair.jpg,0,0.2903225806451613,,,,GW/wheelchair.jpg,,,,,Four Edge Diff,Two Edge Six Edge
null,,html-keyboard-response,3559528,<p></p>,,,,null,,,,,,,,,,,,,,
2020.4000000059605,,shortestpath_phase,3561552,GW/barrel.jpg,,,,50,GW/teeth.jpg,GW/gong.jpg,0,0.28125,,,,GW/teeth.jpg,,,,,Two Edge Diff,Four Edge Six Edge
null,,html-keyboard-response,3562563,<p></p>,,,,null,,,,,,,,,,,,,,
1372.7000000029802,,shortestpath_phase,3563937,GW/paint.jpg,,,,49,GW/globe.jpg,GW/jukebox.jpg,1,0.30303030303030304,,,,GW/globe.jpg,,,,,One Edge Diff,Four Edge Five Edge
null,,html-keyboard-response,3564945,<p></p>,,,,null,,,,,,,,,,,,,,
1932.6000000089407,,shortestpath_phase,3566880,GW/barrel.jpg,,,,50,GW/camera.jpg,GW/paint.jpg,0,0.29411764705882354,,,,GW/camera.jpg,,,,,Four Edge Diff,Two Edge Six Edge
null,,html-keyboard-response,3567888,<p></p>,,,,null,,,,,,,,,,,,,,
3413.199999988079,,shortestpath_phase,3571305,GW/basket.jpg,,,,50,GW/soldier.jpg,GW/hat.jpg,0,0.2857142857142857,,,,GW/soldier.jpg,,,,,Two Edge Diff,Three Edge Five Edge
null,,html-keyboard-response,3572310,<p></p>,,,,null,,,,,,,,,,,,,,
1440.7999999970198,,shortestpath_phase,3573753,GW/paint.jpg,,,,50,GW/camera.jpg,GW/wheelchair.jpg,1,0.3055555555555556,,,,GW/wheelchair.jpg,,,,,Three Edge Diff,Three Edge Six Edge
null,,html-keyboard-response,3574767,<p></p>,,,,null,,,,,,,,,,,,,,
1179.1000000089407,,shortestpath_phase,3575949,GW/gong.jpg,,,,49,GW/jukebox.jpg,GW/teeth.jpg,0,0.2972972972972973,,,,GW/teeth.jpg,,,,,Three Edge Diff,Three Edge Six Edge
null,,html-keyboard-response,3576955,<p></p>,,,,null,,,,,,,,,,,,,,
1406,,shortestpath_phase,3578364,GW/dustpan.jpg,,,,49,GW/hat.jpg,GW/camera.jpg,0,0.2894736842105263,,,,GW/camera.jpg,,,,,One Edge Diff,Two Edge Three Edge
null,,html-keyboard-response,3579373,<p></p>,,,,null,,,,,,,,,,,,,,
1932.199999988079,,shortestpath_phase,3581308,GW/hat.jpg,,,,49,GW/basket.jpg,GW/wheelchair.jpg,0,0.28205128205128205,,,,GW/wheelchair.jpg,,,,,One Edge Diff,Four Edge Five Edge
null,,html-keyboard-response,3582323,<p></p>,,,,null,,,,,,,,,,,,,,
1534.7000000029802,,shortestpath_phase,3583861,GW/paint.jpg,,,,49,GW/soldier.jpg,GW/barrel.jpg,1,0.3,,,,GW/soldier.jpg,,,,,Two Edge Diff,Four Edge Six Edge
null,,html-keyboard-response,3584871,<p></p>,,,,null,,,,,,,,,,,,,,
1524.199999988079,,shortestpath_phase,3586398,GW/jukebox.jpg,,,,50,GW/paint.jpg,GW/hat.jpg,1,0.3170731707317073,,,,GW/hat.jpg,,,,,Three Edge Diff,Two Edge Five Edge
null,,html-keyboard-response,3587404,<p></p>,,,,null,,,,,,,,,,,,,,
2657,,shortestpath_phase,3590064,GW/paint.jpg,,,,49,GW/teeth.jpg,GW/barrel.jpg,1,0.3333333333333333,,,,GW/teeth.jpg,,,,,Four Edge Diff,Two Edge Six Edge
null,,html-keyboard-response,3591073,<p></p>,,,,null,,,,,,,,,,,,,,
1872.8999999910593,,shortestpath_phase,3592948,GW/basket.jpg,,,,50,GW/barrel.jpg,GW/camera.jpg,1,0.3488372093023256,,,,GW/camera.jpg,,,,,One Edge Diff,Four Edge Five Edge
null,,html-keyboard-response,3593964,<p></p>,,,,null,,,,,,,,,,,,,,
1856.800000011921,,shortestpath_phase,3595824,GW/paint.jpg,,,,49,GW/hat.jpg,GW/jukebox.jpg,0,0.3409090909090909,,,,GW/jukebox.jpg,,,,,One Edge Diff,Five Edge Six Edge
null,,html-keyboard-response,3596832,<p></p>,,,,null,,,,,,,,,,,,,,
1664.2999999970198,,shortestpath_phase,3598499,GW/hat.jpg,,,,50,GW/teeth.jpg,GW/paint.jpg,0,0.3333333333333333,,,,GW/teeth.jpg,,,,,Two Edge Diff,Four Edge Six Edge
null,,html-keyboard-response,3599513,<p></p>,,,,null,,,,,,,,,,,,,,
1257.5,,shortestpath_phase,3600773,GW/paint.jpg,,,,49,GW/soldier.jpg,GW/gong.jpg,0,0.32608695652173914,,,,GW/gong.jpg,,,,,One Edge Diff,Three Edge Four Edge
null,,html-keyboard-response,3601794,<p></p>,,,,null,,,,,,,,,,,,,,
1963.7000000029802,,shortestpath_phase,3603760,GW/hat.jpg,,,,49,GW/paint.jpg,GW/wheelchair.jpg,0,0.3191489361702128,,,,GW/wheelchair.jpg,,,,,Two Edge Diff,Four Edge Six Edge
null,,html-keyboard-response,3604767,<p></p>,,,,null,,,,,,,,,,,,,,
1955.7000000029802,,shortestpath_phase,3606725,GW/gong.jpg,,,,50,GW/paint.jpg,GW/camera.jpg,0,0.3125,,,,GW/paint.jpg,,,,,One Edge Diff,Three Edge Four Edge
null,,html-keyboard-response,3607733,<p></p>,,,,null,,,,,,,,,,,,,,
1350.4000000059605,,shortestpath_phase,3609086,GW/teeth.jpg,,,,49,GW/camera.jpg,GW/hat.jpg,1,0.32653061224489793,,,,GW/camera.jpg,,,,,One Edge Diff,Three Edge Four Edge
null,,html-keyboard-response,3610095,<p></p>,,,,null,,,,,,,,,,,,,,
2002.8999999910593,,shortestpath_phase,3612101,GW/hat.jpg,,,,50,GW/jukebox.jpg,GW/paint.jpg,0,0.32,,,,GW/jukebox.jpg,,,,,Four Edge Diff,Two Edge Six Edge
null,,html-keyboard-response,3613115,<p></p>,,,,null,,,,,,,,,,,,,,
1545,,shortestpath_phase,3614663,GW/dustpan.jpg,,,,50,GW/hat.jpg,GW/snail.jpg,1,0.3333333333333333,,,,GW/snail.jpg,,,,,One Edge Diff,Two Edge Three Edge
null,,html-keyboard-response,3615669,<p></p>,,,,null,,,,,,,,,,,,,,
1663.300000011921,,shortestpath_phase,3617336,GW/hat.jpg,,,,49,GW/soldier.jpg,GW/wheelchair.jpg,1,0.34615384615384615,,,,GW/soldier.jpg,,,,,Two Edge Diff,Two Edge Four Edge
null,,html-keyboard-response,3618347,<p></p>,,,,null,,,,,,,,,,,,,,
1272.9000000059605,,shortestpath_phase,3619623,GW/gong.jpg,,,,49,GW/jukebox.jpg,GW/dustpan.jpg,0,0.33962264150943394,,,,GW/dustpan.jpg,,,,,Two Edge Diff,Three Edge Five Edge
null,,html-keyboard-response,3620629,<p></p>,,,,null,,,,,,,,,,,,,,
1884.4000000059605,,shortestpath_phase,3622517,GW/hat.jpg,,,,50,GW/wheelchair.jpg,GW/jukebox.jpg,1,0.35185185185185186,,,,GW/jukebox.jpg,,,,,Two Edge Diff,Two Edge Four Edge
null,,html-keyboard-response,3623529,<p></p>,,,,null,,,,,,,,,,,,,,
1695.199999988079,,shortestpath_phase,3625227,GW/camera.jpg,,,,49,GW/barrel.jpg,GW/paint.jpg,1,0.36363636363636365,,,,GW/barrel.jpg,,,,,Three Edge Diff,Two Edge Five Edge
null,,html-keyboard-response,3626240,<p></p>,,,,null,,,,,,,,,,,,,,
2360.9000000059605,,shortestpath_phase,3628604,GW/globe.jpg,,,,49,GW/hat.jpg,GW/paint.jpg,1,0.375,,,,GW/hat.jpg,,,,,One Edge Diff,Three Edge Four Edge
null,,html-keyboard-response,3629617,<p></p>,,,,null,,,,,,,,,,,,,,
1405.2000000029802,,shortestpath_phase,3631025,GW/gong.jpg,,,,49,GW/barrel.jpg,GW/camera.jpg,0,0.3684210526315789,,,,GW/camera.jpg,,,,,Two Edge Diff,Four Edge Six Edge
null,,html-keyboard-response,3632041,<p></p>,,,,null,,,,,,,,,,,,,,
1229.6000000089407,,shortestpath_phase,3633274,GW/hat.jpg,,,,49,GW/dustpan.jpg,GW/teeth.jpg,1,0.3793103448275862,,,,GW/dustpan.jpg,,,,,One Edge Diff,Three Edge Four Edge
null,,html-keyboard-response,3634291,<p></p>,,,,null,,,,,,,,,,,,,,
1418.7000000029802,,shortestpath_phase,3635713,GW/snail.jpg,,,,50,GW/globe.jpg,GW/barrel.jpg,0,0.3728813559322034,,,,GW/globe.jpg,,,,,One Edge Diff,Three Edge Four Edge
null,,html-keyboard-response,3636721,<p></p>,,,,null,,,,,,,,,,,,,,
930.3999999910593,,shortestpath_phase,3637657,GW/basket.jpg,,,,49,GW/dustpan.jpg,GW/barrel.jpg,1,0.38333333333333336,,,,GW/dustpan.jpg,,,,,Three Edge Diff,Two Edge Five Edge
null,,html-keyboard-response,3638672,<p></p>,,,,null,,,,,,,,,,,,,,
1497.2000000029802,,shortestpath_phase,3640172,GW/barrel.jpg,,,,50,GW/paint.jpg,GW/snail.jpg,1,0.39344262295081966,,,,GW/snail.jpg,,,,,Two Edge Diff,Four Edge Six Edge
null,,html-keyboard-response,3641184,<p></p>,,,,null,,,,,,,,,,,,,,
1198.5,,shortestpath_phase,3642385,GW/hat.jpg,,,,49,GW/basket.jpg,GW/paint.jpg,1,0.4032258064516129,,,,GW/basket.jpg,,,,,One Edge Diff,Five Edge Six Edge
null,,html-keyboard-response,3643394,<p></p>,,,,null,,,,,,,,,,,,,,
1553.0999999940395,,shortestpath_phase,3644950,GW/snail.jpg,,,,49,GW/gong.jpg,GW/barrel.jpg,1,0.4126984126984127,,,,GW/gong.jpg,,,,,Two Edge Diff,Two Edge Four Edge
null,,html-keyboard-response,3645963,<p></p>,,,,null,,,,,,,,,,,,,,
1350.5999999940395,,shortestpath_phase,3647317,GW/paint.jpg,,,,50,GW/barrel.jpg,GW/jukebox.jpg,1,0.421875,,,,GW/jukebox.jpg,,,,,One Edge Diff,Five Edge Six Edge
null,,html-keyboard-response,3648334,<p></p>,,,,null,,,,,,,,,,,,,,
1266.3999999910593,,shortestpath_phase,3649603,GW/gong.jpg,,,,50,GW/basket.jpg,GW/barrel.jpg,0,0.4153846153846154,,,,GW/basket.jpg,,,,,Four Edge Diff,Two Edge Six Edge
null,,html-keyboard-response,3650618,<p></p>,,,,null,,,,,,,,,,,,,,
1532.9000000059605,,shortestpath_phase,3652154,GW/paint.jpg,,,,49,GW/barrel.jpg,GW/globe.jpg,0,0.4090909090909091,,,,GW/globe.jpg,,,,,Two Edge Diff,Four Edge Six Edge
null,,html-keyboard-response,3653172,<p></p>,,,,null,,,,,,,,,,,,,,
940.0999999940395,,shortestpath_phase,3654115,GW/gong.jpg,,,,49,GW/barrel.jpg,GW/jukebox.jpg,0,0.40298507462686567,,,,GW/jukebox.jpg,,,,,One Edge Diff,Five Edge Six Edge
null,,html-keyboard-response,3655130,<p></p>,,,,null,,,,,,,,,,,,,,
1264.0999999940395,,shortestpath_phase,3656397,GW/paint.jpg,,,,49,GW/hat.jpg,GW/wheelchair.jpg,0,0.39705882352941174,,,,GW/wheelchair.jpg,,,,,Four Edge Diff,Two Edge Six Edge
null,,html-keyboard-response,3657405,<p></p>,,,,null,,,,,,,,,,,,,,
1939.5999999940395,,shortestpath_phase,3659348,GW/camera.jpg,,,,49,GW/dustpan.jpg,GW/paint.jpg,1,0.4057971014492754,,,,GW/dustpan.jpg,,,,,Three Edge Diff,Three Edge Six Edge
null,,html-keyboard-response,3660357,<p></p>,,,,null,,,,,,,,,,,,,,
1303.6000000089407,,shortestpath_phase,3661663,GW/teeth.jpg,,,,50,GW/jukebox.jpg,GW/gong.jpg,1,0.4142857142857143,,,,GW/gong.jpg,,,,,One Edge Diff,Two Edge Three Edge
null,,html-keyboard-response,3662671,<p></p>,,,,null,,,,,,,,,,,,,,
2456,,shortestpath_phase,3665130,GW/globe.jpg,,,,49,GW/basket.jpg,GW/paint.jpg,1,0.4225352112676056,,,,GW/basket.jpg,,,,,One Edge Diff,Three Edge Four Edge
null,,html-keyboard-response,3666143,<p></p>,,,,null,,,,,,,,,,,,,,
1495.2999999970198,,shortestpath_phase,3667641,GW/jukebox.jpg,,,,50,GW/soldier.jpg,GW/gong.jpg,0,0.4166666666666667,,,,GW/soldier.jpg,,,,,Three Edge Diff,Two Edge Five Edge
null,,html-keyboard-response,3668647,<p></p>,,,,null,,,,,,,,,,,,,,
1905.4000000059605,,shortestpath_phase,3670555,GW/wheelchair.jpg,,,,50,GW/barrel.jpg,GW/hat.jpg,1,0.4246575342465753,,,,GW/hat.jpg,,,,,One Edge Diff,Four Edge Five Edge
null,,html-keyboard-response,3671575,<p></p>,,,,null,,,,,,,,,,,,,,
1397.5,,shortestpath_phase,3672975,GW/paint.jpg,,,,49,GW/gong.jpg,GW/camera.jpg,1,0.43243243243243246,,,,GW/gong.jpg,,,,,Two Edge Diff,Three Edge Five Edge
null,,html-keyboard-response,3673994,<p></p>,,,,null,,,,,,,,,,,,,,
1253.5,,shortestpath_phase,3675251,GW/wheelchair.jpg,,,,50,GW/soldier.jpg,GW/barrel.jpg,0,0.4266666666666667,,,,GW/soldier.jpg,,,,,Three Edge Diff,Three Edge Six Edge
null,,html-keyboard-response,3676261,<p></p>,,,,null,,,,,,,,,,,,,,
1072,,shortestpath_phase,3677336,GW/hat.jpg,,,,49,GW/snail.jpg,GW/gong.jpg,1,0.4342105263157895,,,,GW/snail.jpg,,,,,Two Edge Diff,Three Edge Five Edge
null,,html-keyboard-response,3678341,<p></p>,,,,null,,,,,,,,,,,,,,
1079.5,,shortestpath_phase,3679424,GW/dustpan.jpg,,,,49,GW/paint.jpg,GW/camera.jpg,0,0.42857142857142855,,,,GW/camera.jpg,,,,,One Edge Diff,Two Edge Three Edge
null,,html-keyboard-response,3680438,<p></p>,,,,null,,,,,,,,,,,,,,
1253.2000000029802,,shortestpath_phase,3681694,GW/hat.jpg,,,,49,GW/paint.jpg,GW/soldier.jpg,0,0.4230769230769231,,,,GW/soldier.jpg,,,,,Four Edge Diff,Two Edge Six Edge
null,,html-keyboard-response,3682702,<p></p>,,,,null,,,,,,,,,,,,,,
1327.2000000029802,,shortestpath_phase,3684032,GW/basket.jpg,,,,50,GW/camera.jpg,GW/hat.jpg,0,0.4177215189873418,,,,GW/camera.jpg,,,,,One Edge Diff,Four Edge Five Edge
null,,html-keyboard-response,3685046,<p></p>,,,,null,,,,,,,,,,,,,,
1858.5,,shortestpath_phase,3686907,GW/globe.jpg,,,,50,GW/gong.jpg,GW/soldier.jpg,1,0.425,,,,GW/soldier.jpg,,,,,Two Edge Diff,Two Edge Four Edge
null,,html-keyboard-response,3687921,<p></p>,,,,null,,,,,,,,,,,,,,
2303,,shortestpath_phase,3690227,GW/jukebox.jpg,,,,50,GW/dustpan.jpg,GW/gong.jpg,0,0.41975308641975306,,,,GW/dustpan.jpg,,,,,Three Edge Diff,Two Edge Five Edge
null,,html-keyboard-response,3691237,<p></p>,,,,null,,,,,,,,,,,,,,
1453.5999999940395,,shortestpath_phase,3692692,GW/soldier.jpg,,,,50,GW/gong.jpg,GW/hat.jpg,1,0.4268292682926829,,,,GW/hat.jpg,,,,,One Edge Diff,Two Edge Three Edge
null,,html-keyboard-response,3693709,<p></p>,,,,null,,,,,,,,,,,,,,
1040.1000000089407,,shortestpath_phase,3694752,GW/paint.jpg,,,,49,GW/hat.jpg,GW/camera.jpg,0,0.42168674698795183,,,,GW/camera.jpg,,,,,One Edge Diff,Five Edge Six Edge
null,,html-keyboard-response,3695758,<p></p>,,,,null,,,,,,,,,,,,,,
1709,,shortestpath_phase,3697469,GW/gong.jpg,,,,49,GW/soldier.jpg,GW/camera.jpg,1,0.42857142857142855,,,,GW/soldier.jpg,,,,,One Edge Diff,Three Edge Four Edge
null,,html-keyboard-response,3698476,<p></p>,,,,null,,,,,,,,,,,,,,
1607.7999999970198,,shortestpath_phase,3700087,GW/hat.jpg,,,,50,GW/jukebox.jpg,GW/gong.jpg,0,0.4235294117647059,,,,GW/jukebox.jpg,,,,,Three Edge Diff,Three Edge Six Edge
null,,html-keyboard-response,3701106,<p></p>,,,,null,,,,,,,,,,,,,,
1164,,shortestpath_phase,3702273,GW/paint.jpg,,,,49,GW/globe.jpg,GW/hat.jpg,1,0.43023255813953487,,,,GW/globe.jpg,,,,,Two Edge Diff,Four Edge Six Edge
null,,html-keyboard-response,3703277,<p></p>,,,,null,,,,,,,,,,,,,,
2537.5,,shortestpath_phase,3705818,GW/jukebox.jpg,,,,49,GW/hat.jpg,GW/paint.jpg,1,0.4367816091954023,,,,GW/hat.jpg,,,,,Three Edge Diff,Three Edge Six Edge
null,,html-keyboard-response,3706824,<p></p>,,,,null,,,,,,,,,,,,,,
1936.2999999970198,,shortestpath_phase,3708763,GW/barrel.jpg,,,,50,GW/paint.jpg,GW/basket.jpg,1,0.4431818181818182,,,,GW/basket.jpg,,,,,One Edge Diff,Five Edge Six Edge
null,,html-keyboard-response,3709781,<p></p>,,,,null,,,,,,,,,,,,,,
1785.9000000059605,,shortestpath_phase,3711570,GW/hat.jpg,,,,49,GW/gong.jpg,GW/soldier.jpg,0,0.43820224719101125,,,,GW/soldier.jpg,,,,,Three Edge Diff,Three Edge Six Edge
null,,html-keyboard-response,3712579,<p></p>,,,,null,,,,,,,,,,,,,,
1133,,shortestpath_phase,3713714,GW/basket.jpg,,,,50,GW/camera.jpg,GW/gong.jpg,1,0.4444444444444444,,,,GW/gong.jpg,,,,,Two Edge Diff,Two Edge Four Edge
null,,html-keyboard-response,3714726,<p></p>,,,,null,,,,,,,,,,,,,,
1466.7999999970198,,shortestpath_phase,3716195,GW/barrel.jpg,,,,49,GW/wheelchair.jpg,GW/camera.jpg,0,0.43956043956043955,,,,GW/camera.jpg,,,,,Three Edge Diff,Two Edge Five Edge
null,,html-keyboard-response,3717204,<p></p>,,,,null,,,,,,,,,,,,,,
1523,,shortestpath_phase,3718730,GW/gong.jpg,,,,50,GW/hat.jpg,GW/barrel.jpg,0,0.43478260869565216,,,,GW/hat.jpg,,,,,One Edge Diff,Five Edge Six Edge
null,,html-keyboard-response,3719749,<p></p>,,,,null,,,,,,,,,,,,,,
1603.7999999970198,,shortestpath_phase,3721356,GW/paint.jpg,,,,49,GW/jukebox.jpg,GW/soldier.jpg,0,0.43010752688172044,,,,GW/soldier.jpg,,,,,One Edge Diff,Four Edge Five Edge
null,,html-keyboard-response,3722371,<p></p>,,,,null,,,,,,,,,,,,,,
1596.5,,shortestpath_phase,3723971,GW/gong.jpg,,,,50,GW/globe.jpg,GW/hat.jpg,0,0.425531914893617,,,,GW/globe.jpg,,,,,One Edge Diff,Four Edge Five Edge
null,,html-keyboard-response,3724975,<p></p>,,,,null,,,,,,,,,,,,,,
2167.5,,shortestpath_phase,3727145,GW/paint.jpg,,,,50,GW/soldier.jpg,GW/hat.jpg,0,0.42105263157894735,,,,GW/soldier.jpg,,,,,Two Edge Diff,Four Edge Six Edge
null,,html-keyboard-response,3728156,<p></p>,,,,null,,,,,,,,,,,,,,
1097.4000000059605,,shortestpath_phase,3729258,GW/barrel.jpg,,,,49,GW/wheelchair.jpg,GW/gong.jpg,1,0.4270833333333333,,,,GW/wheelchair.jpg,,,,,One Edge Diff,Five Edge Six Edge
null,,html-keyboard-response,3730263,<p></p>,,,,null,,,,,,,,,,,,,,
1151.5999999940395,,shortestpath_phase,3731418,GW/globe.jpg,,,,49,GW/hat.jpg,GW/soldier.jpg,0,0.422680412371134,,,,GW/soldier.jpg,,,,,One Edge Diff,Two Edge Three Edge
null,,html-keyboard-response,3732436,<p></p>,,,,null,,,,,,,,,,,,,,
1299.1000000089407,,shortestpath_phase,3733738,GW/wheelchair.jpg,,,,50,GW/dustpan.jpg,GW/camera.jpg,0,0.41836734693877553,,,,GW/dustpan.jpg,,,,,One Edge Diff,Two Edge Three Edge
null,,html-keyboard-response,3734749,<p></p>,,,,null,,,,,,,,,,,,,,
1434.5,,shortestpath_phase,3736186,GW/globe.jpg,,,,49,GW/paint.jpg,GW/soldier.jpg,0,0.41414141414141414,,,,GW/soldier.jpg,,,,,Two Edge Diff,Two Edge Four Edge
null,,html-keyboard-response,3737193,<p></p>,,,,null,,,,,,,,,,,,,,
1838.7999999970198,,shortestpath_phase,3739035,GW/jukebox.jpg,,,,49,GW/gong.jpg,GW/hat.jpg,0,0.41,,,,GW/hat.jpg,,,,,Three Edge Diff,Three Edge Six Edge
null,,html-keyboard-response,3740048,<p></p>,,,,null,,,,,,,,,,,,,,
1155,,shortestpath_phase,3741206,GW/globe.jpg,,,,50,GW/camera.jpg,GW/paint.jpg,0,0.40594059405940597,,,,GW/camera.jpg,,,,,Two Edge Diff,Two Edge Four Edge
null,,html-keyboard-response,3742213,<p></p>,,,,null,,,,,,,,,,,,,,
1491.5999999940395,,shortestpath_phase,3743707,GW/soldier.jpg,,,,50,GW/jukebox.jpg,GW/barrel.jpg,0,0.4019607843137255,,,,GW/jukebox.jpg,,,,,One Edge Diff,Two Edge Three Edge
null,,html-keyboard-response,3744719,<p></p>,,,,null,,,,,,,,,,,,,,
1220.2000000029802,,shortestpath_phase,3745942,GW/camera.jpg,,,,49,GW/snail.jpg,GW/paint.jpg,1,0.4077669902912621,,,,GW/snail.jpg,,,,,Three Edge Diff,Three Edge Six Edge
null,,html-keyboard-response,3746961,<p></p>,,,,null,,,,,,,,,,,,,,
1419.5999999940395,,shortestpath_phase,3748383,GW/basket.jpg,,,,50,GW/barrel.jpg,GW/jukebox.jpg,1,0.41346153846153844,,,,GW/jukebox.jpg,,,,,One Edge Diff,Four Edge Five Edge
null,,html-keyboard-response,3749401,<p></p>,,,,null,,,,,,,,,,,,,,
1397.1000000089407,,shortestpath_phase,3750803,GW/gong.jpg,,,,49,GW/barrel.jpg,GW/snail.jpg,0,0.4095238095238095,,,,GW/snail.jpg,,,,,Four Edge Diff,Two Edge Six Edge
null,,html-keyboard-response,3751818,<p></p>,,,,null,,,,,,,,,,,,,,
1609.5,,shortestpath_phase,3753430,GW/barrel.jpg,,,,49,GW/soldier.jpg,GW/basket.jpg,1,0.41509433962264153,,,,GW/soldier.jpg,,,,,Two Edge Diff,Three Edge Five Edge
null,,html-keyboard-response,3754441,<p></p>,,,,null,,,,,,,,,,,,,,
1377,,shortestpath_phase,3755821,GW/paint.jpg,,,,50,GW/barrel.jpg,GW/camera.jpg,1,0.4205607476635514,,,,GW/camera.jpg,,,,,One Edge Diff,Five Edge Six Edge
null,,html-keyboard-response,3756829,<p></p>,,,,null,,,,,,,,,,,,,,
1730.5999999940395,,shortestpath_phase,3758563,GW/hat.jpg,,,,49,GW/basket.jpg,GW/dustpan.jpg,0,0.4166666666666667,,,,GW/dustpan.jpg,,,,,Two Edge Diff,Three Edge Five Edge
null,,html-keyboard-response,3759580,<p></p>,,,,null,,,,,,,,,,,,,,
1522.2999999970198,,shortestpath_phase,3761106,GW/gong.jpg,,,,50,GW/paint.jpg,GW/hat.jpg,0,0.41284403669724773,,,,GW/paint.jpg,,,,,Two Edge Diff,Three Edge Five Edge
null,,html-keyboard-response,3762112,<p></p>,,,,null,,,,,,,,,,,,,,
1553.5,,shortestpath_phase,3763669,GW/hat.jpg,,,,49,GW/teeth.jpg,GW/gong.jpg,1,0.41818181818181815,,,,GW/teeth.jpg,,,,,One Edge Diff,Four Edge Five Edge
null,,html-keyboard-response,3764685,<p></p>,,,,null,,,,,,,,,,,,,,
1237.2999999970198,,shortestpath_phase,3765925,GW/camera.jpg,,,,49,GW/wheelchair.jpg,GW/dustpan.jpg,0,0.4144144144144144,,,,GW/dustpan.jpg,,,,,One Edge Diff,Two Edge Three Edge
null,,html-keyboard-response,3766930,<p></p>,,,,null,,,,,,,,,,,,,,
1301.8999999910593,,shortestpath_phase,3768235,GW/gong.jpg,,,,50,GW/snail.jpg,GW/jukebox.jpg,0,0.4107142857142857,,,,GW/snail.jpg,,,,,Three Edge Diff,Two Edge Five Edge
null,,html-keyboard-response,3769248,<p></p>,,,,null,,,,,,,,,,,,,,
1086,,shortestpath_phase,3770337,GW/wheelchair.jpg,,,,49,GW/barrel.jpg,GW/globe.jpg,0,0.40707964601769914,,,,GW/globe.jpg,,,,,Two Edge Diff,Three Edge Five Edge
null,,html-keyboard-response,3771356,<p></p>,,,,null,,,,,,,,,,,,,,
1535.7000000029802,,shortestpath_phase,3772894,GW/barrel.jpg,,,,49,GW/camera.jpg,GW/gong.jpg,1,0.41228070175438597,,,,GW/camera.jpg,,,,,Four Edge Diff,Two Edge Six Edge
null,,html-keyboard-response,3773908,<p></p>,,,,null,,,,,,,,,,,,,,
1056.4000000059605,,shortestpath_phase,3774967,GW/gong.jpg,,,,50,GW/globe.jpg,GW/barrel.jpg,0,0.40869565217391307,,,,GW/globe.jpg,,,,,Two Edge Diff,Four Edge Six Edge
null,,html-keyboard-response,3775976,<p></p>,,,,null,,,,,,,,,,,,,,
1322.8999999910593,,shortestpath_phase,3777302,GW/jukebox.jpg,,,,50,GW/paint.jpg,GW/dustpan.jpg,1,0.41379310344827586,,,,GW/dustpan.jpg,,,,,Three Edge Diff,Two Edge Five Edge
null,,html-keyboard-response,3778309,<p></p>,,,,null,,,,,,,,,,,,,,
1236.8999999910593,,shortestpath_phase,3779549,GW/gong.jpg,,,,50,GW/hat.jpg,GW/camera.jpg,1,0.4188034188034188,,,,GW/camera.jpg,,,,,One Edge Diff,Four Edge Five Edge
null,,html-keyboard-response,3780557,<p></p>,,,,null,,,,,,,,,,,,,,
1109.7000000029802,,shortestpath_phase,3781669,GW/jukebox.jpg,,,,50,GW/dustpan.jpg,GW/wheelchair.jpg,0,0.4152542372881356,,,,GW/dustpan.jpg,,,,,Two Edge Diff,Two Edge Four Edge
null,,html-keyboard-response,3782678,<p></p>,,,,null,,,,,,,,,,,,,,
1864.3999999910593,,shortestpath_phase,3784546,GW/gong.jpg,,,,49,GW/snail.jpg,GW/hat.jpg,1,0.42016806722689076,,,,GW/snail.jpg,,,,,Three Edge Diff,Two Edge Five Edge
null,,html-keyboard-response,3785557,<p></p>,,,,null,,,,,,,,,,,,,,
1250.3999999910593,,shortestpath_phase,3786810,GW/camera.jpg,,,,50,GW/dustpan.jpg,GW/gong.jpg,0,0.4166666666666667,,,,GW/dustpan.jpg,,,,,Two Edge Diff,Two Edge Four Edge
null,,html-keyboard-response,3787814,<p></p>,,,,null,,,,,,,,,,,,,,
2326.5999999940395,,shortestpath_phase,3790143,,,,,49,,,1,0.4214876033057851,,,,,,,,,Two Edge Diff,Three Edge Five Edge
null,,html-keyboard-response,3791160,<p></p>,,,,null,,,,,,,,,,,,,,
142332.89999999106,,intro_1,3933497,instruct,,0,,,,,,,,,,,,,,,,
318658.5,,intro_2,4252160,instruct,,1,Next,,,,,,,,,,,,,,,
5483.70000000298,,intro_3,4257647,instruct,,1,Next,,,,,,,,,,,,,,,
