rt,responses,trial_type,time_elapsed,stimulus,graphorder,button_pressed,response,key_press,stimulus_left,stimulus_right,accuracy,cumulative_accuracy,stimulus_down_left,stimulus_down_mid,stimulus_down_right,stimulus_correct,stimulus_short,stimulus_far,weighted_accuracy,missedtrial,condition,specific_pairs
9766.200000047684,{worker_id:6831289b9c4e793dbdc40856},id_enter,9775,id_enter,GW/wheelchair.jpg; GW/soldier.jpg; GW/basket.jpg; GW/barrel.jpg; GW/gong.jpg; GW/dustpan.jpg; GW/camera.jpg; GW/paint.jpg; GW/hat.jpg; GW/teeth.jpg; GW/snail.jpg; GW/globe.jpg; GW/jukebox.jpg,,,,,,,,,,,,,,,,,
16678.5,,fullscreen,26460,fullscreen,,0,,,,,,,,,,,,,,,,
14522.5,,intro_1,40985,instruct,,0,,,,,,,,,,,,,,,,
27270.200000047684,,intro_2,68257,instruct,,1,Next,,,,,,,,,,,,,,,
16021.299999952316,,intro_3,84279,instruct,,1,Next,,,,,,,,,,,,,,,
null,,learn_prac_1,86285,lean_prac_1,,,,null,,,,,,,,,,,,,,
null,,html-keyboard-response,87291,<p></p>,,,,null,,,,,,,,,,,,,,
5647.200000047684,,intro_1,92940,instruct,,0,,,,,,,,,,,,,,,,
11178.299999952316,,intro_2,104120,instruct,,1,Next,,,,,,,,,,,,,,,
null,,learn_prac_2,106124,lean_prac_2,,,,null,,,,,,,,,,,,,,
null,,html-keyboard-response,107134,<p></p>,,,,null,,,,,,,,,,,,,,
3713.7000000476837,,intro_1,110850,instruct,,0,,,,,,,,,,,,,,,,
7962.600000023842,,intro_2,118815,instruct,,1,Next,,,,,,,,,,,,,,,
40435.800000071526,,intro_3,159252,instruct,,1,Next,,,,,,,,,,,,,,,
null,,prac_atten_color_black,159942,black_plus_sign,,,,null,,,,,,,,,,,,,,
null,,prac_atten_color,160676,prac_stop_color,,,,null,,,,,,,,,,,,,,
null,,prac_atten_color_black,162684,black_plus_sign,,,,null,,,,,,,,,,,,,,
11446.799999952316,,attentioncheck_help,174135,instruct,,,,32,,,,,,,,,,,,,,
null,,prac_atten_color_black,174816,black_plus_sign,,,,null,,,,,,,,,,,,,,
null,,prac_atten_color,175560,prac_stop_color,,,,null,,,,,,,,,,,,,,
304.60000002384186,,prac_atten_color_black,177565,black_plus_sign,,,,50,,,,,,,,,,,,,,
null,,prac_atten_color_black,178244,black_plus_sign,,,,null,,,,,,,,,,,,,,
575.8999999761581,,prac_atten_color,178828,prac_stop_color,,,,50,,,,,,,,,,,,,,
null,,prac_atten_color_black,180832,black_plus_sign,,,,null,,,,,,,,,,,,,,
null,,prac_atten_color_black,181668,black_plus_sign,,,,null,,,,,,,,,,,,,,
579,,prac_atten_color,182285,prac_stop_color,,,,49,,,,,,,,,,,,,,
null,,prac_atten_color_black,184288,black_plus_sign,,,,null,,,,,,,,,,,,,,
null,,prac_atten_color_black,185088,black_plus_sign,,,,null,,,,,,,,,,,,,,
null,,prac_atten_color,185514,prac_stop_color,,,,null,,,,,,,,,,,,,,
205.69999992847443,,prac_atten_color_black,187521,black_plus_sign,,,,50,,,,,,,,,,,,,,
null,,prac_atten_color_black,188522,black_plus_sign,,,,null,,,,,,,,,,,,,,
null,,prac_atten_color,189029,prac_stop_color,,,,null,,,,,,,,,,,,,,
54.10000002384186,,prac_atten_color_black,191037,black_plus_sign,,,,50,,,,,,,,,,,,,,
null,,prac_atten_color_black,191961,black_plus_sign,,,,null,,,,,,,,,,,,,,
674.5,,prac_atten_color,192986,prac_stop_color,,,,49,,,,,,,,,,,,,,
null,,prac_atten_color_black,194994,black_plus_sign,,,,null,,,,,,,,,,,,,,
null,,prac_atten_color_black,195382,black_plus_sign,,,,null,,,,,,,,,,,,,,
624.6999999284744,,prac_atten_color,196065,prac_stop_color,,,,50,,,,,,,,,,,,,,
null,,prac_atten_color_black,198073,black_plus_sign,,,,null,,,,,,,,,,,,,,
null,,prac_atten_color_black,198807,black_plus_sign,,,,null,,,,,,,,,,,,,,
546.7999999523163,,prac_atten_color,199875,prac_stop_color,,,,49,,,,,,,,,,,,,,
null,,prac_atten_color_black,201885,black_plus_sign,,,,null,,,,,,,,,,,,,,
null,,prac_atten_color_black,202242,black_plus_sign,,,,null,,,,,,,,,,,,,,
562.8000000715256,,prac_atten_color,203002,prac_stop_color,,,,49,,,,,,,,,,,,,,
null,,prac_atten_color_black,205017,black_plus_sign,,,,null,,,,,,,,,,,,,,
6676.700000047684,,attentioncheck_feedback,211697,cross_check_feedback,,0,,,,,,,,,,,,,,,,
21869.899999976158,,last_instruct,233568,instruct,,,,32,,,,,,,,,,,,,,
null,,learn_phase(without_color),235579,black_plus_sign,,,,null,GW/wheelchair.jpg,GW/soldier.jpg,,,,,,,,,,,,
null,,black_cross(without_color),236070,green,,,,null,GW/wheelchair.jpg,GW/soldier.jpg,,,,,,,,,,,,
null,,rt_plussign_withcolor,236588,green,,,,null,GW/wheelchair.jpg,GW/soldier.jpg,,,,,,,,,,,,
873.6000000238419,,rt_thecrossant_black,238108,black_plus_sign,,,,50,,,1,1,,,,,,,,,,
null,,color_black,238224,black_plus_sign,,,,null,,,,,,,,,,,,,,
null,,learn_phase(without_color),240230,black_plus_sign,,,,null,GW/hat.jpg,GW/snail.jpg,,,,,,,,,,,,
null,,black_cross(without_color),240696,green,,,,null,GW/hat.jpg,GW/snail.jpg,,,,,,,,,,,,
null,,rt_plussign_withcolor,241203,green,,,,null,GW/hat.jpg,GW/snail.jpg,,,,,,,,,,,,
1151.8999999761581,,rt_thecrossant_black,242745,black_plus_sign,,,,50,,,1,1,,,,,,,,,,
null,,color_black,242853,black_plus_sign,,,,null,,,,,,,,,,,,,,
null,,learn_phase(without_color),244861,black_plus_sign,,,,null,GW/soldier.jpg,GW/barrel.jpg,,,,,,,,,,,,
null,,black_cross(without_color),245411,green,,,,null,GW/soldier.jpg,GW/barrel.jpg,,,,,,,,,,,,
null,,rt_plussign_withcolor,245919,green,,,,null,GW/soldier.jpg,GW/barrel.jpg,,,,,,,,,,,,
636.3999999761581,,rt_thecrossant_black,247388,black_plus_sign,,,,50,,,1,1,,,,,,,,,,
null,,color_black,247496,black_plus_sign,,,,null,,,,,,,,,,,,,,
null,,learn_phase(without_color),249507,black_plus_sign,,,,null,GW/barrel.jpg,GW/globe.jpg,,,,,,,,,,,,
null,,black_cross(without_color),250598,blue,,,,null,GW/barrel.jpg,GW/globe.jpg,,,,,,,,,,,,
null,,rt_plussign_withcolor,251108,blue,,,,null,GW/barrel.jpg,GW/globe.jpg,,,,,,,,,,,,
749.7999999523163,,rt_thecrossant_black,252044,black_plus_sign,,,,49,,,1,1,,,,,,,,,,
null,,color_black,252159,black_plus_sign,,,,null,,,,,,,,,,,,,,
null,,learn_phase(without_color),254168,black_plus_sign,,,,null,GW/dustpan.jpg,GW/camera.jpg,,,,,,,,,,,,
null,,black_cross(without_color),254704,blue,,,,null,GW/dustpan.jpg,GW/camera.jpg,,,,,,,,,,,,
null,,rt_plussign_withcolor,255212,blue,,,,null,GW/dustpan.jpg,GW/camera.jpg,,,,,,,,,,,,
1363.1999999284744,,rt_thecrossant_black,256701,black_plus_sign,,,,49,,,1,1,,,,,,,,,,
null,,color_black,256808,black_plus_sign,,,,null,,,,,,,,,,,,,,
null,,learn_phase(without_color),258820,black_plus_sign,,,,null,GW/paint.jpg,GW/hat.jpg,,,,,,,,,,,,
null,,black_cross(without_color),259915,blue,,,,null,GW/paint.jpg,GW/hat.jpg,,,,,,,,,,,,
null,,rt_plussign_withcolor,260424,blue,,,,null,GW/paint.jpg,GW/hat.jpg,,,,,,,,,,,,
692.2000000476837,,rt_thecrossant_black,261349,black_plus_sign,,,,49,,,1,1,,,,,,,,,,
null,,color_black,261465,black_plus_sign,,,,null,,,,,,,,,,,,,,
null,,learn_phase(without_color),263474,black_plus_sign,,,,null,GW/soldier.jpg,GW/basket.jpg,,,,,,,,,,,,
null,,black_cross(without_color),263975,blue,,,,null,GW/soldier.jpg,GW/basket.jpg,,,,,,,,,,,,
458.39999997615814,,rt_plussign_withcolor,264483,blue,,,,49,GW/soldier.jpg,GW/basket.jpg,,,,,,,,,,,,
null,,rt_thecrossant_black,266009,black_plus_sign,,,,null,,,1,1,,,,,,,,,,
null,,color_black,266117,black_plus_sign,,,,null,,,,,,,,,,,,,,
null,,learn_phase(without_color),268130,black_plus_sign,,,,null,GW/barrel.jpg,GW/globe.jpg,,,,,,,,,,,,
null,,black_cross(without_color),268737,blue,,,,null,GW/barrel.jpg,GW/globe.jpg,,,,,,,,,,,,
null,,rt_plussign_withcolor,269253,blue,,,,null,GW/barrel.jpg,GW/globe.jpg,,,,,,,,,,,,
692,,rt_thecrossant_black,270679,black_plus_sign,,,,49,,,1,1,,,,,,,,,,
null,,color_black,270786,black_plus_sign,,,,null,,,,,,,,,,,,,,
null,,learn_phase(without_color),272796,black_plus_sign,,,,null,GW/paint.jpg,GW/hat.jpg,,,,,,,,,,,,
null,,black_cross(without_color),273582,green,,,,null,GW/paint.jpg,GW/hat.jpg,,,,,,,,,,,,
501.89999997615814,,rt_plussign_withcolor,274088,green,,,,50,GW/paint.jpg,GW/hat.jpg,,,,,,,,,,,,
null,,rt_thecrossant_black,275324,black_plus_sign,,,,null,,,1,1,,,,,,,,,,
null,,color_black,275433,black_plus_sign,,,,null,,,,,,,,,,,,,,
null,,learn_phase(without_color),277441,black_plus_sign,,,,null,GW/soldier.jpg,GW/barrel.jpg,,,,,,,,,,,,
null,,black_cross(without_color),278083,green,,,,null,GW/soldier.jpg,GW/barrel.jpg,,,,,,,,,,,,
null,,rt_plussign_withcolor,278592,green,,,,null,GW/soldier.jpg,GW/barrel.jpg,,,,,,,,,,,,
2033.7999999523163,,rt_thecrossant_black,279972,black_plus_sign,,,,49,,,0,0.9,,,,,,,,,,
null,,color_black,280087,black_plus_sign,,,,null,,,,,,,,,,,,,,
null,,learn_phase(without_color),282093,black_plus_sign,,,,null,GW/basket.jpg,GW/dustpan.jpg,,,,,,,,,,,,
null,,black_cross(without_color),282693,green,,,,null,GW/basket.jpg,GW/dustpan.jpg,,,,,,,,,,,,
470,,rt_plussign_withcolor,283201,green,,,,50,GW/basket.jpg,GW/dustpan.jpg,,,,,,,,,,,,
null,,rt_thecrossant_black,284625,black_plus_sign,,,,null,,,1,0.9090909090909091,,,,,,,,,,
null,,color_black,284741,black_plus_sign,,,,null,,,,,,,,,,,,,,
null,,learn_phase(without_color),286749,black_plus_sign,,,,null,GW/dustpan.jpg,GW/camera.jpg,,,,,,,,,,,,
null,,black_cross(without_color),287207,blue,,,,null,GW/dustpan.jpg,GW/camera.jpg,,,,,,,,,,,,
null,,rt_plussign_withcolor,287716,blue,,,,null,GW/dustpan.jpg,GW/camera.jpg,,,,,,,,,,,,
822.3999999761581,,rt_thecrossant_black,289275,black_plus_sign,,,,49,,,1,0.9166666666666666,,,,,,,,,,
null,,color_black,289383,black_plus_sign,,,,null,,,,,,,,,,,,,,
null,,learn_phase(without_color),291399,black_plus_sign,,,,null,GW/paint.jpg,GW/teeth.jpg,,,,,,,,,,,,
null,,black_cross(without_color),292199,green,,,,null,GW/paint.jpg,GW/teeth.jpg,,,,,,,,,,,,
null,,rt_plussign_withcolor,292707,green,,,,null,GW/paint.jpg,GW/teeth.jpg,,,,,,,,,,,,
804.7999999523163,,rt_thecrossant_black,293936,black_plus_sign,,,,50,,,1,0.9230769230769231,,,,,,,,,,
null,,color_black,294043,black_plus_sign,,,,null,,,,,,,,,,,,,,
null,,learn_phase(without_color),296050,black_plus_sign,,,,null,GW/camera.jpg,GW/paint.jpg,,,,,,,,,,,,
null,,black_cross(without_color),296927,green,,,,null,GW/camera.jpg,GW/paint.jpg,,,,,,,,,,,,
null,,rt_plussign_withcolor,297444,green,,,,null,GW/camera.jpg,GW/paint.jpg,,,,,,,,,,,,
1012.7000000476837,,rt_thecrossant_black,298587,black_plus_sign,,,,50,,,1,0.9285714285714286,,,,,,,,,,
null,,color_black,298694,black_plus_sign,,,,null,,,,,,,,,,,,,,
null,,learn_phase(without_color),300703,black_plus_sign,,,,null,GW/dustpan.jpg,GW/hat.jpg,,,,,,,,,,,,
null,,black_cross(without_color),301496,blue,,,,null,GW/dustpan.jpg,GW/hat.jpg,,,,,,,,,,,,
null,,rt_plussign_withcolor,302005,blue,,,,null,GW/dustpan.jpg,GW/hat.jpg,,,,,,,,,,,,
1092.2999999523163,,rt_thecrossant_black,303221,black_plus_sign,,,,49,,,1,0.9333333333333333,,,,,,,,,,
null,,color_black,303337,black_plus_sign,,,,null,,,,,,,,,,,,,,
null,,learn_phase(without_color),305343,black_plus_sign,,,,null,GW/dustpan.jpg,GW/camera.jpg,,,,,,,,,,,,
null,,black_cross(without_color),306271,blue,,,,null,GW/dustpan.jpg,GW/camera.jpg,,,,,,,,,,,,
null,,rt_plussign_withcolor,306787,blue,,,,null,GW/dustpan.jpg,GW/camera.jpg,,,,,,,,,,,,
1120.1000000238419,,rt_thecrossant_black,307881,black_plus_sign,,,,49,,,1,0.9375,,,,,,,,,,
null,,color_black,307996,black_plus_sign,,,,null,,,,,,,,,,,,,,
null,,learn_phase(without_color),310002,black_plus_sign,,,,null,GW/paint.jpg,GW/teeth.jpg,,,,,,,,,,,,
null,,black_cross(without_color),310603,blue,,,,null,GW/paint.jpg,GW/teeth.jpg,,,,,,,,,,,,
424,,rt_plussign_withcolor,311112,blue,,,,49,GW/paint.jpg,GW/teeth.jpg,,,,,,,,,,,,
null,,rt_thecrossant_black,312524,black_plus_sign,,,,null,,,1,0.9411764705882353,,,,,,,,,,
null,,color_black,312639,black_plus_sign,,,,null,,,,,,,,,,,,,,
null,,learn_phase(without_color),314644,black_plus_sign,,,,null,GW/hat.jpg,GW/snail.jpg,,,,,,,,,,,,
null,,black_cross(without_color),315703,blue,,,,null,GW/hat.jpg,GW/snail.jpg,,,,,,,,,,,,
null,,rt_plussign_withcolor,316206,blue,,,,null,GW/hat.jpg,GW/snail.jpg,,,,,,,,,,,,
724.7999999523163,,rt_thecrossant_black,317159,black_plus_sign,,,,49,,,1,0.9444444444444444,,,,,,,,,,
null,,color_black,317267,black_plus_sign,,,,null,,,,,,,,,,,,,,
null,,learn_phase(without_color),319277,black_plus_sign,,,,null,GW/basket.jpg,GW/snail.jpg,,,,,,,,,,,,
null,,black_cross(without_color),320384,green,,,,null,GW/basket.jpg,GW/snail.jpg,,,,,,,,,,,,
null,,rt_plussign_withcolor,320891,green,,,,null,GW/basket.jpg,GW/snail.jpg,,,,,,,,,,,,
1536.2000000476837,,rt_thecrossant_black,321810,black_plus_sign,,,,50,,,1,0.9473684210526315,,,,,,,,,,
null,,color_black,321926,black_plus_sign,,,,null,,,,,,,,,,,,,,
null,,learn_phase(without_color),323934,black_plus_sign,,,,null,GW/hat.jpg,GW/snail.jpg,,,,,,,,,,,,
null,,black_cross(without_color),324640,green,,,,null,GW/hat.jpg,GW/snail.jpg,,,,,,,,,,,,
null,,rt_plussign_withcolor,325147,green,,,,null,GW/hat.jpg,GW/snail.jpg,,,,,,,,,,,,
1289.7000000476837,,rt_thecrossant_black,326458,black_plus_sign,,,,50,,,1,0.95,,,,,,,,,,
null,,color_black,326565,black_plus_sign,,,,null,,,,,,,,,,,,,,
null,,learn_phase(without_color),328574,black_plus_sign,,,,null,GW/basket.jpg,GW/snail.jpg,,,,,,,,,,,,
null,,black_cross(without_color),329133,blue,,,,null,GW/basket.jpg,GW/snail.jpg,,,,,,,,,,,,
null,,rt_plussign_withcolor,329641,blue,,,,null,GW/basket.jpg,GW/snail.jpg,,,,,,,,,,,,
1018.2999999523163,,rt_thecrossant_black,331110,black_plus_sign,,,,49,,,1,0.9523809523809523,,,,,,,,,,
null,,color_black,331226,black_plus_sign,,,,null,,,,,,,,,,,,,,
null,,learn_phase(without_color),333232,black_plus_sign,,,,null,GW/paint.jpg,GW/hat.jpg,,,,,,,,,,,,
null,,black_cross(without_color),333741,blue,,,,null,GW/paint.jpg,GW/hat.jpg,,,,,,,,,,,,
null,,rt_plussign_withcolor,334257,blue,,,,null,GW/paint.jpg,GW/hat.jpg,,,,,,,,,,,,
744.3000000715256,,rt_thecrossant_black,335763,black_plus_sign,,,,49,,,1,0.9545454545454546,,,,,,,,,,
null,,color_black,335870,black_plus_sign,,,,null,,,,,,,,,,,,,,
null,,learn_phase(without_color),337881,black_plus_sign,,,,null,GW/camera.jpg,GW/hat.jpg,,,,,,,,,,,,
null,,black_cross(without_color),338746,blue,,,,null,GW/camera.jpg,GW/hat.jpg,,,,,,,,,,,,
478,,rt_plussign_withcolor,339253,blue,,,,49,GW/camera.jpg,GW/hat.jpg,,,,,,,,,,,,
null,,rt_thecrossant_black,340415,black_plus_sign,,,,null,,,1,0.9565217391304348,,,,,,,,,,
null,,color_black,340530,black_plus_sign,,,,null,,,,,,,,,,,,,,
null,,learn_phase(without_color),342536,black_plus_sign,,,,null,GW/basket.jpg,GW/snail.jpg,,,,,,,,,,,,
null,,black_cross(without_color),343180,blue,,,,null,GW/basket.jpg,GW/snail.jpg,,,,,,,,,,,,
449.89999997615814,,rt_plussign_withcolor,343688,blue,,,,49,GW/basket.jpg,GW/snail.jpg,,,,,,,,,,,,
null,,rt_thecrossant_black,345058,black_plus_sign,,,,null,,,1,0.9583333333333334,,,,,,,,,,
null,,color_black,345174,black_plus_sign,,,,null,,,,,,,,,,,,,,
null,,learn_phase(without_color),347192,black_plus_sign,,,,null,GW/snail.jpg,GW/globe.jpg,,,,,,,,,,,,
null,,black_cross(without_color),348112,green,,,,null,GW/snail.jpg,GW/globe.jpg,,,,,,,,,,,,
null,,rt_plussign_withcolor,348619,green,,,,null,GW/snail.jpg,GW/globe.jpg,,,,,,,,,,,,
1335.3999999761581,,rt_thecrossant_black,349726,black_plus_sign,,,,49,,,0,0.92,,,,,,,,,,
null,,color_black,349832,black_plus_sign,,,,null,,,,,,,,,,,,,,
null,,learn_phase(without_color),351841,black_plus_sign,,,,null,GW/camera.jpg,GW/hat.jpg,,,,,,,,,,,,
null,,black_cross(without_color),352909,blue,,,,null,GW/camera.jpg,GW/hat.jpg,,,,,,,,,,,,
null,,rt_plussign_withcolor,353418,blue,,,,null,GW/camera.jpg,GW/hat.jpg,,,,,,,,,,,,
1897.6000000238419,,rt_thecrossant_black,354370,black_plus_sign,,,,49,,,1,0.9230769230769231,,,,,,,,,,
null,,color_black,354486,black_plus_sign,,,,null,,,,,,,,,,,,,,
null,,learn_phase(without_color),356495,black_plus_sign,,,,null,GW/basket.jpg,GW/dustpan.jpg,,,,,,,,,,,,
null,,black_cross(without_color),357533,blue,,,,null,GW/basket.jpg,GW/dustpan.jpg,,,,,,,,,,,,
null,,rt_plussign_withcolor,358043,blue,,,,null,GW/basket.jpg,GW/dustpan.jpg,,,,,,,,,,,,
1172.1000000238419,,rt_thecrossant_black,359014,black_plus_sign,,,,49,,,1,0.9259259259259259,,,,,,,,,,
null,,color_black,359121,black_plus_sign,,,,null,,,,,,,,,,,,,,
null,,learn_phase(without_color),361126,black_plus_sign,,,,null,GW/camera.jpg,GW/hat.jpg,,,,,,,,,,,,
null,,black_cross(without_color),361743,green,,,,null,GW/camera.jpg,GW/hat.jpg,,,,,,,,,,,,
null,,rt_plussign_withcolor,362245,green,,,,null,GW/camera.jpg,GW/hat.jpg,,,,,,,,,,,,
1257.8999999761581,,rt_thecrossant_black,363649,black_plus_sign,,,,50,,,1,0.9285714285714286,,,,,,,,,,
null,,color_black,363764,black_plus_sign,,,,null,,,,,,,,,,,,,,
null,,learn_phase(without_color),365775,black_plus_sign,,,,null,GW/camera.jpg,GW/jukebox.jpg,,,,,,,,,,,,
null,,black_cross(without_color),366267,blue,,,,null,GW/camera.jpg,GW/jukebox.jpg,,,,,,,,,,,,
478,,rt_plussign_withcolor,366774,blue,,,,49,GW/camera.jpg,GW/jukebox.jpg,,,,,,,,,,,,
null,,rt_thecrossant_black,368289,black_plus_sign,,,,null,,,1,0.9310344827586207,,,,,,,,,,
null,,color_black,368396,black_plus_sign,,,,null,,,,,,,,,,,,,,
null,,learn_phase(without_color),370403,black_plus_sign,,,,null,GW/camera.jpg,GW/paint.jpg,,,,,,,,,,,,
null,,black_cross(without_color),371332,blue,,,,null,GW/camera.jpg,GW/paint.jpg,,,,,,,,,,,,
null,,rt_plussign_withcolor,371840,blue,,,,null,GW/camera.jpg,GW/paint.jpg,,,,,,,,,,,,
808,,rt_thecrossant_black,372924,black_plus_sign,,,,49,,,1,0.9333333333333333,,,,,,,,,,
null,,color_black,373039,black_plus_sign,,,,null,,,,,,,,,,,,,,
null,,learn_phase(without_color),375048,black_plus_sign,,,,null,GW/paint.jpg,GW/teeth.jpg,,,,,,,,,,,,
null,,black_cross(without_color),375807,green,,,,null,GW/paint.jpg,GW/teeth.jpg,,,,,,,,,,,,
434.7000000476837,,rt_plussign_withcolor,376312,green,,,,50,GW/paint.jpg,GW/teeth.jpg,,,,,,,,,,,,
null,,rt_thecrossant_black,377581,black_plus_sign,,,,null,,,1,0.9354838709677419,,,,,,,,,,
null,,color_black,377697,black_plus_sign,,,,null,,,,,,,,,,,,,,
null,,learn_phase(without_color),379706,black_plus_sign,,,,null,GW/camera.jpg,GW/paint.jpg,,,,,,,,,,,,
null,,black_cross(without_color),380429,green,,,,null,GW/camera.jpg,GW/paint.jpg,,,,,,,,,,,,
null,,rt_plussign_withcolor,380941,green,,,,null,GW/camera.jpg,GW/paint.jpg,,,,,,,,,,,,
1021.3999999761581,,rt_thecrossant_black,382238,black_plus_sign,,,,50,,,1,0.9375,,,,,,,,,,
null,,color_black,382345,black_plus_sign,,,,null,,,,,,,,,,,,,,
null,,learn_phase(without_color),384354,black_plus_sign,,,,null,GW/dustpan.jpg,GW/hat.jpg,,,,,,,,,,,,
null,,black_cross(without_color),385320,green,,,,null,GW/dustpan.jpg,GW/hat.jpg,,,,,,,,,,,,
null,,rt_plussign_withcolor,385830,green,,,,null,GW/dustpan.jpg,GW/hat.jpg,,,,,,,,,,,,
1284,,rt_thecrossant_black,386892,black_plus_sign,,,,50,,,1,0.9393939393939394,,,,,,,,,,
null,,color_black,387000,black_plus_sign,,,,null,,,,,,,,,,,,,,
null,,learn_phase(without_color),389009,black_plus_sign,,,,null,GW/snail.jpg,GW/globe.jpg,,,,,,,,,,,,
null,,black_cross(without_color),389611,blue,,,,null,GW/snail.jpg,GW/globe.jpg,,,,,,,,,,,,
441.7999999523163,,rt_plussign_withcolor,390123,blue,,,,49,GW/snail.jpg,GW/globe.jpg,,,,,,,,,,,,
null,,rt_thecrossant_black,391534,black_plus_sign,,,,null,,,1,0.9411764705882353,,,,,,,,,,
null,,color_black,391649,black_plus_sign,,,,null,,,,,,,,,,,,,,
null,,learn_phase(without_color),393658,black_plus_sign,,,,null,GW/camera.jpg,GW/hat.jpg,,,,,,,,,,,,
null,,black_cross(without_color),394581,blue,,,,null,GW/camera.jpg,GW/hat.jpg,,,,,,,,,,,,
null,,rt_plussign_withcolor,395091,blue,,,,null,GW/camera.jpg,GW/hat.jpg,,,,,,,,,,,,
698.6000000238419,,rt_thecrossant_black,396185,black_plus_sign,,,,49,,,1,0.9428571428571428,,,,,,,,,,
null,,color_black,396293,black_plus_sign,,,,null,,,,,,,,,,,,,,
null,,learn_phase(without_color),398302,black_plus_sign,,,,null,GW/paint.jpg,GW/hat.jpg,,,,,,,,,,,,
null,,black_cross(without_color),398997,blue,,,,null,GW/paint.jpg,GW/hat.jpg,,,,,,,,,,,,
null,,rt_plussign_withcolor,399506,blue,,,,null,GW/paint.jpg,GW/hat.jpg,,,,,,,,,,,,
1041.6000000238419,,rt_thecrossant_black,400824,black_plus_sign,,,,49,,,1,0.9444444444444444,,,,,,,,,,
null,,color_black,400940,black_plus_sign,,,,null,,,,,,,,,,,,,,
null,,learn_phase(without_color),402946,black_plus_sign,,,,null,GW/barrel.jpg,GW/gong.jpg,,,,,,,,,,,,
null,,black_cross(without_color),403424,blue,,,,null,GW/barrel.jpg,GW/gong.jpg,,,,,,,,,,,,
null,,rt_plussign_withcolor,403937,blue,,,,null,GW/barrel.jpg,GW/gong.jpg,,,,,,,,,,,,
877.2000000476837,,rt_thecrossant_black,405474,black_plus_sign,,,,49,,,1,0.9459459459459459,,,,,,,,,,
null,,color_black,405589,black_plus_sign,,,,null,,,,,,,,,,,,,,
null,,learn_phase(without_color),407610,black_plus_sign,,,,null,GW/barrel.jpg,GW/globe.jpg,,,,,,,,,,,,
null,,black_cross(without_color),408598,green,,,,null,GW/barrel.jpg,GW/globe.jpg,,,,,,,,,,,,
null,,rt_plussign_withcolor,409107,green,,,,null,GW/barrel.jpg,GW/globe.jpg,,,,,,,,,,,,
1117.6000000238419,,rt_thecrossant_black,410143,black_plus_sign,,,,50,,,1,0.9473684210526315,,,,,,,,,,
null,,color_black,410257,black_plus_sign,,,,null,,,,,,,,,,,,,,
null,,learn_phase(without_color),412273,black_plus_sign,,,,null,GW/barrel.jpg,GW/gong.jpg,,,,,,,,,,,,
null,,black_cross(without_color),413340,green,,,,null,GW/barrel.jpg,GW/gong.jpg,,,,,,,,,,,,
null,,rt_plussign_withcolor,413846,green,,,,null,GW/barrel.jpg,GW/gong.jpg,,,,,,,,,,,,
1411.0999999046326,,rt_thecrossant_black,414797,black_plus_sign,,,,50,,,1,0.9487179487179487,,,,,,,,,,
null,,color_black,414913,black_plus_sign,,,,null,,,,,,,,,,,,,,
null,,learn_phase(without_color),416923,black_plus_sign,,,,null,GW/soldier.jpg,GW/basket.jpg,,,,,,,,,,,,
null,,black_cross(without_color),417931,blue,,,,null,GW/soldier.jpg,GW/basket.jpg,,,,,,,,,,,,
null,,rt_plussign_withcolor,418439,blue,,,,null,GW/soldier.jpg,GW/basket.jpg,,,,,,,,,,,,
1504,,rt_thecrossant_black,419453,black_plus_sign,,,,49,,,1,0.95,,,,,,,,,,
null,,color_black,419569,black_plus_sign,,,,null,,,,,,,,,,,,,,
null,,learn_phase(without_color),421580,black_plus_sign,,,,null,GW/wheelchair.jpg,GW/soldier.jpg,,,,,,,,,,,,
null,,black_cross(without_color),422295,blue,,,,null,GW/wheelchair.jpg,GW/soldier.jpg,,,,,,,,,,,,
null,,rt_plussign_withcolor,422805,blue,,,,null,GW/wheelchair.jpg,GW/soldier.jpg,,,,,,,,,,,,
1346.7000000476837,,rt_thecrossant_black,424111,black_plus_sign,,,,49,,,1,0.9512195121951219,,,,,,,,,,
null,,color_black,424217,black_plus_sign,,,,null,,,,,,,,,,,,,,
null,,learn_phase(without_color),426225,black_plus_sign,,,,null,GW/paint.jpg,GW/teeth.jpg,,,,,,,,,,,,
null,,black_cross(without_color),426943,green,,,,null,GW/paint.jpg,GW/teeth.jpg,,,,,,,,,,,,
null,,rt_plussign_withcolor,427451,green,,,,null,GW/paint.jpg,GW/teeth.jpg,,,,,,,,,,,,
910.1999999284744,,rt_thecrossant_black,428753,black_plus_sign,,,,50,,,1,0.9523809523809523,,,,,,,,,,
null,,color_black,428862,black_plus_sign,,,,null,,,,,,,,,,,,,,
null,,learn_phase(without_color),430868,black_plus_sign,,,,null,GW/soldier.jpg,GW/barrel.jpg,,,,,,,,,,,,
null,,black_cross(without_color),431529,blue,,,,null,GW/soldier.jpg,GW/barrel.jpg,,,,,,,,,,,,
null,,rt_plussign_withcolor,432040,blue,,,,null,GW/soldier.jpg,GW/barrel.jpg,,,,,,,,,,,,
869.7000000476837,,rt_thecrossant_black,433403,black_plus_sign,,,,49,,,1,0.9534883720930233,,,,,,,,,,
null,,color_black,433517,black_plus_sign,,,,null,,,,,,,,,,,,,,
null,,learn_phase(without_color),435525,black_plus_sign,,,,null,GW/camera.jpg,GW/jukebox.jpg,,,,,,,,,,,,
null,,black_cross(without_color),436043,blue,,,,null,GW/camera.jpg,GW/jukebox.jpg,,,,,,,,,,,,
null,,rt_plussign_withcolor,436554,blue,,,,null,GW/camera.jpg,GW/jukebox.jpg,,,,,,,,,,,,
981.8999999761581,,rt_thecrossant_black,438066,black_plus_sign,,,,49,,,1,0.9545454545454546,,,,,,,,,,
null,,color_black,438174,black_plus_sign,,,,null,,,,,,,,,,,,,,
null,,learn_phase(without_color),440180,black_plus_sign,,,,null,GW/basket.jpg,GW/snail.jpg,,,,,,,,,,,,
null,,black_cross(without_color),441166,blue,,,,null,GW/basket.jpg,GW/snail.jpg,,,,,,,,,,,,
null,,rt_plussign_withcolor,441683,blue,,,,null,GW/basket.jpg,GW/snail.jpg,,,,,,,,,,,,
689,,rt_thecrossant_black,442718,black_plus_sign,,,,49,,,1,0.9555555555555556,,,,,,,,,,
null,,color_black,442826,black_plus_sign,,,,null,,,,,,,,,,,,,,
null,,learn_phase(without_color),444834,black_plus_sign,,,,null,GW/dustpan.jpg,GW/hat.jpg,,,,,,,,,,,,
null,,black_cross(without_color),445550,blue,,,,null,GW/dustpan.jpg,GW/hat.jpg,,,,,,,,,,,,
446.1999999284744,,rt_plussign_withcolor,446059,blue,,,,49,GW/dustpan.jpg,GW/hat.jpg,,,,,,,,,,,,
null,,rt_thecrossant_black,447360,black_plus_sign,,,,null,,,1,0.9565217391304348,,,,,,,,,,
null,,color_black,447468,black_plus_sign,,,,null,,,,,,,,,,,,,,
null,,learn_phase(without_color),449480,black_plus_sign,,,,null,GW/barrel.jpg,GW/gong.jpg,,,,,,,,,,,,
null,,black_cross(without_color),450188,blue,,,,null,GW/barrel.jpg,GW/gong.jpg,,,,,,,,,,,,
null,,rt_plussign_withcolor,450698,blue,,,,null,GW/barrel.jpg,GW/gong.jpg,,,,,,,,,,,,
894,,rt_thecrossant_black,452011,black_plus_sign,,,,49,,,1,0.9574468085106383,,,,,,,,,,
null,,color_black,452120,black_plus_sign,,,,null,,,,,,,,,,,,,,
null,,learn_phase(without_color),454136,black_plus_sign,,,,null,GW/hat.jpg,GW/snail.jpg,,,,,,,,,,,,
null,,black_cross(without_color),454628,blue,,,,null,GW/hat.jpg,GW/snail.jpg,,,,,,,,,,,,
null,,rt_plussign_withcolor,455138,blue,,,,null,GW/hat.jpg,GW/snail.jpg,,,,,,,,,,,,
862.5,,rt_thecrossant_black,456668,black_plus_sign,,,,49,,,1,0.9583333333333334,,,,,,,,,,
null,,color_black,456775,black_plus_sign,,,,null,,,,,,,,,,,,,,
null,,learn_phase(without_color),458781,black_plus_sign,,,,null,GW/wheelchair.jpg,GW/soldier.jpg,,,,,,,,,,,,
null,,black_cross(without_color),459436,green,,,,null,GW/wheelchair.jpg,GW/soldier.jpg,,,,,,,,,,,,
475.60000002384186,,rt_plussign_withcolor,459945,green,,,,50,GW/wheelchair.jpg,GW/soldier.jpg,,,,,,,,,,,,
null,,rt_thecrossant_black,461309,black_plus_sign,,,,null,,,1,0.9591836734693877,,,,,,,,,,
null,,color_black,461425,black_plus_sign,,,,null,,,,,,,,,,,,,,
null,,learn_phase(without_color),463443,black_plus_sign,,,,null,GW/barrel.jpg,GW/gong.jpg,,,,,,,,,,,,
null,,black_cross(without_color),464235,green,,,,null,GW/barrel.jpg,GW/gong.jpg,,,,,,,,,,,,
null,,rt_plussign_withcolor,464754,green,,,,null,GW/barrel.jpg,GW/gong.jpg,,,,,,,,,,,,
929.1000000238419,,rt_thecrossant_black,465985,black_plus_sign,,,,50,,,1,0.96,,,,,,,,,,
null,,color_black,466092,black_plus_sign,,,,null,,,,,,,,,,,,,,
null,,learn_phase(without_color),468104,black_plus_sign,,,,null,GW/camera.jpg,GW/jukebox.jpg,,,,,,,,,,,,
null,,black_cross(without_color),468862,green,,,,null,GW/camera.jpg,GW/jukebox.jpg,,,,,,,,,,,,
null,,rt_plussign_withcolor,469370,green,,,,null,GW/camera.jpg,GW/jukebox.jpg,,,,,,,,,,,,
964.3999999761581,,rt_thecrossant_black,470626,black_plus_sign,,,,50,,,1,0.9607843137254902,,,,,,,,,,
null,,color_black,470734,black_plus_sign,,,,null,,,,,,,,,,,,,,
null,,learn_phase(without_color),472741,black_plus_sign,,,,null,GW/hat.jpg,GW/snail.jpg,,,,,,,,,,,,
null,,black_cross(without_color),473846,green,,,,null,GW/hat.jpg,GW/snail.jpg,,,,,,,,,,,,
null,,rt_plussign_withcolor,474355,green,,,,null,GW/hat.jpg,GW/snail.jpg,,,,,,,,,,,,
937.3999999761581,,rt_thecrossant_black,475273,black_plus_sign,,,,50,,,1,0.9615384615384616,,,,,,,,,,
null,,color_black,475380,black_plus_sign,,,,null,,,,,,,,,,,,,,
null,,learn_phase(without_color),477386,black_plus_sign,,,,null,GW/camera.jpg,GW/paint.jpg,,,,,,,,,,,,
null,,black_cross(without_color),477810,blue,,,,null,GW/camera.jpg,GW/paint.jpg,,,,,,,,,,,,
null,,rt_plussign_withcolor,478314,blue,,,,null,GW/camera.jpg,GW/paint.jpg,,,,,,,,,,,,
1371.3000000715256,,rt_thecrossant_black,479909,black_plus_sign,,,,49,,,1,0.9622641509433962,,,,,,,,,,
null,,color_black,480026,black_plus_sign,,,,null,,,,,,,,,,,,,,
null,,learn_phase(without_color),482034,black_plus_sign,,,,null,GW/camera.jpg,GW/jukebox.jpg,,,,,,,,,,,,
null,,black_cross(without_color),482645,green,,,,null,GW/camera.jpg,GW/jukebox.jpg,,,,,,,,,,,,
null,,rt_plussign_withcolor,483155,green,,,,null,GW/camera.jpg,GW/jukebox.jpg,,,,,,,,,,,,
645.1000000238419,,rt_thecrossant_black,484560,black_plus_sign,,,,50,,,1,0.9629629629629629,,,,,,,,,,
null,,color_black,484667,black_plus_sign,,,,null,,,,,,,,,,,,,,
null,,learn_phase(without_color),486679,black_plus_sign,,,,null,GW/barrel.jpg,GW/globe.jpg,,,,,,,,,,,,
null,,black_cross(without_color),487373,green,,,,null,GW/barrel.jpg,GW/globe.jpg,,,,,,,,,,,,
null,,rt_plussign_withcolor,487883,green,,,,null,GW/barrel.jpg,GW/globe.jpg,,,,,,,,,,,,
861.3000000715256,,rt_thecrossant_black,489205,black_plus_sign,,,,50,,,1,0.9636363636363636,,,,,,,,,,
null,,color_black,489311,black_plus_sign,,,,null,,,,,,,,,,,,,,
null,,learn_phase(without_color),491325,black_plus_sign,,,,null,GW/basket.jpg,GW/dustpan.jpg,,,,,,,,,,,,
null,,black_cross(without_color),491976,green,,,,null,GW/basket.jpg,GW/dustpan.jpg,,,,,,,,,,,,
null,,rt_plussign_withcolor,492487,green,,,,null,GW/basket.jpg,GW/dustpan.jpg,,,,,,,,,,,,
994.8000000715256,,rt_thecrossant_black,493855,black_plus_sign,,,,50,,,1,0.9642857142857143,,,,,,,,,,
null,,color_black,493968,black_plus_sign,,,,null,,,,,,,,,,,,,,
null,,learn_phase(without_color),495973,black_plus_sign,,,,null,GW/basket.jpg,GW/snail.jpg,,,,,,,,,,,,
null,,black_cross(without_color),497039,blue,,,,null,GW/basket.jpg,GW/snail.jpg,,,,,,,,,,,,
null,,rt_plussign_withcolor,497549,blue,,,,null,GW/basket.jpg,GW/snail.jpg,,,,,,,,,,,,
1317.1999999284744,,rt_thecrossant_black,498499,black_plus_sign,,,,49,,,1,0.9649122807017544,,,,,,,,,,
null,,color_black,498610,black_plus_sign,,,,null,,,,,,,,,,,,,,
null,,learn_phase(without_color),500619,black_plus_sign,,,,null,GW/basket.jpg,GW/dustpan.jpg,,,,,,,,,,,,
null,,black_cross(without_color),501110,green,,,,null,GW/basket.jpg,GW/dustpan.jpg,,,,,,,,,,,,
null,,rt_plussign_withcolor,501630,green,,,,null,GW/basket.jpg,GW/dustpan.jpg,,,,,,,,,,,,
1174.2999999523163,,rt_thecrossant_black,503159,black_plus_sign,,,,50,,,1,0.9655172413793104,,,,,,,,,,
null,,color_black,503269,black_plus_sign,,,,null,,,,,,,,,,,,,,
null,,learn_phase(without_color),505279,black_plus_sign,,,,null,GW/camera.jpg,GW/hat.jpg,,,,,,,,,,,,
null,,black_cross(without_color),505909,green,,,,null,GW/camera.jpg,GW/hat.jpg,,,,,,,,,,,,
null,,rt_plussign_withcolor,506419,green,,,,null,GW/camera.jpg,GW/hat.jpg,,,,,,,,,,,,
656.6000000238419,,rt_thecrossant_black,507810,black_plus_sign,,,,50,,,1,0.9661016949152542,,,,,,,,,,
null,,color_black,507929,black_plus_sign,,,,null,,,,,,,,,,,,,,
null,,learn_phase(without_color),509936,black_plus_sign,,,,null,GW/dustpan.jpg,GW/hat.jpg,,,,,,,,,,,,
null,,black_cross(without_color),510912,blue,,,,null,GW/dustpan.jpg,GW/hat.jpg,,,,,,,,,,,,
null,,rt_plussign_withcolor,511420,blue,,,,null,GW/dustpan.jpg,GW/hat.jpg,,,,,,,,,,,,
768.2999999523163,,rt_thecrossant_black,512464,black_plus_sign,,,,49,,,1,0.9666666666666667,,,,,,,,,,
null,,color_black,512572,black_plus_sign,,,,null,,,,,,,,,,,,,,
null,,learn_phase(without_color),514588,black_plus_sign,,,,null,GW/snail.jpg,GW/globe.jpg,,,,,,,,,,,,
null,,black_cross(without_color),515583,green,,,,null,GW/snail.jpg,GW/globe.jpg,,,,,,,,,,,,
null,,rt_plussign_withcolor,516098,green,,,,null,GW/snail.jpg,GW/globe.jpg,,,,,,,,,,,,
1317,,rt_thecrossant_black,517126,black_plus_sign,,,,50,,,1,0.9672131147540983,,,,,,,,,,
null,,color_black,517233,black_plus_sign,,,,null,,,,,,,,,,,,,,
null,,learn_phase(without_color),519239,black_plus_sign,,,,null,GW/paint.jpg,GW/hat.jpg,,,,,,,,,,,,
null,,black_cross(without_color),520095,green,,,,null,GW/paint.jpg,GW/hat.jpg,,,,,,,,,,,,
null,,rt_plussign_withcolor,520601,green,,,,null,GW/paint.jpg,GW/hat.jpg,,,,,,,,,,,,
1479.2999999523163,,rt_thecrossant_black,521763,black_plus_sign,,,,50,,,1,0.967741935483871,,,,,,,,,,
null,,color_black,521878,black_plus_sign,,,,null,,,,,,,,,,,,,,
null,,learn_phase(without_color),523888,black_plus_sign,,,,null,GW/barrel.jpg,GW/gong.jpg,,,,,,,,,,,,
null,,black_cross(without_color),524934,blue,,,,null,GW/barrel.jpg,GW/gong.jpg,,,,,,,,,,,,
null,,rt_plussign_withcolor,525442,blue,,,,null,GW/barrel.jpg,GW/gong.jpg,,,,,,,,,,,,
1492.7999999523163,,rt_thecrossant_black,526417,black_plus_sign,,,,49,,,1,0.9682539682539683,,,,,,,,,,
null,,color_black,526533,black_plus_sign,,,,null,,,,,,,,,,,,,,
null,,learn_phase(without_color),528545,black_plus_sign,,,,null,GW/snail.jpg,GW/globe.jpg,,,,,,,,,,,,
null,,black_cross(without_color),529196,blue,,,,null,GW/snail.jpg,GW/globe.jpg,,,,,,,,,,,,
null,,rt_plussign_withcolor,529706,blue,,,,null,GW/snail.jpg,GW/globe.jpg,,,,,,,,,,,,
1252.3999999761581,,rt_thecrossant_black,531083,black_plus_sign,,,,49,,,1,0.96875,,,,,,,,,,
null,,color_black,531198,black_plus_sign,,,,null,,,,,,,,,,,,,,
null,,learn_phase(without_color),533207,black_plus_sign,,,,null,GW/dustpan.jpg,GW/hat.jpg,,,,,,,,,,,,
null,,black_cross(without_color),534090,green,,,,null,GW/dustpan.jpg,GW/hat.jpg,,,,,,,,,,,,
501.2000000476837,,rt_plussign_withcolor,534595,green,,,,50,GW/dustpan.jpg,GW/hat.jpg,,,,,,,,,,,,
null,,rt_thecrossant_black,535726,black_plus_sign,,,,null,,,1,0.9692307692307692,,,,,,,,,,
null,,color_black,535833,black_plus_sign,,,,null,,,,,,,,,,,,,,
null,,learn_phase(without_color),537845,black_plus_sign,,,,null,GW/soldier.jpg,GW/basket.jpg,,,,,,,,,,,,
null,,black_cross(without_color),538923,blue,,,,null,GW/soldier.jpg,GW/basket.jpg,,,,,,,,,,,,
486,,rt_plussign_withcolor,539431,blue,,,,49,GW/soldier.jpg,GW/basket.jpg,,,,,,,,,,,,
null,,rt_thecrossant_black,540368,black_plus_sign,,,,null,,,1,0.9696969696969697,,,,,,,,,,
null,,color_black,540485,black_plus_sign,,,,null,,,,,,,,,,,,,,
null,,learn_phase(without_color),542490,black_plus_sign,,,,null,GW/dustpan.jpg,GW/camera.jpg,,,,,,,,,,,,
null,,black_cross(without_color),543126,green,,,,null,GW/dustpan.jpg,GW/camera.jpg,,,,,,,,,,,,
null,,rt_plussign_withcolor,543636,green,,,,null,GW/dustpan.jpg,GW/camera.jpg,,,,,,,,,,,,
1202.8999999761581,,rt_thecrossant_black,545013,black_plus_sign,,,,50,,,1,0.9701492537313433,,,,,,,,,,
null,,color_black,545128,black_plus_sign,,,,null,,,,,,,,,,,,,,
null,,learn_phase(without_color),547137,black_plus_sign,,,,null,GW/barrel.jpg,GW/globe.jpg,,,,,,,,,,,,
null,,black_cross(without_color),547816,green,,,,null,GW/barrel.jpg,GW/globe.jpg,,,,,,,,,,,,
null,,rt_plussign_withcolor,548320,green,,,,null,GW/barrel.jpg,GW/globe.jpg,,,,,,,,,,,,
762.2999999523163,,rt_thecrossant_black,549667,black_plus_sign,,,,50,,,1,0.9705882352941176,,,,,,,,,,
null,,color_black,549771,black_plus_sign,,,,null,,,,,,,,,,,,,,
null,,learn_phase(without_color),551779,black_plus_sign,,,,null,GW/soldier.jpg,GW/basket.jpg,,,,,,,,,,,,
null,,black_cross(without_color),552760,blue,,,,null,GW/soldier.jpg,GW/basket.jpg,,,,,,,,,,,,
null,,rt_plussign_withcolor,553268,blue,,,,null,GW/soldier.jpg,GW/basket.jpg,,,,,,,,,,,,
798.6000000238419,,rt_thecrossant_black,554307,black_plus_sign,,,,49,,,1,0.9710144927536232,,,,,,,,,,
null,,color_black,554411,black_plus_sign,,,,null,,,,,,,,,,,,,,
null,,learn_phase(without_color),556415,black_plus_sign,,,,null,GW/soldier.jpg,GW/barrel.jpg,,,,,,,,,,,,
null,,black_cross(without_color),557388,blue,,,,null,GW/soldier.jpg,GW/barrel.jpg,,,,,,,,,,,,
null,,rt_plussign_withcolor,557890,blue,,,,null,GW/soldier.jpg,GW/barrel.jpg,,,,,,,,,,,,
1302.3000000715256,,rt_thecrossant_black,558943,black_plus_sign,,,,49,,,1,0.9714285714285714,,,,,,,,,,
null,,color_black,559051,black_plus_sign,,,,null,,,,,,,,,,,,,,
null,,learn_phase(without_color),561059,black_plus_sign,,,,null,GW/paint.jpg,GW/hat.jpg,,,,,,,,,,,,
null,,black_cross(without_color),561959,green,,,,null,GW/paint.jpg,GW/hat.jpg,,,,,,,,,,,,
null,,rt_plussign_withcolor,562467,green,,,,null,GW/paint.jpg,GW/hat.jpg,,,,,,,,,,,,
2005.2999999523163,,rt_thecrossant_black,563578,black_plus_sign,,,,50,,,1,0.971830985915493,,,,,,,,,,
null,,color_black,563695,black_plus_sign,,,,null,,,,,,,,,,,,,,
null,,learn_phase(without_color),565707,black_plus_sign,,,,null,GW/snail.jpg,GW/globe.jpg,,,,,,,,,,,,
null,,black_cross(without_color),566398,blue,,,,null,GW/snail.jpg,GW/globe.jpg,,,,,,,,,,,,
492.7000000476837,,rt_plussign_withcolor,566908,blue,,,,49,GW/snail.jpg,GW/globe.jpg,,,,,,,,,,,,
null,,rt_thecrossant_black,568248,black_plus_sign,,,,null,,,1,0.9722222222222222,,,,,,,,,,
null,,color_black,568355,black_plus_sign,,,,null,,,,,,,,,,,,,,
null,,learn_phase(without_color),570366,black_plus_sign,,,,null,GW/soldier.jpg,GW/barrel.jpg,,,,,,,,,,,,
null,,black_cross(without_color),571023,green,,,,null,GW/soldier.jpg,GW/barrel.jpg,,,,,,,,,,,,
null,,rt_plussign_withcolor,571530,green,,,,null,GW/soldier.jpg,GW/barrel.jpg,,,,,,,,,,,,
922.5,,rt_thecrossant_black,572880,black_plus_sign,,,,50,,,1,0.9726027397260274,,,,,,,,,,
null,,color_black,572985,black_plus_sign,,,,null,,,,,,,,,,,,,,
null,,learn_phase(without_color),574995,black_plus_sign,,,,null,GW/basket.jpg,GW/dustpan.jpg,,,,,,,,,,,,
null,,black_cross(without_color),575976,green,,,,null,GW/basket.jpg,GW/dustpan.jpg,,,,,,,,,,,,
null,,rt_plussign_withcolor,576486,green,,,,null,GW/basket.jpg,GW/dustpan.jpg,,,,,,,,,,,,
880.3000000715256,,rt_thecrossant_black,577539,black_plus_sign,,,,50,,,1,0.972972972972973,,,,,,,,,,
null,,color_black,577645,black_plus_sign,,,,null,,,,,,,,,,,,,,
null,,learn_phase(without_color),579655,black_plus_sign,,,,null,GW/camera.jpg,GW/paint.jpg,,,,,,,,,,,,
null,,black_cross(without_color),580321,green,,,,null,GW/camera.jpg,GW/paint.jpg,,,,,,,,,,,,
490.7000000476837,,rt_plussign_withcolor,580830,green,,,,50,GW/camera.jpg,GW/paint.jpg,,,,,,,,,,,,
null,,rt_thecrossant_black,582205,black_plus_sign,,,,null,,,1,0.9733333333333334,,,,,,,,,,
null,,color_black,582315,black_plus_sign,,,,null,,,,,,,,,,,,,,
null,,learn_phase(without_color),584326,black_plus_sign,,,,null,GW/camera.jpg,GW/hat.jpg,,,,,,,,,,,,
null,,black_cross(without_color),585126,blue,,,,null,GW/camera.jpg,GW/hat.jpg,,,,,,,,,,,,
null,,rt_plussign_withcolor,585636,blue,,,,null,GW/camera.jpg,GW/hat.jpg,,,,,,,,,,,,
892.6000000238419,,rt_thecrossant_black,586856,black_plus_sign,,,,49,,,1,0.9736842105263158,,,,,,,,,,
null,,color_black,586966,black_plus_sign,,,,null,,,,,,,,,,,,,,
null,,learn_phase(without_color),588975,black_plus_sign,,,,null,GW/dustpan.jpg,GW/camera.jpg,,,,,,,,,,,,
null,,black_cross(without_color),589387,blue,,,,null,GW/dustpan.jpg,GW/camera.jpg,,,,,,,,,,,,
null,,rt_plussign_withcolor,589895,blue,,,,null,GW/dustpan.jpg,GW/camera.jpg,,,,,,,,,,,,
984.8999999761581,,rt_thecrossant_black,591506,black_plus_sign,,,,49,,,1,0.974025974025974,,,,,,,,,,
null,,color_black,591617,black_plus_sign,,,,null,,,,,,,,,,,,,,
null,,learn_phase(without_color),593628,black_plus_sign,,,,null,GW/wheelchair.jpg,GW/soldier.jpg,,,,,,,,,,,,
null,,black_cross(without_color),594065,blue,,,,null,GW/wheelchair.jpg,GW/soldier.jpg,,,,,,,,,,,,
null,,rt_plussign_withcolor,594575,blue,,,,null,GW/wheelchair.jpg,GW/soldier.jpg,,,,,,,,,,,,
696.1000000238419,,rt_thecrossant_black,596156,black_plus_sign,,,,49,,,1,0.9743589743589743,,,,,,,,,,
null,,color_black,596265,black_plus_sign,,,,null,,,,,,,,,,,,,,
null,,learn_phase(without_color),598277,black_plus_sign,,,,null,GW/paint.jpg,GW/teeth.jpg,,,,,,,,,,,,
null,,black_cross(without_color),598705,green,,,,null,GW/paint.jpg,GW/teeth.jpg,,,,,,,,,,,,
null,,rt_plussign_withcolor,599227,green,,,,null,GW/paint.jpg,GW/teeth.jpg,,,,,,,,,,,,
581.7999999523163,,rt_thecrossant_black,600816,black_plus_sign,,,,50,,,1,0.9746835443037974,,,,,,,,,,
null,,color_black,600927,black_plus_sign,,,,null,,,,,,,,,,,,,,
null,,learn_phase(without_color),602938,black_plus_sign,,,,null,GW/camera.jpg,GW/paint.jpg,,,,,,,,,,,,
null,,black_cross(without_color),603562,green,,,,null,GW/camera.jpg,GW/paint.jpg,,,,,,,,,,,,
null,,rt_plussign_withcolor,604070,green,,,,null,GW/camera.jpg,GW/paint.jpg,,,,,,,,,,,,
783.3999999761581,,rt_thecrossant_black,605467,black_plus_sign,,,,50,,,1,0.975,,,,,,,,,,
null,,color_black,605584,black_plus_sign,,,,null,,,,,,,,,,,,,,
null,,learn_phase(without_color),607595,black_plus_sign,,,,null,GW/snail.jpg,GW/globe.jpg,,,,,,,,,,,,
null,,black_cross(without_color),608058,green,,,,null,GW/snail.jpg,GW/globe.jpg,,,,,,,,,,,,
null,,rt_plussign_withcolor,608563,green,,,,null,GW/snail.jpg,GW/globe.jpg,,,,,,,,,,,,
844.2000000476837,,rt_thecrossant_black,610116,black_plus_sign,,,,50,,,1,0.9753086419753086,,,,,,,,,,
null,,color_black,610224,black_plus_sign,,,,null,,,,,,,,,,,,,,
null,,learn_phase(without_color),612232,black_plus_sign,,,,null,GW/paint.jpg,GW/teeth.jpg,,,,,,,,,,,,
null,,black_cross(without_color),612884,blue,,,,null,GW/paint.jpg,GW/teeth.jpg,,,,,,,,,,,,
null,,rt_plussign_withcolor,613391,blue,,,,null,GW/paint.jpg,GW/teeth.jpg,,,,,,,,,,,,
754.6000000238419,,rt_thecrossant_black,614758,black_plus_sign,,,,49,,,1,0.975609756097561,,,,,,,,,,
null,,color_black,614863,black_plus_sign,,,,null,,,,,,,,,,,,,,
null,,learn_phase(without_color),616869,black_plus_sign,,,,null,GW/snail.jpg,GW/globe.jpg,,,,,,,,,,,,
null,,black_cross(without_color),617918,green,,,,null,GW/snail.jpg,GW/globe.jpg,,,,,,,,,,,,
491.2999999523163,,rt_plussign_withcolor,618427,green,,,,50,GW/snail.jpg,GW/globe.jpg,,,,,,,,,,,,
null,,rt_thecrossant_black,619397,black_plus_sign,,,,null,,,1,0.9759036144578314,,,,,,,,,,
null,,color_black,619503,black_plus_sign,,,,null,,,,,,,,,,,,,,
null,,learn_phase(without_color),621513,black_plus_sign,,,,null,GW/soldier.jpg,GW/barrel.jpg,,,,,,,,,,,,
null,,black_cross(without_color),622210,blue,,,,null,GW/soldier.jpg,GW/barrel.jpg,,,,,,,,,,,,
null,,rt_plussign_withcolor,622715,blue,,,,null,GW/soldier.jpg,GW/barrel.jpg,,,,,,,,,,,,
1374.2999999523163,,rt_thecrossant_black,624034,black_plus_sign,,,,49,,,1,0.9761904761904762,,,,,,,,,,
null,,color_black,624149,black_plus_sign,,,,null,,,,,,,,,,,,,,
null,,learn_phase(without_color),626161,black_plus_sign,,,,null,GW/barrel.jpg,GW/globe.jpg,,,,,,,,,,,,
null,,black_cross(without_color),627160,blue,,,,null,GW/barrel.jpg,GW/globe.jpg,,,,,,,,,,,,
null,,rt_plussign_withcolor,627664,blue,,,,null,GW/barrel.jpg,GW/globe.jpg,,,,,,,,,,,,
1107.1999999284744,,rt_thecrossant_black,628679,black_plus_sign,,,,49,,,1,0.9764705882352941,,,,,,,,,,
null,,color_black,628796,black_plus_sign,,,,null,,,,,,,,,,,,,,
null,,learn_phase(without_color),630804,black_plus_sign,,,,null,GW/camera.jpg,GW/jukebox.jpg,,,,,,,,,,,,
null,,black_cross(without_color),631705,blue,,,,null,GW/camera.jpg,GW/jukebox.jpg,,,,,,,,,,,,
417.7999999523163,,rt_plussign_withcolor,632210,blue,,,,49,GW/camera.jpg,GW/jukebox.jpg,,,,,,,,,,,,
null,,rt_thecrossant_black,633320,black_plus_sign,,,,null,,,1,0.9767441860465116,,,,,,,,,,
null,,color_black,633427,black_plus_sign,,,,null,,,,,,,,,,,,,,
null,,learn_phase(without_color),635434,black_plus_sign,,,,null,GW/basket.jpg,GW/snail.jpg,,,,,,,,,,,,
null,,black_cross(without_color),636195,blue,,,,null,GW/basket.jpg,GW/snail.jpg,,,,,,,,,,,,
null,,rt_plussign_withcolor,636698,blue,,,,null,GW/basket.jpg,GW/snail.jpg,,,,,,,,,,,,
1407.5,,rt_thecrossant_black,637960,black_plus_sign,,,,49,,,1,0.9770114942528736,,,,,,,,,,
null,,color_black,638075,black_plus_sign,,,,null,,,,,,,,,,,,,,
null,,learn_phase(without_color),640079,black_plus_sign,,,,null,GW/camera.jpg,GW/jukebox.jpg,,,,,,,,,,,,
null,,black_cross(without_color),640675,green,,,,null,GW/camera.jpg,GW/jukebox.jpg,,,,,,,,,,,,
null,,rt_plussign_withcolor,641179,green,,,,null,GW/camera.jpg,GW/jukebox.jpg,,,,,,,,,,,,
869.2999999523163,,rt_thecrossant_black,642591,black_plus_sign,,,,50,,,1,0.9772727272727273,,,,,,,,,,
null,,color_black,642697,black_plus_sign,,,,null,,,,,,,,,,,,,,
null,,learn_phase(without_color),644708,black_plus_sign,,,,null,GW/soldier.jpg,GW/basket.jpg,,,,,,,,,,,,
null,,black_cross(without_color),645577,blue,,,,null,GW/soldier.jpg,GW/basket.jpg,,,,,,,,,,,,
null,,rt_plussign_withcolor,646084,blue,,,,null,GW/soldier.jpg,GW/basket.jpg,,,,,,,,,,,,
792,,rt_thecrossant_black,647242,black_plus_sign,,,,49,,,1,0.9775280898876404,,,,,,,,,,
null,,color_black,647357,black_plus_sign,,,,null,,,,,,,,,,,,,,
null,,learn_phase(without_color),649366,black_plus_sign,,,,null,GW/paint.jpg,GW/teeth.jpg,,,,,,,,,,,,
null,,black_cross(without_color),650045,green,,,,null,GW/paint.jpg,GW/teeth.jpg,,,,,,,,,,,,
null,,rt_plussign_withcolor,650558,green,,,,null,GW/paint.jpg,GW/teeth.jpg,,,,,,,,,,,,
1379.5999999046326,,rt_thecrossant_black,651893,black_plus_sign,,,,50,,,1,0.9777777777777777,,,,,,,,,,
null,,color_black,652008,black_plus_sign,,,,null,,,,,,,,,,,,,,
null,,learn_phase(without_color),654015,black_plus_sign,,,,null,GW/camera.jpg,GW/paint.jpg,,,,,,,,,,,,
null,,black_cross(without_color),654746,green,,,,null,GW/camera.jpg,GW/paint.jpg,,,,,,,,,,,,
null,,rt_plussign_withcolor,655253,green,,,,null,GW/camera.jpg,GW/paint.jpg,,,,,,,,,,,,
942.2000000476837,,rt_thecrossant_black,656555,black_plus_sign,,,,50,,,1,0.978021978021978,,,,,,,,,,
null,,color_black,656662,black_plus_sign,,,,null,,,,,,,,,,,,,,
null,,learn_phase(without_color),658669,black_plus_sign,,,,null,GW/snail.jpg,GW/globe.jpg,,,,,,,,,,,,
null,,black_cross(without_color),659256,green,,,,null,GW/snail.jpg,GW/globe.jpg,,,,,,,,,,,,
null,,rt_plussign_withcolor,659761,green,,,,null,GW/snail.jpg,GW/globe.jpg,,,,,,,,,,,,
937.7000000476837,,rt_thecrossant_black,661206,black_plus_sign,,,,50,,,1,0.9782608695652174,,,,,,,,,,
null,,color_black,661314,black_plus_sign,,,,null,,,,,,,,,,,,,,
null,,learn_phase(without_color),663320,black_plus_sign,,,,null,GW/hat.jpg,GW/snail.jpg,,,,,,,,,,,,
null,,black_cross(without_color),664272,blue,,,,null,GW/hat.jpg,GW/snail.jpg,,,,,,,,,,,,
null,,rt_plussign_withcolor,664785,blue,,,,null,GW/hat.jpg,GW/snail.jpg,,,,,,,,,,,,
986.7000000476837,,rt_thecrossant_black,665850,black_plus_sign,,,,49,,,1,0.978494623655914,,,,,,,,,,
null,,color_black,665965,black_plus_sign,,,,null,,,,,,,,,,,,,,
null,,learn_phase(without_color),667971,black_plus_sign,,,,null,GW/dustpan.jpg,GW/camera.jpg,,,,,,,,,,,,
null,,black_cross(without_color),669060,green,,,,null,GW/dustpan.jpg,GW/camera.jpg,,,,,,,,,,,,
null,,rt_plussign_withcolor,669565,green,,,,null,GW/dustpan.jpg,GW/camera.jpg,,,,,,,,,,,,
1558.6999999284744,,rt_thecrossant_black,670495,black_plus_sign,,,,50,,,1,0.9787234042553191,,,,,,,,,,
null,,color_black,670610,black_plus_sign,,,,null,,,,,,,,,,,,,,
null,,learn_phase(without_color),672620,black_plus_sign,,,,null,GW/barrel.jpg,GW/globe.jpg,,,,,,,,,,,,
null,,black_cross(without_color),673349,green,,,,null,GW/barrel.jpg,GW/globe.jpg,,,,,,,,,,,,
null,,rt_plussign_withcolor,673857,green,,,,null,GW/barrel.jpg,GW/globe.jpg,,,,,,,,,,,,
1929.3999999761581,,rt_thecrossant_black,675153,black_plus_sign,,,,50,,,1,0.9789473684210527,,,,,,,,,,
null,,color_black,675267,black_plus_sign,,,,null,,,,,,,,,,,,,,
null,,learn_phase(without_color),677275,black_plus_sign,,,,null,GW/dustpan.jpg,GW/hat.jpg,,,,,,,,,,,,
null,,black_cross(without_color),677913,blue,,,,null,GW/dustpan.jpg,GW/hat.jpg,,,,,,,,,,,,
null,,rt_plussign_withcolor,678418,blue,,,,null,GW/dustpan.jpg,GW/hat.jpg,,,,,,,,,,,,
824,,rt_thecrossant_black,679800,black_plus_sign,,,,49,,,1,0.9791666666666666,,,,,,,,,,
null,,color_black,679906,black_plus_sign,,,,null,,,,,,,,,,,,,,
null,,learn_phase(without_color),681914,black_plus_sign,,,,null,GW/basket.jpg,GW/snail.jpg,,,,,,,,,,,,
null,,black_cross(without_color),682822,green,,,,null,GW/basket.jpg,GW/snail.jpg,,,,,,,,,,,,
null,,rt_plussign_withcolor,683328,green,,,,null,GW/basket.jpg,GW/snail.jpg,,,,,,,,,,,,
985.7000000476837,,rt_thecrossant_black,684445,black_plus_sign,,,,50,,,1,0.979381443298969,,,,,,,,,,
null,,color_black,684560,black_plus_sign,,,,null,,,,,,,,,,,,,,
null,,learn_phase(without_color),686570,black_plus_sign,,,,null,GW/wheelchair.jpg,GW/soldier.jpg,,,,,,,,,,,,
null,,black_cross(without_color),687092,green,,,,null,GW/wheelchair.jpg,GW/soldier.jpg,,,,,,,,,,,,
null,,rt_plussign_withcolor,687600,green,,,,null,GW/wheelchair.jpg,GW/soldier.jpg,,,,,,,,,,,,
1162.6000000238419,,rt_thecrossant_black,689095,black_plus_sign,,,,50,,,1,0.9795918367346939,,,,,,,,,,
null,,color_black,689201,black_plus_sign,,,,null,,,,,,,,,,,,,,
null,,learn_phase(without_color),691210,black_plus_sign,,,,null,GW/basket.jpg,GW/snail.jpg,,,,,,,,,,,,
null,,black_cross(without_color),691866,green,,,,null,GW/basket.jpg,GW/snail.jpg,,,,,,,,,,,,
null,,rt_plussign_withcolor,692372,green,,,,null,GW/basket.jpg,GW/snail.jpg,,,,,,,,,,,,
699.6999999284744,,rt_thecrossant_black,693741,black_plus_sign,,,,50,,,1,0.9797979797979798,,,,,,,,,,
null,,color_black,693856,black_plus_sign,,,,null,,,,,,,,,,,,,,
null,,learn_phase(without_color),695861,black_plus_sign,,,,null,GW/basket.jpg,GW/dustpan.jpg,,,,,,,,,,,,
null,,black_cross(without_color),696798,green,,,,null,GW/basket.jpg,GW/dustpan.jpg,,,,,,,,,,,,
null,,rt_plussign_withcolor,697306,green,,,,null,GW/basket.jpg,GW/dustpan.jpg,,,,,,,,,,,,
813,,rt_thecrossant_black,698391,black_plus_sign,,,,50,,,1,0.98,,,,,,,,,,
null,,color_black,698506,black_plus_sign,,,,null,,,,,,,,,,,,,,
null,,learn_phase(without_color),700519,black_plus_sign,,,,null,GW/soldier.jpg,GW/basket.jpg,,,,,,,,,,,,
null,,black_cross(without_color),700941,green,,,,null,GW/soldier.jpg,GW/basket.jpg,,,,,,,,,,,,
null,,rt_plussign_withcolor,701447,green,,,,null,GW/soldier.jpg,GW/basket.jpg,,,,,,,,,,,,
1256.8999999761581,,rt_thecrossant_black,703052,black_plus_sign,,,,50,,,1,0.9801980198019802,,,,,,,,,,
null,,color_black,703166,black_plus_sign,,,,null,,,,,,,,,,,,,,
null,,learn_phase(without_color),705171,black_plus_sign,,,,null,GW/dustpan.jpg,GW/camera.jpg,,,,,,,,,,,,
null,,black_cross(without_color),706065,green,,,,null,GW/dustpan.jpg,GW/camera.jpg,,,,,,,,,,,,
null,,rt_plussign_withcolor,706579,green,,,,null,GW/dustpan.jpg,GW/camera.jpg,,,,,,,,,,,,
615.8000000715256,,rt_thecrossant_black,707705,black_plus_sign,,,,50,,,1,0.9803921568627451,,,,,,,,,,
null,,color_black,707812,black_plus_sign,,,,null,,,,,,,,,,,,,,
null,,learn_phase(without_color),709820,black_plus_sign,,,,null,GW/camera.jpg,GW/hat.jpg,,,,,,,,,,,,
null,,black_cross(without_color),710797,blue,,,,null,GW/camera.jpg,GW/hat.jpg,,,,,,,,,,,,
501.60000002384186,,rt_plussign_withcolor,711303,blue,,,,49,GW/camera.jpg,GW/hat.jpg,,,,,,,,,,,,
null,,rt_thecrossant_black,712355,black_plus_sign,,,,null,,,1,0.9805825242718447,,,,,,,,,,
null,,color_black,712461,black_plus_sign,,,,null,,,,,,,,,,,,,,
null,,learn_phase(without_color),714469,black_plus_sign,,,,null,GW/barrel.jpg,GW/gong.jpg,,,,,,,,,,,,
null,,black_cross(without_color),715566,blue,,,,null,GW/barrel.jpg,GW/gong.jpg,,,,,,,,,,,,
null,,rt_plussign_withcolor,716079,blue,,,,null,GW/barrel.jpg,GW/gong.jpg,,,,,,,,,,,,
1059.5,,rt_thecrossant_black,717011,black_plus_sign,,,,49,,,1,0.9807692307692307,,,,,,,,,,
null,,color_black,717119,black_plus_sign,,,,null,,,,,,,,,,,,,,
null,,learn_phase(without_color),719127,black_plus_sign,,,,null,GW/hat.jpg,GW/snail.jpg,,,,,,,,,,,,
null,,black_cross(without_color),720118,green,,,,null,GW/hat.jpg,GW/snail.jpg,,,,,,,,,,,,
null,,rt_plussign_withcolor,720623,green,,,,null,GW/hat.jpg,GW/snail.jpg,,,,,,,,,,,,
null,,rt_thecrossant_black,721651,black_plus_sign,,,,null,,,,0.9807692307692307,,,,,,,,,,
null,,color_black,721757,black_plus_sign,,,,null,,,,,,,,,,,,,,
null,,learn_phase(without_color),723762,black_plus_sign,,,,null,GW/wheelchair.jpg,GW/soldier.jpg,,,,,,,,,,,,
null,,black_cross(without_color),724442,green,,,,null,GW/wheelchair.jpg,GW/soldier.jpg,,,,,,,,,,,,
null,,rt_plussign_withcolor,724957,green,,,,null,GW/wheelchair.jpg,GW/soldier.jpg,,,,,,,,,,,,
1542.3999999761581,,rt_thecrossant_black,726289,black_plus_sign,,,,50,,,1,0.9809523809523809,,,,,,,,,,
null,,color_black,726404,black_plus_sign,,,,null,,,,,,,,,,,,,,
null,,learn_phase(without_color),728417,black_plus_sign,,,,null,GW/dustpan.jpg,GW/hat.jpg,,,,,,,,,,,,
null,,black_cross(without_color),728895,green,,,,null,GW/dustpan.jpg,GW/hat.jpg,,,,,,,,,,,,
null,,rt_plussign_withcolor,729409,green,,,,null,GW/dustpan.jpg,GW/hat.jpg,,,,,,,,,,,,
828.9000000953674,,rt_thecrossant_black,730951,black_plus_sign,,,,50,,,1,0.9811320754716981,,,,,,,,,,
null,,color_black,731057,black_plus_sign,,,,null,,,,,,,,,,,,,,
null,,learn_phase(without_color),733068,black_plus_sign,,,,null,GW/wheelchair.jpg,GW/soldier.jpg,,,,,,,,,,,,
null,,black_cross(without_color),734130,green,,,,null,GW/wheelchair.jpg,GW/soldier.jpg,,,,,,,,,,,,
null,,rt_plussign_withcolor,734643,green,,,,null,GW/wheelchair.jpg,GW/soldier.jpg,,,,,,,,,,,,
855.3999999761581,,rt_thecrossant_black,735595,black_plus_sign,,,,50,,,1,0.9813084112149533,,,,,,,,,,
null,,color_black,735702,black_plus_sign,,,,null,,,,,,,,,,,,,,
null,,learn_phase(without_color),737706,black_plus_sign,,,,null,GW/basket.jpg,GW/dustpan.jpg,,,,,,,,,,,,
null,,black_cross(without_color),738162,green,,,,null,GW/basket.jpg,GW/dustpan.jpg,,,,,,,,,,,,
null,,rt_plussign_withcolor,738673,green,,,,null,GW/basket.jpg,GW/dustpan.jpg,,,,,,,,,,,,
1180.3999999761581,,rt_thecrossant_black,740232,black_plus_sign,,,,50,,,1,0.9814814814814815,,,,,,,,,,
null,,color_black,740346,black_plus_sign,,,,null,,,,,,,,,,,,,,
null,,learn_phase(without_color),742355,black_plus_sign,,,,null,GW/hat.jpg,GW/snail.jpg,,,,,,,,,,,,
null,,black_cross(without_color),742876,green,,,,null,GW/hat.jpg,GW/snail.jpg,,,,,,,,,,,,
null,,rt_plussign_withcolor,743380,green,,,,null,GW/hat.jpg,GW/snail.jpg,,,,,,,,,,,,
603.2999999523163,,rt_thecrossant_black,744879,black_plus_sign,,,,50,,,1,0.981651376146789,,,,,,,,,,
null,,color_black,744986,black_plus_sign,,,,null,,,,,,,,,,,,,,
null,,learn_phase(without_color),746992,black_plus_sign,,,,null,GW/dustpan.jpg,GW/hat.jpg,,,,,,,,,,,,
null,,black_cross(without_color),747753,blue,,,,null,GW/dustpan.jpg,GW/hat.jpg,,,,,,,,,,,,
null,,rt_plussign_withcolor,748265,blue,,,,null,GW/dustpan.jpg,GW/hat.jpg,,,,,,,,,,,,
733.5999999046326,,rt_thecrossant_black,749539,black_plus_sign,,,,49,,,1,0.9818181818181818,,,,,,,,,,
null,,color_black,749654,black_plus_sign,,,,null,,,,,,,,,,,,,,
null,,learn_phase(without_color),751661,black_plus_sign,,,,null,GW/barrel.jpg,GW/gong.jpg,,,,,,,,,,,,
null,,black_cross(without_color),752259,blue,,,,null,GW/barrel.jpg,GW/gong.jpg,,,,,,,,,,,,
null,,rt_plussign_withcolor,752773,blue,,,,null,GW/barrel.jpg,GW/gong.jpg,,,,,,,,,,,,
892.5,,rt_thecrossant_black,754194,black_plus_sign,,,,49,,,1,0.9819819819819819,,,,,,,,,,
null,,color_black,754301,black_plus_sign,,,,null,,,,,,,,,,,,,,
null,,learn_phase(without_color),756310,black_plus_sign,,,,null,GW/camera.jpg,GW/hat.jpg,,,,,,,,,,,,
null,,black_cross(without_color),757124,blue,,,,null,GW/camera.jpg,GW/hat.jpg,,,,,,,,,,,,
null,,rt_plussign_withcolor,757630,blue,,,,null,GW/camera.jpg,GW/hat.jpg,,,,,,,,,,,,
682.5,,rt_thecrossant_black,758836,black_plus_sign,,,,49,,,1,0.9821428571428571,,,,,,,,,,
null,,color_black,758941,black_plus_sign,,,,null,,,,,,,,,,,,,,
null,,learn_phase(without_color),760946,black_plus_sign,,,,null,GW/basket.jpg,GW/dustpan.jpg,,,,,,,,,,,,
null,,black_cross(without_color),761800,blue,,,,null,GW/basket.jpg,GW/dustpan.jpg,,,,,,,,,,,,
null,,rt_plussign_withcolor,762305,blue,,,,null,GW/basket.jpg,GW/dustpan.jpg,,,,,,,,,,,,
1093.5,,rt_thecrossant_black,763468,black_plus_sign,,,,50,,,0,0.9734513274336283,,,,,,,,,,
null,,color_black,763581,black_plus_sign,,,,null,,,,,,,,,,,,,,
null,,learn_phase(without_color),765585,black_plus_sign,,,,null,GW/barrel.jpg,GW/gong.jpg,,,,,,,,,,,,
null,,black_cross(without_color),766592,green,,,,null,GW/barrel.jpg,GW/gong.jpg,,,,,,,,,,,,
null,,rt_plussign_withcolor,767100,green,,,,null,GW/barrel.jpg,GW/gong.jpg,,,,,,,,,,,,
1174.3999999761581,,rt_thecrossant_black,768107,black_plus_sign,,,,50,,,1,0.9736842105263158,,,,,,,,,,
null,,color_black,768213,black_plus_sign,,,,null,,,,,,,,,,,,,,
null,,learn_phase(without_color),770224,black_plus_sign,,,,null,GW/camera.jpg,GW/jukebox.jpg,,,,,,,,,,,,
null,,black_cross(without_color),770979,blue,,,,null,GW/camera.jpg,GW/jukebox.jpg,,,,,,,,,,,,
486.39999997615814,,rt_plussign_withcolor,771484,blue,,,,49,GW/camera.jpg,GW/jukebox.jpg,,,,,,,,,,,,
null,,rt_thecrossant_black,772749,black_plus_sign,,,,null,,,1,0.9739130434782609,,,,,,,,,,
null,,color_black,772856,black_plus_sign,,,,null,,,,,,,,,,,,,,
null,,learn_phase(without_color),774868,black_plus_sign,,,,null,GW/paint.jpg,GW/hat.jpg,,,,,,,,,,,,
null,,black_cross(without_color),775566,blue,,,,null,GW/paint.jpg,GW/hat.jpg,,,,,,,,,,,,
null,,rt_plussign_withcolor,776078,blue,,,,null,GW/paint.jpg,GW/hat.jpg,,,,,,,,,,,,
871.1999999284744,,rt_thecrossant_black,777407,black_plus_sign,,,,49,,,1,0.9741379310344828,,,,,,,,,,
null,,color_black,777521,black_plus_sign,,,,null,,,,,,,,,,,,,,
null,,learn_phase(without_color),779531,black_plus_sign,,,,null,GW/dustpan.jpg,GW/camera.jpg,,,,,,,,,,,,
null,,black_cross(without_color),780047,blue,,,,null,GW/dustpan.jpg,GW/camera.jpg,,,,,,,,,,,,
null,,rt_plussign_withcolor,780561,blue,,,,null,GW/dustpan.jpg,GW/camera.jpg,,,,,,,,,,,,
1063.6999999284744,,rt_thecrossant_black,782072,black_plus_sign,,,,49,,,1,0.9743589743589743,,,,,,,,,,
null,,color_black,782180,black_plus_sign,,,,null,,,,,,,,,,,,,,
null,,learn_phase(without_color),784188,black_plus_sign,,,,null,GW/soldier.jpg,GW/basket.jpg,,,,,,,,,,,,
null,,black_cross(without_color),785196,green,,,,null,GW/soldier.jpg,GW/basket.jpg,,,,,,,,,,,,
null,,rt_plussign_withcolor,785710,green,,,,null,GW/soldier.jpg,GW/basket.jpg,,,,,,,,,,,,
null,,rt_thecrossant_black,786721,black_plus_sign,,,,null,,,,0.9743589743589743,,,,,,,,,,
null,,color_black,786828,black_plus_sign,,,,null,,,,,,,,,,,,,,
null,,learn_phase(without_color),788840,black_plus_sign,,,,null,GW/paint.jpg,GW/hat.jpg,,,,,,,,,,,,
null,,black_cross(without_color),789829,blue,,,,null,GW/paint.jpg,GW/hat.jpg,,,,,,,,,,,,
null,,rt_plussign_withcolor,790343,blue,,,,null,GW/paint.jpg,GW/hat.jpg,,,,,,,,,,,,
1135.3999999761581,,rt_thecrossant_black,791380,black_plus_sign,,,,49,,,1,0.9745762711864406,,,,,,,,,,
null,,color_black,791495,black_plus_sign,,,,null,,,,,,,,,,,,,,
null,,learn_phase(without_color),793503,black_plus_sign,,,,null,GW/wheelchair.jpg,GW/soldier.jpg,,,,,,,,,,,,
null,,black_cross(without_color),794278,green,,,,null,GW/wheelchair.jpg,GW/soldier.jpg,,,,,,,,,,,,
null,,rt_plussign_withcolor,794784,green,,,,null,GW/wheelchair.jpg,GW/soldier.jpg,,,,,,,,,,,,
null,,rt_thecrossant_black,796026,black_plus_sign,,,,null,,,,0.9745762711864406,,,,,,,,,,
null,,color_black,796133,black_plus_sign,,,,null,,,,,,,,,,,,,,
null,,learn_phase(without_color),798145,black_plus_sign,,,,null,GW/barrel.jpg,GW/globe.jpg,,,,,,,,,,,,
null,,black_cross(without_color),798776,blue,,,,null,GW/barrel.jpg,GW/globe.jpg,,,,,,,,,,,,
null,,rt_plussign_withcolor,799281,blue,,,,null,GW/barrel.jpg,GW/globe.jpg,,,,,,,,,,,,
1001.8999999761581,,rt_thecrossant_black,800665,black_plus_sign,,,,49,,,1,0.9747899159663865,,,,,,,,,,
null,,color_black,800771,black_plus_sign,,,,null,,,,,,,,,,,,,,
null,,learn_phase(without_color),802783,black_plus_sign,,,,null,GW/soldier.jpg,GW/basket.jpg,,,,,,,,,,,,
null,,black_cross(without_color),803596,blue,,,,null,GW/soldier.jpg,GW/basket.jpg,,,,,,,,,,,,
null,,rt_plussign_withcolor,804112,blue,,,,null,GW/soldier.jpg,GW/basket.jpg,,,,,,,,,,,,
766.6000000238419,,rt_thecrossant_black,805316,black_plus_sign,,,,49,,,1,0.975,,,,,,,,,,
null,,color_black,805423,black_plus_sign,,,,null,,,,,,,,,,,,,,
null,,learn_phase(without_color),807430,black_plus_sign,,,,null,GW/paint.jpg,GW/teeth.jpg,,,,,,,,,,,,
null,,black_cross(without_color),808191,green,,,,null,GW/paint.jpg,GW/teeth.jpg,,,,,,,,,,,,
null,,rt_plussign_withcolor,808696,green,,,,null,GW/paint.jpg,GW/teeth.jpg,,,,,,,,,,,,
1135.2999999523163,,rt_thecrossant_black,809945,black_plus_sign,,,,50,,,1,0.9752066115702479,,,,,,,,,,
null,,color_black,810052,black_plus_sign,,,,null,,,,,,,,,,,,,,
null,,learn_phase(without_color),812060,black_plus_sign,,,,null,GW/soldier.jpg,GW/barrel.jpg,,,,,,,,,,,,
null,,black_cross(without_color),812557,blue,,,,null,GW/soldier.jpg,GW/barrel.jpg,,,,,,,,,,,,
479.2999999523163,,rt_plussign_withcolor,813065,blue,,,,49,GW/soldier.jpg,GW/barrel.jpg,,,,,,,,,,,,
null,,rt_thecrossant_black,814582,black_plus_sign,,,,null,,,1,0.9754098360655737,,,,,,,,,,
null,,color_black,814696,black_plus_sign,,,,null,,,,,,,,,,,,,,
null,,learn_phase(without_color),816701,black_plus_sign,,,,null,GW/camera.jpg,GW/paint.jpg,,,,,,,,,,,,
null,,black_cross(without_color),817472,green,,,,null,GW/camera.jpg,GW/paint.jpg,,,,,,,,,,,,
null,,rt_plussign_withcolor,817981,green,,,,null,GW/camera.jpg,GW/paint.jpg,,,,,,,,,,,,
754,,rt_thecrossant_black,819225,black_plus_sign,,,,49,,,0,0.967479674796748,,,,,,,,,,
null,,color_black,819339,black_plus_sign,,,,null,,,,,,,,,,,,,,
null,,learn_phase(without_color),821349,black_plus_sign,,,,null,GW/camera.jpg,GW/jukebox.jpg,,,,,,,,,,,,
null,,black_cross(without_color),822289,blue,,,,null,GW/camera.jpg,GW/jukebox.jpg,,,,,,,,,,,,
483,,rt_plussign_withcolor,822791,blue,,,,49,GW/camera.jpg,GW/jukebox.jpg,,,,,,,,,,,,
null,,rt_thecrossant_black,823870,black_plus_sign,,,,null,,,1,0.967741935483871,,,,,,,,,,
null,,color_black,823978,black_plus_sign,,,,null,,,,,,,,,,,,,,
null,,learn_phase(without_color),825983,black_plus_sign,,,,null,GW/soldier.jpg,GW/barrel.jpg,,,,,,,,,,,,
null,,black_cross(without_color),826912,green,,,,null,GW/soldier.jpg,GW/barrel.jpg,,,,,,,,,,,,
null,,rt_plussign_withcolor,827425,green,,,,null,GW/soldier.jpg,GW/barrel.jpg,,,,,,,,,,,,
1101.4000000953674,,rt_thecrossant_black,828529,black_plus_sign,,,,50,,,1,0.968,,,,,,,,,,
null,,color_black,828643,black_plus_sign,,,,null,,,,,,,,,,,,,,
28119.299999952316,,intro_1,856767,instruct,,0,Start,,,,,,,,,,,,,,,
6422.800000071526,,directmemory_phase,863192,GW/barrel.jpg,,,,51,,,1,1,GW/camera.jpg,GW/wheelchair.jpg,GW/gong.jpg,GW/gong.jpg,GW/wheelchair.jpg,GW/camera.jpg,1,,,
null,,html-keyboard-response,864207,<p></p>,,,,null,,,,,,,,,,,,,,
null,,directmemory_phase,870713,GW/dustpan.jpg,,,,null,,,0,0.5,GW/hat.jpg,GW/globe.jpg,GW/snail.jpg,GW/hat.jpg,GW/snail.jpg,GW/globe.jpg,0,,,
null,,html-keyboard-response,871721,<p></p>,,,,null,,,,,,,,,,,,,,
2883.5,,directmemory_phase,874607,GW/soldier.jpg,,,,51,,,1,0.6666666666666666,GW/paint.jpg,GW/gong.jpg,GW/barrel.jpg,GW/barrel.jpg,GW/gong.jpg,GW/paint.jpg,1,,,
null,,html-keyboard-response,875619,<p></p>,,,,null,,,,,,,,,,,,,,
3154.5,,directmemory_phase,878777,GW/camera.jpg,,,,51,,,1,0.75,GW/globe.jpg,GW/snail.jpg,GW/paint.jpg,GW/paint.jpg,GW/snail.jpg,GW/globe.jpg,1,,,
null,,html-keyboard-response,879796,<p></p>,,,,null,,,,,,,,,,,,,,
2770.7000000476837,,directmemory_phase,882569,GW/barrel.jpg,,,,50,,,1,0.8,GW/snail.jpg,GW/soldier.jpg,GW/dustpan.jpg,GW/soldier.jpg,GW/snail.jpg,GW/dustpan.jpg,1,,,
null,,html-keyboard-response,883574,<p></p>,,,,null,,,,,,,,,,,,,,
null,,directmemory_phase,890083,GW/hat.jpg,,,,null,,,0,0.6666666666666666,GW/jukebox.jpg,GW/camera.jpg,GW/soldier.jpg,GW/camera.jpg,GW/jukebox.jpg,GW/soldier.jpg,0,,,
null,,html-keyboard-response,891093,<p></p>,,,,null,,,,,,,,,,,,,,
2077.2000000476837,,directmemory_phase,893173,GW/teeth.jpg,,,,49,,,1,0.7142857142857143,GW/paint.jpg,GW/jukebox.jpg,GW/camera.jpg,GW/paint.jpg,GW/camera.jpg,GW/jukebox.jpg,1,,,
null,,html-keyboard-response,894180,<p></p>,,,,null,,,,,,,,,,,,,,
2225.7000000476837,,directmemory_phase,896409,GW/barrel.jpg,,,,51,,,1,0.75,GW/camera.jpg,GW/wheelchair.jpg,GW/globe.jpg,GW/globe.jpg,GW/wheelchair.jpg,GW/camera.jpg,1,,,
null,,html-keyboard-response,897426,<p></p>,,,,null,,,,,,,,,,,,,,
3134.899999976158,,directmemory_phase,900564,GW/dustpan.jpg,,,,51,,,1,0.7777777777777778,GW/gong.jpg,GW/paint.jpg,GW/basket.jpg,GW/basket.jpg,GW/paint.jpg,GW/gong.jpg,1,,,
null,,html-keyboard-response,901575,<p></p>,,,,null,,,,,,,,,,,,,,
2533,,directmemory_phase,904113,GW/snail.jpg,,,,49,,,1,0.8,GW/hat.jpg,GW/gong.jpg,GW/camera.jpg,GW/hat.jpg,GW/camera.jpg,GW/gong.jpg,1,,,
null,,html-keyboard-response,905116,<p></p>,,,,null,,,,,,,,,,,,,,
2306.399999976158,,directmemory_phase,907425,GW/soldier.jpg,,,,49,,,0,0.7272727272727273,GW/globe.jpg,GW/basket.jpg,GW/camera.jpg,GW/basket.jpg,GW/globe.jpg,GW/camera.jpg,0.5,closer,,
null,,html-keyboard-response,908432,<p></p>,,,,null,,,,,,,,,,,,,,
2568.3000000715256,,directmemory_phase,911004,GW/paint.jpg,,,,50,,,1,0.75,GW/dustpan.jpg,GW/camera.jpg,GW/barrel.jpg,GW/camera.jpg,GW/dustpan.jpg,GW/barrel.jpg,1,,,
null,,html-keyboard-response,912023,<p></p>,,,,null,,,,,,,,,,,,,,
1908.6000000238419,,directmemory_phase,913935,GW/basket.jpg,,,,50,,,1,0.7692307692307693,GW/hat.jpg,GW/snail.jpg,GW/teeth.jpg,GW/snail.jpg,GW/hat.jpg,GW/teeth.jpg,1,,,
null,,html-keyboard-response,914947,<p></p>,,,,null,,,,,,,,,,,,,,
1947.5,,directmemory_phase,916897,GW/dustpan.jpg,,,,50,,,1,0.7857142857142857,GW/jukebox.jpg,GW/camera.jpg,GW/barrel.jpg,GW/camera.jpg,GW/jukebox.jpg,GW/barrel.jpg,1,,,
null,,html-keyboard-response,917903,<p></p>,,,,null,,,,,,,,,,,,,,
1723.4000000953674,,directmemory_phase,919629,GW/snail.jpg,,,,51,,,1,0.8,GW/gong.jpg,GW/soldier.jpg,GW/basket.jpg,GW/basket.jpg,GW/soldier.jpg,GW/gong.jpg,1,,,
null,,html-keyboard-response,920638,<p></p>,,,,null,,,,,,,,,,,,,,
4647.600000023842,,directmemory_phase,925288,GW/jukebox.jpg,,,,50,,,0,0.75,GW/camera.jpg,GW/globe.jpg,GW/paint.jpg,GW/camera.jpg,GW/paint.jpg,GW/globe.jpg,0.5,closer,,
null,,html-keyboard-response,926295,<p></p>,,,,null,,,,,,,,,,,,,,
2966.7000000476837,,directmemory_phase,929265,GW/globe.jpg,,,,50,,,0,0.7058823529411765,GW/snail.jpg,GW/paint.jpg,GW/basket.jpg,GW/snail.jpg,GW/basket.jpg,GW/paint.jpg,0.5,closer,,
null,,html-keyboard-response,930275,<p></p>,,,,null,,,,,,,,,,,,,,
2310.7000000476837,,directmemory_phase,932589,GW/camera.jpg,,,,51,,,1,0.7222222222222222,GW/wheelchair.jpg,GW/snail.jpg,GW/dustpan.jpg,GW/dustpan.jpg,GW/snail.jpg,GW/wheelchair.jpg,1,,,
null,,html-keyboard-response,933598,<p></p>,,,,null,,,,,,,,,,,,,,
3482.899999976158,,directmemory_phase,937085,GW/wheelchair.jpg,,,,50,,,0,0.6842105263157895,GW/camera.jpg,GW/basket.jpg,GW/soldier.jpg,GW/soldier.jpg,GW/basket.jpg,GW/camera.jpg,0.5,closer,,
null,,html-keyboard-response,938092,<p></p>,,,,null,,,,,,,,,,,,,,
3828.3000000715256,,directmemory_phase,941924,GW/camera.jpg,,,,50,,,0,0.65,GW/hat.jpg,GW/soldier.jpg,GW/snail.jpg,GW/hat.jpg,GW/snail.jpg,GW/soldier.jpg,0.5,closer,,
null,,html-keyboard-response,942938,<p></p>,,,,null,,,,,,,,,,,,,,
2177.899999976158,,directmemory_phase,945119,GW/soldier.jpg,,,,49,,,1,0.6666666666666666,GW/wheelchair.jpg,GW/jukebox.jpg,GW/globe.jpg,GW/wheelchair.jpg,GW/globe.jpg,GW/jukebox.jpg,1,,,
null,,html-keyboard-response,946129,<p></p>,,,,null,,,,,,,,,,,,,,
4354.699999928474,,directmemory_phase,950487,GW/hat.jpg,,,,51,,,0,0.6363636363636364,GW/dustpan.jpg,GW/wheelchair.jpg,GW/globe.jpg,GW/dustpan.jpg,GW/globe.jpg,GW/wheelchair.jpg,0.5,closer,,
null,,html-keyboard-response,951498,<p></p>,,,,null,,,,,,,,,,,,,,
1995,,directmemory_phase,953496,GW/gong.jpg,,,,51,,,1,0.6521739130434783,GW/hat.jpg,GW/soldier.jpg,GW/barrel.jpg,GW/barrel.jpg,GW/soldier.jpg,GW/hat.jpg,1,,,
null,,html-keyboard-response,954504,<p></p>,,,,null,,,,,,,,,,,,,,
3474.100000023842,,directmemory_phase,957982,GW/hat.jpg,,,,50,,,1,0.6666666666666666,GW/jukebox.jpg,GW/paint.jpg,GW/wheelchair.jpg,GW/paint.jpg,GW/jukebox.jpg,GW/wheelchair.jpg,1,,,
null,,html-keyboard-response,958993,<p></p>,,,,null,,,,,,,,,,,,,,
4563.299999952316,,directmemory_phase,963559,GW/snail.jpg,,,,49,,,0,0.64,GW/jukebox.jpg,GW/soldier.jpg,GW/globe.jpg,GW/globe.jpg,GW/soldier.jpg,GW/jukebox.jpg,0.5,closer,,
null,,html-keyboard-response,964574,<p></p>,,,,null,,,,,,,,,,,,,,
2982.600000023842,,directmemory_phase,967561,GW/paint.jpg,,,,51,,,0,0.6153846153846154,GW/teeth.jpg,GW/barrel.jpg,GW/snail.jpg,GW/teeth.jpg,GW/snail.jpg,GW/barrel.jpg,0.5,closer,,
null,,html-keyboard-response,968574,<p></p>,,,,null,,,,,,,,,,,,,,
null,,directmemory_phase,975085,GW/hat.jpg,,,,null,,,0,0.5925925925925926,GW/snail.jpg,GW/soldier.jpg,GW/teeth.jpg,GW/snail.jpg,GW/teeth.jpg,GW/soldier.jpg,0,,,
null,,html-keyboard-response,976102,<p></p>,,,,null,,,,,,,,,,,,,,
1768.1000000238419,,directmemory_phase,977874,GW/basket.jpg,,,,51,,,1,0.6071428571428571,GW/jukebox.jpg,GW/globe.jpg,GW/dustpan.jpg,GW/dustpan.jpg,GW/globe.jpg,GW/jukebox.jpg,1,,,
null,,html-keyboard-response,978891,<p></p>,,,,null,,,,,,,,,,,,,,
1717.3999999761581,,directmemory_phase,980612,GW/globe.jpg,,,,51,,,1,0.6206896551724138,GW/wheelchair.jpg,GW/soldier.jpg,GW/barrel.jpg,GW/barrel.jpg,GW/soldier.jpg,GW/wheelchair.jpg,1,,,
null,,html-keyboard-response,981622,<p></p>,,,,null,,,,,,,,,,,,,,
3876.4000000953674,,directmemory_phase,985501,GW/camera.jpg,,,,51,,,1,0.6333333333333333,GW/wheelchair.jpg,GW/snail.jpg,GW/jukebox.jpg,GW/jukebox.jpg,GW/snail.jpg,GW/wheelchair.jpg,1,,,
null,,html-keyboard-response,986520,<p></p>,,,,null,,,,,,,,,,,,,,
2069,,directmemory_phase,988592,GW/basket.jpg,,,,49,,,1,0.6451612903225806,GW/soldier.jpg,GW/teeth.jpg,GW/wheelchair.jpg,GW/soldier.jpg,GW/wheelchair.jpg,GW/teeth.jpg,1,,,
null,,html-keyboard-response,989604,<p></p>,,,,null,,,,,,,,,,,,,,
4470.799999952316,,directmemory_phase,994078,GW/paint.jpg,,,,50,,,0,0.625,GW/globe.jpg,GW/jukebox.jpg,GW/hat.jpg,GW/hat.jpg,GW/jukebox.jpg,GW/globe.jpg,0.5,closer,,
null,,html-keyboard-response,995096,<p></p>,,,,null,,,,,,,,,,,,,,
22963.600000023842,,intro_1,1018062,instruct,,0,,,,,,,,,,,,,,,,
13543.100000023842,,intro_2,1031607,instruct,,1,Next,,,,,,,,,,,,,,,
7183.199999928474,,intro_3,1038792,instruct,,1,Next,,,,,,,,,,,,,,,
13681.199999928474,,intro_4,1052475,instruct,,1,Next,,,,,,,,,,,,,,,
27756.600000023842,,intro_5,1080233,instruct,,1,Next,,,,,,,,,,,,,,,
23812.600000023842,,intro_6,1104047,instruct,,1,Next,,,,,,,,,,,,,,,
8354.899999976158,,intro_7,1112404,instruct,,1,Next,,,,,,,,,,,,,,,
59745.89999997616,,intro_8,1172152,instruct,,1,Next,,,,,,,,,,,,,,,
4173.399999976158,,shortestpath_phase,1176328,GW/teeth.jpg,,,,50,GW/barrel.jpg,GW/basket.jpg,1,1,,,,GW/basket.jpg,,,,,One Edge Diff,Four Edge Five Edge
null,,html-keyboard-response,1177342,<p></p>,,,,null,,,,,,,,,,,,,,
4250.399999976158,,shortestpath_phase,1181595,GW/barrel.jpg,,,,50,GW/teeth.jpg,GW/wheelchair.jpg,1,1,,,,GW/wheelchair.jpg,,,,,Three Edge Diff,Three Edge Six Edge
null,,html-keyboard-response,1182602,<p></p>,,,,null,,,,,,,,,,,,,,
3298.100000023842,,shortestpath_phase,1185904,GW/teeth.jpg,,,,49,GW/barrel.jpg,GW/camera.jpg,0,0.6666666666666666,,,,GW/camera.jpg,,,,,Three Edge Diff,Two Edge Five Edge
null,,html-keyboard-response,1186921,<p></p>,,,,null,,,,,,,,,,,,,,
3574.7999999523163,,shortestpath_phase,1190499,GW/globe.jpg,,,,49,GW/wheelchair.jpg,GW/teeth.jpg,1,0.75,,,,GW/wheelchair.jpg,,,,,One Edge Diff,Three Edge Four Edge
null,,html-keyboard-response,1191505,<p></p>,,,,null,,,,,,,,,,,,,,
2695.5999999046326,,shortestpath_phase,1194204,GW/jukebox.jpg,,,,49,GW/gong.jpg,GW/hat.jpg,0,0.6,,,,GW/hat.jpg,,,,,Four Edge Diff,Two Edge Six Edge
null,,html-keyboard-response,1195221,<p></p>,,,,null,,,,,,,,,,,,,,
1939.7999999523163,,shortestpath_phase,1197164,GW/wheelchair.jpg,,,,49,GW/barrel.jpg,GW/teeth.jpg,1,0.6666666666666666,,,,GW/barrel.jpg,,,,,Four Edge Diff,Two Edge Six Edge
null,,html-keyboard-response,1198172,<p></p>,,,,null,,,,,,,,,,,,,,
2754.7000000476837,,shortestpath_phase,1200930,GW/teeth.jpg,,,,50,GW/barrel.jpg,GW/jukebox.jpg,1,0.7142857142857143,,,,GW/jukebox.jpg,,,,,Two Edge Diff,Three Edge Five Edge
null,,html-keyboard-response,1201942,<p></p>,,,,null,,,,,,,,,,,,,,
2179.2999999523163,,shortestpath_phase,1204125,GW/wheelchair.jpg,,,,49,GW/hat.jpg,GW/teeth.jpg,1,0.75,,,,GW/hat.jpg,,,,,Two Edge Diff,Four Edge Six Edge
null,,html-keyboard-response,1205145,<p></p>,,,,null,,,,,,,,,,,,,,
3543.899999976158,,shortestpath_phase,1208692,GW/camera.jpg,,,,49,GW/snail.jpg,GW/gong.jpg,1,0.7777777777777778,,,,GW/snail.jpg,,,,,Three Edge Diff,Three Edge Six Edge
null,,html-keyboard-response,1209709,<p></p>,,,,null,,,,,,,,,,,,,,
2734.7999999523163,,shortestpath_phase,1212447,GW/barrel.jpg,,,,50,GW/wheelchair.jpg,GW/hat.jpg,0,0.7,,,,GW/wheelchair.jpg,,,,,One Edge Diff,Two Edge Three Edge
null,,html-keyboard-response,1213454,<p></p>,,,,null,,,,,,,,,,,,,,
1985.5,,shortestpath_phase,1215444,GW/jukebox.jpg,,,,50,GW/hat.jpg,GW/barrel.jpg,0,0.6363636363636364,,,,GW/hat.jpg,,,,,Three Edge Diff,Two Edge Five Edge
null,,html-keyboard-response,1216463,<p></p>,,,,null,,,,,,,,,,,,,,
2708.3000000715256,,shortestpath_phase,1219174,GW/wheelchair.jpg,,,,50,GW/camera.jpg,GW/teeth.jpg,0,0.5833333333333334,,,,GW/camera.jpg,,,,,Two Edge Diff,Four Edge Six Edge
null,,html-keyboard-response,1220182,<p></p>,,,,null,,,,,,,,,,,,,,
2897.5,,shortestpath_phase,1223082,GW/teeth.jpg,,,,50,GW/soldier.jpg,GW/gong.jpg,0,0.5384615384615384,,,,GW/soldier.jpg,,,,,One Edge Diff,Five Edge Six Edge
null,,html-keyboard-response,1224089,<p></p>,,,,null,,,,,,,,,,,,,,
3979.5,,shortestpath_phase,1228071,GW/wheelchair.jpg,,,,50,GW/basket.jpg,GW/paint.jpg,0,0.5,,,,GW/basket.jpg,,,,,Three Edge Diff,Three Edge Six Edge
null,,html-keyboard-response,1229091,<p></p>,,,,null,,,,,,,,,,,,,,
2916.8000000715256,,shortestpath_phase,1232011,GW/teeth.jpg,,,,50,GW/snail.jpg,GW/globe.jpg,0,0.4666666666666667,,,,GW/snail.jpg,,,,,One Edge Diff,Three Edge Four Edge
null,,html-keyboard-response,1233019,<p></p>,,,,null,,,,,,,,,,,,,,
3161.100000023842,,shortestpath_phase,1236184,GW/wheelchair.jpg,,,,50,GW/paint.jpg,GW/camera.jpg,1,0.5,,,,GW/camera.jpg,,,,,One Edge Diff,Four Edge Five Edge
null,,html-keyboard-response,1237191,<p></p>,,,,null,,,,,,,,,,,,,,
3510.5,,shortestpath_phase,1240705,GW/soldier.jpg,,,,49,GW/snail.jpg,GW/teeth.jpg,1,0.5294117647058824,,,,GW/snail.jpg,,,,,Three Edge Diff,Two Edge Five Edge
null,,html-keyboard-response,1241718,<p></p>,,,,null,,,,,,,,,,,,,,
2915.7000000476837,,shortestpath_phase,1244639,GW/gong.jpg,,,,50,GW/jukebox.jpg,GW/paint.jpg,1,0.5555555555555556,,,,GW/paint.jpg,,,,,One Edge Diff,Five Edge Six Edge
null,,html-keyboard-response,1245646,<p></p>,,,,null,,,,,,,,,,,,,,
2637.7000000476837,,shortestpath_phase,1248287,GW/wheelchair.jpg,,,,49,GW/camera.jpg,GW/snail.jpg,0,0.5263157894736842,,,,GW/snail.jpg,,,,,One Edge Diff,Three Edge Four Edge
null,,html-keyboard-response,1249297,<p></p>,,,,null,,,,,,,,,,,,,,
4734.399999976158,,shortestpath_phase,1254035,GW/jukebox.jpg,,,,50,GW/gong.jpg,GW/paint.jpg,1,0.55,,,,GW/paint.jpg,,,,,Four Edge Diff,Two Edge Six Edge
null,,html-keyboard-response,1255049,<p></p>,,,,null,,,,,,,,,,,,,,
6073.299999952316,,shortestpath_phase,1261125,GW/hat.jpg,,,,50,GW/barrel.jpg,GW/teeth.jpg,1,0.5714285714285714,,,,GW/teeth.jpg,,,,,One Edge Diff,Two Edge Three Edge
null,,html-keyboard-response,1262140,<p></p>,,,,null,,,,,,,,,,,,,,
3135,,shortestpath_phase,1265279,GW/snail.jpg,,,,49,GW/barrel.jpg,GW/wheelchair.jpg,1,0.5909090909090909,,,,GW/barrel.jpg,,,,,One Edge Diff,Two Edge Three Edge
null,,html-keyboard-response,1266287,<p></p>,,,,null,,,,,,,,,,,,,,
6078.199999928474,,shortestpath_phase,1272369,GW/jukebox.jpg,,,,50,GW/soldier.jpg,GW/gong.jpg,0,0.5652173913043478,,,,GW/soldier.jpg,,,,,Two Edge Diff,Four Edge Six Edge
null,,html-keyboard-response,1273386,<p></p>,,,,null,,,,,,,,,,,,,,
3245.7999999523163,,shortestpath_phase,1276634,GW/wheelchair.jpg,,,,49,GW/basket.jpg,GW/teeth.jpg,1,0.5833333333333334,,,,GW/basket.jpg,,,,,Four Edge Diff,Two Edge Six Edge
null,,html-keyboard-response,1277646,<p></p>,,,,null,,,,,,,,,,,,,,
6788.299999952316,,shortestpath_phase,1284437,GW/teeth.jpg,,,,49,GW/camera.jpg,GW/wheelchair.jpg,1,0.6,,,,GW/camera.jpg,,,,,Four Edge Diff,Two Edge Six Edge
null,,html-keyboard-response,1285448,<p></p>,,,,null,,,,,,,,,,,,,,
3771.100000023842,,shortestpath_phase,1289222,GW/paint.jpg,,,,50,GW/globe.jpg,GW/gong.jpg,0,0.5769230769230769,,,,GW/globe.jpg,,,,,Two Edge Diff,Three Edge Five Edge
null,,html-keyboard-response,1290227,<p></p>,,,,null,,,,,,,,,,,,,,
3762,,shortestpath_phase,1293992,GW/camera.jpg,,,,50,GW/gong.jpg,GW/snail.jpg,1,0.5925925925925926,,,,GW/snail.jpg,,,,,Three Edge Diff,Two Edge Five Edge
null,,html-keyboard-response,1294997,<p></p>,,,,null,,,,,,,,,,,,,,
6544.299999952316,,shortestpath_phase,1301545,GW/gong.jpg,,,,49,GW/soldier.jpg,GW/teeth.jpg,1,0.6071428571428571,,,,GW/soldier.jpg,,,,,Four Edge Diff,Two Edge Six Edge
null,,html-keyboard-response,1302552,<p></p>,,,,null,,,,,,,,,,,,,,
2799.5,,shortestpath_phase,1305357,GW/teeth.jpg,,,,49,GW/soldier.jpg,GW/camera.jpg,0,0.5862068965517241,,,,GW/camera.jpg,,,,,Three Edge Diff,Three Edge Six Edge
null,,html-keyboard-response,1306363,<p></p>,,,,null,,,,,,,,,,,,,,
2252.399999976158,,shortestpath_phase,1308618,GW/gong.jpg,,,,49,GW/soldier.jpg,GW/basket.jpg,1,0.6,,,,GW/soldier.jpg,,,,,One Edge Diff,Two Edge Three Edge
null,,html-keyboard-response,1309629,<p></p>,,,,null,,,,,,,,,,,,,,
null,,shortestpath_phase,1317140,GW/teeth.jpg,,,,null,GW/camera.jpg,GW/soldier.jpg,0,0.5806451612903226,,,,GW/camera.jpg,,,,,Three Edge Diff,Two Edge Five Edge
null,,html-keyboard-response,1318146,<p></p>,,,,null,,,,,,,,,,,,,,
1752.3999999761581,,shortestpath_phase,1319901,GW/paint.jpg,,,,49,GW/jukebox.jpg,GW/wheelchair.jpg,1,0.59375,,,,GW/jukebox.jpg,,,,,Three Edge Diff,Two Edge Five Edge
null,,html-keyboard-response,1320905,<p></p>,,,,null,,,,,,,,,,,,,,
2941.399999976158,,shortestpath_phase,1323850,GW/teeth.jpg,,,,49,GW/barrel.jpg,GW/snail.jpg,0,0.5757575757575758,,,,GW/snail.jpg,,,,,Two Edge Diff,Three Edge Five Edge
null,,html-keyboard-response,1324867,<p></p>,,,,null,,,,,,,,,,,,,,
3067.0999999046326,,shortestpath_phase,1327938,GW/soldier.jpg,,,,49,GW/teeth.jpg,GW/camera.jpg,0,0.5588235294117647,,,,GW/camera.jpg,,,,,Two Edge Diff,Three Edge Five Edge
null,,html-keyboard-response,1328945,<p></p>,,,,null,,,,,,,,,,,,,,
6023.200000047684,,shortestpath_phase,1334972,GW/barrel.jpg,,,,50,GW/wheelchair.jpg,GW/dustpan.jpg,0,0.5428571428571428,,,,GW/wheelchair.jpg,,,,,One Edge Diff,Two Edge Three Edge
null,,html-keyboard-response,1335983,<p></p>,,,,null,,,,,,,,,,,,,,
2200.899999976158,,shortestpath_phase,1338187,GW/teeth.jpg,,,,49,GW/hat.jpg,GW/basket.jpg,1,0.5555555555555556,,,,GW/hat.jpg,,,,,Two Edge Diff,Two Edge Four Edge
null,,html-keyboard-response,1339199,<p></p>,,,,null,,,,,,,,,,,,,,
null,,shortestpath_phase,1346703,GW/gong.jpg,,,,null,GW/wheelchair.jpg,GW/camera.jpg,0,0.5405405405405406,,,,GW/wheelchair.jpg,,,,,Two Edge Diff,Three Edge Five Edge
null,,html-keyboard-response,1347722,<p></p>,,,,null,,,,,,,,,,,,,,
2845.2000000476837,,shortestpath_phase,1350571,GW/teeth.jpg,,,,50,GW/gong.jpg,GW/barrel.jpg,1,0.5526315789473685,,,,GW/barrel.jpg,,,,,One Edge Diff,Five Edge Six Edge
null,,html-keyboard-response,1351588,<p></p>,,,,null,,,,,,,,,,,,,,
2032.5,,shortestpath_phase,1353623,GW/gong.jpg,,,,49,GW/paint.jpg,GW/globe.jpg,0,0.5384615384615384,,,,GW/globe.jpg,,,,,Three Edge Diff,Three Edge Six Edge
null,,html-keyboard-response,1354637,<p></p>,,,,null,,,,,,,,,,,,,,
1679.6999999284744,,shortestpath_phase,1356320,GW/wheelchair.jpg,,,,49,GW/paint.jpg,GW/dustpan.jpg,0,0.525,,,,GW/dustpan.jpg,,,,,Two Edge Diff,Three Edge Five Edge
null,,html-keyboard-response,1357327,<p></p>,,,,null,,,,,,,,,,,,,,
2063.1999999284744,,shortestpath_phase,1359393,GW/barrel.jpg,,,,50,GW/jukebox.jpg,GW/paint.jpg,1,0.5365853658536586,,,,GW/paint.jpg,,,,,One Edge Diff,Four Edge Five Edge
null,,html-keyboard-response,1360399,<p></p>,,,,null,,,,,,,,,,,,,,
1962.3999999761581,,shortestpath_phase,1362364,GW/globe.jpg,,,,49,GW/jukebox.jpg,GW/wheelchair.jpg,0,0.5238095238095238,,,,GW/wheelchair.jpg,,,,,One Edge Diff,Three Edge Four Edge
null,,html-keyboard-response,1363384,<p></p>,,,,null,,,,,,,,,,,,,,
3202.2999999523163,,shortestpath_phase,1366589,GW/teeth.jpg,,,,50,GW/basket.jpg,GW/soldier.jpg,0,0.5116279069767442,,,,GW/basket.jpg,,,,,One Edge Diff,Four Edge Five Edge
null,,html-keyboard-response,1367609,<p></p>,,,,null,,,,,,,,,,,,,,
2631.2000000476837,,shortestpath_phase,1370243,GW/gong.jpg,,,,50,GW/teeth.jpg,GW/paint.jpg,1,0.5227272727272727,,,,GW/paint.jpg,,,,,One Edge Diff,Five Edge Six Edge
null,,html-keyboard-response,1371259,<p></p>,,,,null,,,,,,,,,,,,,,
5994.200000047684,,shortestpath_phase,1377257,GW/teeth.jpg,,,,50,GW/globe.jpg,GW/barrel.jpg,0,0.5111111111111111,,,,GW/globe.jpg,,,,,One Edge Diff,Four Edge Five Edge
null,,html-keyboard-response,1378267,<p></p>,,,,null,,,,,,,,,,,,,,
2054.2000000476837,,shortestpath_phase,1380324,GW/wheelchair.jpg,,,,49,GW/camera.jpg,GW/barrel.jpg,0,0.5,,,,GW/barrel.jpg,,,,,Two Edge Diff,Two Edge Four Edge
null,,html-keyboard-response,1381332,<p></p>,,,,null,,,,,,,,,,,,,,
null,,shortestpath_phase,1388840,GW/camera.jpg,,,,null,GW/gong.jpg,GW/teeth.jpg,0,0.48936170212765956,,,,GW/teeth.jpg,,,,,Three Edge Diff,Two Edge Five Edge
null,,html-keyboard-response,1389851,<p></p>,,,,null,,,,,,,,,,,,,,
1367.6000000238419,,shortestpath_phase,1391221,GW/soldier.jpg,,,,49,GW/teeth.jpg,GW/paint.jpg,0,0.4791666666666667,,,,GW/paint.jpg,,,,,One Edge Diff,Four Edge Five Edge
null,,html-keyboard-response,1392239,<p></p>,,,,null,,,,,,,,,,,,,,
3396.7999999523163,,shortestpath_phase,1395639,GW/teeth.jpg,,,,49,GW/wheelchair.jpg,GW/globe.jpg,0,0.46938775510204084,,,,GW/globe.jpg,,,,,Two Edge Diff,Four Edge Six Edge
null,,html-keyboard-response,1396651,<p></p>,,,,null,,,,,,,,,,,,,,
null,,shortestpath_phase,1404158,GW/wheelchair.jpg,,,,null,GW/jukebox.jpg,GW/teeth.jpg,0,0.46,,,,GW/jukebox.jpg,,,,,One Edge Diff,Five Edge Six Edge
null,,html-keyboard-response,1405163,<p></p>,,,,null,,,,,,,,,,,,,,
1496.8000000715256,,shortestpath_phase,1406664,GW/teeth.jpg,,,,49,GW/barrel.jpg,GW/wheelchair.jpg,1,0.47058823529411764,,,,GW/barrel.jpg,,,,,One Edge Diff,Five Edge Six Edge
null,,html-keyboard-response,1407668,<p></p>,,,,null,,,,,,,,,,,,,,
3196.899999976158,,shortestpath_phase,1410868,GW/wheelchair.jpg,,,,50,GW/basket.jpg,GW/paint.jpg,0,0.46153846153846156,,,,GW/basket.jpg,,,,,Three Edge Diff,Two Edge Five Edge
null,,html-keyboard-response,1411882,<p></p>,,,,null,,,,,,,,,,,,,,
1657.1000000238419,,shortestpath_phase,1413543,GW/teeth.jpg,,,,50,GW/gong.jpg,GW/hat.jpg,1,0.4716981132075472,,,,GW/hat.jpg,,,,,Four Edge Diff,Two Edge Six Edge
null,,html-keyboard-response,1414560,<p></p>,,,,null,,,,,,,,,,,,,,
4020.5,,shortestpath_phase,1418584,GW/dustpan.jpg,,,,49,GW/gong.jpg,GW/globe.jpg,0,0.46296296296296297,,,,GW/globe.jpg,,,,,One Edge Diff,Three Edge Four Edge
null,,html-keyboard-response,1419597,<p></p>,,,,null,,,,,,,,,,,,,,
6066.5,,shortestpath_phase,1425667,GW/teeth.jpg,,,,50,GW/wheelchair.jpg,GW/hat.jpg,1,0.4727272727272727,,,,GW/hat.jpg,,,,,Four Edge Diff,Two Edge Six Edge
null,,html-keyboard-response,1426681,<p></p>,,,,null,,,,,,,,,,,,,,
7050.899999976158,,shortestpath_phase,1433735,GW/barrel.jpg,,,,50,GW/dustpan.jpg,GW/paint.jpg,0,0.4642857142857143,,,,GW/dustpan.jpg,,,,,One Edge Diff,Three Edge Four Edge
null,,html-keyboard-response,1434747,<p></p>,,,,null,,,,,,,,,,,,,,
2134.1999999284744,,shortestpath_phase,1436884,GW/paint.jpg,,,,50,GW/snail.jpg,GW/soldier.jpg,0,0.45614035087719296,,,,GW/snail.jpg,,,,,Two Edge Diff,Two Edge Four Edge
null,,html-keyboard-response,1437895,<p></p>,,,,null,,,,,,,,,,,,,,
3154.0999999046326,,shortestpath_phase,1441053,GW/globe.jpg,,,,50,GW/hat.jpg,GW/teeth.jpg,0,0.4482758620689655,,,,GW/hat.jpg,,,,,Two Edge Diff,Two Edge Four Edge
null,,html-keyboard-response,1442064,<p></p>,,,,null,,,,,,,,,,,,,,
2079.1999999284744,,shortestpath_phase,1444147,GW/wheelchair.jpg,,,,50,GW/basket.jpg,GW/jukebox.jpg,0,0.4406779661016949,,,,GW/basket.jpg,,,,,Three Edge Diff,Three Edge Six Edge
null,,html-keyboard-response,1445168,<p></p>,,,,null,,,,,,,,,,,,,,
5610.399999976158,,shortestpath_phase,1450782,GW/gong.jpg,,,,49,GW/hat.jpg,GW/teeth.jpg,1,0.45,,,,GW/hat.jpg,,,,,Two Edge Diff,Four Edge Six Edge
null,,html-keyboard-response,1451798,<p></p>,,,,null,,,,,,,,,,,,,,
1146.8999999761581,,shortestpath_phase,1452948,GW/jukebox.jpg,,,,50,GW/globe.jpg,GW/barrel.jpg,0,0.4426229508196721,,,,GW/globe.jpg,,,,,One Edge Diff,Four Edge Five Edge
null,,html-keyboard-response,1453956,<p></p>,,,,null,,,,,,,,,,,,,,
1476.3999999761581,,shortestpath_phase,1455436,GW/camera.jpg,,,,49,GW/teeth.jpg,GW/globe.jpg,1,0.45161290322580644,,,,GW/teeth.jpg,,,,,One Edge Diff,Two Edge Three Edge
null,,html-keyboard-response,1456448,<p></p>,,,,null,,,,,,,,,,,,,,
1409.7999999523163,,shortestpath_phase,1457861,GW/jukebox.jpg,,,,49,GW/globe.jpg,GW/gong.jpg,1,0.4603174603174603,,,,GW/globe.jpg,,,,,Two Edge Diff,Four Edge Six Edge
null,,html-keyboard-response,1458872,<p></p>,,,,null,,,,,,,,,,,,,,
null,,shortestpath_phase,1466379,GW/gong.jpg,,,,null,GW/jukebox.jpg,GW/soldier.jpg,0,0.453125,,,,GW/soldier.jpg,,,,,Four Edge Diff,Two Edge Six Edge
null,,html-keyboard-response,1467390,<p></p>,,,,null,,,,,,,,,,,,,,
2726.100000023842,,shortestpath_phase,1470119,GW/hat.jpg,,,,49,GW/globe.jpg,GW/barrel.jpg,1,0.46153846153846156,,,,GW/globe.jpg,,,,,One Edge Diff,Two Edge Three Edge
null,,html-keyboard-response,1471136,<p></p>,,,,null,,,,,,,,,,,,,,
1772.6999999284744,,shortestpath_phase,1472912,GW/camera.jpg,,,,50,GW/barrel.jpg,GW/soldier.jpg,1,0.4696969696969697,,,,GW/soldier.jpg,,,,,One Edge Diff,Three Edge Four Edge
null,,html-keyboard-response,1473919,<p></p>,,,,null,,,,,,,,,,,,,,
1487.7000000476837,,shortestpath_phase,1475410,GW/teeth.jpg,,,,49,GW/basket.jpg,GW/wheelchair.jpg,1,0.47761194029850745,,,,GW/basket.jpg,,,,,Two Edge Diff,Four Edge Six Edge
null,,html-keyboard-response,1476420,<p></p>,,,,null,,,,,,,,,,,,,,
892.2999999523163,,shortestpath_phase,1477315,GW/paint.jpg,,,,49,GW/snail.jpg,GW/wheelchair.jpg,1,0.4852941176470588,,,,GW/snail.jpg,,,,,Three Edge Diff,Three Edge Six Edge
null,,html-keyboard-response,1478322,<p></p>,,,,null,,,,,,,,,,,,,,
3823.2000000476837,,shortestpath_phase,1482148,GW/teeth.jpg,,,,49,GW/camera.jpg,GW/basket.jpg,1,0.4927536231884058,,,,GW/camera.jpg,,,,,Two Edge Diff,Two Edge Four Edge
null,,html-keyboard-response,1483154,<p></p>,,,,null,,,,,,,,,,,,,,
2025.1000000238419,,shortestpath_phase,1485185,GW/jukebox.jpg,,,,50,GW/wheelchair.jpg,GW/soldier.jpg,1,0.5,,,,GW/soldier.jpg,,,,,One Edge Diff,Four Edge Five Edge
null,,html-keyboard-response,1486191,<p></p>,,,,null,,,,,,,,,,,,,,
4355.600000023842,,shortestpath_phase,1490550,GW/globe.jpg,,,,49,GW/hat.jpg,GW/dustpan.jpg,1,0.5070422535211268,,,,GW/hat.jpg,,,,,One Edge Diff,Two Edge Three Edge
null,,html-keyboard-response,1491558,<p></p>,,,,null,,,,,,,,,,,,,,
2150.600000023842,,shortestpath_phase,1493712,GW/jukebox.jpg,,,,50,GW/gong.jpg,GW/barrel.jpg,1,0.5138888888888888,,,,GW/barrel.jpg,,,,,One Edge Diff,Five Edge Six Edge
null,,html-keyboard-response,1494724,<p></p>,,,,null,,,,,,,,,,,,,,
4666.5,,shortestpath_phase,1499394,GW/camera.jpg,,,,49,GW/basket.jpg,GW/wheelchair.jpg,1,0.5205479452054794,,,,GW/basket.jpg,,,,,Two Edge Diff,Two Edge Four Edge
null,,html-keyboard-response,1500411,<p></p>,,,,null,,,,,,,,,,,,,,
2321.2999999523163,,shortestpath_phase,1502736,GW/jukebox.jpg,,,,49,GW/hat.jpg,GW/wheelchair.jpg,1,0.527027027027027,,,,GW/hat.jpg,,,,,Three Edge Diff,Three Edge Six Edge
null,,html-keyboard-response,1503741,<p></p>,,,,null,,,,,,,,,,,,,,
7263.600000023842,,shortestpath_phase,1511008,GW/teeth.jpg,,,,49,GW/camera.jpg,GW/gong.jpg,1,0.5333333333333333,,,,GW/camera.jpg,,,,,Four Edge Diff,Two Edge Six Edge
null,,html-keyboard-response,1512029,<p></p>,,,,null,,,,,,,,,,,,,,
1488.3999999761581,,shortestpath_phase,1513521,GW/gong.jpg,,,,50,GW/wheelchair.jpg,GW/globe.jpg,1,0.5394736842105263,,,,GW/globe.jpg,,,,,One Edge Diff,Two Edge Three Edge
null,,html-keyboard-response,1514527,<p></p>,,,,null,,,,,,,,,,,,,,
null,,shortestpath_phase,1522033,GW/jukebox.jpg,,,,null,GW/barrel.jpg,GW/dustpan.jpg,0,0.5324675324675324,,,,GW/dustpan.jpg,,,,,Three Edge Diff,Two Edge Five Edge
null,,html-keyboard-response,1523045,<p></p>,,,,null,,,,,,,,,,,,,,
3147.5,,shortestpath_phase,1526196,GW/wheelchair.jpg,,,,50,GW/paint.jpg,GW/teeth.jpg,0,0.5256410256410257,,,,GW/paint.jpg,,,,,One Edge Diff,Five Edge Six Edge
null,,html-keyboard-response,1527208,<p></p>,,,,null,,,,,,,,,,,,,,
1786.3000000715256,,shortestpath_phase,1528998,GW/gong.jpg,,,,49,GW/jukebox.jpg,GW/dustpan.jpg,0,0.5189873417721519,,,,GW/dustpan.jpg,,,,,Two Edge Diff,Four Edge Six Edge
null,,html-keyboard-response,1530004,<p></p>,,,,null,,,,,,,,,,,,,,
1543.1999999284744,,shortestpath_phase,1531551,GW/paint.jpg,,,,50,GW/wheelchair.jpg,GW/jukebox.jpg,1,0.525,,,,GW/jukebox.jpg,,,,,Three Edge Diff,Three Edge Six Edge
null,,html-keyboard-response,1532557,<p></p>,,,,null,,,,,,,,,,,,,,
5805.600000023842,,shortestpath_phase,1538365,GW/gong.jpg,,,,49,GW/globe.jpg,GW/jukebox.jpg,1,0.5308641975308642,,,,GW/globe.jpg,,,,,Four Edge Diff,Two Edge Six Edge
null,,html-keyboard-response,1539384,<p></p>,,,,null,,,,,,,,,,,,,,
2555.100000023842,,shortestpath_phase,1541942,GW/jukebox.jpg,,,,50,GW/teeth.jpg,GW/wheelchair.jpg,0,0.524390243902439,,,,GW/teeth.jpg,,,,,Two Edge Diff,Three Edge Five Edge
null,,html-keyboard-response,1542949,<p></p>,,,,null,,,,,,,,,,,,,,
5095.300000071526,,shortestpath_phase,1548048,GW/gong.jpg,,,,49,GW/dustpan.jpg,GW/camera.jpg,1,0.5301204819277109,,,,GW/dustpan.jpg,,,,,One Edge Diff,Four Edge Five Edge
null,,html-keyboard-response,1549058,<p></p>,,,,null,,,,,,,,,,,,,,
6662.700000047684,,shortestpath_phase,1555725,GW/jukebox.jpg,,,,49,GW/paint.jpg,GW/barrel.jpg,1,0.5357142857142857,,,,GW/paint.jpg,,,,,Three Edge Diff,Two Edge Five Edge
null,,html-keyboard-response,1556746,<p></p>,,,,null,,,,,,,,,,,,,,
4224.399999976158,,shortestpath_phase,1560974,GW/gong.jpg,,,,50,GW/hat.jpg,GW/paint.jpg,0,0.5294117647058824,,,,GW/hat.jpg,,,,,One Edge Diff,Four Edge Five Edge
null,,html-keyboard-response,1561983,<p></p>,,,,null,,,,,,,,,,,,,,
7372.799999952316,,shortestpath_phase,1569359,GW/jukebox.jpg,,,,49,GW/basket.jpg,GW/paint.jpg,0,0.5232558139534884,,,,GW/paint.jpg,,,,,One Edge Diff,Two Edge Three Edge
null,,html-keyboard-response,1570374,<p></p>,,,,null,,,,,,,,,,,,,,
2032.9000000953674,,shortestpath_phase,1572410,GW/gong.jpg,,,,50,GW/dustpan.jpg,GW/soldier.jpg,1,0.5287356321839081,,,,GW/soldier.jpg,,,,,Two Edge Diff,Two Edge Four Edge
null,,html-keyboard-response,1573424,<p></p>,,,,null,,,,,,,,,,,,,,
3626.4000000953674,,shortestpath_phase,1577054,GW/teeth.jpg,,,,49,GW/gong.jpg,GW/globe.jpg,0,0.5227272727272727,,,,GW/globe.jpg,,,,,Two Edge Diff,Four Edge Six Edge
null,,html-keyboard-response,1578072,<p></p>,,,,null,,,,,,,,,,,,,,
1851.2999999523163,,shortestpath_phase,1579927,GW/soldier.jpg,,,,49,GW/hat.jpg,GW/teeth.jpg,1,0.5280898876404494,,,,GW/hat.jpg,,,,,Two Edge Diff,Three Edge Five Edge
null,,html-keyboard-response,1580947,<p></p>,,,,null,,,,,,,,,,,,,,
5304.700000047684,,shortestpath_phase,1586256,GW/jukebox.jpg,,,,49,GW/gong.jpg,GW/dustpan.jpg,0,0.5222222222222223,,,,GW/dustpan.jpg,,,,,Four Edge Diff,Two Edge Six Edge
null,,html-keyboard-response,1587274,<p></p>,,,,null,,,,,,,,,,,,,,
3626.100000023842,,shortestpath_phase,1590904,GW/gong.jpg,,,,49,GW/camera.jpg,GW/teeth.jpg,1,0.5274725274725275,,,,GW/camera.jpg,,,,,One Edge Diff,Five Edge Six Edge
null,,html-keyboard-response,1591913,<p></p>,,,,null,,,,,,,,,,,,,,
4216,,shortestpath_phase,1596133,GW/snail.jpg,,,,49,GW/barrel.jpg,GW/jukebox.jpg,1,0.532608695652174,,,,GW/barrel.jpg,,,,,One Edge Diff,Two Edge Three Edge
null,,html-keyboard-response,1597146,<p></p>,,,,null,,,,,,,,,,,,,,
1338.3999999761581,,shortestpath_phase,1598487,GW/gong.jpg,,,,49,GW/jukebox.jpg,GW/hat.jpg,0,0.5268817204301075,,,,GW/hat.jpg,,,,,Two Edge Diff,Four Edge Six Edge
null,,html-keyboard-response,1599501,<p></p>,,,,null,,,,,,,,,,,,,,
6433.700000047684,,shortestpath_phase,1605938,GW/snail.jpg,,,,50,GW/wheelchair.jpg,GW/camera.jpg,1,0.5319148936170213,,,,GW/camera.jpg,,,,,One Edge Diff,Two Edge Three Edge
null,,html-keyboard-response,1606958,<p></p>,,,,null,,,,,,,,,,,,,,
2213.100000023842,,shortestpath_phase,1609174,GW/gong.jpg,,,,49,GW/dustpan.jpg,GW/teeth.jpg,1,0.5368421052631579,,,,GW/dustpan.jpg,,,,,Two Edge Diff,Four Edge Six Edge
null,,html-keyboard-response,1610188,<p></p>,,,,null,,,,,,,,,,,,,,
6026.100000023842,,shortestpath_phase,1616218,GW/barrel.jpg,,,,50,GW/camera.jpg,GW/jukebox.jpg,0,0.53125,,,,GW/camera.jpg,,,,,One Edge Diff,Four Edge Five Edge
null,,html-keyboard-response,1617229,<p></p>,,,,null,,,,,,,,,,,,,,
2624.600000023842,,shortestpath_phase,1619857,GW/gong.jpg,,,,50,GW/camera.jpg,GW/soldier.jpg,1,0.5360824742268041,,,,GW/soldier.jpg,,,,,Three Edge Diff,Three Edge Six Edge
null,,html-keyboard-response,1620878,<p></p>,,,,null,,,,,,,,,,,,,,
5189.200000047684,,shortestpath_phase,1626071,GW/wheelchair.jpg,,,,49,GW/jukebox.jpg,GW/camera.jpg,0,0.5306122448979592,,,,GW/camera.jpg,,,,,One Edge Diff,Four Edge Five Edge
null,,html-keyboard-response,1627081,<p></p>,,,,null,,,,,,,,,,,,,,
2116.2999999523163,,shortestpath_phase,1629200,GW/teeth.jpg,,,,50,GW/snail.jpg,GW/basket.jpg,0,0.5252525252525253,,,,GW/snail.jpg,,,,,One Edge Diff,Three Edge Four Edge
null,,html-keyboard-response,1630206,<p></p>,,,,null,,,,,,,,,,,,,,
5382.899999976158,,shortestpath_phase,1635592,GW/gong.jpg,,,,50,GW/wheelchair.jpg,GW/paint.jpg,0,0.52,,,,GW/wheelchair.jpg,,,,,Two Edge Diff,Three Edge Five Edge
null,,html-keyboard-response,1636607,<p></p>,,,,null,,,,,,,,,,,,,,
5709.199999928474,,shortestpath_phase,1642320,GW/hat.jpg,,,,50,GW/wheelchair.jpg,GW/teeth.jpg,1,0.5247524752475248,,,,GW/teeth.jpg,,,,,Two Edge Diff,Two Edge Four Edge
null,,html-keyboard-response,1643327,<p></p>,,,,null,,,,,,,,,,,,,,
3530.7000000476837,,shortestpath_phase,1646861,GW/gong.jpg,,,,49,GW/camera.jpg,GW/globe.jpg,0,0.5196078431372549,,,,GW/globe.jpg,,,,,Three Edge Diff,Two Edge Five Edge
null,,html-keyboard-response,1647875,<p></p>,,,,null,,,,,,,,,,,,,,
4828.100000023842,,shortestpath_phase,1652708,GW/barrel.jpg,,,,49,GW/paint.jpg,GW/wheelchair.jpg,0,0.5145631067961165,,,,GW/wheelchair.jpg,,,,,Two Edge Diff,Two Edge Four Edge
null,,html-keyboard-response,1653726,<p></p>,,,,null,,,,,,,,,,,,,,
4448.100000023842,,shortestpath_phase,1658177,GW/gong.jpg,,,,49,GW/basket.jpg,GW/camera.jpg,1,0.5192307692307693,,,,GW/basket.jpg,,,,,Two Edge Diff,Three Edge Five Edge
null,,html-keyboard-response,1659188,<p></p>,,,,null,,,,,,,,,,,,,,
2263.6999999284744,,shortestpath_phase,1661455,GW/dustpan.jpg,,,,49,GW/snail.jpg,GW/gong.jpg,1,0.5238095238095238,,,,GW/snail.jpg,,,,,Two Edge Diff,Two Edge Four Edge
null,,html-keyboard-response,1662463,<p></p>,,,,null,,,,,,,,,,,,,,
4728.899999976158,,shortestpath_phase,1667195,GW/gong.jpg,,,,50,GW/basket.jpg,GW/hat.jpg,0,0.5188679245283019,,,,GW/basket.jpg,,,,,One Edge Diff,Three Edge Four Edge
null,,html-keyboard-response,1668203,<p></p>,,,,null,,,,,,,,,,,,,,
6312.700000047684,,shortestpath_phase,1674520,GW/paint.jpg,,,,50,GW/globe.jpg,GW/barrel.jpg,0,0.514018691588785,,,,GW/globe.jpg,,,,,One Edge Diff,Three Edge Four Edge
null,,html-keyboard-response,1675535,<p></p>,,,,null,,,,,,,,,,,,,,
1645.8999999761581,,shortestpath_phase,1677185,GW/hat.jpg,,,,50,GW/barrel.jpg,GW/wheelchair.jpg,0,0.5092592592592593,,,,GW/barrel.jpg,,,,,One Edge Diff,Three Edge Four Edge
null,,html-keyboard-response,1678194,<p></p>,,,,null,,,,,,,,,,,,,,
4164.800000071526,,shortestpath_phase,1682364,GW/teeth.jpg,,,,50,GW/wheelchair.jpg,GW/soldier.jpg,1,0.5137614678899083,,,,GW/soldier.jpg,,,,,One Edge Diff,Five Edge Six Edge
null,,html-keyboard-response,1683374,<p></p>,,,,null,,,,,,,,,,,,,,
null,,shortestpath_phase,1690880,GW/paint.jpg,,,,null,GW/gong.jpg,GW/jukebox.jpg,0,0.509090909090909,,,,GW/jukebox.jpg,,,,,Three Edge Diff,Three Edge Six Edge
null,,html-keyboard-response,1691891,<p></p>,,,,null,,,,,,,,,,,,,,
1670.7000000476837,,shortestpath_phase,1693566,GW/soldier.jpg,,,,49,GW/hat.jpg,GW/paint.jpg,1,0.5135135135135135,,,,GW/hat.jpg,,,,,One Edge Diff,Three Edge Four Edge
null,,html-keyboard-response,1694575,<p></p>,,,,null,,,,,,,,,,,,,,
2749,,shortestpath_phase,1697327,GW/paint.jpg,,,,50,GW/jukebox.jpg,GW/barrel.jpg,0,0.5089285714285714,,,,GW/jukebox.jpg,,,,,Two Edge Diff,Two Edge Four Edge
null,,html-keyboard-response,1698346,<p></p>,,,,null,,,,,,,,,,,,,,
4555.600000023842,,shortestpath_phase,1702905,GW/gong.jpg,,,,50,GW/camera.jpg,GW/soldier.jpg,1,0.5132743362831859,,,,GW/soldier.jpg,,,,,Three Edge Diff,Two Edge Five Edge
null,,html-keyboard-response,1703912,<p></p>,,,,null,,,,,,,,,,,,,,
4322.400000095367,,shortestpath_phase,1708238,GW/teeth.jpg,,,,50,GW/gong.jpg,GW/basket.jpg,1,0.5175438596491229,,,,GW/basket.jpg,,,,,Two Edge Diff,Four Edge Six Edge
null,,html-keyboard-response,1709246,<p></p>,,,,null,,,,,,,,,,,,,,
1383.7999999523163,,shortestpath_phase,1710633,GW/gong.jpg,,,,49,GW/jukebox.jpg,GW/camera.jpg,0,0.5130434782608696,,,,GW/camera.jpg,,,,,One Edge Diff,Five Edge Six Edge
null,,html-keyboard-response,1711644,<p></p>,,,,null,,,,,,,,,,,,,,
979.2999999523163,,shortestpath_phase,1712626,GW/soldier.jpg,,,,50,GW/globe.jpg,GW/jukebox.jpg,0,0.5086206896551724,,,,GW/globe.jpg,,,,,Two Edge Diff,Two Edge Four Edge
null,,html-keyboard-response,1713642,<p></p>,,,,null,,,,,,,,,,,,,,
5505.799999952316,,shortestpath_phase,1719151,GW/teeth.jpg,,,,50,GW/camera.jpg,GW/barrel.jpg,0,0.5042735042735043,,,,GW/camera.jpg,,,,,Three Edge Diff,Three Edge Six Edge
null,,html-keyboard-response,1720158,<p></p>,,,,null,,,,,,,,,,,,,,
4749,,shortestpath_phase,1724911,GW/jukebox.jpg,,,,50,GW/gong.jpg,GW/wheelchair.jpg,1,0.5084745762711864,,,,GW/wheelchair.jpg,,,,,One Edge Diff,Five Edge Six Edge
null,,html-keyboard-response,1725916,<p></p>,,,,null,,,,,,,,,,,,,,
4390.699999928474,,shortestpath_phase,1730310,GW/barrel.jpg,,,,50,GW/dustpan.jpg,GW/jukebox.jpg,0,0.5042016806722689,,,,GW/dustpan.jpg,,,,,Two Edge Diff,Three Edge Five Edge
null,,html-keyboard-response,1731315,<p></p>,,,,null,,,,,,,,,,,,,,
7238.799999952316,,shortestpath_phase,1738557,GW/wheelchair.jpg,,,,49,GW/gong.jpg,GW/paint.jpg,1,0.5083333333333333,,,,GW/gong.jpg,,,,,Two Edge Diff,Three Edge Five Edge
null,,html-keyboard-response,1739564,<p></p>,,,,null,,,,,,,,,,,,,,
null,,shortestpath_phase,1747084,,,,,null,,,0,0.5041322314049587,,,,,,,,,Four Edge Diff,Two Edge Six Edge
null,,html-keyboard-response,1748097,<p></p>,,,,null,,,,,,,,,,,,,,
20817.600000023842,,intro_1,1768917,instruct,,0,,,,,,,,,,,,,,,,
75925.79999995232,,intro_2,1844844,instruct,,1,Next,,,,,,,,,,,,,,,
17260.200000047684,,intro_3,1862106,instruct,,1,Next,,,,,,,,,,,,,,,
