rt,responses,trial_type,time_elapsed,stimulus,graphorder,button_pressed,response,key_press,stimulus_left,stimulus_right,accuracy,cumulative_accuracy,stimulus_down_left,stimulus_down_mid,stimulus_down_right,stimulus_correct,stimulus_short,stimulus_far,weighted_accuracy,missedtrial,condition,specific_pairs
20622.800000190735,{worker_id:3075},id_enter,20627,id_enter,GW/camera.jpg; GW/soldier.jpg; GW/barrel.jpg; GW/basket.jpg; GW/hat.jpg; GW/snail.jpg; GW/paint.jpg; GW/gong.jpg; GW/dustpan.jpg; GW/teeth.jpg; GW/jukebox.jpg; GW/wheelchair.jpg; GW/globe.jpg,,,,,,,,,,,,,,,,,
5423,,fullscreen,26058,fullscreen,,0,,,,,,,,,,,,,,,,
17148.5,,intro_1,43219,instruct,,0,,,,,,,,,,,,,,,,
15226.5,,intro_2,58456,instruct,,1,Next,,,,,,,,,,,,,,,
12671.5,,intro_3,71130,instruct,,1,Next,,,,,,,,,,,,,,,
null,,learn_prac_1,74141,lean_prac_1,,,,null,,,,,,,,,,,,,,
null,,html-keyboard-response,75148,<p></p>,,,,null,,,,,,,,,,,,,,
14816.299999952316,,intro_1,89966,instruct,,0,,,,,,,,,,,,,,,,
6858.900000095367,,intro_2,96834,instruct,,1,Next,,,,,,,,,,,,,,,
null,,learn_prac_2,99840,lean_prac_2,,,,null,,,,,,,,,,,,,,
null,,html-keyboard-response,100842,<p></p>,,,,null,,,,,,,,,,,,,,
3397.2999999523163,,intro_1,104242,instruct,,0,,,,,,,,,,,,,,,,
5147.799999952316,,intro_2,109391,instruct,,1,Next,,,,,,,,,,,,,,,
23077.400000095367,,intro_3,132471,instruct,,1,Next,,,,,,,,,,,,,,,
null,,prac_atten_color_black,133156,black_plus_sign,,,,null,,,,,,,,,,,,,,
372.7999999523163,,prac_atten_color,133882,prac_stop_color,,,,49,,,,,,,,,,,,,,
null,,prac_atten_color_black,135888,black_plus_sign,,,,null,,,,,,,,,,,,,,
null,,prac_atten_color_black,136573,black_plus_sign,,,,null,,,,,,,,,,,,,,
null,,prac_atten_color,137183,prac_stop_color,,,,null,,,,,,,,,,,,,,
81.59999990463257,,prac_atten_color_black,139188,black_plus_sign,,,,50,,,,,,,,,,,,,,
null,,prac_atten_color_black,140006,black_plus_sign,,,,null,,,,,,,,,,,,,,
521.3999998569489,,prac_atten_color,140981,prac_stop_color,,,,50,,,,,,,,,,,,,,
null,,prac_atten_color_black,142995,black_plus_sign,,,,null,,,,,,,,,,,,,,
null,,prac_atten_color_black,143433,black_plus_sign,,,,null,,,,,,,,,,,,,,
364.09999990463257,,prac_atten_color,144100,prac_stop_color,,,,49,,,,,,,,,,,,,,
null,,prac_atten_color_black,146106,black_plus_sign,,,,null,,,,,,,,,,,,,,
null,,prac_atten_color_black,146865,black_plus_sign,,,,null,,,,,,,,,,,,,,
395.90000009536743,,prac_atten_color,147428,prac_stop_color,,,,50,,,,,,,,,,,,,,
null,,prac_atten_color_black,149439,black_plus_sign,,,,null,,,,,,,,,,,,,,
null,,prac_atten_color_black,150298,black_plus_sign,,,,null,,,,,,,,,,,,,,
379.7000000476837,,prac_atten_color,151406,prac_stop_color,,,,49,,,,,,,,,,,,,,
null,,prac_atten_color_black,153414,black_plus_sign,,,,null,,,,,,,,,,,,,,
7375.600000143051,,attentioncheck_help,160792,instruct,,,,32,,,,,,,,,,,,,,
null,,prac_atten_color_black,161098,black_plus_sign,,,,null,,,,,,,,,,,,,,
546.3999998569489,,prac_atten_color,162189,prac_stop_color,,,,49,,,,,,,,,,,,,,
null,,prac_atten_color_black,164198,black_plus_sign,,,,null,,,,,,,,,,,,,,
null,,prac_atten_color_black,164523,black_plus_sign,,,,null,,,,,,,,,,,,,,
418.39999985694885,,prac_atten_color,165548,prac_stop_color,,,,50,,,,,,,,,,,,,,
null,,prac_atten_color_black,167556,black_plus_sign,,,,null,,,,,,,,,,,,,,
null,,prac_atten_color_black,167942,black_plus_sign,,,,null,,,,,,,,,,,,,,
513.4000000953674,,prac_atten_color,168682,prac_stop_color,,,,49,,,,,,,,,,,,,,
null,,prac_atten_color_black,170698,black_plus_sign,,,,null,,,,,,,,,,,,,,
null,,prac_atten_color_black,171367,black_plus_sign,,,,null,,,,,,,,,,,,,,
636.0999999046326,,prac_atten_color,172355,prac_stop_color,,,,49,,,,,,,,,,,,,,
null,,prac_atten_color_black,174361,black_plus_sign,,,,null,,,,,,,,,,,,,,
17454.10000014305,,attentioncheck_feedback,191818,cross_check_feedback,,0,,,,,,,,,,,,,,,,
18383.400000095367,,last_instruct,210203,instruct,,,,32,,,,,,,,,,,,,,
null,,learn_phase(without_color),213206,black_plus_sign,,,,null,GW/paint.jpg,GW/dustpan.jpg,,,,,,,,,,,,
null,,black_cross(without_color),214156,blue,,,,null,GW/paint.jpg,GW/dustpan.jpg,,,,,,,,,,,,
null,,rt_plussign_withcolor,214673,blue,,,,null,GW/paint.jpg,GW/dustpan.jpg,,,,,,,,,,,,
1084.4000000953674,,rt_thecrossant_black,215748,black_plus_sign,,,,49,,,1,1,,,,,,,,,,
null,,color_black,215853,black_plus_sign,,,,null,,,,,,,,,,,,,,
null,,learn_phase(without_color),218875,black_plus_sign,,,,null,GW/basket.jpg,GW/wheelchair.jpg,,,,,,,,,,,,
null,,black_cross(without_color),219496,blue,,,,null,GW/basket.jpg,GW/wheelchair.jpg,,,,,,,,,,,,
500.2000000476837,,rt_plussign_withcolor,219999,blue,,,,49,GW/basket.jpg,GW/wheelchair.jpg,,,,,,,,,,,,
null,,rt_thecrossant_black,221396,black_plus_sign,,,,null,,,1,1,,,,,,,,,,
null,,color_black,221503,black_plus_sign,,,,null,,,,,,,,,,,,,,
null,,learn_phase(without_color),224514,black_plus_sign,,,,null,GW/barrel.jpg,GW/snail.jpg,,,,,,,,,,,,
null,,black_cross(without_color),225256,green,,,,null,GW/barrel.jpg,GW/snail.jpg,,,,,,,,,,,,
null,,rt_plussign_withcolor,225774,green,,,,null,GW/barrel.jpg,GW/snail.jpg,,,,,,,,,,,,
948.5,,rt_thecrossant_black,227039,black_plus_sign,,,,50,,,1,1,,,,,,,,,,
null,,color_black,227146,black_plus_sign,,,,null,,,,,,,,,,,,,,
null,,learn_phase(without_color),230162,black_plus_sign,,,,null,GW/soldier.jpg,GW/camera.jpg,,,,,,,,,,,,
null,,black_cross(without_color),230689,green,,,,null,GW/soldier.jpg,GW/camera.jpg,,,,,,,,,,,,
null,,rt_plussign_withcolor,231198,green,,,,null,GW/soldier.jpg,GW/camera.jpg,,,,,,,,,,,,
988.7999999523163,,rt_thecrossant_black,232689,black_plus_sign,,,,50,,,1,1,,,,,,,,,,
null,,color_black,232799,black_plus_sign,,,,null,,,,,,,,,,,,,,
null,,learn_phase(without_color),235806,black_plus_sign,,,,null,GW/wheelchair.jpg,GW/basket.jpg,,,,,,,,,,,,
null,,black_cross(without_color),236489,green,,,,null,GW/wheelchair.jpg,GW/basket.jpg,,,,,,,,,,,,
null,,rt_plussign_withcolor,236999,green,,,,null,GW/wheelchair.jpg,GW/basket.jpg,,,,,,,,,,,,
624.1000001430511,,rt_thecrossant_black,238330,black_plus_sign,,,,50,,,1,1,,,,,,,,,,
null,,color_black,238439,black_plus_sign,,,,null,,,,,,,,,,,,,,
null,,learn_phase(without_color),241448,black_plus_sign,,,,null,GW/snail.jpg,GW/barrel.jpg,,,,,,,,,,,,
null,,black_cross(without_color),242340,blue,,,,null,GW/snail.jpg,GW/barrel.jpg,,,,,,,,,,,,
null,,rt_plussign_withcolor,242849,blue,,,,null,GW/snail.jpg,GW/barrel.jpg,,,,,,,,,,,,
795.3999998569489,,rt_thecrossant_black,243990,black_plus_sign,,,,49,,,1,1,,,,,,,,,,
null,,color_black,244099,black_plus_sign,,,,null,,,,,,,,,,,,,,
null,,learn_phase(without_color),247105,black_plus_sign,,,,null,GW/paint.jpg,GW/dustpan.jpg,,,,,,,,,,,,
null,,black_cross(without_color),247595,green,,,,null,GW/paint.jpg,GW/dustpan.jpg,,,,,,,,,,,,
null,,rt_plussign_withcolor,248106,green,,,,null,GW/paint.jpg,GW/dustpan.jpg,,,,,,,,,,,,
1289.5999999046326,,rt_thecrossant_black,249637,black_plus_sign,,,,50,,,1,1,,,,,,,,,,
null,,color_black,249752,black_plus_sign,,,,null,,,,,,,,,,,,,,
null,,learn_phase(without_color),252762,black_plus_sign,,,,null,GW/basket.jpg,GW/wheelchair.jpg,,,,,,,,,,,,
null,,black_cross(without_color),253347,green,,,,null,GW/basket.jpg,GW/wheelchair.jpg,,,,,,,,,,,,
467.7999999523163,,rt_plussign_withcolor,253850,green,,,,50,GW/basket.jpg,GW/wheelchair.jpg,,,,,,,,,,,,
null,,rt_thecrossant_black,255281,black_plus_sign,,,,null,,,1,1,,,,,,,,,,
null,,color_black,255390,black_plus_sign,,,,null,,,,,,,,,,,,,,
null,,learn_phase(without_color),258399,black_plus_sign,,,,null,GW/snail.jpg,GW/barrel.jpg,,,,,,,,,,,,
null,,black_cross(without_color),259306,blue,,,,null,GW/snail.jpg,GW/barrel.jpg,,,,,,,,,,,,
416.09999990463257,,rt_plussign_withcolor,259813,blue,,,,49,GW/snail.jpg,GW/barrel.jpg,,,,,,,,,,,,
null,,rt_thecrossant_black,260914,black_plus_sign,,,,null,,,1,1,,,,,,,,,,
null,,color_black,261023,black_plus_sign,,,,null,,,,,,,,,,,,,,
null,,learn_phase(without_color),264032,black_plus_sign,,,,null,GW/paint.jpg,GW/dustpan.jpg,,,,,,,,,,,,
null,,black_cross(without_color),264689,blue,,,,null,GW/paint.jpg,GW/dustpan.jpg,,,,,,,,,,,,
null,,rt_plussign_withcolor,265199,blue,,,,null,GW/paint.jpg,GW/dustpan.jpg,,,,,,,,,,,,
1159.3999998569489,,rt_thecrossant_black,266565,black_plus_sign,,,,49,,,1,1,,,,,,,,,,
null,,color_black,266678,black_plus_sign,,,,null,,,,,,,,,,,,,,
null,,learn_phase(without_color),269691,black_plus_sign,,,,null,GW/soldier.jpg,GW/camera.jpg,,,,,,,,,,,,
null,,black_cross(without_color),270259,blue,,,,null,GW/soldier.jpg,GW/camera.jpg,,,,,,,,,,,,
498.39999985694885,,rt_plussign_withcolor,270764,blue,,,,49,GW/soldier.jpg,GW/camera.jpg,,,,,,,,,,,,
null,,rt_thecrossant_black,272214,black_plus_sign,,,,null,,,1,1,,,,,,,,,,
null,,color_black,272322,black_plus_sign,,,,null,,,,,,,,,,,,,,
null,,learn_phase(without_color),275329,black_plus_sign,,,,null,GW/dustpan.jpg,GW/paint.jpg,,,,,,,,,,,,
null,,black_cross(without_color),276422,green,,,,null,GW/dustpan.jpg,GW/paint.jpg,,,,,,,,,,,,
396.59999990463257,,rt_plussign_withcolor,276929,green,,,,50,GW/dustpan.jpg,GW/paint.jpg,,,,,,,,,,,,
null,,rt_thecrossant_black,277847,black_plus_sign,,,,null,,,1,1,,,,,,,,,,
null,,color_black,277955,black_plus_sign,,,,null,,,,,,,,,,,,,,
null,,learn_phase(without_color),280964,black_plus_sign,,,,null,GW/basket.jpg,GW/wheelchair.jpg,,,,,,,,,,,,
null,,black_cross(without_color),281855,green,,,,null,GW/basket.jpg,GW/wheelchair.jpg,,,,,,,,,,,,
null,,rt_plussign_withcolor,282366,green,,,,null,GW/basket.jpg,GW/wheelchair.jpg,,,,,,,,,,,,
1236.6000001430511,,rt_thecrossant_black,283488,black_plus_sign,,,,50,,,1,1,,,,,,,,,,
null,,color_black,283598,black_plus_sign,,,,null,,,,,,,,,,,,,,
null,,learn_phase(without_color),286614,black_plus_sign,,,,null,GW/soldier.jpg,GW/camera.jpg,,,,,,,,,,,,
null,,black_cross(without_color),287156,blue,,,,null,GW/soldier.jpg,GW/camera.jpg,,,,,,,,,,,,
null,,rt_plussign_withcolor,287665,blue,,,,null,GW/soldier.jpg,GW/camera.jpg,,,,,,,,,,,,
1123,,rt_thecrossant_black,289156,black_plus_sign,,,,49,,,1,1,,,,,,,,,,
null,,color_black,289272,black_plus_sign,,,,null,,,,,,,,,,,,,,
null,,learn_phase(without_color),292281,black_plus_sign,,,,null,GW/paint.jpg,GW/dustpan.jpg,,,,,,,,,,,,
null,,black_cross(without_color),293239,green,,,,null,GW/paint.jpg,GW/dustpan.jpg,,,,,,,,,,,,
502.30000019073486,,rt_plussign_withcolor,293744,green,,,,50,GW/paint.jpg,GW/dustpan.jpg,,,,,,,,,,,,
null,,rt_thecrossant_black,294806,black_plus_sign,,,,null,,,1,1,,,,,,,,,,
null,,color_black,294922,black_plus_sign,,,,null,,,,,,,,,,,,,,
null,,learn_phase(without_color),297931,black_plus_sign,,,,null,GW/wheelchair.jpg,GW/basket.jpg,,,,,,,,,,,,
null,,black_cross(without_color),298589,blue,,,,null,GW/wheelchair.jpg,GW/basket.jpg,,,,,,,,,,,,
null,,rt_plussign_withcolor,299098,blue,,,,null,GW/wheelchair.jpg,GW/basket.jpg,,,,,,,,,,,,
1213.7000000476837,,rt_thecrossant_black,300450,black_plus_sign,,,,49,,,1,1,,,,,,,,,,
null,,color_black,300560,black_plus_sign,,,,null,,,,,,,,,,,,,,
null,,learn_phase(without_color),303564,black_plus_sign,,,,null,GW/paint.jpg,GW/dustpan.jpg,,,,,,,,,,,,
null,,black_cross(without_color),304505,green,,,,null,GW/paint.jpg,GW/dustpan.jpg,,,,,,,,,,,,
482.89999985694885,,rt_plussign_withcolor,305014,green,,,,50,GW/paint.jpg,GW/dustpan.jpg,,,,,,,,,,,,
null,,rt_thecrossant_black,306092,black_plus_sign,,,,null,,,1,1,,,,,,,,,,
null,,color_black,306205,black_plus_sign,,,,null,,,,,,,,,,,,,,
null,,learn_phase(without_color),309222,black_plus_sign,,,,null,GW/basket.jpg,GW/wheelchair.jpg,,,,,,,,,,,,
null,,black_cross(without_color),310198,blue,,,,null,GW/basket.jpg,GW/wheelchair.jpg,,,,,,,,,,,,
461.60000014305115,,rt_plussign_withcolor,310706,blue,,,,49,GW/basket.jpg,GW/wheelchair.jpg,,,,,,,,,,,,
null,,rt_thecrossant_black,311738,black_plus_sign,,,,null,,,1,1,,,,,,,,,,
null,,color_black,311849,black_plus_sign,,,,null,,,,,,,,,,,,,,
null,,learn_phase(without_color),314854,black_plus_sign,,,,null,GW/dustpan.jpg,GW/paint.jpg,,,,,,,,,,,,
null,,black_cross(without_color),315469,blue,,,,null,GW/dustpan.jpg,GW/paint.jpg,,,,,,,,,,,,
null,,rt_plussign_withcolor,315972,blue,,,,null,GW/dustpan.jpg,GW/paint.jpg,,,,,,,,,,,,
1112.2000000476837,,rt_thecrossant_black,317372,black_plus_sign,,,,49,,,1,1,,,,,,,,,,
null,,color_black,317490,black_plus_sign,,,,null,,,,,,,,,,,,,,
null,,learn_phase(without_color),320499,black_plus_sign,,,,null,GW/wheelchair.jpg,GW/basket.jpg,,,,,,,,,,,,
null,,black_cross(without_color),321239,blue,,,,null,GW/wheelchair.jpg,GW/basket.jpg,,,,,,,,,,,,
null,,rt_plussign_withcolor,321748,blue,,,,null,GW/wheelchair.jpg,GW/basket.jpg,,,,,,,,,,,,
814.8000001907349,,rt_thecrossant_black,323025,black_plus_sign,,,,49,,,1,1,,,,,,,,,,
null,,color_black,323143,black_plus_sign,,,,null,,,,,,,,,,,,,,
null,,learn_phase(without_color),326148,black_plus_sign,,,,null,GW/paint.jpg,GW/dustpan.jpg,,,,,,,,,,,,
null,,black_cross(without_color),326619,blue,,,,null,GW/paint.jpg,GW/dustpan.jpg,,,,,,,,,,,,
null,,rt_plussign_withcolor,327126,blue,,,,null,GW/paint.jpg,GW/dustpan.jpg,,,,,,,,,,,,
1038.3000001907349,,rt_thecrossant_black,328664,black_plus_sign,,,,49,,,1,1,,,,,,,,,,
null,,color_black,328779,black_plus_sign,,,,null,,,,,,,,,,,,,,
null,,learn_phase(without_color),331794,black_plus_sign,,,,null,GW/camera.jpg,GW/soldier.jpg,,,,,,,,,,,,
null,,black_cross(without_color),332762,blue,,,,null,GW/camera.jpg,GW/soldier.jpg,,,,,,,,,,,,
502.2999999523163,,rt_plussign_withcolor,333266,blue,,,,49,GW/camera.jpg,GW/soldier.jpg,,,,,,,,,,,,
null,,rt_thecrossant_black,334322,black_plus_sign,,,,null,,,1,1,,,,,,,,,,
null,,color_black,334432,black_plus_sign,,,,null,,,,,,,,,,,,,,
null,,learn_phase(without_color),337438,black_plus_sign,,,,null,GW/barrel.jpg,GW/snail.jpg,,,,,,,,,,,,
null,,black_cross(without_color),337906,green,,,,null,GW/barrel.jpg,GW/snail.jpg,,,,,,,,,,,,
null,,rt_plussign_withcolor,338419,green,,,,null,GW/barrel.jpg,GW/snail.jpg,,,,,,,,,,,,
1104.5,,rt_thecrossant_black,339964,black_plus_sign,,,,50,,,1,1,,,,,,,,,,
null,,color_black,340073,black_plus_sign,,,,null,,,,,,,,,,,,,,
null,,learn_phase(without_color),343089,black_plus_sign,,,,null,GW/soldier.jpg,GW/camera.jpg,,,,,,,,,,,,
null,,black_cross(without_color),343973,green,,,,null,GW/soldier.jpg,GW/camera.jpg,,,,,,,,,,,,
null,,rt_plussign_withcolor,344489,green,,,,null,GW/soldier.jpg,GW/camera.jpg,,,,,,,,,,,,
595.9000000953674,,rt_thecrossant_black,345612,black_plus_sign,,,,50,,,1,1,,,,,,,,,,
null,,color_black,345719,black_plus_sign,,,,null,,,,,,,,,,,,,,
null,,learn_phase(without_color),348722,black_plus_sign,,,,null,GW/snail.jpg,GW/barrel.jpg,,,,,,,,,,,,
null,,black_cross(without_color),349415,green,,,,null,GW/snail.jpg,GW/barrel.jpg,,,,,,,,,,,,
488.59999990463257,,rt_plussign_withcolor,349922,green,,,,50,GW/snail.jpg,GW/barrel.jpg,,,,,,,,,,,,
null,,rt_thecrossant_black,351247,black_plus_sign,,,,null,,,1,1,,,,,,,,,,
null,,color_black,351354,black_plus_sign,,,,null,,,,,,,,,,,,,,
null,,learn_phase(without_color),354372,black_plus_sign,,,,null,GW/basket.jpg,GW/wheelchair.jpg,,,,,,,,,,,,
null,,black_cross(without_color),354979,green,,,,null,GW/basket.jpg,GW/wheelchair.jpg,,,,,,,,,,,,
null,,rt_plussign_withcolor,355485,green,,,,null,GW/basket.jpg,GW/wheelchair.jpg,,,,,,,,,,,,
805.2999999523163,,rt_thecrossant_black,356900,black_plus_sign,,,,50,,,1,1,,,,,,,,,,
null,,color_black,357011,black_plus_sign,,,,null,,,,,,,,,,,,,,
null,,learn_phase(without_color),360022,black_plus_sign,,,,null,GW/camera.jpg,GW/soldier.jpg,,,,,,,,,,,,
null,,black_cross(without_color),360921,green,,,,null,GW/camera.jpg,GW/soldier.jpg,,,,,,,,,,,,
null,,rt_plussign_withcolor,361428,green,,,,null,GW/camera.jpg,GW/soldier.jpg,,,,,,,,,,,,
696.4000000953674,,rt_thecrossant_black,362554,black_plus_sign,,,,50,,,1,1,,,,,,,,,,
null,,color_black,362672,black_plus_sign,,,,null,,,,,,,,,,,,,,
null,,learn_phase(without_color),365689,black_plus_sign,,,,null,GW/snail.jpg,GW/barrel.jpg,,,,,,,,,,,,
null,,black_cross(without_color),366449,green,,,,null,GW/snail.jpg,GW/barrel.jpg,,,,,,,,,,,,
null,,rt_plussign_withcolor,366954,green,,,,null,GW/snail.jpg,GW/barrel.jpg,,,,,,,,,,,,
1026.8999998569489,,rt_thecrossant_black,368212,black_plus_sign,,,,50,,,1,1,,,,,,,,,,
null,,color_black,368329,black_plus_sign,,,,null,,,,,,,,,,,,,,
null,,learn_phase(without_color),371339,black_plus_sign,,,,null,GW/soldier.jpg,GW/camera.jpg,,,,,,,,,,,,
null,,black_cross(without_color),372273,blue,,,,null,GW/soldier.jpg,GW/camera.jpg,,,,,,,,,,,,
null,,rt_plussign_withcolor,372781,blue,,,,null,GW/soldier.jpg,GW/camera.jpg,,,,,,,,,,,,
1001.2999999523163,,rt_thecrossant_black,373872,black_plus_sign,,,,49,,,1,1,,,,,,,,,,
null,,color_black,373980,black_plus_sign,,,,null,,,,,,,,,,,,,,
null,,learn_phase(without_color),376989,black_plus_sign,,,,null,GW/snail.jpg,GW/barrel.jpg,,,,,,,,,,,,
null,,black_cross(without_color),377861,blue,,,,null,GW/snail.jpg,GW/barrel.jpg,,,,,,,,,,,,
null,,rt_plussign_withcolor,378365,blue,,,,null,GW/snail.jpg,GW/barrel.jpg,,,,,,,,,,,,
1051.8000001907349,,rt_thecrossant_black,379511,black_plus_sign,,,,49,,,1,1,,,,,,,,,,
null,,color_black,379628,black_plus_sign,,,,null,,,,,,,,,,,,,,
null,,learn_phase(without_color),382638,black_plus_sign,,,,null,GW/camera.jpg,GW/soldier.jpg,,,,,,,,,,,,
null,,black_cross(without_color),383729,green,,,,null,GW/camera.jpg,GW/soldier.jpg,,,,,,,,,,,,
447.10000014305115,,rt_plussign_withcolor,384231,green,,,,50,GW/camera.jpg,GW/soldier.jpg,,,,,,,,,,,,
null,,rt_thecrossant_black,385166,black_plus_sign,,,,null,,,1,1,,,,,,,,,,
null,,color_black,385272,black_plus_sign,,,,null,,,,,,,,,,,,,,
null,,learn_phase(without_color),388289,black_plus_sign,,,,null,GW/snail.jpg,GW/barrel.jpg,,,,,,,,,,,,
null,,black_cross(without_color),388831,blue,,,,null,GW/snail.jpg,GW/barrel.jpg,,,,,,,,,,,,
null,,rt_plussign_withcolor,389332,blue,,,,null,GW/snail.jpg,GW/barrel.jpg,,,,,,,,,,,,
1278.2000000476837,,rt_thecrossant_black,390806,black_plus_sign,,,,49,,,1,1,,,,,,,,,,
null,,color_black,390914,black_plus_sign,,,,null,,,,,,,,,,,,,,
null,,learn_phase(without_color),393923,black_plus_sign,,,,null,GW/soldier.jpg,GW/barrel.jpg,,,,,,,,,,,,
null,,black_cross(without_color),394906,blue,,,,null,GW/soldier.jpg,GW/barrel.jpg,,,,,,,,,,,,
null,,rt_plussign_withcolor,395415,blue,,,,null,GW/soldier.jpg,GW/barrel.jpg,,,,,,,,,,,,
715.3999998569489,,rt_thecrossant_black,396440,black_plus_sign,,,,49,,,1,1,,,,,,,,,,
null,,color_black,396547,black_plus_sign,,,,null,,,,,,,,,,,,,,
null,,learn_phase(without_color),399555,black_plus_sign,,,,null,GW/paint.jpg,GW/snail.jpg,,,,,,,,,,,,
null,,black_cross(without_color),400606,green,,,,null,GW/paint.jpg,GW/snail.jpg,,,,,,,,,,,,
null,,rt_plussign_withcolor,401116,green,,,,null,GW/paint.jpg,GW/snail.jpg,,,,,,,,,,,,
1520.6000001430511,,rt_thecrossant_black,402093,black_plus_sign,,,,50,,,1,1,,,,,,,,,,
null,,color_black,402198,black_plus_sign,,,,null,,,,,,,,,,,,,,
null,,learn_phase(without_color),405215,black_plus_sign,,,,null,GW/barrel.jpg,GW/soldier.jpg,,,,,,,,,,,,
null,,black_cross(without_color),405888,green,,,,null,GW/barrel.jpg,GW/soldier.jpg,,,,,,,,,,,,
null,,rt_plussign_withcolor,406405,green,,,,null,GW/barrel.jpg,GW/soldier.jpg,,,,,,,,,,,,
1394.1999998092651,,rt_thecrossant_black,407747,black_plus_sign,,,,50,,,1,1,,,,,,,,,,
null,,color_black,407865,black_plus_sign,,,,null,,,,,,,,,,,,,,
null,,learn_phase(without_color),410868,black_plus_sign,,,,null,GW/snail.jpg,GW/paint.jpg,,,,,,,,,,,,
null,,black_cross(without_color),411748,green,,,,null,GW/snail.jpg,GW/paint.jpg,,,,,,,,,,,,
null,,rt_plussign_withcolor,412257,green,,,,null,GW/snail.jpg,GW/paint.jpg,,,,,,,,,,,,
821.9000000953674,,rt_thecrossant_black,413397,black_plus_sign,,,,50,,,1,1,,,,,,,,,,
null,,color_black,413506,black_plus_sign,,,,null,,,,,,,,,,,,,,
null,,learn_phase(without_color),416522,black_plus_sign,,,,null,GW/soldier.jpg,GW/barrel.jpg,,,,,,,,,,,,
null,,black_cross(without_color),417240,green,,,,null,GW/soldier.jpg,GW/barrel.jpg,,,,,,,,,,,,
null,,rt_plussign_withcolor,417748,green,,,,null,GW/soldier.jpg,GW/barrel.jpg,,,,,,,,,,,,
1038.2999999523163,,rt_thecrossant_black,419047,black_plus_sign,,,,50,,,1,1,,,,,,,,,,
null,,color_black,419165,black_plus_sign,,,,null,,,,,,,,,,,,,,
null,,learn_phase(without_color),422177,black_plus_sign,,,,null,GW/paint.jpg,GW/snail.jpg,,,,,,,,,,,,
null,,black_cross(without_color),422875,blue,,,,null,GW/paint.jpg,GW/snail.jpg,,,,,,,,,,,,
472,,rt_plussign_withcolor,423381,blue,,,,49,GW/paint.jpg,GW/snail.jpg,,,,,,,,,,,,
null,,rt_thecrossant_black,424693,black_plus_sign,,,,null,,,1,1,,,,,,,,,,
null,,color_black,424806,black_plus_sign,,,,null,,,,,,,,,,,,,,
null,,learn_phase(without_color),427815,black_plus_sign,,,,null,GW/teeth.jpg,GW/gong.jpg,,,,,,,,,,,,
null,,black_cross(without_color),428240,blue,,,,null,GW/teeth.jpg,GW/gong.jpg,,,,,,,,,,,,
null,,rt_plussign_withcolor,428756,blue,,,,null,GW/teeth.jpg,GW/gong.jpg,,,,,,,,,,,,
988.1000001430511,,rt_thecrossant_black,430348,black_plus_sign,,,,49,,,1,1,,,,,,,,,,
null,,color_black,430457,black_plus_sign,,,,null,,,,,,,,,,,,,,
null,,learn_phase(without_color),433465,black_plus_sign,,,,null,GW/barrel.jpg,GW/soldier.jpg,,,,,,,,,,,,
null,,black_cross(without_color),434459,green,,,,null,GW/barrel.jpg,GW/soldier.jpg,,,,,,,,,,,,
469,,rt_plussign_withcolor,434961,green,,,,50,GW/barrel.jpg,GW/soldier.jpg,,,,,,,,,,,,
null,,rt_thecrossant_black,435978,black_plus_sign,,,,null,,,1,1,,,,,,,,,,
null,,color_black,436086,black_plus_sign,,,,null,,,,,,,,,,,,,,
null,,learn_phase(without_color),439089,black_plus_sign,,,,null,GW/snail.jpg,GW/paint.jpg,,,,,,,,,,,,
null,,black_cross(without_color),439504,green,,,,null,GW/snail.jpg,GW/paint.jpg,,,,,,,,,,,,
null,,rt_plussign_withcolor,440006,green,,,,null,GW/snail.jpg,GW/paint.jpg,,,,,,,,,,,,
1189.2999999523163,,rt_thecrossant_black,441612,black_plus_sign,,,,50,,,1,1,,,,,,,,,,
null,,color_black,441729,black_plus_sign,,,,null,,,,,,,,,,,,,,
null,,learn_phase(without_color),444738,black_plus_sign,,,,null,GW/jukebox.jpg,GW/dustpan.jpg,,,,,,,,,,,,
null,,black_cross(without_color),445804,green,,,,null,GW/jukebox.jpg,GW/dustpan.jpg,,,,,,,,,,,,
null,,rt_plussign_withcolor,446322,green,,,,null,GW/jukebox.jpg,GW/dustpan.jpg,,,,,,,,,,,,
859.7999999523163,,rt_thecrossant_black,447264,black_plus_sign,,,,50,,,1,1,,,,,,,,,,
null,,color_black,447381,black_plus_sign,,,,null,,,,,,,,,,,,,,
null,,learn_phase(without_color),450387,black_plus_sign,,,,null,GW/soldier.jpg,GW/barrel.jpg,,,,,,,,,,,,
null,,black_cross(without_color),451305,green,,,,null,GW/soldier.jpg,GW/barrel.jpg,,,,,,,,,,,,
null,,rt_plussign_withcolor,451823,green,,,,null,GW/soldier.jpg,GW/barrel.jpg,,,,,,,,,,,,
1231.0999999046326,,rt_thecrossant_black,452923,black_plus_sign,,,,50,,,1,1,,,,,,,,,,
null,,color_black,453031,black_plus_sign,,,,null,,,,,,,,,,,,,,
null,,learn_phase(without_color),456040,black_plus_sign,,,,null,GW/jukebox.jpg,GW/dustpan.jpg,,,,,,,,,,,,
null,,black_cross(without_color),456872,green,,,,null,GW/jukebox.jpg,GW/dustpan.jpg,,,,,,,,,,,,
null,,rt_plussign_withcolor,457382,green,,,,null,GW/jukebox.jpg,GW/dustpan.jpg,,,,,,,,,,,,
1051.7999999523163,,rt_thecrossant_black,458564,black_plus_sign,,,,50,,,1,1,,,,,,,,,,
null,,color_black,458667,black_plus_sign,,,,null,,,,,,,,,,,,,,
null,,learn_phase(without_color),461673,black_plus_sign,,,,null,GW/barrel.jpg,GW/soldier.jpg,,,,,,,,,,,,
null,,black_cross(without_color),462364,green,,,,null,GW/barrel.jpg,GW/soldier.jpg,,,,,,,,,,,,
null,,rt_plussign_withcolor,462871,green,,,,null,GW/barrel.jpg,GW/soldier.jpg,,,,,,,,,,,,
994.5999999046326,,rt_thecrossant_black,464207,black_plus_sign,,,,50,,,1,1,,,,,,,,,,
null,,color_black,464320,black_plus_sign,,,,null,,,,,,,,,,,,,,
null,,learn_phase(without_color),467331,black_plus_sign,,,,null,GW/teeth.jpg,GW/gong.jpg,,,,,,,,,,,,
null,,black_cross(without_color),468255,blue,,,,null,GW/teeth.jpg,GW/gong.jpg,,,,,,,,,,,,
null,,rt_plussign_withcolor,468766,blue,,,,null,GW/teeth.jpg,GW/gong.jpg,,,,,,,,,,,,
1159.6999998092651,,rt_thecrossant_black,469853,black_plus_sign,,,,49,,,1,1,,,,,,,,,,
null,,color_black,469961,black_plus_sign,,,,null,,,,,,,,,,,,,,
null,,learn_phase(without_color),472972,black_plus_sign,,,,null,GW/paint.jpg,GW/snail.jpg,,,,,,,,,,,,
null,,black_cross(without_color),473931,green,,,,null,GW/paint.jpg,GW/snail.jpg,,,,,,,,,,,,
null,,rt_plussign_withcolor,474440,green,,,,null,GW/paint.jpg,GW/snail.jpg,,,,,,,,,,,,
1172,,rt_thecrossant_black,475488,black_plus_sign,,,,50,,,1,1,,,,,,,,,,
null,,color_black,475596,black_plus_sign,,,,null,,,,,,,,,,,,,,
null,,learn_phase(without_color),478605,black_plus_sign,,,,null,GW/dustpan.jpg,GW/jukebox.jpg,,,,,,,,,,,,
null,,black_cross(without_color),479056,green,,,,null,GW/dustpan.jpg,GW/jukebox.jpg,,,,,,,,,,,,
null,,rt_plussign_withcolor,479565,green,,,,null,GW/dustpan.jpg,GW/jukebox.jpg,,,,,,,,,,,,
1160.5,,rt_thecrossant_black,481138,black_plus_sign,,,,50,,,1,1,,,,,,,,,,
null,,color_black,481248,black_plus_sign,,,,null,,,,,,,,,,,,,,
null,,learn_phase(without_color),484256,black_plus_sign,,,,null,GW/snail.jpg,GW/paint.jpg,,,,,,,,,,,,
null,,black_cross(without_color),485105,blue,,,,null,GW/snail.jpg,GW/paint.jpg,,,,,,,,,,,,
493.69999980926514,,rt_plussign_withcolor,485614,blue,,,,49,GW/snail.jpg,GW/paint.jpg,,,,,,,,,,,,
null,,rt_thecrossant_black,486790,black_plus_sign,,,,null,,,1,1,,,,,,,,,,
null,,color_black,486898,black_plus_sign,,,,null,,,,,,,,,,,,,,
null,,learn_phase(without_color),489906,black_plus_sign,,,,null,GW/dustpan.jpg,GW/jukebox.jpg,,,,,,,,,,,,
null,,black_cross(without_color),490702,green,,,,null,GW/dustpan.jpg,GW/jukebox.jpg,,,,,,,,,,,,
471.39999985694885,,rt_plussign_withcolor,491205,green,,,,50,GW/dustpan.jpg,GW/jukebox.jpg,,,,,,,,,,,,
null,,rt_thecrossant_black,492440,black_plus_sign,,,,null,,,1,1,,,,,,,,,,
null,,color_black,492544,black_plus_sign,,,,null,,,,,,,,,,,,,,
null,,learn_phase(without_color),495557,black_plus_sign,,,,null,GW/snail.jpg,GW/paint.jpg,,,,,,,,,,,,
null,,black_cross(without_color),496606,green,,,,null,GW/snail.jpg,GW/paint.jpg,,,,,,,,,,,,
null,,rt_plussign_withcolor,497114,green,,,,null,GW/snail.jpg,GW/paint.jpg,,,,,,,,,,,,
933.7999999523163,,rt_thecrossant_black,498078,black_plus_sign,,,,50,,,1,1,,,,,,,,,,
null,,color_black,498187,black_plus_sign,,,,null,,,,,,,,,,,,,,
null,,learn_phase(without_color),501199,black_plus_sign,,,,null,GW/gong.jpg,GW/teeth.jpg,,,,,,,,,,,,
null,,black_cross(without_color),501919,blue,,,,null,GW/gong.jpg,GW/teeth.jpg,,,,,,,,,,,,
492.90000009536743,,rt_plussign_withcolor,502424,blue,,,,49,GW/gong.jpg,GW/teeth.jpg,,,,,,,,,,,,
null,,rt_thecrossant_black,503719,black_plus_sign,,,,null,,,1,1,,,,,,,,,,
null,,color_black,503832,black_plus_sign,,,,null,,,,,,,,,,,,,,
null,,learn_phase(without_color),506839,black_plus_sign,,,,null,GW/barrel.jpg,GW/soldier.jpg,,,,,,,,,,,,
null,,black_cross(without_color),507257,green,,,,null,GW/barrel.jpg,GW/soldier.jpg,,,,,,,,,,,,
null,,rt_plussign_withcolor,507771,green,,,,null,GW/barrel.jpg,GW/soldier.jpg,,,,,,,,,,,,
914.5,,rt_thecrossant_black,509371,black_plus_sign,,,,50,,,1,1,,,,,,,,,,
null,,color_black,509488,black_plus_sign,,,,null,,,,,,,,,,,,,,
null,,learn_phase(without_color),512497,black_plus_sign,,,,null,GW/dustpan.jpg,GW/jukebox.jpg,,,,,,,,,,,,
null,,black_cross(without_color),513022,blue,,,,null,GW/dustpan.jpg,GW/jukebox.jpg,,,,,,,,,,,,
null,,rt_plussign_withcolor,513539,blue,,,,null,GW/dustpan.jpg,GW/jukebox.jpg,,,,,,,,,,,,
547.2000000476837,,rt_thecrossant_black,515037,black_plus_sign,,,,49,,,1,1,,,,,,,,,,
null,,color_black,515144,black_plus_sign,,,,null,,,,,,,,,,,,,,
null,,learn_phase(without_color),518162,black_plus_sign,,,,null,GW/gong.jpg,GW/teeth.jpg,,,,,,,,,,,,
null,,black_cross(without_color),518801,green,,,,null,GW/gong.jpg,GW/teeth.jpg,,,,,,,,,,,,
null,,rt_plussign_withcolor,519311,green,,,,null,GW/gong.jpg,GW/teeth.jpg,,,,,,,,,,,,
658.5999999046326,,rt_thecrossant_black,520700,black_plus_sign,,,,50,,,1,1,,,,,,,,,,
null,,color_black,520804,black_plus_sign,,,,null,,,,,,,,,,,,,,
null,,learn_phase(without_color),523814,black_plus_sign,,,,null,GW/snail.jpg,GW/paint.jpg,,,,,,,,,,,,
null,,black_cross(without_color),524505,green,,,,null,GW/snail.jpg,GW/paint.jpg,,,,,,,,,,,,
null,,rt_plussign_withcolor,525022,green,,,,null,GW/snail.jpg,GW/paint.jpg,,,,,,,,,,,,
802.6000001430511,,rt_thecrossant_black,526347,black_plus_sign,,,,50,,,1,1,,,,,,,,,,
null,,color_black,526455,black_plus_sign,,,,null,,,,,,,,,,,,,,
null,,learn_phase(without_color),529473,black_plus_sign,,,,null,GW/dustpan.jpg,GW/jukebox.jpg,,,,,,,,,,,,
null,,black_cross(without_color),530479,blue,,,,null,GW/dustpan.jpg,GW/jukebox.jpg,,,,,,,,,,,,
null,,rt_plussign_withcolor,530989,blue,,,,null,GW/dustpan.jpg,GW/jukebox.jpg,,,,,,,,,,,,
838.0999999046326,,rt_thecrossant_black,531997,black_plus_sign,,,,49,,,1,1,,,,,,,,,,
null,,color_black,532106,black_plus_sign,,,,null,,,,,,,,,,,,,,
null,,learn_phase(without_color),535114,black_plus_sign,,,,null,GW/gong.jpg,GW/teeth.jpg,,,,,,,,,,,,
null,,black_cross(without_color),535790,blue,,,,null,GW/gong.jpg,GW/teeth.jpg,,,,,,,,,,,,
null,,rt_plussign_withcolor,536299,blue,,,,null,GW/gong.jpg,GW/teeth.jpg,,,,,,,,,,,,
1236.5,,rt_thecrossant_black,537646,black_plus_sign,,,,49,,,1,1,,,,,,,,,,
null,,color_black,537749,black_plus_sign,,,,null,,,,,,,,,,,,,,
null,,learn_phase(without_color),540770,black_plus_sign,,,,null,GW/soldier.jpg,GW/barrel.jpg,,,,,,,,,,,,
null,,black_cross(without_color),541375,green,,,,null,GW/soldier.jpg,GW/barrel.jpg,,,,,,,,,,,,
null,,rt_plussign_withcolor,541881,green,,,,null,GW/soldier.jpg,GW/barrel.jpg,,,,,,,,,,,,
1041,,rt_thecrossant_black,543298,black_plus_sign,,,,49,,,0,0.9830508474576272,,,,,,,,,,
null,,color_black,543414,black_plus_sign,,,,null,,,,,,,,,,,,,,
null,,learn_phase(without_color),546422,black_plus_sign,,,,null,GW/teeth.jpg,GW/gong.jpg,,,,,,,,,,,,
null,,black_cross(without_color),547372,green,,,,null,GW/teeth.jpg,GW/gong.jpg,,,,,,,,,,,,
398,,rt_plussign_withcolor,547879,green,,,,50,GW/teeth.jpg,GW/gong.jpg,,,,,,,,,,,,
null,,rt_thecrossant_black,548947,black_plus_sign,,,,null,,,1,0.9833333333333333,,,,,,,,,,
null,,color_black,549057,black_plus_sign,,,,null,,,,,,,,,,,,,,
null,,learn_phase(without_color),552064,black_plus_sign,,,,null,GW/jukebox.jpg,GW/dustpan.jpg,,,,,,,,,,,,
null,,black_cross(without_color),552848,green,,,,null,GW/jukebox.jpg,GW/dustpan.jpg,,,,,,,,,,,,
null,,rt_plussign_withcolor,553355,green,,,,null,GW/jukebox.jpg,GW/dustpan.jpg,,,,,,,,,,,,
1077.2000000476837,,rt_thecrossant_black,554588,black_plus_sign,,,,50,,,1,0.9836065573770492,,,,,,,,,,
null,,color_black,554706,black_plus_sign,,,,null,,,,,,,,,,,,,,
null,,learn_phase(without_color),557716,black_plus_sign,,,,null,GW/teeth.jpg,GW/gong.jpg,,,,,,,,,,,,
null,,black_cross(without_color),558470,green,,,,null,GW/teeth.jpg,GW/gong.jpg,,,,,,,,,,,,
null,,rt_plussign_withcolor,558982,green,,,,null,GW/teeth.jpg,GW/gong.jpg,,,,,,,,,,,,
896.8000001907349,,rt_thecrossant_black,560249,black_plus_sign,,,,50,,,1,0.9838709677419355,,,,,,,,,,
null,,color_black,560355,black_plus_sign,,,,null,,,,,,,,,,,,,,
null,,learn_phase(without_color),563359,black_plus_sign,,,,null,GW/gong.jpg,GW/teeth.jpg,,,,,,,,,,,,
null,,black_cross(without_color),564213,green,,,,null,GW/gong.jpg,GW/teeth.jpg,,,,,,,,,,,,
295.40000009536743,,rt_plussign_withcolor,564722,green,,,,50,GW/gong.jpg,GW/teeth.jpg,,,,,,,,,,,,
null,,rt_thecrossant_black,565888,black_plus_sign,,,,null,,,1,0.9841269841269841,,,,,,,,,,
null,,color_black,566004,black_plus_sign,,,,null,,,,,,,,,,,,,,
null,,learn_phase(without_color),569014,black_plus_sign,,,,null,GW/jukebox.jpg,GW/dustpan.jpg,,,,,,,,,,,,
null,,black_cross(without_color),569847,green,,,,null,GW/jukebox.jpg,GW/dustpan.jpg,,,,,,,,,,,,
485.39999985694885,,rt_plussign_withcolor,570355,green,,,,50,GW/jukebox.jpg,GW/dustpan.jpg,,,,,,,,,,,,
null,,rt_thecrossant_black,571531,black_plus_sign,,,,null,,,1,0.984375,,,,,,,,,,
null,,color_black,571638,black_plus_sign,,,,null,,,,,,,,,,,,,,
null,,learn_phase(without_color),574648,black_plus_sign,,,,null,GW/soldier.jpg,GW/basket.jpg,,,,,,,,,,,,
null,,black_cross(without_color),575155,green,,,,null,GW/soldier.jpg,GW/basket.jpg,,,,,,,,,,,,
null,,rt_plussign_withcolor,575664,green,,,,null,GW/soldier.jpg,GW/basket.jpg,,,,,,,,,,,,
1326.2000000476837,,rt_thecrossant_black,577166,black_plus_sign,,,,50,,,1,0.9846153846153847,,,,,,,,,,
null,,color_black,577268,black_plus_sign,,,,null,,,,,,,,,,,,,,
null,,learn_phase(without_color),580282,black_plus_sign,,,,null,GW/gong.jpg,GW/paint.jpg,,,,,,,,,,,,
null,,black_cross(without_color),580931,blue,,,,null,GW/gong.jpg,GW/paint.jpg,,,,,,,,,,,,
null,,rt_plussign_withcolor,581437,blue,,,,null,GW/gong.jpg,GW/paint.jpg,,,,,,,,,,,,
800,,rt_thecrossant_black,582808,black_plus_sign,,,,49,,,1,0.9848484848484849,,,,,,,,,,
null,,color_black,582917,black_plus_sign,,,,null,,,,,,,,,,,,,,
null,,learn_phase(without_color),585922,black_plus_sign,,,,null,GW/basket.jpg,GW/soldier.jpg,,,,,,,,,,,,
null,,black_cross(without_color),586563,blue,,,,null,GW/basket.jpg,GW/soldier.jpg,,,,,,,,,,,,
null,,rt_plussign_withcolor,587069,blue,,,,null,GW/basket.jpg,GW/soldier.jpg,,,,,,,,,,,,
1158.7000000476837,,rt_thecrossant_black,588447,black_plus_sign,,,,49,,,1,0.9850746268656716,,,,,,,,,,
null,,color_black,588553,black_plus_sign,,,,null,,,,,,,,,,,,,,
null,,learn_phase(without_color),591564,black_plus_sign,,,,null,GW/jukebox.jpg,GW/wheelchair.jpg,,,,,,,,,,,,
null,,black_cross(without_color),592038,blue,,,,null,GW/jukebox.jpg,GW/wheelchair.jpg,,,,,,,,,,,,
null,,rt_plussign_withcolor,592544,blue,,,,null,GW/jukebox.jpg,GW/wheelchair.jpg,,,,,,,,,,,,
908.8000001907349,,rt_thecrossant_black,594090,black_plus_sign,,,,49,,,1,0.9852941176470589,,,,,,,,,,
null,,color_black,594206,black_plus_sign,,,,null,,,,,,,,,,,,,,
null,,learn_phase(without_color),597214,black_plus_sign,,,,null,GW/basket.jpg,GW/soldier.jpg,,,,,,,,,,,,
null,,black_cross(without_color),598172,green,,,,null,GW/basket.jpg,GW/soldier.jpg,,,,,,,,,,,,
null,,rt_plussign_withcolor,598687,green,,,,null,GW/basket.jpg,GW/soldier.jpg,,,,,,,,,,,,
615.2999999523163,,rt_thecrossant_black,599747,black_plus_sign,,,,50,,,1,0.9855072463768116,,,,,,,,,,
null,,color_black,599858,black_plus_sign,,,,null,,,,,,,,,,,,,,
null,,learn_phase(without_color),602865,black_plus_sign,,,,null,GW/wheelchair.jpg,GW/jukebox.jpg,,,,,,,,,,,,
null,,black_cross(without_color),603814,blue,,,,null,GW/wheelchair.jpg,GW/jukebox.jpg,,,,,,,,,,,,
null,,rt_plussign_withcolor,604332,blue,,,,null,GW/wheelchair.jpg,GW/jukebox.jpg,,,,,,,,,,,,
1600.3999998569489,,rt_thecrossant_black,605404,black_plus_sign,,,,49,,,1,0.9857142857142858,,,,,,,,,,
null,,color_black,605514,black_plus_sign,,,,null,,,,,,,,,,,,,,
null,,learn_phase(without_color),608522,black_plus_sign,,,,null,GW/paint.jpg,GW/gong.jpg,,,,,,,,,,,,
null,,black_cross(without_color),609148,green,,,,null,GW/paint.jpg,GW/gong.jpg,,,,,,,,,,,,
null,,rt_plussign_withcolor,609656,green,,,,null,GW/paint.jpg,GW/gong.jpg,,,,,,,,,,,,
1132.2000000476837,,rt_thecrossant_black,611059,black_plus_sign,,,,50,,,1,0.9859154929577465,,,,,,,,,,
null,,color_black,611167,black_plus_sign,,,,null,,,,,,,,,,,,,,
null,,learn_phase(without_color),614171,black_plus_sign,,,,null,GW/snail.jpg,GW/dustpan.jpg,,,,,,,,,,,,
null,,black_cross(without_color),615212,green,,,,null,GW/snail.jpg,GW/dustpan.jpg,,,,,,,,,,,,
null,,rt_plussign_withcolor,615722,green,,,,null,GW/snail.jpg,GW/dustpan.jpg,,,,,,,,,,,,
1103.0999999046326,,rt_thecrossant_black,616699,black_plus_sign,,,,50,,,1,0.9861111111111112,,,,,,,,,,
null,,color_black,616813,black_plus_sign,,,,null,,,,,,,,,,,,,,
null,,learn_phase(without_color),619816,black_plus_sign,,,,null,GW/basket.jpg,GW/soldier.jpg,,,,,,,,,,,,
null,,black_cross(without_color),620590,blue,,,,null,GW/basket.jpg,GW/soldier.jpg,,,,,,,,,,,,
null,,rt_plussign_withcolor,621094,blue,,,,null,GW/basket.jpg,GW/soldier.jpg,,,,,,,,,,,,
1176.2000000476837,,rt_thecrossant_black,622329,black_plus_sign,,,,49,,,1,0.9863013698630136,,,,,,,,,,
null,,color_black,622439,black_plus_sign,,,,null,,,,,,,,,,,,,,
null,,learn_phase(without_color),625446,black_plus_sign,,,,null,GW/dustpan.jpg,GW/snail.jpg,,,,,,,,,,,,
null,,black_cross(without_color),626304,green,,,,null,GW/dustpan.jpg,GW/snail.jpg,,,,,,,,,,,,
null,,rt_plussign_withcolor,626806,green,,,,null,GW/dustpan.jpg,GW/snail.jpg,,,,,,,,,,,,
1066.7999999523163,,rt_thecrossant_black,627965,black_plus_sign,,,,50,,,1,0.9864864864864865,,,,,,,,,,
null,,color_black,628082,black_plus_sign,,,,null,,,,,,,,,,,,,,
null,,learn_phase(without_color),631089,black_plus_sign,,,,null,GW/gong.jpg,GW/paint.jpg,,,,,,,,,,,,
null,,black_cross(without_color),631607,blue,,,,null,GW/gong.jpg,GW/paint.jpg,,,,,,,,,,,,
null,,rt_plussign_withcolor,632114,blue,,,,null,GW/gong.jpg,GW/paint.jpg,,,,,,,,,,,,
1163.9000000953674,,rt_thecrossant_black,633626,black_plus_sign,,,,49,,,1,0.9866666666666667,,,,,,,,,,
null,,color_black,633732,black_plus_sign,,,,null,,,,,,,,,,,,,,
null,,learn_phase(without_color),636738,black_plus_sign,,,,null,GW/soldier.jpg,GW/basket.jpg,,,,,,,,,,,,
null,,black_cross(without_color),637359,blue,,,,null,GW/soldier.jpg,GW/basket.jpg,,,,,,,,,,,,
null,,rt_plussign_withcolor,637864,blue,,,,null,GW/soldier.jpg,GW/basket.jpg,,,,,,,,,,,,
864.7000000476837,,rt_thecrossant_black,639248,black_plus_sign,,,,49,,,1,0.9868421052631579,,,,,,,,,,
null,,color_black,639365,black_plus_sign,,,,null,,,,,,,,,,,,,,
null,,learn_phase(without_color),642372,black_plus_sign,,,,null,GW/jukebox.jpg,GW/wheelchair.jpg,,,,,,,,,,,,
null,,black_cross(without_color),643023,green,,,,null,GW/jukebox.jpg,GW/wheelchair.jpg,,,,,,,,,,,,
null,,rt_plussign_withcolor,643541,green,,,,null,GW/jukebox.jpg,GW/wheelchair.jpg,,,,,,,,,,,,
912,,rt_thecrossant_black,644906,black_plus_sign,,,,50,,,1,0.987012987012987,,,,,,,,,,
null,,color_black,645023,black_plus_sign,,,,null,,,,,,,,,,,,,,
null,,learn_phase(without_color),648027,black_plus_sign,,,,null,GW/gong.jpg,GW/paint.jpg,,,,,,,,,,,,
null,,black_cross(without_color),648940,blue,,,,null,GW/gong.jpg,GW/paint.jpg,,,,,,,,,,,,
null,,rt_plussign_withcolor,649442,blue,,,,null,GW/gong.jpg,GW/paint.jpg,,,,,,,,,,,,
851.6999998092651,,rt_thecrossant_black,650547,black_plus_sign,,,,49,,,1,0.9871794871794872,,,,,,,,,,
null,,color_black,650656,black_plus_sign,,,,null,,,,,,,,,,,,,,
null,,learn_phase(without_color),653658,black_plus_sign,,,,null,GW/wheelchair.jpg,GW/jukebox.jpg,,,,,,,,,,,,
null,,black_cross(without_color),654687,green,,,,null,GW/wheelchair.jpg,GW/jukebox.jpg,,,,,,,,,,,,
null,,rt_plussign_withcolor,655199,green,,,,null,GW/wheelchair.jpg,GW/jukebox.jpg,,,,,,,,,,,,
1080.2999999523163,,rt_thecrossant_black,656196,black_plus_sign,,,,50,,,1,0.9873417721518988,,,,,,,,,,
null,,color_black,656305,black_plus_sign,,,,null,,,,,,,,,,,,,,
null,,learn_phase(without_color),659308,black_plus_sign,,,,null,GW/snail.jpg,GW/dustpan.jpg,,,,,,,,,,,,
null,,black_cross(without_color),659897,blue,,,,null,GW/snail.jpg,GW/dustpan.jpg,,,,,,,,,,,,
null,,rt_plussign_withcolor,660415,blue,,,,null,GW/snail.jpg,GW/dustpan.jpg,,,,,,,,,,,,
1154.2999999523163,,rt_thecrossant_black,661847,black_plus_sign,,,,49,,,1,0.9875,,,,,,,,,,
null,,color_black,661954,black_plus_sign,,,,null,,,,,,,,,,,,,,
null,,learn_phase(without_color),664964,black_plus_sign,,,,null,GW/jukebox.jpg,GW/wheelchair.jpg,,,,,,,,,,,,
null,,black_cross(without_color),665521,blue,,,,null,GW/jukebox.jpg,GW/wheelchair.jpg,,,,,,,,,,,,
null,,rt_plussign_withcolor,666023,blue,,,,null,GW/jukebox.jpg,GW/wheelchair.jpg,,,,,,,,,,,,
951.4000000953674,,rt_thecrossant_black,667477,black_plus_sign,,,,49,,,1,0.9876543209876543,,,,,,,,,,
null,,color_black,667595,black_plus_sign,,,,null,,,,,,,,,,,,,,
null,,learn_phase(without_color),670605,black_plus_sign,,,,null,GW/gong.jpg,GW/paint.jpg,,,,,,,,,,,,
null,,black_cross(without_color),671488,blue,,,,null,GW/gong.jpg,GW/paint.jpg,,,,,,,,,,,,
null,,rt_plussign_withcolor,671997,blue,,,,null,GW/gong.jpg,GW/paint.jpg,,,,,,,,,,,,
662.2000000476837,,rt_thecrossant_black,673141,black_plus_sign,,,,49,,,1,0.9878048780487805,,,,,,,,,,
null,,color_black,673260,black_plus_sign,,,,null,,,,,,,,,,,,,,
null,,learn_phase(without_color),676269,black_plus_sign,,,,null,GW/wheelchair.jpg,GW/jukebox.jpg,,,,,,,,,,,,
null,,black_cross(without_color),676833,green,,,,null,GW/wheelchair.jpg,GW/jukebox.jpg,,,,,,,,,,,,
null,,rt_plussign_withcolor,677348,green,,,,null,GW/wheelchair.jpg,GW/jukebox.jpg,,,,,,,,,,,,
1254.2999999523163,,rt_thecrossant_black,678794,black_plus_sign,,,,50,,,1,0.9879518072289156,,,,,,,,,,
null,,color_black,678907,black_plus_sign,,,,null,,,,,,,,,,,,,,
null,,learn_phase(without_color),681912,black_plus_sign,,,,null,GW/snail.jpg,GW/dustpan.jpg,,,,,,,,,,,,
null,,black_cross(without_color),682954,blue,,,,null,GW/snail.jpg,GW/dustpan.jpg,,,,,,,,,,,,
null,,rt_plussign_withcolor,683458,blue,,,,null,GW/snail.jpg,GW/dustpan.jpg,,,,,,,,,,,,
873.2999999523163,,rt_thecrossant_black,684434,black_plus_sign,,,,49,,,1,0.9880952380952381,,,,,,,,,,
null,,color_black,684537,black_plus_sign,,,,null,,,,,,,,,,,,,,
null,,learn_phase(without_color),687544,black_plus_sign,,,,null,GW/jukebox.jpg,GW/wheelchair.jpg,,,,,,,,,,,,
null,,black_cross(without_color),688587,blue,,,,null,GW/jukebox.jpg,GW/wheelchair.jpg,,,,,,,,,,,,
null,,rt_plussign_withcolor,689090,blue,,,,null,GW/jukebox.jpg,GW/wheelchair.jpg,,,,,,,,,,,,
1241.1000001430511,,rt_thecrossant_black,690069,black_plus_sign,,,,49,,,1,0.9882352941176471,,,,,,,,,,
null,,color_black,690179,black_plus_sign,,,,null,,,,,,,,,,,,,,
null,,learn_phase(without_color),693189,black_plus_sign,,,,null,GW/gong.jpg,GW/paint.jpg,,,,,,,,,,,,
null,,black_cross(without_color),693881,green,,,,null,GW/gong.jpg,GW/paint.jpg,,,,,,,,,,,,
null,,rt_plussign_withcolor,694392,green,,,,null,GW/gong.jpg,GW/paint.jpg,,,,,,,,,,,,
1350,,rt_thecrossant_black,695715,black_plus_sign,,,,50,,,1,0.9883720930232558,,,,,,,,,,
null,,color_black,695824,black_plus_sign,,,,null,,,,,,,,,,,,,,
null,,learn_phase(without_color),698835,black_plus_sign,,,,null,GW/snail.jpg,GW/dustpan.jpg,,,,,,,,,,,,
null,,black_cross(without_color),699477,green,,,,null,GW/snail.jpg,GW/dustpan.jpg,,,,,,,,,,,,
null,,rt_plussign_withcolor,699981,green,,,,null,GW/snail.jpg,GW/dustpan.jpg,,,,,,,,,,,,
1453.6000001430511,,rt_thecrossant_black,701349,black_plus_sign,,,,50,,,1,0.9885057471264368,,,,,,,,,,
null,,color_black,701455,black_plus_sign,,,,null,,,,,,,,,,,,,,
null,,learn_phase(without_color),704462,black_plus_sign,,,,null,GW/soldier.jpg,GW/basket.jpg,,,,,,,,,,,,
null,,black_cross(without_color),704951,green,,,,null,GW/soldier.jpg,GW/basket.jpg,,,,,,,,,,,,
null,,rt_plussign_withcolor,705456,green,,,,null,GW/soldier.jpg,GW/basket.jpg,,,,,,,,,,,,
843.7000000476837,,rt_thecrossant_black,706997,black_plus_sign,,,,50,,,1,0.9886363636363636,,,,,,,,,,
null,,color_black,707105,black_plus_sign,,,,null,,,,,,,,,,,,,,
null,,learn_phase(without_color),710121,black_plus_sign,,,,null,GW/gong.jpg,GW/paint.jpg,,,,,,,,,,,,
null,,black_cross(without_color),711237,blue,,,,null,GW/gong.jpg,GW/paint.jpg,,,,,,,,,,,,
null,,rt_plussign_withcolor,711740,blue,,,,null,GW/gong.jpg,GW/paint.jpg,,,,,,,,,,,,
823.2000000476837,,rt_thecrossant_black,712645,black_plus_sign,,,,49,,,1,0.9887640449438202,,,,,,,,,,
null,,color_black,712756,black_plus_sign,,,,null,,,,,,,,,,,,,,
null,,learn_phase(without_color),715766,black_plus_sign,,,,null,GW/snail.jpg,GW/dustpan.jpg,,,,,,,,,,,,
null,,black_cross(without_color),716349,blue,,,,null,GW/snail.jpg,GW/dustpan.jpg,,,,,,,,,,,,
null,,rt_plussign_withcolor,716855,blue,,,,null,GW/snail.jpg,GW/dustpan.jpg,,,,,,,,,,,,
1330.7999999523163,,rt_thecrossant_black,718296,black_plus_sign,,,,49,,,1,0.9888888888888889,,,,,,,,,,
null,,color_black,718404,black_plus_sign,,,,null,,,,,,,,,,,,,,
null,,learn_phase(without_color),721407,black_plus_sign,,,,null,GW/basket.jpg,GW/soldier.jpg,,,,,,,,,,,,
null,,black_cross(without_color),722163,green,,,,null,GW/basket.jpg,GW/soldier.jpg,,,,,,,,,,,,
436.80000019073486,,rt_plussign_withcolor,722668,green,,,,49,GW/basket.jpg,GW/soldier.jpg,,,,,,,,,,,,
null,,rt_thecrossant_black,723937,black_plus_sign,,,,null,,,0,0.978021978021978,,,,,,,,,,
null,,color_black,724047,black_plus_sign,,,,null,,,,,,,,,,,,,,
null,,learn_phase(without_color),727057,black_plus_sign,,,,null,GW/paint.jpg,GW/gong.jpg,,,,,,,,,,,,
null,,black_cross(without_color),728068,blue,,,,null,GW/paint.jpg,GW/gong.jpg,,,,,,,,,,,,
null,,rt_plussign_withcolor,728575,blue,,,,null,GW/paint.jpg,GW/gong.jpg,,,,,,,,,,,,
995.9000000953674,,rt_thecrossant_black,729579,black_plus_sign,,,,49,,,1,0.9782608695652174,,,,,,,,,,
null,,color_black,729688,black_plus_sign,,,,null,,,,,,,,,,,,,,
null,,learn_phase(without_color),732696,black_plus_sign,,,,null,GW/wheelchair.jpg,GW/jukebox.jpg,,,,,,,,,,,,
null,,black_cross(without_color),733650,green,,,,null,GW/wheelchair.jpg,GW/jukebox.jpg,,,,,,,,,,,,
null,,rt_plussign_withcolor,734161,green,,,,null,GW/wheelchair.jpg,GW/jukebox.jpg,,,,,,,,,,,,
1171.3999998569489,,rt_thecrossant_black,735238,black_plus_sign,,,,50,,,1,0.978494623655914,,,,,,,,,,
null,,color_black,735347,black_plus_sign,,,,null,,,,,,,,,,,,,,
null,,learn_phase(without_color),738362,black_plus_sign,,,,null,GW/dustpan.jpg,GW/snail.jpg,,,,,,,,,,,,
null,,black_cross(without_color),739357,blue,,,,null,GW/dustpan.jpg,GW/snail.jpg,,,,,,,,,,,,
null,,rt_plussign_withcolor,739875,blue,,,,null,GW/dustpan.jpg,GW/snail.jpg,,,,,,,,,,,,
1277.8999998569489,,rt_thecrossant_black,740908,black_plus_sign,,,,49,,,1,0.9787234042553191,,,,,,,,,,
null,,color_black,741018,black_plus_sign,,,,null,,,,,,,,,,,,,,
null,,learn_phase(without_color),744026,black_plus_sign,,,,null,GW/soldier.jpg,GW/basket.jpg,,,,,,,,,,,,
null,,black_cross(without_color),744688,blue,,,,null,GW/soldier.jpg,GW/basket.jpg,,,,,,,,,,,,
null,,rt_plussign_withcolor,745204,blue,,,,null,GW/soldier.jpg,GW/basket.jpg,,,,,,,,,,,,
1328.5,,rt_thecrossant_black,746562,black_plus_sign,,,,49,,,1,0.9789473684210527,,,,,,,,,,
null,,color_black,746671,black_plus_sign,,,,null,,,,,,,,,,,,,,
null,,learn_phase(without_color),749690,black_plus_sign,,,,null,GW/dustpan.jpg,GW/snail.jpg,,,,,,,,,,,,
null,,black_cross(without_color),750721,blue,,,,null,GW/dustpan.jpg,GW/snail.jpg,,,,,,,,,,,,
null,,rt_plussign_withcolor,751224,blue,,,,null,GW/dustpan.jpg,GW/snail.jpg,,,,,,,,,,,,
948.2999999523163,,rt_thecrossant_black,752210,black_plus_sign,,,,49,,,1,0.9791666666666666,,,,,,,,,,
null,,color_black,752317,black_plus_sign,,,,null,,,,,,,,,,,,,,
null,,learn_phase(without_color),755327,black_plus_sign,,,,null,GW/gong.jpg,GW/dustpan.jpg,,,,,,,,,,,,
null,,black_cross(without_color),755754,blue,,,,null,GW/gong.jpg,GW/dustpan.jpg,,,,,,,,,,,,
513.7000000476837,,rt_plussign_withcolor,756270,blue,,,,49,GW/gong.jpg,GW/dustpan.jpg,,,,,,,,,,,,
null,,rt_thecrossant_black,757854,black_plus_sign,,,,null,,,1,0.979381443298969,,,,,,,,,,
null,,color_black,757964,black_plus_sign,,,,null,,,,,,,,,,,,,,
null,,learn_phase(without_color),760979,black_plus_sign,,,,null,GW/globe.jpg,GW/paint.jpg,,,,,,,,,,,,
null,,black_cross(without_color),761846,green,,,,null,GW/globe.jpg,GW/paint.jpg,,,,,,,,,,,,
null,,rt_plussign_withcolor,762351,green,,,,null,GW/globe.jpg,GW/paint.jpg,,,,,,,,,,,,
590.4000000953674,,rt_thecrossant_black,763504,black_plus_sign,,,,50,,,1,0.9795918367346939,,,,,,,,,,
null,,color_black,763613,black_plus_sign,,,,null,,,,,,,,,,,,,,
null,,learn_phase(without_color),766620,black_plus_sign,,,,null,GW/dustpan.jpg,GW/gong.jpg,,,,,,,,,,,,
null,,black_cross(without_color),767321,green,,,,null,GW/dustpan.jpg,GW/gong.jpg,,,,,,,,,,,,
null,,rt_plussign_withcolor,767831,green,,,,null,GW/dustpan.jpg,GW/gong.jpg,,,,,,,,,,,,
1006,,rt_thecrossant_black,769147,black_plus_sign,,,,50,,,1,0.9797979797979798,,,,,,,,,,
null,,color_black,769264,black_plus_sign,,,,null,,,,,,,,,,,,,,
null,,learn_phase(without_color),772270,black_plus_sign,,,,null,GW/barrel.jpg,GW/jukebox.jpg,,,,,,,,,,,,
null,,black_cross(without_color),772721,blue,,,,null,GW/barrel.jpg,GW/jukebox.jpg,,,,,,,,,,,,
null,,rt_plussign_withcolor,773226,blue,,,,null,GW/barrel.jpg,GW/jukebox.jpg,,,,,,,,,,,,
1049.7999999523163,,rt_thecrossant_black,774795,black_plus_sign,,,,49,,,1,0.98,,,,,,,,,,
null,,color_black,774904,black_plus_sign,,,,null,,,,,,,,,,,,,,
null,,learn_phase(without_color),777908,black_plus_sign,,,,null,GW/dustpan.jpg,GW/gong.jpg,,,,,,,,,,,,
null,,black_cross(without_color),778997,blue,,,,null,GW/dustpan.jpg,GW/gong.jpg,,,,,,,,,,,,
null,,rt_plussign_withcolor,779500,blue,,,,null,GW/dustpan.jpg,GW/gong.jpg,,,,,,,,,,,,
685.7000000476837,,rt_thecrossant_black,780426,black_plus_sign,,,,49,,,1,0.9801980198019802,,,,,,,,,,
null,,color_black,780530,black_plus_sign,,,,null,,,,,,,,,,,,,,
null,,learn_phase(without_color),783541,black_plus_sign,,,,null,GW/hat.jpg,GW/basket.jpg,,,,,,,,,,,,
null,,black_cross(without_color),784395,blue,,,,null,GW/hat.jpg,GW/basket.jpg,,,,,,,,,,,,
null,,rt_plussign_withcolor,784908,blue,,,,null,GW/hat.jpg,GW/basket.jpg,,,,,,,,,,,,
1331.7000000476837,,rt_thecrossant_black,786079,black_plus_sign,,,,49,,,1,0.9803921568627451,,,,,,,,,,
null,,color_black,786188,black_plus_sign,,,,null,,,,,,,,,,,,,,
null,,learn_phase(without_color),789196,black_plus_sign,,,,null,GW/paint.jpg,GW/globe.jpg,,,,,,,,,,,,
null,,black_cross(without_color),790147,green,,,,null,GW/paint.jpg,GW/globe.jpg,,,,,,,,,,,,
null,,rt_plussign_withcolor,790667,green,,,,null,GW/paint.jpg,GW/globe.jpg,,,,,,,,,,,,
1062.5,,rt_thecrossant_black,791733,black_plus_sign,,,,50,,,1,0.9805825242718447,,,,,,,,,,
null,,color_black,791839,black_plus_sign,,,,null,,,,,,,,,,,,,,
null,,learn_phase(without_color),794846,black_plus_sign,,,,null,GW/basket.jpg,GW/hat.jpg,,,,,,,,,,,,
null,,black_cross(without_color),795395,green,,,,null,GW/basket.jpg,GW/hat.jpg,,,,,,,,,,,,
null,,rt_plussign_withcolor,795904,green,,,,null,GW/basket.jpg,GW/hat.jpg,,,,,,,,,,,,
1281.7999999523163,,rt_thecrossant_black,797369,black_plus_sign,,,,50,,,1,0.9807692307692307,,,,,,,,,,
null,,color_black,797477,black_plus_sign,,,,null,,,,,,,,,,,,,,
null,,learn_phase(without_color),800487,black_plus_sign,,,,null,GW/globe.jpg,GW/paint.jpg,,,,,,,,,,,,
null,,black_cross(without_color),801200,blue,,,,null,GW/globe.jpg,GW/paint.jpg,,,,,,,,,,,,
474.60000014305115,,rt_plussign_withcolor,801703,blue,,,,49,GW/globe.jpg,GW/paint.jpg,,,,,,,,,,,,
null,,rt_thecrossant_black,803003,black_plus_sign,,,,null,,,1,0.9809523809523809,,,,,,,,,,
null,,color_black,803122,black_plus_sign,,,,null,,,,,,,,,,,,,,
null,,learn_phase(without_color),806137,black_plus_sign,,,,null,GW/hat.jpg,GW/basket.jpg,,,,,,,,,,,,
null,,black_cross(without_color),806778,blue,,,,null,GW/hat.jpg,GW/basket.jpg,,,,,,,,,,,,
null,,rt_plussign_withcolor,807280,blue,,,,null,GW/hat.jpg,GW/basket.jpg,,,,,,,,,,,,
904,,rt_thecrossant_black,808661,black_plus_sign,,,,49,,,1,0.9811320754716981,,,,,,,,,,
null,,color_black,808771,black_plus_sign,,,,null,,,,,,,,,,,,,,
null,,learn_phase(without_color),811787,black_plus_sign,,,,null,GW/paint.jpg,GW/globe.jpg,,,,,,,,,,,,
null,,black_cross(without_color),812320,green,,,,null,GW/paint.jpg,GW/globe.jpg,,,,,,,,,,,,
510,,rt_plussign_withcolor,812832,green,,,,50,GW/paint.jpg,GW/globe.jpg,,,,,,,,,,,,
null,,rt_thecrossant_black,814325,black_plus_sign,,,,null,,,1,0.9813084112149533,,,,,,,,,,
null,,color_black,814442,black_plus_sign,,,,null,,,,,,,,,,,,,,
null,,learn_phase(without_color),817454,black_plus_sign,,,,null,GW/dustpan.jpg,GW/gong.jpg,,,,,,,,,,,,
null,,black_cross(without_color),818174,blue,,,,null,GW/dustpan.jpg,GW/gong.jpg,,,,,,,,,,,,
null,,rt_plussign_withcolor,818684,blue,,,,null,GW/dustpan.jpg,GW/gong.jpg,,,,,,,,,,,,
640.7999999523163,,rt_thecrossant_black,819974,black_plus_sign,,,,50,,,0,0.9722222222222222,,,,,,,,,,
null,,color_black,820089,black_plus_sign,,,,null,,,,,,,,,,,,,,
null,,learn_phase(without_color),823096,black_plus_sign,,,,null,GW/basket.jpg,GW/hat.jpg,,,,,,,,,,,,
null,,black_cross(without_color),823504,green,,,,null,GW/basket.jpg,GW/hat.jpg,,,,,,,,,,,,
null,,rt_plussign_withcolor,824012,green,,,,null,GW/basket.jpg,GW/hat.jpg,,,,,,,,,,,,
933.5,,rt_thecrossant_black,825616,black_plus_sign,,,,50,,,1,0.9724770642201835,,,,,,,,,,
null,,color_black,825722,black_plus_sign,,,,null,,,,,,,,,,,,,,
null,,learn_phase(without_color),828731,black_plus_sign,,,,null,GW/globe.jpg,GW/paint.jpg,,,,,,,,,,,,
null,,black_cross(without_color),829462,blue,,,,null,GW/globe.jpg,GW/paint.jpg,,,,,,,,,,,,
null,,rt_plussign_withcolor,829970,blue,,,,null,GW/globe.jpg,GW/paint.jpg,,,,,,,,,,,,
716.5,,rt_thecrossant_black,831254,black_plus_sign,,,,49,,,1,0.9727272727272728,,,,,,,,,,
null,,color_black,831360,black_plus_sign,,,,null,,,,,,,,,,,,,,
null,,learn_phase(without_color),834367,black_plus_sign,,,,null,GW/dustpan.jpg,GW/gong.jpg,,,,,,,,,,,,
null,,black_cross(without_color),835069,blue,,,,null,GW/dustpan.jpg,GW/gong.jpg,,,,,,,,,,,,
null,,rt_plussign_withcolor,835580,blue,,,,null,GW/dustpan.jpg,GW/gong.jpg,,,,,,,,,,,,
992.7999999523163,,rt_thecrossant_black,836896,black_plus_sign,,,,49,,,1,0.972972972972973,,,,,,,,,,
null,,color_black,837004,black_plus_sign,,,,null,,,,,,,,,,,,,,
null,,learn_phase(without_color),840019,black_plus_sign,,,,null,GW/globe.jpg,GW/paint.jpg,,,,,,,,,,,,
null,,black_cross(without_color),840486,green,,,,null,GW/globe.jpg,GW/paint.jpg,,,,,,,,,,,,
null,,rt_plussign_withcolor,840995,green,,,,null,GW/globe.jpg,GW/paint.jpg,,,,,,,,,,,,
980.9000000953674,,rt_thecrossant_black,842544,black_plus_sign,,,,50,,,1,0.9732142857142857,,,,,,,,,,
null,,color_black,842664,black_plus_sign,,,,null,,,,,,,,,,,,,,
null,,learn_phase(without_color),845669,black_plus_sign,,,,null,GW/basket.jpg,GW/hat.jpg,,,,,,,,,,,,
null,,black_cross(without_color),846477,blue,,,,null,GW/basket.jpg,GW/hat.jpg,,,,,,,,,,,,
null,,rt_plussign_withcolor,846984,blue,,,,null,GW/basket.jpg,GW/hat.jpg,,,,,,,,,,,,
669.8000001907349,,rt_thecrossant_black,848195,black_plus_sign,,,,49,,,1,0.9734513274336283,,,,,,,,,,
null,,color_black,848304,black_plus_sign,,,,null,,,,,,,,,,,,,,
null,,learn_phase(without_color),851314,black_plus_sign,,,,null,GW/jukebox.jpg,GW/barrel.jpg,,,,,,,,,,,,
null,,black_cross(without_color),852349,blue,,,,null,GW/jukebox.jpg,GW/barrel.jpg,,,,,,,,,,,,
null,,rt_plussign_withcolor,852854,blue,,,,null,GW/jukebox.jpg,GW/barrel.jpg,,,,,,,,,,,,
934.3999998569489,,rt_thecrossant_black,853829,black_plus_sign,,,,50,,,0,0.9649122807017544,,,,,,,,,,
null,,color_black,853936,black_plus_sign,,,,null,,,,,,,,,,,,,,
null,,learn_phase(without_color),856945,black_plus_sign,,,,null,GW/globe.jpg,GW/paint.jpg,,,,,,,,,,,,
null,,black_cross(without_color),857745,blue,,,,null,GW/globe.jpg,GW/paint.jpg,,,,,,,,,,,,
null,,rt_plussign_withcolor,858250,blue,,,,null,GW/globe.jpg,GW/paint.jpg,,,,,,,,,,,,
1169,,rt_thecrossant_black,859462,black_plus_sign,,,,49,,,1,0.9652173913043478,,,,,,,,,,
null,,color_black,859580,black_plus_sign,,,,null,,,,,,,,,,,,,,
null,,learn_phase(without_color),862587,black_plus_sign,,,,null,GW/barrel.jpg,GW/jukebox.jpg,,,,,,,,,,,,
null,,black_cross(without_color),863429,green,,,,null,GW/barrel.jpg,GW/jukebox.jpg,,,,,,,,,,,,
null,,rt_plussign_withcolor,863946,green,,,,null,GW/barrel.jpg,GW/jukebox.jpg,,,,,,,,,,,,
950.7000000476837,,rt_thecrossant_black,865120,black_plus_sign,,,,50,,,1,0.9655172413793104,,,,,,,,,,
null,,color_black,865228,black_plus_sign,,,,null,,,,,,,,,,,,,,
null,,learn_phase(without_color),868234,black_plus_sign,,,,null,GW/gong.jpg,GW/dustpan.jpg,,,,,,,,,,,,
null,,black_cross(without_color),869270,green,,,,null,GW/gong.jpg,GW/dustpan.jpg,,,,,,,,,,,,
null,,rt_plussign_withcolor,869772,green,,,,null,GW/gong.jpg,GW/dustpan.jpg,,,,,,,,,,,,
1007.7999999523163,,rt_thecrossant_black,870753,black_plus_sign,,,,50,,,1,0.9658119658119658,,,,,,,,,,
null,,color_black,870860,black_plus_sign,,,,null,,,,,,,,,,,,,,
null,,learn_phase(without_color),873871,black_plus_sign,,,,null,GW/globe.jpg,GW/paint.jpg,,,,,,,,,,,,
null,,black_cross(without_color),874546,green,,,,null,GW/globe.jpg,GW/paint.jpg,,,,,,,,,,,,
null,,rt_plussign_withcolor,875049,green,,,,null,GW/globe.jpg,GW/paint.jpg,,,,,,,,,,,,
1335.5,,rt_thecrossant_black,876393,black_plus_sign,,,,50,,,1,0.9661016949152542,,,,,,,,,,
null,,color_black,876503,black_plus_sign,,,,null,,,,,,,,,,,,,,
null,,learn_phase(without_color),879512,black_plus_sign,,,,null,GW/barrel.jpg,GW/jukebox.jpg,,,,,,,,,,,,
null,,black_cross(without_color),880323,green,,,,null,GW/barrel.jpg,GW/jukebox.jpg,,,,,,,,,,,,
null,,rt_plussign_withcolor,880826,green,,,,null,GW/barrel.jpg,GW/jukebox.jpg,,,,,,,,,,,,
923.0999999046326,,rt_thecrossant_black,882037,black_plus_sign,,,,50,,,1,0.9663865546218487,,,,,,,,,,
null,,color_black,882148,black_plus_sign,,,,null,,,,,,,,,,,,,,
null,,learn_phase(without_color),885155,black_plus_sign,,,,null,GW/basket.jpg,GW/hat.jpg,,,,,,,,,,,,
null,,black_cross(without_color),886081,blue,,,,null,GW/basket.jpg,GW/hat.jpg,,,,,,,,,,,,
null,,rt_plussign_withcolor,886595,blue,,,,null,GW/basket.jpg,GW/hat.jpg,,,,,,,,,,,,
1062.4000000953674,,rt_thecrossant_black,887679,black_plus_sign,,,,49,,,1,0.9666666666666667,,,,,,,,,,
null,,color_black,887792,black_plus_sign,,,,null,,,,,,,,,,,,,,
null,,learn_phase(without_color),890798,black_plus_sign,,,,null,GW/barrel.jpg,GW/jukebox.jpg,,,,,,,,,,,,
null,,black_cross(without_color),891396,blue,,,,null,GW/barrel.jpg,GW/jukebox.jpg,,,,,,,,,,,,
null,,rt_plussign_withcolor,891904,blue,,,,null,GW/barrel.jpg,GW/jukebox.jpg,,,,,,,,,,,,
1077.2999999523163,,rt_thecrossant_black,893319,black_plus_sign,,,,49,,,1,0.9669421487603306,,,,,,,,,,
null,,color_black,893430,black_plus_sign,,,,null,,,,,,,,,,,,,,
null,,learn_phase(without_color),896437,black_plus_sign,,,,null,GW/basket.jpg,GW/hat.jpg,,,,,,,,,,,,
null,,black_cross(without_color),897345,green,,,,null,GW/basket.jpg,GW/hat.jpg,,,,,,,,,,,,
null,,rt_plussign_withcolor,897855,green,,,,null,GW/basket.jpg,GW/hat.jpg,,,,,,,,,,,,
706.7000000476837,,rt_thecrossant_black,898960,black_plus_sign,,,,50,,,1,0.9672131147540983,,,,,,,,,,
null,,color_black,899075,black_plus_sign,,,,null,,,,,,,,,,,,,,
null,,learn_phase(without_color),902077,black_plus_sign,,,,null,GW/barrel.jpg,GW/jukebox.jpg,,,,,,,,,,,,
null,,black_cross(without_color),902603,blue,,,,null,GW/barrel.jpg,GW/jukebox.jpg,,,,,,,,,,,,
null,,rt_plussign_withcolor,903113,blue,,,,null,GW/barrel.jpg,GW/jukebox.jpg,,,,,,,,,,,,
1101.2999999523163,,rt_thecrossant_black,904604,black_plus_sign,,,,49,,,1,0.967479674796748,,,,,,,,,,
null,,color_black,904711,black_plus_sign,,,,null,,,,,,,,,,,,,,
null,,learn_phase(without_color),907720,black_plus_sign,,,,null,GW/basket.jpg,GW/hat.jpg,,,,,,,,,,,,
null,,black_cross(without_color),908777,green,,,,null,GW/basket.jpg,GW/hat.jpg,,,,,,,,,,,,
487.7000000476837,,rt_plussign_withcolor,909286,green,,,,50,GW/basket.jpg,GW/hat.jpg,,,,,,,,,,,,
null,,rt_thecrossant_black,910245,black_plus_sign,,,,null,,,1,0.967741935483871,,,,,,,,,,
null,,color_black,910356,black_plus_sign,,,,null,,,,,,,,,,,,,,
null,,learn_phase(without_color),913362,black_plus_sign,,,,null,GW/dustpan.jpg,GW/gong.jpg,,,,,,,,,,,,
null,,black_cross(without_color),914311,blue,,,,null,GW/dustpan.jpg,GW/gong.jpg,,,,,,,,,,,,
null,,rt_plussign_withcolor,914819,blue,,,,null,GW/dustpan.jpg,GW/gong.jpg,,,,,,,,,,,,
1232.4000000953674,,rt_thecrossant_black,915888,black_plus_sign,,,,49,,,1,0.968,,,,,,,,,,
null,,color_black,916004,black_plus_sign,,,,null,,,,,,,,,,,,,,
null,,learn_phase(without_color),919013,black_plus_sign,,,,null,GW/jukebox.jpg,GW/barrel.jpg,,,,,,,,,,,,
null,,black_cross(without_color),919444,blue,,,,null,GW/jukebox.jpg,GW/barrel.jpg,,,,,,,,,,,,
null,,rt_plussign_withcolor,919954,blue,,,,null,GW/jukebox.jpg,GW/barrel.jpg,,,,,,,,,,,,
1489.5,,rt_thecrossant_black,921536,black_plus_sign,,,,49,,,1,0.9682539682539683,,,,,,,,,,
null,,color_black,921647,black_plus_sign,,,,null,,,,,,,,,,,,,,
null,,learn_phase(without_color),924656,black_plus_sign,,,,null,GW/jukebox.jpg,GW/barrel.jpg,,,,,,,,,,,,
null,,black_cross(without_color),925522,green,,,,null,GW/jukebox.jpg,GW/barrel.jpg,,,,,,,,,,,,
null,,rt_plussign_withcolor,926027,green,,,,null,GW/jukebox.jpg,GW/barrel.jpg,,,,,,,,,,,,
599.5,,rt_thecrossant_black,927187,black_plus_sign,,,,50,,,1,0.968503937007874,,,,,,,,,,
null,,color_black,927304,black_plus_sign,,,,null,,,,,,,,,,,,,,
null,,learn_phase(without_color),930313,black_plus_sign,,,,null,GW/gong.jpg,GW/dustpan.jpg,,,,,,,,,,,,
null,,black_cross(without_color),931237,green,,,,null,GW/gong.jpg,GW/dustpan.jpg,,,,,,,,,,,,
null,,rt_plussign_withcolor,931747,green,,,,null,GW/gong.jpg,GW/dustpan.jpg,,,,,,,,,,,,
1113.0999999046326,,rt_thecrossant_black,932844,black_plus_sign,,,,50,,,1,0.96875,,,,,,,,,,
null,,color_black,932962,black_plus_sign,,,,null,,,,,,,,,,,,,,
28725.200000047684,,intro_1,961690,instruct,,0,Start,,,,,,,,,,,,,,,
2766.7999999523163,,directmemory_phase,964466,GW/teeth.jpg,,,,49,,,1,1,GW/gong.jpg,GW/globe.jpg,GW/dustpan.jpg,GW/gong.jpg,GW/dustpan.jpg,GW/globe.jpg,1,,,
null,,html-keyboard-response,965472,<p></p>,,,,null,,,,,,,,,,,,,,
3669.9000000953674,,directmemory_phase,969144,GW/snail.jpg,,,,50,,,1,1,GW/globe.jpg,GW/paint.jpg,GW/teeth.jpg,GW/paint.jpg,GW/globe.jpg,GW/teeth.jpg,1,,,
null,,html-keyboard-response,970154,<p></p>,,,,null,,,,,,,,,,,,,,
3280,,directmemory_phase,973436,GW/jukebox.jpg,,,,49,,,1,1,GW/barrel.jpg,GW/globe.jpg,GW/snail.jpg,GW/barrel.jpg,GW/snail.jpg,GW/globe.jpg,1,,,
null,,html-keyboard-response,974443,<p></p>,,,,null,,,,,,,,,,,,,,
2735,,directmemory_phase,977180,GW/wheelchair.jpg,,,,51,,,1,1,GW/paint.jpg,GW/soldier.jpg,GW/basket.jpg,GW/basket.jpg,GW/soldier.jpg,GW/paint.jpg,1,,,
null,,html-keyboard-response,978193,<p></p>,,,,null,,,,,,,,,,,,,,
6490.100000143051,,directmemory_phase,984686,GW/barrel.jpg,,,,49,,,1,1,GW/snail.jpg,GW/globe.jpg,GW/camera.jpg,GW/snail.jpg,GW/camera.jpg,GW/globe.jpg,1,,,
null,,html-keyboard-response,985695,<p></p>,,,,null,,,,,,,,,,,,,,
2155.5999999046326,,directmemory_phase,987853,GW/dustpan.jpg,,,,51,,,1,1,GW/camera.jpg,GW/barrel.jpg,GW/paint.jpg,GW/paint.jpg,GW/barrel.jpg,GW/camera.jpg,1,,,
null,,html-keyboard-response,988855,<p></p>,,,,null,,,,,,,,,,,,,,
3213.4000000953674,,directmemory_phase,992071,GW/gong.jpg,,,,50,,,1,1,GW/snail.jpg,GW/teeth.jpg,GW/barrel.jpg,GW/teeth.jpg,GW/snail.jpg,GW/barrel.jpg,1,,,
null,,html-keyboard-response,993087,<p></p>,,,,null,,,,,,,,,,,,,,
2382.9000000953674,,directmemory_phase,995472,GW/paint.jpg,,,,49,,,0,0.875,GW/barrel.jpg,GW/globe.jpg,GW/camera.jpg,GW/globe.jpg,GW/barrel.jpg,GW/camera.jpg,0.5,closer,,
null,,html-keyboard-response,996478,<p></p>,,,,null,,,,,,,,,,,,,,
null,,directmemory_phase,1002986,GW/dustpan.jpg,,,,null,,,0,0.7777777777777778,GW/snail.jpg,GW/camera.jpg,GW/teeth.jpg,GW/snail.jpg,GW/teeth.jpg,GW/camera.jpg,0,,,
null,,html-keyboard-response,1003996,<p></p>,,,,null,,,,,,,,,,,,,,
2215.7999999523163,,directmemory_phase,1006213,GW/paint.jpg,,,,49,,,1,0.8,GW/gong.jpg,GW/wheelchair.jpg,GW/jukebox.jpg,GW/gong.jpg,GW/jukebox.jpg,GW/wheelchair.jpg,1,,,
null,,html-keyboard-response,1007218,<p></p>,,,,null,,,,,,,,,,,,,,
2573.2000000476837,,directmemory_phase,1009793,GW/jukebox.jpg,,,,49,,,1,0.8181818181818182,GW/dustpan.jpg,GW/globe.jpg,GW/paint.jpg,GW/dustpan.jpg,GW/paint.jpg,GW/globe.jpg,1,,,
null,,html-keyboard-response,1010802,<p></p>,,,,null,,,,,,,,,,,,,,
1735.7999999523163,,directmemory_phase,1012539,GW/gong.jpg,,,,51,,,1,0.8333333333333334,GW/soldier.jpg,GW/jukebox.jpg,GW/paint.jpg,GW/paint.jpg,GW/jukebox.jpg,GW/soldier.jpg,1,,,
null,,html-keyboard-response,1013541,<p></p>,,,,null,,,,,,,,,,,,,,
4269.800000190735,,directmemory_phase,1017813,GW/dustpan.jpg,,,,49,,,1,0.8461538461538461,GW/jukebox.jpg,GW/hat.jpg,GW/barrel.jpg,GW/jukebox.jpg,GW/barrel.jpg,GW/hat.jpg,1,,,
null,,html-keyboard-response,1018825,<p></p>,,,,null,,,,,,,,,,,,,,
3367.800000190735,,directmemory_phase,1022197,GW/soldier.jpg,,,,49,,,1,0.8571428571428571,GW/camera.jpg,GW/gong.jpg,GW/wheelchair.jpg,GW/camera.jpg,GW/wheelchair.jpg,GW/gong.jpg,1,,,
null,,html-keyboard-response,1023209,<p></p>,,,,null,,,,,,,,,,,,,,
4352.899999856949,,directmemory_phase,1027564,GW/wheelchair.jpg,,,,49,,,0,0.8,GW/soldier.jpg,GW/jukebox.jpg,GW/gong.jpg,GW/jukebox.jpg,GW/soldier.jpg,GW/gong.jpg,0.5,closer,,
null,,html-keyboard-response,1028576,<p></p>,,,,null,,,,,,,,,,,,,,
2795.9000000953674,,directmemory_phase,1031374,GW/paint.jpg,,,,49,,,1,0.8125,GW/dustpan.jpg,GW/camera.jpg,GW/teeth.jpg,GW/dustpan.jpg,GW/teeth.jpg,GW/camera.jpg,1,,,
null,,html-keyboard-response,1032378,<p></p>,,,,null,,,,,,,,,,,,,,
1599.0999999046326,,directmemory_phase,1033979,GW/camera.jpg,,,,51,,,1,0.8235294117647058,GW/wheelchair.jpg,GW/basket.jpg,GW/soldier.jpg,GW/soldier.jpg,GW/basket.jpg,GW/wheelchair.jpg,1,,,
null,,html-keyboard-response,1034995,<p></p>,,,,null,,,,,,,,,,,,,,
3872,,directmemory_phase,1038869,GW/dustpan.jpg,,,,49,,,1,0.8333333333333334,GW/gong.jpg,GW/soldier.jpg,GW/teeth.jpg,GW/gong.jpg,GW/teeth.jpg,GW/soldier.jpg,1,,,
null,,html-keyboard-response,1039874,<p></p>,,,,null,,,,,,,,,,,,,,
2128.4000000953674,,directmemory_phase,1042004,GW/basket.jpg,,,,51,,,1,0.8421052631578947,GW/gong.jpg,GW/camera.jpg,GW/wheelchair.jpg,GW/wheelchair.jpg,GW/camera.jpg,GW/gong.jpg,1,,,
null,,html-keyboard-response,1043020,<p></p>,,,,null,,,,,,,,,,,,,,
null,,directmemory_phase,1049522,GW/snail.jpg,,,,null,,,0,0.8,GW/wheelchair.jpg,GW/globe.jpg,GW/dustpan.jpg,GW/dustpan.jpg,GW/globe.jpg,GW/wheelchair.jpg,0,,,
null,,html-keyboard-response,1050535,<p></p>,,,,null,,,,,,,,,,,,,,
4312.700000047684,,directmemory_phase,1054849,GW/hat.jpg,,,,51,,,1,0.8095238095238095,GW/snail.jpg,GW/soldier.jpg,GW/basket.jpg,GW/basket.jpg,GW/soldier.jpg,GW/snail.jpg,1,,,
null,,html-keyboard-response,1055857,<p></p>,,,,null,,,,,,,,,,,,,,
4668.299999952316,,directmemory_phase,1060528,GW/snail.jpg,,,,49,,,1,0.8181818181818182,GW/barrel.jpg,GW/teeth.jpg,GW/gong.jpg,GW/barrel.jpg,GW/gong.jpg,GW/teeth.jpg,1,,,
null,,html-keyboard-response,1061537,<p></p>,,,,null,,,,,,,,,,,,,,
2603.5999999046326,,directmemory_phase,1064142,GW/gong.jpg,,,,51,,,1,0.8260869565217391,GW/barrel.jpg,GW/snail.jpg,GW/dustpan.jpg,GW/dustpan.jpg,GW/snail.jpg,GW/barrel.jpg,1,,,
null,,html-keyboard-response,1065151,<p></p>,,,,null,,,,,,,,,,,,,,
1719.5999999046326,,directmemory_phase,1066872,GW/barrel.jpg,,,,51,,,1,0.8333333333333334,GW/gong.jpg,GW/camera.jpg,GW/jukebox.jpg,GW/jukebox.jpg,GW/camera.jpg,GW/gong.jpg,1,,,
null,,html-keyboard-response,1067878,<p></p>,,,,null,,,,,,,,,,,,,,
4201.5,,directmemory_phase,1072081,GW/basket.jpg,,,,51,,,1,0.84,GW/gong.jpg,GW/jukebox.jpg,GW/hat.jpg,GW/hat.jpg,GW/jukebox.jpg,GW/gong.jpg,1,,,
null,,html-keyboard-response,1073090,<p></p>,,,,null,,,,,,,,,,,,,,
6191.799999952316,,directmemory_phase,1079284,GW/barrel.jpg,,,,51,,,0,0.8076923076923077,GW/basket.jpg,GW/soldier.jpg,GW/gong.jpg,GW/soldier.jpg,GW/basket.jpg,GW/gong.jpg,0.5,closer,,
null,,html-keyboard-response,1080288,<p></p>,,,,null,,,,,,,,,,,,,,
5348.799999952316,,directmemory_phase,1085638,GW/jukebox.jpg,,,,51,,,1,0.8148148148148148,GW/hat.jpg,GW/paint.jpg,GW/wheelchair.jpg,GW/wheelchair.jpg,GW/paint.jpg,GW/hat.jpg,1,,,
null,,html-keyboard-response,1086645,<p></p>,,,,null,,,,,,,,,,,,,,
5099.600000143051,,directmemory_phase,1091746,GW/soldier.jpg,,,,49,,,0,0.7857142857142857,GW/dustpan.jpg,GW/hat.jpg,GW/barrel.jpg,GW/barrel.jpg,GW/hat.jpg,GW/dustpan.jpg,0.5,closer,,
null,,html-keyboard-response,1092754,<p></p>,,,,null,,,,,,,,,,,,,,
3678.2999999523163,,directmemory_phase,1096434,GW/globe.jpg,,,,50,,,1,0.7931034482758621,GW/gong.jpg,GW/paint.jpg,GW/teeth.jpg,GW/paint.jpg,GW/gong.jpg,GW/teeth.jpg,1,,,
null,,html-keyboard-response,1097447,<p></p>,,,,null,,,,,,,,,,,,,,
2486.2000000476837,,directmemory_phase,1099935,GW/basket.jpg,,,,51,,,1,0.8,GW/snail.jpg,GW/jukebox.jpg,GW/soldier.jpg,GW/soldier.jpg,GW/jukebox.jpg,GW/snail.jpg,1,,,
null,,html-keyboard-response,1100945,<p></p>,,,,null,,,,,,,,,,,,,,
3053.9000000953674,,directmemory_phase,1104001,GW/paint.jpg,,,,50,,,1,0.8064516129032258,GW/barrel.jpg,GW/snail.jpg,GW/basket.jpg,GW/snail.jpg,GW/barrel.jpg,GW/basket.jpg,1,,,
null,,html-keyboard-response,1105011,<p></p>,,,,null,,,,,,,,,,,,,,
2939.2999999523163,,directmemory_phase,1107953,GW/soldier.jpg,,,,50,,,0,0.78125,GW/gong.jpg,GW/wheelchair.jpg,GW/basket.jpg,GW/basket.jpg,GW/wheelchair.jpg,GW/gong.jpg,0.5,closer,,
null,,html-keyboard-response,1108962,<p></p>,,,,null,,,,,,,,,,,,,,
52959.200000047684,,intro_1,1161922,instruct,,0,,,,,,,,,,,,,,,,
17312.799999952316,,intro_2,1179237,instruct,,1,Next,,,,,,,,,,,,,,,
3939.2000000476837,,intro_3,1183179,instruct,,1,Next,,,,,,,,,,,,,,,
9047.900000095367,,intro_4,1192229,instruct,,1,Next,,,,,,,,,,,,,,,
18535.39999985695,,intro_5,1210767,instruct,,1,Next,,,,,,,,,,,,,,,
20890.599999904633,,intro_6,1231660,instruct,,1,Next,,,,,,,,,,,,,,,
49302.5,,intro_7,1280966,instruct,,1,Next,,,,,,,,,,,,,,,
8382.200000047684,,intro_8,1289350,instruct,,1,Next,,,,,,,,,,,,,,,
1801.2999999523163,,shortestpath_phase,1291154,GW/hat.jpg,,,,49,GW/jukebox.jpg,GW/paint.jpg,1,1,,,,GW/jukebox.jpg,,,,,One Edge Diff,Five Edge Six Edge
null,,html-keyboard-response,1292169,<p></p>,,,,null,,,,,,,,,,,,,,
3266.899999856949,,shortestpath_phase,1295438,GW/teeth.jpg,,,,49,GW/camera.jpg,GW/soldier.jpg,0,0.5,,,,GW/soldier.jpg,,,,,One Edge Diff,Five Edge Six Edge
null,,html-keyboard-response,1296442,<p></p>,,,,null,,,,,,,,,,,,,,
3833.699999809265,,shortestpath_phase,1300278,GW/globe.jpg,,,,49,GW/snail.jpg,GW/camera.jpg,1,0.6666666666666666,,,,GW/snail.jpg,,,,,Two Edge Diff,Two Edge Four Edge
null,,html-keyboard-response,1301291,<p></p>,,,,null,,,,,,,,,,,,,,
3010.600000143051,,shortestpath_phase,1304304,GW/soldier.jpg,,,,49,GW/jukebox.jpg,GW/teeth.jpg,1,0.75,,,,GW/jukebox.jpg,,,,,Two Edge Diff,Four Edge Six Edge
null,,html-keyboard-response,1305319,<p></p>,,,,null,,,,,,,,,,,,,,
4277.700000047684,,shortestpath_phase,1309598,GW/globe.jpg,,,,50,GW/hat.jpg,GW/wheelchair.jpg,1,0.8,,,,GW/wheelchair.jpg,,,,,One Edge Diff,Five Edge Six Edge
null,,html-keyboard-response,1310608,<p></p>,,,,null,,,,,,,,,,,,,,
4940.099999904633,,shortestpath_phase,1315550,GW/teeth.jpg,,,,49,GW/camera.jpg,GW/basket.jpg,0,0.6666666666666666,,,,GW/basket.jpg,,,,,One Edge Diff,Five Edge Six Edge
null,,html-keyboard-response,1316566,<p></p>,,,,null,,,,,,,,,,,,,,
5886.900000095367,,shortestpath_phase,1322455,GW/hat.jpg,,,,50,GW/soldier.jpg,GW/gong.jpg,0,0.5714285714285714,,,,GW/soldier.jpg,,,,,Two Edge Diff,Three Edge Five Edge
null,,html-keyboard-response,1323470,<p></p>,,,,null,,,,,,,,,,,,,,
2551,,shortestpath_phase,1326023,GW/teeth.jpg,,,,49,GW/barrel.jpg,GW/paint.jpg,0,0.5,,,,GW/paint.jpg,,,,,One Edge Diff,Five Edge Six Edge
null,,html-keyboard-response,1327028,<p></p>,,,,null,,,,,,,,,,,,,,
null,,shortestpath_phase,1334536,GW/hat.jpg,,,,null,GW/teeth.jpg,GW/gong.jpg,0,0.4444444444444444,,,,GW/gong.jpg,,,,,One Edge Diff,Five Edge Six Edge
null,,html-keyboard-response,1335539,<p></p>,,,,null,,,,,,,,,,,,,,
4061.5,,shortestpath_phase,1339602,GW/teeth.jpg,,,,50,GW/camera.jpg,GW/wheelchair.jpg,1,0.5,,,,GW/wheelchair.jpg,,,,,One Edge Diff,Five Edge Six Edge
null,,html-keyboard-response,1340611,<p></p>,,,,null,,,,,,,,,,,,,,
4865.5,,shortestpath_phase,1345478,GW/hat.jpg,,,,49,GW/dustpan.jpg,GW/globe.jpg,1,0.5454545454545454,,,,GW/dustpan.jpg,,,,,One Edge Diff,Five Edge Six Edge
null,,html-keyboard-response,1346487,<p></p>,,,,null,,,,,,,,,,,,,,
6119.199999809265,,shortestpath_phase,1352607,GW/teeth.jpg,,,,50,GW/hat.jpg,GW/paint.jpg,1,0.5833333333333334,,,,GW/paint.jpg,,,,,Two Edge Diff,Four Edge Six Edge
null,,html-keyboard-response,1353619,<p></p>,,,,null,,,,,,,,,,,,,,
1858.5999999046326,,shortestpath_phase,1355480,GW/hat.jpg,,,,49,GW/wheelchair.jpg,GW/paint.jpg,1,0.6153846153846154,,,,GW/wheelchair.jpg,,,,,Two Edge Diff,Two Edge Four Edge
null,,html-keyboard-response,1356485,<p></p>,,,,null,,,,,,,,,,,,,,
5322.100000143051,,shortestpath_phase,1361809,GW/camera.jpg,,,,50,GW/globe.jpg,GW/paint.jpg,1,0.6428571428571429,,,,GW/paint.jpg,,,,,One Edge Diff,Four Edge Five Edge
null,,html-keyboard-response,1362818,<p></p>,,,,null,,,,,,,,,,,,,,
3569.2999999523163,,shortestpath_phase,1366389,GW/globe.jpg,,,,50,GW/camera.jpg,GW/gong.jpg,1,0.6666666666666666,,,,GW/gong.jpg,,,,,Two Edge Diff,Two Edge Four Edge
null,,html-keyboard-response,1367401,<p></p>,,,,null,,,,,,,,,,,,,,
null,,shortestpath_phase,1374910,GW/camera.jpg,,,,null,GW/hat.jpg,GW/dustpan.jpg,0,0.625,,,,GW/hat.jpg,,,,,One Edge Diff,Three Edge Four Edge
null,,html-keyboard-response,1375918,<p></p>,,,,null,,,,,,,,,,,,,,
6147.300000190735,,shortestpath_phase,1382067,GW/globe.jpg,,,,49,GW/hat.jpg,GW/gong.jpg,0,0.5882352941176471,,,,GW/gong.jpg,,,,,Two Edge Diff,Four Edge Six Edge
null,,html-keyboard-response,1383085,<p></p>,,,,null,,,,,,,,,,,,,,
5075.100000143051,,shortestpath_phase,1388162,GW/barrel.jpg,,,,50,GW/dustpan.jpg,GW/gong.jpg,0,0.5555555555555556,,,,GW/dustpan.jpg,,,,,One Edge Diff,Two Edge Three Edge
null,,html-keyboard-response,1389175,<p></p>,,,,null,,,,,,,,,,,,,,
6540.200000047684,,shortestpath_phase,1395717,GW/globe.jpg,,,,49,GW/camera.jpg,GW/jukebox.jpg,0,0.5263157894736842,,,,GW/jukebox.jpg,,,,,One Edge Diff,Five Edge Six Edge
null,,html-keyboard-response,1396727,<p></p>,,,,null,,,,,,,,,,,,,,
5003.300000190735,,shortestpath_phase,1401732,GW/teeth.jpg,,,,50,GW/soldier.jpg,GW/paint.jpg,1,0.55,,,,GW/paint.jpg,,,,,Two Edge Diff,Three Edge Five Edge
null,,html-keyboard-response,1402735,<p></p>,,,,null,,,,,,,,,,,,,,
2265.399999856949,,shortestpath_phase,1405002,GW/basket.jpg,,,,50,GW/globe.jpg,GW/jukebox.jpg,1,0.5714285714285714,,,,GW/jukebox.jpg,,,,,Two Edge Diff,Two Edge Four Edge
null,,html-keyboard-response,1406007,<p></p>,,,,null,,,,,,,,,,,,,,
3685.699999809265,,shortestpath_phase,1409694,GW/teeth.jpg,,,,50,GW/basket.jpg,GW/barrel.jpg,1,0.5909090909090909,,,,GW/barrel.jpg,,,,,One Edge Diff,Four Edge Five Edge
null,,html-keyboard-response,1410710,<p></p>,,,,null,,,,,,,,,,,,,,
3680.5,,shortestpath_phase,1414392,GW/hat.jpg,,,,49,GW/soldier.jpg,GW/paint.jpg,1,0.6086956521739131,,,,GW/soldier.jpg,,,,,Two Edge Diff,Three Edge Five Edge
null,,html-keyboard-response,1415410,<p></p>,,,,null,,,,,,,,,,,,,,
3688.2000000476837,,shortestpath_phase,1419100,GW/globe.jpg,,,,49,GW/snail.jpg,GW/hat.jpg,1,0.625,,,,GW/snail.jpg,,,,,Two Edge Diff,Four Edge Six Edge
null,,html-keyboard-response,1420118,<p></p>,,,,null,,,,,,,,,,,,,,
2618.4000000953674,,shortestpath_phase,1422738,GW/hat.jpg,,,,50,GW/dustpan.jpg,GW/soldier.jpg,1,0.64,,,,GW/soldier.jpg,,,,,One Edge Diff,Five Edge Six Edge
null,,html-keyboard-response,1423746,<p></p>,,,,null,,,,,,,,,,,,,,
6029.900000095367,,shortestpath_phase,1429777,GW/globe.jpg,,,,49,GW/wheelchair.jpg,GW/camera.jpg,1,0.6538461538461539,,,,GW/wheelchair.jpg,,,,,One Edge Diff,Four Edge Five Edge
null,,html-keyboard-response,1430785,<p></p>,,,,null,,,,,,,,,,,,,,
7458.700000047684,,shortestpath_phase,1438245,GW/soldier.jpg,,,,50,GW/snail.jpg,GW/teeth.jpg,0,0.6296296296296297,,,,GW/snail.jpg,,,,,Two Edge Diff,Two Edge Four Edge
null,,html-keyboard-response,1439254,<p></p>,,,,null,,,,,,,,,,,,,,
5530.600000143051,,shortestpath_phase,1444787,GW/wheelchair.jpg,,,,49,GW/gong.jpg,GW/hat.jpg,0,0.6071428571428571,,,,GW/hat.jpg,,,,,One Edge Diff,Two Edge Three Edge
null,,html-keyboard-response,1445791,<p></p>,,,,null,,,,,,,,,,,,,,
5968.5,,shortestpath_phase,1451761,GW/globe.jpg,,,,49,GW/hat.jpg,GW/soldier.jpg,0,0.5862068965517241,,,,GW/soldier.jpg,,,,,One Edge Diff,Five Edge Six Edge
null,,html-keyboard-response,1452775,<p></p>,,,,null,,,,,,,,,,,,,,
5709.700000047684,,shortestpath_phase,1458486,GW/hat.jpg,,,,49,GW/dustpan.jpg,GW/teeth.jpg,1,0.6,,,,GW/dustpan.jpg,,,,,One Edge Diff,Five Edge Six Edge
null,,html-keyboard-response,1459500,<p></p>,,,,null,,,,,,,,,,,,,,
5063.200000047684,,shortestpath_phase,1464564,GW/teeth.jpg,,,,49,GW/paint.jpg,GW/camera.jpg,1,0.6129032258064516,,,,GW/paint.jpg,,,,,Two Edge Diff,Four Edge Six Edge
null,,html-keyboard-response,1465568,<p></p>,,,,null,,,,,,,,,,,,,,
null,,shortestpath_phase,1473077,GW/camera.jpg,,,,null,GW/dustpan.jpg,GW/teeth.jpg,0,0.59375,,,,GW/dustpan.jpg,,,,,One Edge Diff,Five Edge Six Edge
null,,html-keyboard-response,1474085,<p></p>,,,,null,,,,,,,,,,,,,,
4765.299999952316,,shortestpath_phase,1478852,GW/teeth.jpg,,,,49,GW/basket.jpg,GW/paint.jpg,0,0.5757575757575758,,,,GW/paint.jpg,,,,,Two Edge Diff,Four Edge Six Edge
null,,html-keyboard-response,1479861,<p></p>,,,,null,,,,,,,,,,,,,,
4531.899999856949,,shortestpath_phase,1484395,GW/basket.jpg,,,,50,GW/gong.jpg,GW/dustpan.jpg,1,0.5882352941176471,,,,GW/dustpan.jpg,,,,,One Edge Diff,Three Edge Four Edge
null,,html-keyboard-response,1485402,<p></p>,,,,null,,,,,,,,,,,,,,
6756,,shortestpath_phase,1492160,GW/teeth.jpg,,,,50,GW/paint.jpg,GW/soldier.jpg,0,0.5714285714285714,,,,GW/paint.jpg,,,,,Two Edge Diff,Four Edge Six Edge
null,,html-keyboard-response,1493168,<p></p>,,,,null,,,,,,,,,,,,,,
4201.399999856949,,shortestpath_phase,1497371,GW/globe.jpg,,,,49,GW/soldier.jpg,GW/camera.jpg,1,0.5833333333333334,,,,GW/soldier.jpg,,,,,One Edge Diff,Four Edge Five Edge
null,,html-keyboard-response,1498376,<p></p>,,,,null,,,,,,,,,,,,,,
3567.0999999046326,,shortestpath_phase,1501946,GW/basket.jpg,,,,50,GW/camera.jpg,GW/globe.jpg,0,0.5675675675675675,,,,GW/camera.jpg,,,,,Two Edge Diff,Three Edge Five Edge
null,,html-keyboard-response,1502958,<p></p>,,,,null,,,,,,,,,,,,,,
4347.200000047684,,shortestpath_phase,1507308,GW/dustpan.jpg,,,,50,GW/camera.jpg,GW/teeth.jpg,1,0.5789473684210527,,,,GW/teeth.jpg,,,,,One Edge Diff,Five Edge Six Edge
null,,html-keyboard-response,1508311,<p></p>,,,,null,,,,,,,,,,,,,,
3022.7000000476837,,shortestpath_phase,1511336,GW/gong.jpg,,,,49,GW/camera.jpg,GW/globe.jpg,0,0.5641025641025641,,,,GW/globe.jpg,,,,,Two Edge Diff,Two Edge Four Edge
null,,html-keyboard-response,1512342,<p></p>,,,,null,,,,,,,,,,,,,,
3563.9000000953674,,shortestpath_phase,1515908,GW/paint.jpg,,,,50,GW/teeth.jpg,GW/hat.jpg,0,0.55,,,,GW/teeth.jpg,,,,,Two Edge Diff,Four Edge Six Edge
null,,html-keyboard-response,1516920,<p></p>,,,,null,,,,,,,,,,,,,,
2431.800000190735,,shortestpath_phase,1519353,GW/wheelchair.jpg,,,,49,GW/soldier.jpg,GW/teeth.jpg,1,0.5609756097560976,,,,GW/soldier.jpg,,,,,One Edge Diff,Five Edge Six Edge
null,,html-keyboard-response,1520360,<p></p>,,,,null,,,,,,,,,,,,,,
3889.100000143051,,shortestpath_phase,1524251,GW/hat.jpg,,,,50,GW/gong.jpg,GW/jukebox.jpg,1,0.5714285714285714,,,,GW/jukebox.jpg,,,,,One Edge Diff,Five Edge Six Edge
null,,html-keyboard-response,1525267,<p></p>,,,,null,,,,,,,,,,,,,,
2827.100000143051,,shortestpath_phase,1528096,GW/globe.jpg,,,,49,GW/camera.jpg,GW/hat.jpg,1,0.5813953488372093,,,,GW/camera.jpg,,,,,One Edge Diff,Five Edge Six Edge
null,,html-keyboard-response,1529101,<p></p>,,,,null,,,,,,,,,,,,,,
2800,,shortestpath_phase,1531903,GW/soldier.jpg,,,,50,GW/hat.jpg,GW/teeth.jpg,0,0.5681818181818182,,,,GW/hat.jpg,,,,,Two Edge Diff,Four Edge Six Edge
null,,html-keyboard-response,1532912,<p></p>,,,,null,,,,,,,,,,,,,,
3777.9000000953674,,shortestpath_phase,1536692,GW/camera.jpg,,,,50,GW/teeth.jpg,GW/barrel.jpg,1,0.5777777777777777,,,,GW/barrel.jpg,,,,,Two Edge Diff,Four Edge Six Edge
null,,html-keyboard-response,1537702,<p></p>,,,,null,,,,,,,,,,,,,,
3743.4000000953674,,shortestpath_phase,1541448,GW/hat.jpg,,,,49,GW/wheelchair.jpg,GW/teeth.jpg,1,0.5869565217391305,,,,GW/wheelchair.jpg,,,,,Two Edge Diff,Four Edge Six Edge
null,,html-keyboard-response,1542456,<p></p>,,,,null,,,,,,,,,,,,,,
4421.700000047684,,shortestpath_phase,1546879,GW/camera.jpg,,,,50,GW/gong.jpg,GW/snail.jpg,1,0.5957446808510638,,,,GW/snail.jpg,,,,,One Edge Diff,Five Edge Six Edge
null,,html-keyboard-response,1547896,<p></p>,,,,null,,,,,,,,,,,,,,
4153.5,,shortestpath_phase,1552051,GW/hat.jpg,,,,49,GW/barrel.jpg,GW/snail.jpg,1,0.6041666666666666,,,,GW/barrel.jpg,,,,,One Edge Diff,Three Edge Four Edge
null,,html-keyboard-response,1553058,<p></p>,,,,null,,,,,,,,,,,,,,
1641.7999999523163,,shortestpath_phase,1554702,GW/gong.jpg,,,,49,GW/jukebox.jpg,GW/camera.jpg,1,0.6122448979591837,,,,GW/jukebox.jpg,,,,,Two Edge Diff,Two Edge Four Edge
null,,html-keyboard-response,1555720,<p></p>,,,,null,,,,,,,,,,,,,,
2000.3999998569489,,shortestpath_phase,1557722,GW/wheelchair.jpg,,,,50,GW/camera.jpg,GW/soldier.jpg,1,0.62,,,,GW/soldier.jpg,,,,,One Edge Diff,Two Edge Three Edge
null,,html-keyboard-response,1558734,<p></p>,,,,null,,,,,,,,,,,,,,
5208.200000047684,,shortestpath_phase,1563943,GW/globe.jpg,,,,50,GW/camera.jpg,GW/gong.jpg,1,0.6274509803921569,,,,GW/gong.jpg,,,,,Two Edge Diff,Three Edge Five Edge
null,,html-keyboard-response,1564949,<p></p>,,,,null,,,,,,,,,,,,,,
5314.200000047684,,shortestpath_phase,1570265,GW/hat.jpg,,,,49,GW/teeth.jpg,GW/snail.jpg,0,0.6153846153846154,,,,GW/snail.jpg,,,,,One Edge Diff,Five Edge Six Edge
null,,html-keyboard-response,1571278,<p></p>,,,,null,,,,,,,,,,,,,,
4392.799999952316,,shortestpath_phase,1575673,GW/gong.jpg,,,,50,GW/camera.jpg,GW/wheelchair.jpg,1,0.6226415094339622,,,,GW/wheelchair.jpg,,,,,One Edge Diff,Five Edge Six Edge
null,,html-keyboard-response,1576681,<p></p>,,,,null,,,,,,,,,,,,,,
4523.899999856949,,shortestpath_phase,1581207,GW/camera.jpg,,,,50,GW/paint.jpg,GW/jukebox.jpg,1,0.6296296296296297,,,,GW/jukebox.jpg,,,,,One Edge Diff,Three Edge Four Edge
null,,html-keyboard-response,1582226,<p></p>,,,,null,,,,,,,,,,,,,,
5525.600000143051,,shortestpath_phase,1587754,GW/snail.jpg,,,,50,GW/globe.jpg,GW/camera.jpg,0,0.6181818181818182,,,,GW/globe.jpg,,,,,One Edge Diff,Two Edge Three Edge
null,,html-keyboard-response,1588766,<p></p>,,,,null,,,,,,,,,,,,,,
5511.5,,shortestpath_phase,1594279,GW/teeth.jpg,,,,49,GW/dustpan.jpg,GW/camera.jpg,1,0.625,,,,GW/dustpan.jpg,,,,,Two Edge Diff,Four Edge Six Edge
null,,html-keyboard-response,1595285,<p></p>,,,,null,,,,,,,,,,,,,,
6134.5,,shortestpath_phase,1601421,GW/basket.jpg,,,,50,GW/gong.jpg,GW/teeth.jpg,0,0.6140350877192983,,,,GW/gong.jpg,,,,,One Edge Diff,Four Edge Five Edge
null,,html-keyboard-response,1602426,<p></p>,,,,null,,,,,,,,,,,,,,
1693.2000000476837,,shortestpath_phase,1604122,GW/paint.jpg,,,,49,GW/barrel.jpg,GW/camera.jpg,1,0.6206896551724138,,,,GW/barrel.jpg,,,,,One Edge Diff,Five Edge Six Edge
null,,html-keyboard-response,1605127,<p></p>,,,,null,,,,,,,,,,,,,,
4321.400000095367,,shortestpath_phase,1609450,GW/camera.jpg,,,,49,GW/gong.jpg,GW/basket.jpg,0,0.6101694915254238,,,,GW/basket.jpg,,,,,Two Edge Diff,Three Edge Five Edge
null,,html-keyboard-response,1610468,<p></p>,,,,null,,,,,,,,,,,,,,
5445.599999904633,,shortestpath_phase,1615915,GW/barrel.jpg,,,,49,GW/dustpan.jpg,GW/hat.jpg,1,0.6166666666666667,,,,GW/dustpan.jpg,,,,,One Edge Diff,Two Edge Three Edge
null,,html-keyboard-response,1616934,<p></p>,,,,null,,,,,,,,,,,,,,
4970.599999904633,,shortestpath_phase,1621907,GW/teeth.jpg,,,,50,GW/paint.jpg,GW/wheelchair.jpg,0,0.6065573770491803,,,,GW/paint.jpg,,,,,One Edge Diff,Five Edge Six Edge
null,,html-keyboard-response,1622914,<p></p>,,,,null,,,,,,,,,,,,,,
3609,,shortestpath_phase,1626524,GW/camera.jpg,,,,49,GW/hat.jpg,GW/barrel.jpg,0,0.5967741935483871,,,,GW/barrel.jpg,,,,,One Edge Diff,Two Edge Three Edge
null,,html-keyboard-response,1627530,<p></p>,,,,null,,,,,,,,,,,,,,
4507.200000047684,,shortestpath_phase,1632039,GW/wheelchair.jpg,,,,50,GW/globe.jpg,GW/hat.jpg,1,0.6031746031746031,,,,GW/hat.jpg,,,,,One Edge Diff,Five Edge Six Edge
null,,html-keyboard-response,1633050,<p></p>,,,,null,,,,,,,,,,,,,,
4621.700000047684,,shortestpath_phase,1637673,GW/globe.jpg,,,,49,GW/basket.jpg,GW/soldier.jpg,0,0.59375,,,,GW/soldier.jpg,,,,,One Edge Diff,Four Edge Five Edge
null,,html-keyboard-response,1638678,<p></p>,,,,null,,,,,,,,,,,,,,
4178.299999952316,,shortestpath_phase,1642858,GW/camera.jpg,,,,50,GW/wheelchair.jpg,GW/gong.jpg,0,0.5846153846153846,,,,GW/wheelchair.jpg,,,,,One Edge Diff,Five Edge Six Edge
null,,html-keyboard-response,1643867,<p></p>,,,,null,,,,,,,,,,,,,,
5724.799999952316,,shortestpath_phase,1649593,GW/teeth.jpg,,,,50,GW/dustpan.jpg,GW/soldier.jpg,0,0.5757575757575758,,,,GW/dustpan.jpg,,,,,Two Edge Diff,Two Edge Four Edge
null,,html-keyboard-response,1650604,<p></p>,,,,null,,,,,,,,,,,,,,
5458.299999952316,,shortestpath_phase,1656064,GW/paint.jpg,,,,50,GW/basket.jpg,GW/barrel.jpg,1,0.582089552238806,,,,GW/barrel.jpg,,,,,One Edge Diff,Five Edge Six Edge
null,,html-keyboard-response,1657072,<p></p>,,,,null,,,,,,,,,,,,,,
5015.200000047684,,shortestpath_phase,1662089,GW/globe.jpg,,,,49,GW/basket.jpg,GW/teeth.jpg,0,0.5735294117647058,,,,GW/teeth.jpg,,,,,One Edge Diff,Five Edge Six Edge
null,,html-keyboard-response,1663093,<p></p>,,,,null,,,,,,,,,,,,,,
3775.600000143051,,shortestpath_phase,1666870,GW/dustpan.jpg,,,,50,GW/camera.jpg,GW/basket.jpg,1,0.5797101449275363,,,,GW/basket.jpg,,,,,One Edge Diff,Three Edge Four Edge
null,,html-keyboard-response,1667877,<p></p>,,,,null,,,,,,,,,,,,,,
1589.5,,shortestpath_phase,1669468,GW/hat.jpg,,,,49,GW/wheelchair.jpg,GW/globe.jpg,1,0.5857142857142857,,,,GW/wheelchair.jpg,,,,,Two Edge Diff,Four Edge Six Edge
null,,html-keyboard-response,1670472,<p></p>,,,,null,,,,,,,,,,,,,,
1629.4000000953674,,shortestpath_phase,1672103,GW/globe.jpg,,,,50,GW/dustpan.jpg,GW/hat.jpg,0,0.5774647887323944,,,,GW/dustpan.jpg,,,,,Three Edge Diff,Two Edge Five Edge
null,,html-keyboard-response,1673106,<p></p>,,,,null,,,,,,,,,,,,,,
3311.800000190735,,shortestpath_phase,1676419,GW/basket.jpg,,,,49,GW/globe.jpg,GW/barrel.jpg,0,0.5694444444444444,,,,GW/barrel.jpg,,,,,Two Edge Diff,Four Edge Six Edge
null,,html-keyboard-response,1677432,<p></p>,,,,null,,,,,,,,,,,,,,
5144.900000095367,,shortestpath_phase,1682579,GW/teeth.jpg,,,,50,GW/hat.jpg,GW/dustpan.jpg,1,0.5753424657534246,,,,GW/dustpan.jpg,,,,,Two Edge Diff,Four Edge Six Edge
null,,html-keyboard-response,1683584,<p></p>,,,,null,,,,,,,,,,,,,,
5889.100000143051,,shortestpath_phase,1689475,GW/camera.jpg,,,,49,GW/barrel.jpg,GW/gong.jpg,1,0.581081081081081,,,,GW/barrel.jpg,,,,,Two Edge Diff,Four Edge Six Edge
null,,html-keyboard-response,1690484,<p></p>,,,,null,,,,,,,,,,,,,,
5887,,shortestpath_phase,1696373,GW/teeth.jpg,,,,50,GW/hat.jpg,GW/basket.jpg,1,0.5866666666666667,,,,GW/basket.jpg,,,,,One Edge Diff,Five Edge Six Edge
null,,html-keyboard-response,1697382,<p></p>,,,,null,,,,,,,,,,,,,,
4264.700000047684,,shortestpath_phase,1701648,GW/soldier.jpg,,,,50,GW/teeth.jpg,GW/wheelchair.jpg,1,0.5921052631578947,,,,GW/wheelchair.jpg,,,,,Two Edge Diff,Three Edge Five Edge
null,,html-keyboard-response,1702654,<p></p>,,,,null,,,,,,,,,,,,,,
4807,,shortestpath_phase,1707463,GW/camera.jpg,,,,49,GW/teeth.jpg,GW/basket.jpg,0,0.5844155844155844,,,,GW/basket.jpg,,,,,Two Edge Diff,Four Edge Six Edge
null,,html-keyboard-response,1708470,<p></p>,,,,null,,,,,,,,,,,,,,
2265.2999999523163,,shortestpath_phase,1710737,GW/teeth.jpg,,,,49,GW/jukebox.jpg,GW/soldier.jpg,1,0.5897435897435898,,,,GW/jukebox.jpg,,,,,One Edge Diff,Five Edge Six Edge
null,,html-keyboard-response,1711743,<p></p>,,,,null,,,,,,,,,,,,,,
4146.100000143051,,shortestpath_phase,1715891,GW/globe.jpg,,,,50,GW/basket.jpg,GW/gong.jpg,1,0.5949367088607594,,,,GW/gong.jpg,,,,,Two Edge Diff,Three Edge Five Edge
null,,html-keyboard-response,1716898,<p></p>,,,,null,,,,,,,,,,,,,,
1497,,shortestpath_phase,1718396,GW/hat.jpg,,,,50,GW/teeth.jpg,GW/soldier.jpg,1,0.6,,,,GW/soldier.jpg,,,,,Two Edge Diff,Four Edge Six Edge
null,,html-keyboard-response,1719410,<p></p>,,,,null,,,,,,,,,,,,,,
3681.600000143051,,shortestpath_phase,1723093,GW/teeth.jpg,,,,50,GW/snail.jpg,GW/barrel.jpg,0,0.5925925925925926,,,,GW/snail.jpg,,,,,One Edge Diff,Three Edge Four Edge
null,,html-keyboard-response,1724108,<p></p>,,,,null,,,,,,,,,,,,,,
2766.5,,shortestpath_phase,1726877,GW/hat.jpg,,,,50,GW/globe.jpg,GW/soldier.jpg,1,0.5975609756097561,,,,GW/soldier.jpg,,,,,Two Edge Diff,Four Edge Six Edge
null,,html-keyboard-response,1727884,<p></p>,,,,null,,,,,,,,,,,,,,
4709,,shortestpath_phase,1732595,GW/teeth.jpg,,,,50,GW/hat.jpg,GW/wheelchair.jpg,1,0.6024096385542169,,,,GW/wheelchair.jpg,,,,,One Edge Diff,Five Edge Six Edge
null,,html-keyboard-response,1733600,<p></p>,,,,null,,,,,,,,,,,,,,
4385,,shortestpath_phase,1737987,GW/soldier.jpg,,,,50,GW/snail.jpg,GW/teeth.jpg,0,0.5952380952380952,,,,GW/snail.jpg,,,,,Two Edge Diff,Four Edge Six Edge
null,,html-keyboard-response,1738999,<p></p>,,,,null,,,,,,,,,,,,,,
4899.599999904633,,shortestpath_phase,1743900,GW/camera.jpg,,,,49,GW/teeth.jpg,GW/gong.jpg,0,0.5882352941176471,,,,GW/gong.jpg,,,,,One Edge Diff,Five Edge Six Edge
null,,html-keyboard-response,1744908,<p></p>,,,,null,,,,,,,,,,,,,,
5378.700000047684,,shortestpath_phase,1750289,,,,,49,,,1,0.5930232558139535,,,,,,,,,,
null,,html-keyboard-response,1751307,<p></p>,,,,null,,,,,,,,,,,,,,
null,,shortestpath_phase,1758817,,,,,null,,,0,0.5862068965517241,,,,,,,,,,
null,,html-keyboard-response,1759824,<p></p>,,,,null,,,,,,,,,,,,,,
null,,shortestpath_phase,1767330,,,,,null,,,0,0.5795454545454546,,,,,,,,,,
null,,html-keyboard-response,1768333,<p></p>,,,,null,,,,,,,,,,,,,,
null,,shortestpath_phase,1775840,,,,,null,,,0,0.5730337078651685,,,,,,,,,,
null,,html-keyboard-response,1776856,<p></p>,,,,null,,,,,,,,,,,,,,
null,,shortestpath_phase,1784367,,,,,null,,,0,0.5666666666666667,,,,,,,,,,
null,,html-keyboard-response,1785378,<p></p>,,,,null,,,,,,,,,,,,,,
null,,shortestpath_phase,1792887,,,,,null,,,0,0.5604395604395604,,,,,,,,,,
null,,html-keyboard-response,1793897,<p></p>,,,,null,,,,,,,,,,,,,,
null,,shortestpath_phase,1801410,,,,,null,,,0,0.5543478260869565,,,,,,,,,,
null,,html-keyboard-response,1802417,<p></p>,,,,null,,,,,,,,,,,,,,
6185.099999904633,,shortestpath_phase,1808604,,,,,49,,,1,0.5591397849462365,,,,,,,,,,
null,,html-keyboard-response,1809609,<p></p>,,,,null,,,,,,,,,,,,,,
483.09999990463257,,shortestpath_phase,1810094,,,,,49,,,1,0.5638297872340425,,,,,,,,,,
null,,html-keyboard-response,1811101,<p></p>,,,,null,,,,,,,,,,,,,,
349.40000009536743,,shortestpath_phase,1811452,,,,,49,,,1,0.5684210526315789,,,,,,,,,,
null,,html-keyboard-response,1812458,<p></p>,,,,null,,,,,,,,,,,,,,
325.7999999523163,,shortestpath_phase,1812786,,,,,49,,,1,0.5729166666666666,,,,,,,,,,
null,,html-keyboard-response,1813792,<p></p>,,,,null,,,,,,,,,,,,,,
301.5,,shortestpath_phase,1814095,,,,,49,,,1,0.5773195876288659,,,,,,,,,,
null,,html-keyboard-response,1815099,<p></p>,,,,null,,,,,,,,,,,,,,
269.90000009536743,,shortestpath_phase,1815371,,,,,49,,,1,0.5816326530612245,,,,,,,,,,
null,,html-keyboard-response,1816375,<p></p>,,,,null,,,,,,,,,,,,,,
295.7000000476837,,shortestpath_phase,1816672,,,,,49,,,1,0.5858585858585859,,,,,,,,,,
null,,html-keyboard-response,1817684,<p></p>,,,,null,,,,,,,,,,,,,,
301,,shortestpath_phase,1817987,,,,,49,,,1,0.59,,,,,,,,,,
null,,html-keyboard-response,1818992,<p></p>,,,,null,,,,,,,,,,,,,,
289.10000014305115,,shortestpath_phase,1819282,,,,,49,,,1,0.594059405940594,,,,,,,,,,
null,,html-keyboard-response,1820292,<p></p>,,,,null,,,,,,,,,,,,,,
310.89999985694885,,shortestpath_phase,1820605,,,,,49,,,1,0.5980392156862745,,,,,,,,,,
null,,html-keyboard-response,1821608,<p></p>,,,,null,,,,,,,,,,,,,,
343.7999999523163,,shortestpath_phase,1821953,,,,,49,,,1,0.6019417475728155,,,,,,,,,,
null,,html-keyboard-response,1822971,<p></p>,,,,null,,,,,,,,,,,,,,
299.69999980926514,,shortestpath_phase,1823272,,,,,49,,,1,0.6057692307692307,,,,,,,,,,
null,,html-keyboard-response,1824284,<p></p>,,,,null,,,,,,,,,,,,,,
376.09999990463257,,shortestpath_phase,1824662,,,,,49,,,1,0.6095238095238096,,,,,,,,,,
null,,html-keyboard-response,1825667,<p></p>,,,,null,,,,,,,,,,,,,,
309.40000009536743,,shortestpath_phase,1825979,,,,,49,,,1,0.6132075471698113,,,,,,,,,,
null,,html-keyboard-response,1826983,<p></p>,,,,null,,,,,,,,,,,,,,
321,,shortestpath_phase,1827306,,,,,49,,,1,0.616822429906542,,,,,,,,,,
null,,html-keyboard-response,1828325,<p></p>,,,,null,,,,,,,,,,,,,,
434.2999999523163,,shortestpath_phase,1828761,,,,,49,,,1,0.6203703703703703,,,,,,,,,,
null,,html-keyboard-response,1829776,<p></p>,,,,null,,,,,,,,,,,,,,
317.7999999523163,,shortestpath_phase,1830095,,,,,49,,,1,0.6238532110091743,,,,,,,,,,
null,,html-keyboard-response,1831101,<p></p>,,,,null,,,,,,,,,,,,,,
379.10000014305115,,shortestpath_phase,1831482,,,,,49,,,1,0.6272727272727273,,,,,,,,,,
null,,html-keyboard-response,1832500,<p></p>,,,,null,,,,,,,,,,,,,,
468.59999990463257,,shortestpath_phase,1832970,,,,,49,,,1,0.6306306306306306,,,,,,,,,,
null,,html-keyboard-response,1833976,<p></p>,,,,null,,,,,,,,,,,,,,
323.2000000476837,,shortestpath_phase,1834301,,,,,49,,,1,0.6339285714285714,,,,,,,,,,
null,,html-keyboard-response,1835305,<p></p>,,,,null,,,,,,,,,,,,,,
352,,shortestpath_phase,1835659,,,,,49,,,1,0.6371681415929203,,,,,,,,,,
null,,html-keyboard-response,1836667,<p></p>,,,,null,,,,,,,,,,,,,,
336.7000000476837,,shortestpath_phase,1837006,,,,,49,,,1,0.6403508771929824,,,,,,,,,,
null,,html-keyboard-response,1838009,<p></p>,,,,null,,,,,,,,,,,,,,
398.89999985694885,,shortestpath_phase,1838410,,,,,49,,,1,0.6434782608695652,,,,,,,,,,
null,,html-keyboard-response,1839425,<p></p>,,,,null,,,,,,,,,,,,,,
386.80000019073486,,shortestpath_phase,1839814,,,,,49,,,1,0.646551724137931,,,,,,,,,,
null,,html-keyboard-response,1840817,<p></p>,,,,null,,,,,,,,,,,,,,
325.5,,shortestpath_phase,1841144,,,,,49,,,1,0.6495726495726496,,,,,,,,,,
null,,html-keyboard-response,1842159,<p></p>,,,,null,,,,,,,,,,,,,,
298.2000000476837,,shortestpath_phase,1842459,,,,,49,,,1,0.652542372881356,,,,,,,,,,
null,,html-keyboard-response,1843469,<p></p>,,,,null,,,,,,,,,,,,,,
353.90000009536743,,shortestpath_phase,1843825,,,,,49,,,1,0.6554621848739496,,,,,,,,,,
null,,html-keyboard-response,1844830,<p></p>,,,,null,,,,,,,,,,,,,,
294.2999999523163,,shortestpath_phase,1845126,,,,,49,,,1,0.6583333333333333,,,,,,,,,,
null,,html-keyboard-response,1846143,<p></p>,,,,null,,,,,,,,,,,,,,
329.80000019073486,,shortestpath_phase,1846475,,,,,49,,,1,0.6611570247933884,,,,,,,,,,
null,,html-keyboard-response,1847492,<p></p>,,,,null,,,,,,,,,,,,,,
74672,,intro_1,1922166,instruct,,0,,,,,,,,,,,,,,,,
34837.59999990463,,intro_2,1957007,instruct,,1,Next,,,,,,,,,,,,,,,
5787.299999952316,,intro_3,1962798,instruct,,1,Next,,,,,,,,,,,,,,,
