rt,responses,trial_type,time_elapsed,sequence,stimulus,graphorder,button_pressed,response,key_press,stimulus_left,stimulus_right,accuracy,cumulative_accuracy,stimulus_down_left,stimulus_down_mid,stimulus_down_right,stimulus_correct,stimulus_short,stimulus_far,weighted_accuracy,condition,specific_pairs,imgL_ID,imgR_ID,linedress,linedressed,detour_trial
6362,{worker_id:3007},id_enter,6366,blocked,id_enter,GW/dustpan.jpg; GW/hat.jpg; GW/wheelchair.jpg; GW/soldier.jpg; GW/gong.jpg; GW/teeth.jpg; GW/basket.jpg; GW/barrel.jpg; GW/paint.jpg; GW/globe.jpg; GW/camera.jpg; GW/snail.jpg; GW/jukebox.jpg,,,,,,,,,,,,,,,,,,,,,
2486.800000190735,,fullscreen,8861,,fullscreen,,0,,,,,,,,,,,,,,,,,,,,
1185.9000005722046,,intro_1,10053,,instruct,,0,,,,,,,,,,,,,,,,,,,,
9031.39999961853,,intro_2,19087,,instruct,,1,Next,,,,,,,,,,,,,,,,,,,
6725.60000038147,,intro_3,25815,,instruct,,1,Next,,,,,,,,,,,,,,,,,,,
null,,learn_prac_1,28826,,lean_prac_1,,,,null,,,,,,,,,,,,,,,,,,
null,,html-keyboard-response,29839,,<p></p>,,,,null,,,,,,,,,,,,,,,,,,
3100.0999994277954,,intro_1,32941,,instruct,,0,,,,,,,,,,,,,,,,,,,,
4478,,intro_2,37425,,instruct,,1,Next,,,,,,,,,,,,,,,,,,,
null,,learn_prac_2,40434,,lean_prac_2,,,,null,,,,,,,,,,,,,,,,,,
null,,html-keyboard-response,41436,,<p></p>,,,,null,,,,,,,,,,,,,,,,,,
2121.800000190735,,intro_1,43559,,instruct,,0,,,,,,,,,,,,,,,,,,,,
5584.599999427795,,intro_2,49145,,instruct,,1,Next,,,,,,,,,,,,,,,,,,,
13633,,intro_3,62779,,instruct,,1,Next,,,,,,,,,,,,,,,,,,,
null,,prac_atten_color_black,63616,,black_plus_sign,,,,null,,,,,,,,,,,,,,,,,,
411.8999996185303,,prac_atten_color,64199,,prac_stop_color,,,,49,,,,,,,,,,,,,,,,,,
null,,prac_atten_color_black,66202,,black_plus_sign,,,,null,,,,,,,,,,,,,,,,,,
null,,prac_atten_color_black,67040,,black_plus_sign,,,,null,,,,,,,,,,,,,,,,,,
349.5,,prac_atten_color,67720,,prac_stop_color,,,,50,,,,,,,,,,,,,,,,,,
null,,prac_atten_color_black,69727,,black_plus_sign,,,,null,,,,,,,,,,,,,,,,,,
null,,prac_atten_color_black,70476,,black_plus_sign,,,,null,,,,,,,,,,,,,,,,,,
469.3999996185303,,prac_atten_color,71383,,prac_stop_color,,,,50,,,,,,,,,,,,,,,,,,
null,,prac_atten_color_black,73394,,black_plus_sign,,,,null,,,,,,,,,,,,,,,,,,
null,,prac_atten_color_black,73894,,black_plus_sign,,,,null,,,,,,,,,,,,,,,,,,
546.3000001907349,,prac_atten_color,74571,,prac_stop_color,,,,49,,,,,,,,,,,,,,,,,,
null,,prac_atten_color_black,76586,,black_plus_sign,,,,null,,,,,,,,,,,,,,,,,,
null,,prac_atten_color_black,77327,,black_plus_sign,,,,null,,,,,,,,,,,,,,,,,,
525.3000001907349,,prac_atten_color,78096,,prac_stop_color,,,,50,,,,,,,,,,,,,,,,,,
null,,prac_atten_color_black,80110,,black_plus_sign,,,,null,,,,,,,,,,,,,,,,,,
null,,prac_atten_color_black,80767,,black_plus_sign,,,,null,,,,,,,,,,,,,,,,,,
562.0999994277954,,prac_atten_color,81853,,prac_stop_color,,,,50,,,,,,,,,,,,,,,,,,
null,,prac_atten_color_black,83858,,black_plus_sign,,,,null,,,,,,,,,,,,,,,,,,
null,,prac_atten_color_black,84195,,black_plus_sign,,,,null,,,,,,,,,,,,,,,,,,
663,,prac_atten_color,84861,,prac_stop_color,,,,49,,,,,,,,,,,,,,,,,,
null,,prac_atten_color_black,86868,,black_plus_sign,,,,null,,,,,,,,,,,,,,,,,,
null,,prac_atten_color_black,87627,,black_plus_sign,,,,null,,,,,,,,,,,,,,,,,,
883.8999996185303,,prac_atten_color,88725,,prac_stop_color,,,,50,,,,,,,,,,,,,,,,,,
null,,prac_atten_color_black,90738,,black_plus_sign,,,,null,,,,,,,,,,,,,,,,,,
null,,prac_atten_color_black,91053,,black_plus_sign,,,,null,,,,,,,,,,,,,,,,,,
null,,prac_atten_color,91464,,prac_stop_color,,,,null,,,,,,,,,,,,,,,,,,
266.70000076293945,,prac_atten_color_black,93473,,black_plus_sign,,,,49,,,,,,,,,,,,,,,,,,
null,,prac_atten_color_black,94482,,black_plus_sign,,,,null,,,,,,,,,,,,,,,,,,
null,,prac_atten_color,95548,,prac_stop_color,,,,null,,,,,,,,,,,,,,,,,,
3.90000057220459,,prac_atten_color_black,97550,,black_plus_sign,,,,49,,,,,,,,,,,,,,,,,,
4299.10000038147,,attentioncheck_feedback,101851,,cross_check_feedback,,0,,,,,,,,,,,,,,,,,,,,
5345.599999427795,,last_instruct,107200,,instruct,,,,32,,,,,,,,,,,,,,,,,,
null,,learn_phase(without_color),110202,,black_plus_sign,,,,null,GW/camera.jpg,GW/snail.jpg,,,,,,,,,,,,,,,,
null,,black_cross(without_color),110778,,green,,,,null,GW/camera.jpg,GW/snail.jpg,,,,,,,,,,,,,,,,
null,,rt_plussign_withcolor,111285,,green,,,,null,GW/camera.jpg,GW/snail.jpg,,,,,,,,,,,,,,,,
1350.3999996185303,,rt_thecrossant_black,112729,,black_plus_sign,,,,50,,,1,1,,,,,,,,,,,,,,
null,,color_black,112839,,black_plus_sign,,,,null,,,,,,,,,,,,,,,,,,
null,,learn_phase(without_color),115846,,black_plus_sign,,,,null,GW/basket.jpg,GW/paint.jpg,,,,,,,,,,,,,,,,
null,,black_cross(without_color),116457,,blue,,,,null,GW/basket.jpg,GW/paint.jpg,,,,,,,,,,,,,,,,
446.0999994277954,,rt_plussign_withcolor,116960,,blue,,,,49,GW/basket.jpg,GW/paint.jpg,,,,,,,,,,,,,,,,
null,,rt_thecrossant_black,118368,,black_plus_sign,,,,null,,,1,1,,,,,,,,,,,,,,
null,,color_black,118475,,black_plus_sign,,,,null,,,,,,,,,,,,,,,,,,
null,,learn_phase(without_color),121486,,black_plus_sign,,,,null,GW/globe.jpg,GW/barrel.jpg,,,,,,,,,,,,,,,,
null,,black_cross(without_color),122091,,green,,,,null,GW/globe.jpg,GW/barrel.jpg,,,,,,,,,,,,,,,,
null,,rt_plussign_withcolor,122594,,green,,,,null,GW/globe.jpg,GW/barrel.jpg,,,,,,,,,,,,,,,,
828.0999994277954,,rt_thecrossant_black,124011,,black_plus_sign,,,,50,,,1,1,,,,,,,,,,,,,,
null,,color_black,124119,,black_plus_sign,,,,null,,,,,,,,,,,,,,,,,,
null,,learn_phase(without_color),127121,,black_plus_sign,,,,null,GW/wheelchair.jpg,GW/hat.jpg,,,,,,,,,,,,,,,,
null,,black_cross(without_color),128211,,green,,,,null,GW/wheelchair.jpg,GW/hat.jpg,,,,,,,,,,,,,,,,
null,,rt_plussign_withcolor,128722,,green,,,,null,GW/wheelchair.jpg,GW/hat.jpg,,,,,,,,,,,,,,,,
722.7999992370605,,rt_thecrossant_black,129647,,black_plus_sign,,,,50,,,1,1,,,,,,,,,,,,,,
null,,color_black,129761,,black_plus_sign,,,,null,,,,,,,,,,,,,,,,,,
null,,learn_phase(without_color),132765,,black_plus_sign,,,,null,GW/basket.jpg,GW/paint.jpg,,,,,,,,,,,,,,,,
null,,black_cross(without_color),133465,,blue,,,,null,GW/basket.jpg,GW/paint.jpg,,,,,,,,,,,,,,,,
null,,rt_plussign_withcolor,133977,,blue,,,,null,GW/basket.jpg,GW/paint.jpg,,,,,,,,,,,,,,,,
1258.1999998092651,,rt_thecrossant_black,135289,,black_plus_sign,,,,49,,,1,1,,,,,,,,,,,,,,
null,,color_black,135397,,black_plus_sign,,,,null,,,,,,,,,,,,,,,,,,
null,,learn_phase(without_color),138402,,black_plus_sign,,,,null,GW/hat.jpg,GW/wheelchair.jpg,,,,,,,,,,,,,,,,
null,,black_cross(without_color),139284,,green,,,,null,GW/hat.jpg,GW/wheelchair.jpg,,,,,,,,,,,,,,,,
null,,rt_plussign_withcolor,139795,,green,,,,null,GW/hat.jpg,GW/wheelchair.jpg,,,,,,,,,,,,,,,,
1089.6000003814697,,rt_thecrossant_black,140926,,black_plus_sign,,,,50,,,1,1,,,,,,,,,,,,,,
null,,color_black,141032,,black_plus_sign,,,,null,,,,,,,,,,,,,,,,,,
null,,learn_phase(without_color),144037,,black_plus_sign,,,,null,GW/barrel.jpg,GW/globe.jpg,,,,,,,,,,,,,,,,
null,,black_cross(without_color),144774,,green,,,,null,GW/barrel.jpg,GW/globe.jpg,,,,,,,,,,,,,,,,
null,,rt_plussign_withcolor,145276,,green,,,,null,GW/barrel.jpg,GW/globe.jpg,,,,,,,,,,,,,,,,
1040.5999994277954,,rt_thecrossant_black,146561,,black_plus_sign,,,,50,,,1,1,,,,,,,,,,,,,,
null,,color_black,146668,,black_plus_sign,,,,null,,,,,,,,,,,,,,,,,,
null,,learn_phase(without_color),149678,,black_plus_sign,,,,null,GW/wheelchair.jpg,GW/hat.jpg,,,,,,,,,,,,,,,,
null,,black_cross(without_color),150618,,blue,,,,null,GW/wheelchair.jpg,GW/hat.jpg,,,,,,,,,,,,,,,,
470.9000005722046,,rt_plussign_withcolor,151122,,blue,,,,49,GW/wheelchair.jpg,GW/hat.jpg,,,,,,,,,,,,,,,,
null,,rt_thecrossant_black,152207,,black_plus_sign,,,,null,,,1,1,,,,,,,,,,,,,,
null,,color_black,152311,,black_plus_sign,,,,null,,,,,,,,,,,,,,,,,,
null,,learn_phase(without_color),155325,,black_plus_sign,,,,null,GW/snail.jpg,GW/camera.jpg,,,,,,,,,,,,,,,,
null,,black_cross(without_color),156281,,green,,,,null,GW/snail.jpg,GW/camera.jpg,,,,,,,,,,,,,,,,
null,,rt_plussign_withcolor,156782,,green,,,,null,GW/snail.jpg,GW/camera.jpg,,,,,,,,,,,,,,,,
1247.6999998092651,,rt_thecrossant_black,157850,,black_plus_sign,,,,50,,,1,1,,,,,,,,,,,,,,
null,,color_black,157959,,black_plus_sign,,,,null,,,,,,,,,,,,,,,,,,
null,,learn_phase(without_color),160972,,black_plus_sign,,,,null,GW/paint.jpg,GW/basket.jpg,,,,,,,,,,,,,,,,
null,,black_cross(without_color),161436,,green,,,,null,GW/paint.jpg,GW/basket.jpg,,,,,,,,,,,,,,,,
null,,rt_plussign_withcolor,161940,,green,,,,null,GW/paint.jpg,GW/basket.jpg,,,,,,,,,,,,,,,,
1232.3999996185303,,rt_thecrossant_black,163492,,black_plus_sign,,,,50,,,1,1,,,,,,,,,,,,,,
null,,color_black,163598,,black_plus_sign,,,,null,,,,,,,,,,,,,,,,,,
null,,learn_phase(without_color),166615,,black_plus_sign,,,,null,GW/barrel.jpg,GW/globe.jpg,,,,,,,,,,,,,,,,
null,,black_cross(without_color),167082,,blue,,,,null,GW/barrel.jpg,GW/globe.jpg,,,,,,,,,,,,,,,,
null,,rt_plussign_withcolor,167591,,blue,,,,null,GW/barrel.jpg,GW/globe.jpg,,,,,,,,,,,,,,,,
709.4000005722046,,rt_thecrossant_black,169134,,black_plus_sign,,,,49,,,1,1,,,,,,,,,,,,,,
null,,color_black,169242,,black_plus_sign,,,,null,,,,,,,,,,,,,,,,,,
null,,learn_phase(without_color),172248,,black_plus_sign,,,,null,GW/wheelchair.jpg,GW/hat.jpg,,,,,,,,,,,,,,,,
null,,black_cross(without_color),173161,,blue,,,,null,GW/wheelchair.jpg,GW/hat.jpg,,,,,,,,,,,,,,,,
null,,rt_plussign_withcolor,173671,,blue,,,,null,GW/wheelchair.jpg,GW/hat.jpg,,,,,,,,,,,,,,,,
888.6000003814697,,rt_thecrossant_black,174780,,black_plus_sign,,,,49,,,1,1,,,,,,,,,,,,,,
null,,color_black,174889,,black_plus_sign,,,,null,,,,,,,,,,,,,,,,,,
null,,learn_phase(without_color),177895,,black_plus_sign,,,,null,GW/paint.jpg,GW/basket.jpg,,,,,,,,,,,,,,,,
null,,black_cross(without_color),178959,,green,,,,null,GW/paint.jpg,GW/basket.jpg,,,,,,,,,,,,,,,,
null,,rt_plussign_withcolor,179464,,green,,,,null,GW/paint.jpg,GW/basket.jpg,,,,,,,,,,,,,,,,
1195,,rt_thecrossant_black,180416,,black_plus_sign,,,,50,,,1,1,,,,,,,,,,,,,,
null,,color_black,180518,,black_plus_sign,,,,null,,,,,,,,,,,,,,,,,,
null,,learn_phase(without_color),183525,,black_plus_sign,,,,null,GW/snail.jpg,GW/camera.jpg,,,,,,,,,,,,,,,,
null,,black_cross(without_color),183944,,green,,,,null,GW/snail.jpg,GW/camera.jpg,,,,,,,,,,,,,,,,
null,,rt_plussign_withcolor,184451,,green,,,,null,GW/snail.jpg,GW/camera.jpg,,,,,,,,,,,,,,,,
1441.1000003814697,,rt_thecrossant_black,186052,,black_plus_sign,,,,50,,,1,1,,,,,,,,,,,,,,
null,,color_black,186162,,black_plus_sign,,,,null,,,,,,,,,,,,,,,,,,
null,,learn_phase(without_color),189174,,black_plus_sign,,,,null,GW/globe.jpg,GW/barrel.jpg,,,,,,,,,,,,,,,,
null,,black_cross(without_color),190266,,blue,,,,null,GW/globe.jpg,GW/barrel.jpg,,,,,,,,,,,,,,,,
null,,rt_plussign_withcolor,190774,,blue,,,,null,GW/globe.jpg,GW/barrel.jpg,,,,,,,,,,,,,,,,
600.8000001907349,,rt_thecrossant_black,191698,,black_plus_sign,,,,49,,,1,1,,,,,,,,,,,,,,
null,,color_black,191808,,black_plus_sign,,,,null,,,,,,,,,,,,,,,,,,
null,,learn_phase(without_color),194810,,black_plus_sign,,,,null,GW/snail.jpg,GW/camera.jpg,,,,,,,,,,,,,,,,
null,,black_cross(without_color),195389,,blue,,,,null,GW/snail.jpg,GW/camera.jpg,,,,,,,,,,,,,,,,
null,,rt_plussign_withcolor,195895,,blue,,,,null,GW/snail.jpg,GW/camera.jpg,,,,,,,,,,,,,,,,
1392.8999996185303,,rt_thecrossant_black,197332,,black_plus_sign,,,,49,,,1,1,,,,,,,,,,,,,,
null,,color_black,197439,,black_plus_sign,,,,null,,,,,,,,,,,,,,,,,,
null,,learn_phase(without_color),200448,,black_plus_sign,,,,null,GW/wheelchair.jpg,GW/hat.jpg,,,,,,,,,,,,,,,,
null,,black_cross(without_color),201514,,blue,,,,null,GW/wheelchair.jpg,GW/hat.jpg,,,,,,,,,,,,,,,,
null,,rt_plussign_withcolor,202020,,blue,,,,null,GW/wheelchair.jpg,GW/hat.jpg,,,,,,,,,,,,,,,,
710.6000003814697,,rt_thecrossant_black,202965,,black_plus_sign,,,,49,,,1,1,,,,,,,,,,,,,,
null,,color_black,203072,,black_plus_sign,,,,null,,,,,,,,,,,,,,,,,,
null,,learn_phase(without_color),206079,,black_plus_sign,,,,null,GW/globe.jpg,GW/barrel.jpg,,,,,,,,,,,,,,,,
null,,black_cross(without_color),206723,,green,,,,null,GW/globe.jpg,GW/barrel.jpg,,,,,,,,,,,,,,,,
null,,rt_plussign_withcolor,207225,,green,,,,null,GW/globe.jpg,GW/barrel.jpg,,,,,,,,,,,,,,,,
1231.5,,rt_thecrossant_black,208603,,black_plus_sign,,,,50,,,1,1,,,,,,,,,,,,,,
null,,color_black,208713,,black_plus_sign,,,,null,,,,,,,,,,,,,,,,,,
null,,learn_phase(without_color),211720,,black_plus_sign,,,,null,GW/paint.jpg,GW/basket.jpg,,,,,,,,,,,,,,,,
null,,black_cross(without_color),212334,,blue,,,,null,GW/paint.jpg,GW/basket.jpg,,,,,,,,,,,,,,,,
null,,rt_plussign_withcolor,212841,,blue,,,,null,GW/paint.jpg,GW/basket.jpg,,,,,,,,,,,,,,,,
951.5,,rt_thecrossant_black,214232,,black_plus_sign,,,,49,,,1,1,,,,,,,,,,,,,,
null,,color_black,214340,,black_plus_sign,,,,null,,,,,,,,,,,,,,,,,,
null,,learn_phase(without_color),217352,,black_plus_sign,,,,null,GW/wheelchair.jpg,GW/hat.jpg,,,,,,,,,,,,,,,,
null,,black_cross(without_color),218090,,blue,,,,null,GW/wheelchair.jpg,GW/hat.jpg,,,,,,,,,,,,,,,,
null,,rt_plussign_withcolor,218593,,blue,,,,null,GW/wheelchair.jpg,GW/hat.jpg,,,,,,,,,,,,,,,,
827.1999998092651,,rt_thecrossant_black,219869,,black_plus_sign,,,,49,,,1,1,,,,,,,,,,,,,,
null,,color_black,219988,,black_plus_sign,,,,null,,,,,,,,,,,,,,,,,,
null,,learn_phase(without_color),222995,,black_plus_sign,,,,null,GW/barrel.jpg,GW/globe.jpg,,,,,,,,,,,,,,,,
null,,black_cross(without_color),223440,,green,,,,null,GW/barrel.jpg,GW/globe.jpg,,,,,,,,,,,,,,,,
null,,rt_plussign_withcolor,223950,,green,,,,null,GW/barrel.jpg,GW/globe.jpg,,,,,,,,,,,,,,,,
877.5999994277954,,rt_thecrossant_black,225519,,black_plus_sign,,,,50,,,1,1,,,,,,,,,,,,,,
null,,color_black,225624,,black_plus_sign,,,,null,,,,,,,,,,,,,,,,,,
null,,learn_phase(without_color),228634,,black_plus_sign,,,,null,GW/wheelchair.jpg,GW/hat.jpg,,,,,,,,,,,,,,,,
null,,black_cross(without_color),229378,,blue,,,,null,GW/wheelchair.jpg,GW/hat.jpg,,,,,,,,,,,,,,,,
null,,rt_plussign_withcolor,229895,,blue,,,,null,GW/wheelchair.jpg,GW/hat.jpg,,,,,,,,,,,,,,,,
660.6000003814697,,rt_thecrossant_black,231175,,black_plus_sign,,,,49,,,1,1,,,,,,,,,,,,,,
null,,color_black,231287,,black_plus_sign,,,,null,,,,,,,,,,,,,,,,,,
null,,learn_phase(without_color),234304,,black_plus_sign,,,,null,GW/basket.jpg,GW/paint.jpg,,,,,,,,,,,,,,,,
null,,black_cross(without_color),235234,,green,,,,null,GW/basket.jpg,GW/paint.jpg,,,,,,,,,,,,,,,,
null,,rt_plussign_withcolor,235752,,green,,,,null,GW/basket.jpg,GW/paint.jpg,,,,,,,,,,,,,,,,
1124.3999996185303,,rt_thecrossant_black,236837,,black_plus_sign,,,,50,,,1,1,,,,,,,,,,,,,,
null,,color_black,236944,,black_plus_sign,,,,null,,,,,,,,,,,,,,,,,,
null,,learn_phase(without_color),239955,,black_plus_sign,,,,null,GW/wheelchair.jpg,GW/hat.jpg,,,,,,,,,,,,,,,,
null,,black_cross(without_color),240828,,blue,,,,null,GW/wheelchair.jpg,GW/hat.jpg,,,,,,,,,,,,,,,,
null,,rt_plussign_withcolor,241339,,blue,,,,null,GW/wheelchair.jpg,GW/hat.jpg,,,,,,,,,,,,,,,,
1104.7999992370605,,rt_thecrossant_black,242486,,black_plus_sign,,,,49,,,1,1,,,,,,,,,,,,,,
null,,color_black,242592,,black_plus_sign,,,,null,,,,,,,,,,,,,,,,,,
null,,learn_phase(without_color),245597,,black_plus_sign,,,,null,GW/snail.jpg,GW/camera.jpg,,,,,,,,,,,,,,,,
null,,black_cross(without_color),246348,,green,,,,null,GW/snail.jpg,GW/camera.jpg,,,,,,,,,,,,,,,,
null,,rt_plussign_withcolor,246864,,green,,,,null,GW/snail.jpg,GW/camera.jpg,,,,,,,,,,,,,,,,
1247.9000005722046,,rt_thecrossant_black,248125,,black_plus_sign,,,,50,,,1,1,,,,,,,,,,,,,,
null,,color_black,248230,,black_plus_sign,,,,null,,,,,,,,,,,,,,,,,,
null,,learn_phase(without_color),251240,,black_plus_sign,,,,null,GW/barrel.jpg,GW/globe.jpg,,,,,,,,,,,,,,,,
null,,black_cross(without_color),251928,,green,,,,null,GW/barrel.jpg,GW/globe.jpg,,,,,,,,,,,,,,,,
null,,rt_plussign_withcolor,252434,,green,,,,null,GW/barrel.jpg,GW/globe.jpg,,,,,,,,,,,,,,,,
978.3000001907349,,rt_thecrossant_black,253752,,black_plus_sign,,,,50,,,1,1,,,,,,,,,,,,,,
null,,color_black,253857,,black_plus_sign,,,,null,,,,,,,,,,,,,,,,,,
null,,learn_phase(without_color),256868,,black_plus_sign,,,,null,GW/basket.jpg,GW/paint.jpg,,,,,,,,,,,,,,,,
null,,black_cross(without_color),257878,,blue,,,,null,GW/basket.jpg,GW/paint.jpg,,,,,,,,,,,,,,,,
null,,rt_plussign_withcolor,258386,,blue,,,,null,GW/basket.jpg,GW/paint.jpg,,,,,,,,,,,,,,,,
799.6999998092651,,rt_thecrossant_black,259388,,black_plus_sign,,,,49,,,1,1,,,,,,,,,,,,,,
null,,color_black,259496,,black_plus_sign,,,,null,,,,,,,,,,,,,,,,,,
null,,learn_phase(without_color),262507,,black_plus_sign,,,,null,GW/camera.jpg,GW/snail.jpg,,,,,,,,,,,,,,,,
null,,black_cross(without_color),263461,,green,,,,null,GW/camera.jpg,GW/snail.jpg,,,,,,,,,,,,,,,,
459.80000019073486,,rt_plussign_withcolor,263968,,green,,,,50,GW/camera.jpg,GW/snail.jpg,,,,,,,,,,,,,,,,
null,,rt_thecrossant_black,265027,,black_plus_sign,,,,null,,,1,1,,,,,,,,,,,,,,
null,,color_black,265134,,black_plus_sign,,,,null,,,,,,,,,,,,,,,,,,
null,,learn_phase(without_color),268141,,black_plus_sign,,,,null,GW/barrel.jpg,GW/globe.jpg,,,,,,,,,,,,,,,,
null,,black_cross(without_color),268828,,green,,,,null,GW/barrel.jpg,GW/globe.jpg,,,,,,,,,,,,,,,,
null,,rt_plussign_withcolor,269344,,green,,,,null,GW/barrel.jpg,GW/globe.jpg,,,,,,,,,,,,,,,,
1149.7999992370605,,rt_thecrossant_black,270667,,black_plus_sign,,,,50,,,1,1,,,,,,,,,,,,,,
null,,color_black,270783,,black_plus_sign,,,,null,,,,,,,,,,,,,,,,,,
null,,learn_phase(without_color),273793,,black_plus_sign,,,,null,GW/camera.jpg,GW/snail.jpg,,,,,,,,,,,,,,,,
null,,black_cross(without_color),274761,,green,,,,null,GW/camera.jpg,GW/snail.jpg,,,,,,,,,,,,,,,,
494,,rt_plussign_withcolor,275267,,green,,,,50,GW/camera.jpg,GW/snail.jpg,,,,,,,,,,,,,,,,
null,,rt_thecrossant_black,276304,,black_plus_sign,,,,null,,,1,1,,,,,,,,,,,,,,
null,,color_black,276413,,black_plus_sign,,,,null,,,,,,,,,,,,,,,,,,
null,,learn_phase(without_color),279429,,black_plus_sign,,,,null,GW/basket.jpg,GW/paint.jpg,,,,,,,,,,,,,,,,
null,,black_cross(without_color),280285,,blue,,,,null,GW/basket.jpg,GW/paint.jpg,,,,,,,,,,,,,,,,
527,,rt_plussign_withcolor,280815,,blue,,,,49,GW/basket.jpg,GW/paint.jpg,,,,,,,,,,,,,,,,
null,,rt_thecrossant_black,281968,,black_plus_sign,,,,null,,,1,1,,,,,,,,,,,,,,
null,,color_black,282071,,black_plus_sign,,,,null,,,,,,,,,,,,,,,,,,
null,,learn_phase(without_color),285078,,black_plus_sign,,,,null,GW/snail.jpg,GW/camera.jpg,,,,,,,,,,,,,,,,
null,,black_cross(without_color),285581,,green,,,,null,GW/snail.jpg,GW/camera.jpg,,,,,,,,,,,,,,,,
387.5,,rt_plussign_withcolor,286090,,green,,,,50,GW/snail.jpg,GW/camera.jpg,,,,,,,,,,,,,,,,
null,,rt_thecrossant_black,287605,,black_plus_sign,,,,null,,,1,1,,,,,,,,,,,,,,
null,,color_black,287713,,black_plus_sign,,,,null,,,,,,,,,,,,,,,,,,
null,,learn_phase(without_color),290723,,black_plus_sign,,,,null,GW/paint.jpg,GW/barrel.jpg,,,,,,,,,,,,,,,,
null,,black_cross(without_color),291146,,blue,,,,null,GW/paint.jpg,GW/barrel.jpg,,,,,,,,,,,,,,,,
498.4000005722046,,rt_plussign_withcolor,291652,,blue,,,,49,GW/paint.jpg,GW/barrel.jpg,,,,,,,,,,,,,,,,
null,,rt_thecrossant_black,293245,,black_plus_sign,,,,null,,,1,1,,,,,,,,,,,,,,
null,,color_black,293352,,black_plus_sign,,,,null,,,,,,,,,,,,,,,,,,
null,,learn_phase(without_color),296358,,black_plus_sign,,,,null,GW/wheelchair.jpg,GW/camera.jpg,,,,,,,,,,,,,,,,
null,,black_cross(without_color),297058,,green,,,,null,GW/wheelchair.jpg,GW/camera.jpg,,,,,,,,,,,,,,,,
null,,rt_plussign_withcolor,297576,,green,,,,null,GW/wheelchair.jpg,GW/camera.jpg,,,,,,,,,,,,,,,,
845.8000001907349,,rt_thecrossant_black,298890,,black_plus_sign,,,,50,,,1,1,,,,,,,,,,,,,,
null,,color_black,298998,,black_plus_sign,,,,null,,,,,,,,,,,,,,,,,,
null,,learn_phase(without_color),302004,,black_plus_sign,,,,null,GW/paint.jpg,GW/barrel.jpg,,,,,,,,,,,,,,,,
null,,black_cross(without_color),302515,,blue,,,,null,GW/paint.jpg,GW/barrel.jpg,,,,,,,,,,,,,,,,
null,,rt_plussign_withcolor,303023,,blue,,,,null,GW/paint.jpg,GW/barrel.jpg,,,,,,,,,,,,,,,,
1628.8999996185303,,rt_thecrossant_black,304523,,black_plus_sign,,,,49,,,1,1,,,,,,,,,,,,,,
null,,color_black,304627,,black_plus_sign,,,,null,,,,,,,,,,,,,,,,,,
null,,learn_phase(without_color),307630,,black_plus_sign,,,,null,GW/camera.jpg,GW/wheelchair.jpg,,,,,,,,,,,,,,,,
null,,black_cross(without_color),308603,,green,,,,null,GW/camera.jpg,GW/wheelchair.jpg,,,,,,,,,,,,,,,,
345.5999994277954,,rt_plussign_withcolor,309110,,green,,,,50,GW/camera.jpg,GW/wheelchair.jpg,,,,,,,,,,,,,,,,
null,,rt_thecrossant_black,310145,,black_plus_sign,,,,null,,,1,1,,,,,,,,,,,,,,
null,,color_black,310252,,black_plus_sign,,,,null,,,,,,,,,,,,,,,,,,
null,,learn_phase(without_color),313254,,black_plus_sign,,,,null,GW/snail.jpg,GW/soldier.jpg,,,,,,,,,,,,,,,,
null,,black_cross(without_color),314164,,blue,,,,null,GW/snail.jpg,GW/soldier.jpg,,,,,,,,,,,,,,,,
null,,rt_plussign_withcolor,314674,,blue,,,,null,GW/snail.jpg,GW/soldier.jpg,,,,,,,,,,,,,,,,
1121.5,,rt_thecrossant_black,315781,,black_plus_sign,,,,49,,,1,1,,,,,,,,,,,,,,
null,,color_black,315889,,black_plus_sign,,,,null,,,,,,,,,,,,,,,,,,
null,,learn_phase(without_color),318891,,black_plus_sign,,,,null,GW/teeth.jpg,GW/basket.jpg,,,,,,,,,,,,,,,,
null,,black_cross(without_color),319544,,blue,,,,null,GW/teeth.jpg,GW/basket.jpg,,,,,,,,,,,,,,,,
null,,rt_plussign_withcolor,320051,,blue,,,,null,GW/teeth.jpg,GW/basket.jpg,,,,,,,,,,,,,,,,
1136.1999998092651,,rt_thecrossant_black,321405,,black_plus_sign,,,,49,,,1,1,,,,,,,,,,,,,,
null,,color_black,321512,,black_plus_sign,,,,null,,,,,,,,,,,,,,,,,,
null,,learn_phase(without_color),324520,,black_plus_sign,,,,null,GW/barrel.jpg,GW/paint.jpg,,,,,,,,,,,,,,,,
null,,black_cross(without_color),325258,,green,,,,null,GW/barrel.jpg,GW/paint.jpg,,,,,,,,,,,,,,,,
null,,rt_plussign_withcolor,325763,,green,,,,null,GW/barrel.jpg,GW/paint.jpg,,,,,,,,,,,,,,,,
836,,rt_thecrossant_black,327046,,black_plus_sign,,,,49,,,0,0.9743589743589743,,,,,,,,,,,,,,
null,,color_black,327151,,black_plus_sign,,,,null,,,,,,,,,,,,,,,,,,
null,,learn_phase(without_color),330167,,black_plus_sign,,,,null,GW/wheelchair.jpg,GW/camera.jpg,,,,,,,,,,,,,,,,
null,,black_cross(without_color),330614,,green,,,,null,GW/wheelchair.jpg,GW/camera.jpg,,,,,,,,,,,,,,,,
null,,rt_plussign_withcolor,331120,,green,,,,null,GW/wheelchair.jpg,GW/camera.jpg,,,,,,,,,,,,,,,,
882.5,,rt_thecrossant_black,332690,,black_plus_sign,,,,50,,,1,0.975,,,,,,,,,,,,,,
null,,color_black,332798,,black_plus_sign,,,,null,,,,,,,,,,,,,,,,,,
null,,learn_phase(without_color),335802,,black_plus_sign,,,,null,GW/snail.jpg,GW/soldier.jpg,,,,,,,,,,,,,,,,
null,,black_cross(without_color),336335,,blue,,,,null,GW/snail.jpg,GW/soldier.jpg,,,,,,,,,,,,,,,,
null,,rt_plussign_withcolor,336842,,blue,,,,null,GW/snail.jpg,GW/soldier.jpg,,,,,,,,,,,,,,,,
836.7000007629395,,rt_thecrossant_black,338324,,black_plus_sign,,,,49,,,1,0.975609756097561,,,,,,,,,,,,,,
null,,color_black,338431,,black_plus_sign,,,,null,,,,,,,,,,,,,,,,,,
null,,learn_phase(without_color),341444,,black_plus_sign,,,,null,GW/basket.jpg,GW/teeth.jpg,,,,,,,,,,,,,,,,
null,,black_cross(without_color),342337,,green,,,,null,GW/basket.jpg,GW/teeth.jpg,,,,,,,,,,,,,,,,
null,,rt_plussign_withcolor,342847,,green,,,,null,GW/basket.jpg,GW/teeth.jpg,,,,,,,,,,,,,,,,
776.5,,rt_thecrossant_black,343964,,black_plus_sign,,,,50,,,1,0.9761904761904762,,,,,,,,,,,,,,
null,,color_black,344080,,black_plus_sign,,,,null,,,,,,,,,,,,,,,,,,
null,,learn_phase(without_color),347095,,black_plus_sign,,,,null,GW/camera.jpg,GW/wheelchair.jpg,,,,,,,,,,,,,,,,
null,,black_cross(without_color),348039,,green,,,,null,GW/camera.jpg,GW/wheelchair.jpg,,,,,,,,,,,,,,,,
null,,rt_plussign_withcolor,348555,,green,,,,null,GW/camera.jpg,GW/wheelchair.jpg,,,,,,,,,,,,,,,,
1066.8000001907349,,rt_thecrossant_black,349619,,black_plus_sign,,,,50,,,1,0.9767441860465116,,,,,,,,,,,,,,
null,,color_black,349726,,black_plus_sign,,,,null,,,,,,,,,,,,,,,,,,
null,,learn_phase(without_color),352734,,black_plus_sign,,,,null,GW/snail.jpg,GW/soldier.jpg,,,,,,,,,,,,,,,,
null,,black_cross(without_color),353259,,blue,,,,null,GW/snail.jpg,GW/soldier.jpg,,,,,,,,,,,,,,,,
null,,rt_plussign_withcolor,353768,,blue,,,,null,GW/snail.jpg,GW/soldier.jpg,,,,,,,,,,,,,,,,
1112,,rt_thecrossant_black,355253,,black_plus_sign,,,,49,,,1,0.9772727272727273,,,,,,,,,,,,,,
null,,color_black,355363,,black_plus_sign,,,,null,,,,,,,,,,,,,,,,,,
null,,learn_phase(without_color),358370,,black_plus_sign,,,,null,GW/teeth.jpg,GW/basket.jpg,,,,,,,,,,,,,,,,
null,,black_cross(without_color),359110,,blue,,,,null,GW/teeth.jpg,GW/basket.jpg,,,,,,,,,,,,,,,,
null,,rt_plussign_withcolor,359620,,blue,,,,null,GW/teeth.jpg,GW/basket.jpg,,,,,,,,,,,,,,,,
662.5,,rt_thecrossant_black,360894,,black_plus_sign,,,,49,,,1,0.9777777777777777,,,,,,,,,,,,,,
null,,color_black,361001,,black_plus_sign,,,,null,,,,,,,,,,,,,,,,,,
null,,learn_phase(without_color),364007,,black_plus_sign,,,,null,GW/camera.jpg,GW/wheelchair.jpg,,,,,,,,,,,,,,,,
null,,black_cross(without_color),364774,,green,,,,null,GW/camera.jpg,GW/wheelchair.jpg,,,,,,,,,,,,,,,,
null,,rt_plussign_withcolor,365276,,green,,,,null,GW/camera.jpg,GW/wheelchair.jpg,,,,,,,,,,,,,,,,
984.6999998092651,,rt_thecrossant_black,366536,,black_plus_sign,,,,50,,,1,0.9782608695652174,,,,,,,,,,,,,,
null,,color_black,366642,,black_plus_sign,,,,null,,,,,,,,,,,,,,,,,,
null,,learn_phase(without_color),369652,,black_plus_sign,,,,null,GW/soldier.jpg,GW/snail.jpg,,,,,,,,,,,,,,,,
null,,black_cross(without_color),370512,,blue,,,,null,GW/soldier.jpg,GW/snail.jpg,,,,,,,,,,,,,,,,
490.8999996185303,,rt_plussign_withcolor,371019,,blue,,,,49,GW/soldier.jpg,GW/snail.jpg,,,,,,,,,,,,,,,,
null,,rt_thecrossant_black,372175,,black_plus_sign,,,,null,,,1,0.9787234042553191,,,,,,,,,,,,,,
null,,color_black,372282,,black_plus_sign,,,,null,,,,,,,,,,,,,,,,,,
null,,learn_phase(without_color),375288,,black_plus_sign,,,,null,GW/paint.jpg,GW/barrel.jpg,,,,,,,,,,,,,,,,
null,,black_cross(without_color),375894,,green,,,,null,GW/paint.jpg,GW/barrel.jpg,,,,,,,,,,,,,,,,
null,,rt_plussign_withcolor,376412,,green,,,,null,GW/paint.jpg,GW/barrel.jpg,,,,,,,,,,,,,,,,
1234.8999996185303,,rt_thecrossant_black,377825,,black_plus_sign,,,,50,,,1,0.9791666666666666,,,,,,,,,,,,,,
null,,color_black,377929,,black_plus_sign,,,,null,,,,,,,,,,,,,,,,,,
null,,learn_phase(without_color),380940,,black_plus_sign,,,,null,GW/snail.jpg,GW/soldier.jpg,,,,,,,,,,,,,,,,
null,,black_cross(without_color),381375,,blue,,,,null,GW/snail.jpg,GW/soldier.jpg,,,,,,,,,,,,,,,,
null,,rt_plussign_withcolor,381882,,blue,,,,null,GW/snail.jpg,GW/soldier.jpg,,,,,,,,,,,,,,,,
771.8000001907349,,rt_thecrossant_black,383455,,black_plus_sign,,,,49,,,1,0.9795918367346939,,,,,,,,,,,,,,
null,,color_black,383570,,black_plus_sign,,,,null,,,,,,,,,,,,,,,,,,
null,,learn_phase(without_color),386579,,black_plus_sign,,,,null,GW/barrel.jpg,GW/paint.jpg,,,,,,,,,,,,,,,,
null,,black_cross(without_color),387635,,blue,,,,null,GW/barrel.jpg,GW/paint.jpg,,,,,,,,,,,,,,,,
null,,rt_plussign_withcolor,388140,,blue,,,,null,GW/barrel.jpg,GW/paint.jpg,,,,,,,,,,,,,,,,
657.5999994277954,,rt_thecrossant_black,389115,,black_plus_sign,,,,49,,,1,0.98,,,,,,,,,,,,,,
null,,color_black,389226,,black_plus_sign,,,,null,,,,,,,,,,,,,,,,,,
null,,learn_phase(without_color),392232,,black_plus_sign,,,,null,GW/teeth.jpg,GW/basket.jpg,,,,,,,,,,,,,,,,
null,,black_cross(without_color),392830,,green,,,,null,GW/teeth.jpg,GW/basket.jpg,,,,,,,,,,,,,,,,
null,,rt_plussign_withcolor,393342,,green,,,,null,GW/teeth.jpg,GW/basket.jpg,,,,,,,,,,,,,,,,
1205.0999994277954,,rt_thecrossant_black,394767,,black_plus_sign,,,,50,,,1,0.9803921568627451,,,,,,,,,,,,,,
null,,color_black,394877,,black_plus_sign,,,,null,,,,,,,,,,,,,,,,,,
null,,learn_phase(without_color),397883,,black_plus_sign,,,,null,GW/barrel.jpg,GW/paint.jpg,,,,,,,,,,,,,,,,
null,,black_cross(without_color),398654,,blue,,,,null,GW/barrel.jpg,GW/paint.jpg,,,,,,,,,,,,,,,,
null,,rt_plussign_withcolor,399163,,blue,,,,null,GW/barrel.jpg,GW/paint.jpg,,,,,,,,,,,,,,,,
791.0999994277954,,rt_thecrossant_black,400416,,black_plus_sign,,,,49,,,1,0.9807692307692307,,,,,,,,,,,,,,
null,,color_black,400519,,black_plus_sign,,,,null,,,,,,,,,,,,,,,,,,
null,,learn_phase(without_color),403533,,black_plus_sign,,,,null,GW/soldier.jpg,GW/snail.jpg,,,,,,,,,,,,,,,,
null,,black_cross(without_color),404265,,blue,,,,null,GW/soldier.jpg,GW/snail.jpg,,,,,,,,,,,,,,,,
null,,rt_plussign_withcolor,404774,,blue,,,,null,GW/soldier.jpg,GW/snail.jpg,,,,,,,,,,,,,,,,
990.6999998092651,,rt_thecrossant_black,406064,,black_plus_sign,,,,50,,,0,0.9622641509433962,,,,,,,,,,,,,,
null,,color_black,406173,,black_plus_sign,,,,null,,,,,,,,,,,,,,,,,,
null,,learn_phase(without_color),409184,,black_plus_sign,,,,null,GW/wheelchair.jpg,GW/camera.jpg,,,,,,,,,,,,,,,,
null,,black_cross(without_color),409811,,blue,,,,null,GW/wheelchair.jpg,GW/camera.jpg,,,,,,,,,,,,,,,,
null,,rt_plussign_withcolor,410322,,blue,,,,null,GW/wheelchair.jpg,GW/camera.jpg,,,,,,,,,,,,,,,,
882.2999992370605,,rt_thecrossant_black,411707,,black_plus_sign,,,,49,,,1,0.9629629629629629,,,,,,,,,,,,,,
null,,color_black,411813,,black_plus_sign,,,,null,,,,,,,,,,,,,,,,,,
null,,learn_phase(without_color),414825,,black_plus_sign,,,,null,GW/barrel.jpg,GW/paint.jpg,,,,,,,,,,,,,,,,
null,,black_cross(without_color),415637,,blue,,,,null,GW/barrel.jpg,GW/paint.jpg,,,,,,,,,,,,,,,,
null,,rt_plussign_withcolor,416148,,blue,,,,null,GW/barrel.jpg,GW/paint.jpg,,,,,,,,,,,,,,,,
721.3999996185303,,rt_thecrossant_black,417350,,black_plus_sign,,,,49,,,1,0.9636363636363636,,,,,,,,,,,,,,
null,,color_black,417459,,black_plus_sign,,,,null,,,,,,,,,,,,,,,,,,
null,,learn_phase(without_color),420465,,black_plus_sign,,,,null,GW/basket.jpg,GW/teeth.jpg,,,,,,,,,,,,,,,,
null,,black_cross(without_color),421397,,blue,,,,null,GW/basket.jpg,GW/teeth.jpg,,,,,,,,,,,,,,,,
null,,rt_plussign_withcolor,421903,,blue,,,,null,GW/basket.jpg,GW/teeth.jpg,,,,,,,,,,,,,,,,
null,,rt_thecrossant_black,422991,,black_plus_sign,,,,null,,,,0.9636363636363636,,,,,,,,,,,,,,
null,,color_black,423104,,black_plus_sign,,,,null,,,,,,,,,,,,,,,,,,
null,,learn_phase(without_color),426124,,black_plus_sign,,,,null,GW/snail.jpg,GW/soldier.jpg,,,,,,,,,,,,,,,,
null,,black_cross(without_color),426765,,green,,,,null,GW/snail.jpg,GW/soldier.jpg,,,,,,,,,,,,,,,,
null,,rt_plussign_withcolor,427273,,green,,,,null,GW/snail.jpg,GW/soldier.jpg,,,,,,,,,,,,,,,,
1260,,rt_thecrossant_black,428655,,black_plus_sign,,,,50,,,1,0.9642857142857143,,,,,,,,,,,,,,
null,,color_black,428758,,black_plus_sign,,,,null,,,,,,,,,,,,,,,,,,
null,,learn_phase(without_color),431777,,black_plus_sign,,,,null,GW/basket.jpg,GW/teeth.jpg,,,,,,,,,,,,,,,,
null,,black_cross(without_color),432577,,green,,,,null,GW/basket.jpg,GW/teeth.jpg,,,,,,,,,,,,,,,,
null,,rt_plussign_withcolor,433095,,green,,,,null,GW/basket.jpg,GW/teeth.jpg,,,,,,,,,,,,,,,,
1618.2999992370605,,rt_thecrossant_black,434305,,black_plus_sign,,,,50,,,1,0.9649122807017544,,,,,,,,,,,,,,
null,,color_black,434424,,black_plus_sign,,,,null,,,,,,,,,,,,,,,,,,
null,,learn_phase(without_color),437431,,black_plus_sign,,,,null,GW/wheelchair.jpg,GW/camera.jpg,,,,,,,,,,,,,,,,
null,,black_cross(without_color),438379,,blue,,,,null,GW/wheelchair.jpg,GW/camera.jpg,,,,,,,,,,,,,,,,
null,,rt_plussign_withcolor,438883,,blue,,,,null,GW/wheelchair.jpg,GW/camera.jpg,,,,,,,,,,,,,,,,
null,,rt_thecrossant_black,439943,,black_plus_sign,,,,null,,,,0.9649122807017544,,,,,,,,,,,,,,
null,,color_black,440048,,black_plus_sign,,,,null,,,,,,,,,,,,,,,,,,
null,,learn_phase(without_color),443059,,black_plus_sign,,,,null,GW/basket.jpg,GW/teeth.jpg,,,,,,,,,,,,,,,,
null,,black_cross(without_color),443559,,blue,,,,null,GW/basket.jpg,GW/teeth.jpg,,,,,,,,,,,,,,,,
null,,rt_plussign_withcolor,444066,,blue,,,,null,GW/basket.jpg,GW/teeth.jpg,,,,,,,,,,,,,,,,
null,,rt_thecrossant_black,445570,,black_plus_sign,,,,null,,,,0.9649122807017544,,,,,,,,,,,,,,
null,,warning_page,448584,,warning,,,,null,,,,,,,,,,,,,,,,,,
null,,color_black,448688,,black_plus_sign,,,,null,,,,,,,,,,,,,,,,,,
null,,learn_phase(without_color),451699,,black_plus_sign,,,,null,GW/soldier.jpg,GW/snail.jpg,,,,,,,,,,,,,,,,
null,,black_cross(without_color),452181,,green,,,,null,GW/soldier.jpg,GW/snail.jpg,,,,,,,,,,,,,,,,
null,,rt_plussign_withcolor,452695,,green,,,,null,GW/soldier.jpg,GW/snail.jpg,,,,,,,,,,,,,,,,
721.6000003814697,,rt_thecrossant_black,454226,,black_plus_sign,,,,50,,,1,0.9655172413793104,,,,,,,,,,,,,,
null,,color_black,454337,,black_plus_sign,,,,null,,,,,,,,,,,,,,,,,,
null,,learn_phase(without_color),457344,,black_plus_sign,,,,null,GW/basket.jpg,GW/teeth.jpg,,,,,,,,,,,,,,,,
null,,black_cross(without_color),457776,,green,,,,null,GW/basket.jpg,GW/teeth.jpg,,,,,,,,,,,,,,,,
null,,rt_plussign_withcolor,458280,,green,,,,null,GW/basket.jpg,GW/teeth.jpg,,,,,,,,,,,,,,,,
null,,rt_thecrossant_black,459870,,black_plus_sign,,,,null,,,,0.9655172413793104,,,,,,,,,,,,,,
null,,color_black,459977,,black_plus_sign,,,,null,,,,,,,,,,,,,,,,,,
null,,learn_phase(without_color),462979,,black_plus_sign,,,,null,GW/barrel.jpg,GW/paint.jpg,,,,,,,,,,,,,,,,
null,,black_cross(without_color),463698,,green,,,,null,GW/barrel.jpg,GW/paint.jpg,,,,,,,,,,,,,,,,
494.30000019073486,,rt_plussign_withcolor,464199,,green,,,,50,GW/barrel.jpg,GW/paint.jpg,,,,,,,,,,,,,,,,
null,,rt_thecrossant_black,465498,,black_plus_sign,,,,null,,,1,0.9661016949152542,,,,,,,,,,,,,,
null,,color_black,465606,,black_plus_sign,,,,null,,,,,,,,,,,,,,,,,,
null,,learn_phase(without_color),468625,,black_plus_sign,,,,null,GW/wheelchair.jpg,GW/camera.jpg,,,,,,,,,,,,,,,,
null,,black_cross(without_color),469602,,blue,,,,null,GW/wheelchair.jpg,GW/camera.jpg,,,,,,,,,,,,,,,,
null,,rt_plussign_withcolor,470104,,blue,,,,null,GW/wheelchair.jpg,GW/camera.jpg,,,,,,,,,,,,,,,,
844.7999992370605,,rt_thecrossant_black,471148,,black_plus_sign,,,,49,,,1,0.9666666666666667,,,,,,,,,,,,,,
null,,color_black,471258,,black_plus_sign,,,,null,,,,,,,,,,,,,,,,,,
null,,learn_phase(without_color),474267,,black_plus_sign,,,,null,GW/basket.jpg,GW/barrel.jpg,,,,,,,,,,,,,,,,
null,,black_cross(without_color),474683,,green,,,,null,GW/basket.jpg,GW/barrel.jpg,,,,,,,,,,,,,,,,
361.4000005722046,,rt_plussign_withcolor,475191,,green,,,,50,GW/basket.jpg,GW/barrel.jpg,,,,,,,,,,,,,,,,
null,,rt_thecrossant_black,476797,,black_plus_sign,,,,null,,,1,0.9672131147540983,,,,,,,,,,,,,,
null,,color_black,476906,,black_plus_sign,,,,null,,,,,,,,,,,,,,,,,,
null,,learn_phase(without_color),479916,,black_plus_sign,,,,null,GW/soldier.jpg,GW/gong.jpg,,,,,,,,,,,,,,,,
null,,black_cross(without_color),480881,,blue,,,,null,GW/soldier.jpg,GW/gong.jpg,,,,,,,,,,,,,,,,
null,,rt_plussign_withcolor,481389,,blue,,,,null,GW/soldier.jpg,GW/gong.jpg,,,,,,,,,,,,,,,,
635.8000001907349,,rt_thecrossant_black,482445,,black_plus_sign,,,,49,,,1,0.967741935483871,,,,,,,,,,,,,,
null,,color_black,482548,,black_plus_sign,,,,null,,,,,,,,,,,,,,,,,,
null,,learn_phase(without_color),485557,,black_plus_sign,,,,null,GW/hat.jpg,GW/dustpan.jpg,,,,,,,,,,,,,,,,
null,,black_cross(without_color),486302,,green,,,,null,GW/hat.jpg,GW/dustpan.jpg,,,,,,,,,,,,,,,,
null,,rt_plussign_withcolor,486806,,green,,,,null,GW/hat.jpg,GW/dustpan.jpg,,,,,,,,,,,,,,,,
1175.5999994277954,,rt_thecrossant_black,488071,,black_plus_sign,,,,50,,,1,0.9682539682539683,,,,,,,,,,,,,,
null,,color_black,488179,,black_plus_sign,,,,null,,,,,,,,,,,,,,,,,,
null,,learn_phase(without_color),491186,,black_plus_sign,,,,null,GW/basket.jpg,GW/barrel.jpg,,,,,,,,,,,,,,,,
null,,black_cross(without_color),491884,,blue,,,,null,GW/basket.jpg,GW/barrel.jpg,,,,,,,,,,,,,,,,
null,,rt_plussign_withcolor,492387,,blue,,,,null,GW/basket.jpg,GW/barrel.jpg,,,,,,,,,,,,,,,,
1004.3999996185303,,rt_thecrossant_black,493704,,black_plus_sign,,,,49,,,1,0.96875,,,,,,,,,,,,,,
null,,color_black,493814,,black_plus_sign,,,,null,,,,,,,,,,,,,,,,,,
null,,learn_phase(without_color),496824,,black_plus_sign,,,,null,GW/soldier.jpg,GW/gong.jpg,,,,,,,,,,,,,,,,
null,,black_cross(without_color),497598,,green,,,,null,GW/soldier.jpg,GW/gong.jpg,,,,,,,,,,,,,,,,
400.80000019073486,,rt_plussign_withcolor,498113,,green,,,,50,GW/soldier.jpg,GW/gong.jpg,,,,,,,,,,,,,,,,
null,,rt_thecrossant_black,499360,,black_plus_sign,,,,null,,,1,0.9692307692307692,,,,,,,,,,,,,,
null,,color_black,499477,,black_plus_sign,,,,null,,,,,,,,,,,,,,,,,,
null,,learn_phase(without_color),502490,,black_plus_sign,,,,null,GW/teeth.jpg,GW/paint.jpg,,,,,,,,,,,,,,,,
null,,black_cross(without_color),503177,,green,,,,null,GW/teeth.jpg,GW/paint.jpg,,,,,,,,,,,,,,,,
null,,rt_plussign_withcolor,503685,,green,,,,null,GW/teeth.jpg,GW/paint.jpg,,,,,,,,,,,,,,,,
1099.7999992370605,,rt_thecrossant_black,505022,,black_plus_sign,,,,50,,,1,0.9696969696969697,,,,,,,,,,,,,,
null,,color_black,505129,,black_plus_sign,,,,null,,,,,,,,,,,,,,,,,,
null,,learn_phase(without_color),508139,,black_plus_sign,,,,null,GW/soldier.jpg,GW/gong.jpg,,,,,,,,,,,,,,,,
null,,black_cross(without_color),509069,,green,,,,null,GW/soldier.jpg,GW/gong.jpg,,,,,,,,,,,,,,,,
480,,rt_plussign_withcolor,509571,,green,,,,50,GW/soldier.jpg,GW/gong.jpg,,,,,,,,,,,,,,,,
null,,rt_thecrossant_black,510655,,black_plus_sign,,,,null,,,1,0.9701492537313433,,,,,,,,,,,,,,
null,,color_black,510763,,black_plus_sign,,,,null,,,,,,,,,,,,,,,,,,
null,,learn_phase(without_color),513768,,black_plus_sign,,,,null,GW/hat.jpg,GW/dustpan.jpg,,,,,,,,,,,,,,,,
null,,black_cross(without_color),514712,,green,,,,null,GW/hat.jpg,GW/dustpan.jpg,,,,,,,,,,,,,,,,
null,,rt_plussign_withcolor,515222,,green,,,,null,GW/hat.jpg,GW/dustpan.jpg,,,,,,,,,,,,,,,,
1094.8999996185303,,rt_thecrossant_black,516288,,black_plus_sign,,,,50,,,1,0.9705882352941176,,,,,,,,,,,,,,
null,,color_black,516395,,black_plus_sign,,,,null,,,,,,,,,,,,,,,,,,
null,,learn_phase(without_color),519400,,black_plus_sign,,,,null,GW/gong.jpg,GW/soldier.jpg,,,,,,,,,,,,,,,,
null,,black_cross(without_color),520084,,blue,,,,null,GW/gong.jpg,GW/soldier.jpg,,,,,,,,,,,,,,,,
null,,rt_plussign_withcolor,520595,,blue,,,,null,GW/gong.jpg,GW/soldier.jpg,,,,,,,,,,,,,,,,
1092.2999992370605,,rt_thecrossant_black,521933,,black_plus_sign,,,,49,,,1,0.9710144927536232,,,,,,,,,,,,,,
null,,color_black,522042,,black_plus_sign,,,,null,,,,,,,,,,,,,,,,,,
null,,learn_phase(without_color),525054,,black_plus_sign,,,,null,GW/paint.jpg,GW/teeth.jpg,,,,,,,,,,,,,,,,
null,,black_cross(without_color),525848,,blue,,,,null,GW/paint.jpg,GW/teeth.jpg,,,,,,,,,,,,,,,,
null,,rt_plussign_withcolor,526357,,blue,,,,null,GW/paint.jpg,GW/teeth.jpg,,,,,,,,,,,,,,,,
1387.8999996185303,,rt_thecrossant_black,527578,,black_plus_sign,,,,49,,,1,0.9714285714285714,,,,,,,,,,,,,,
null,,color_black,527685,,black_plus_sign,,,,null,,,,,,,,,,,,,,,,,,
null,,learn_phase(without_color),530700,,black_plus_sign,,,,null,GW/hat.jpg,GW/dustpan.jpg,,,,,,,,,,,,,,,,
null,,black_cross(without_color),531119,,green,,,,null,GW/hat.jpg,GW/dustpan.jpg,,,,,,,,,,,,,,,,
null,,rt_plussign_withcolor,531635,,green,,,,null,GW/hat.jpg,GW/dustpan.jpg,,,,,,,,,,,,,,,,
1146.5,,rt_thecrossant_black,533224,,black_plus_sign,,,,50,,,1,0.971830985915493,,,,,,,,,,,,,,
null,,color_black,533347,,black_plus_sign,,,,null,,,,,,,,,,,,,,,,,,
null,,learn_phase(without_color),536351,,black_plus_sign,,,,null,GW/basket.jpg,GW/barrel.jpg,,,,,,,,,,,,,,,,
null,,black_cross(without_color),537294,,green,,,,null,GW/basket.jpg,GW/barrel.jpg,,,,,,,,,,,,,,,,
468.79999923706055,,rt_plussign_withcolor,537797,,green,,,,50,GW/basket.jpg,GW/barrel.jpg,,,,,,,,,,,,,,,,
null,,rt_thecrossant_black,538867,,black_plus_sign,,,,null,,,1,0.9722222222222222,,,,,,,,,,,,,,
null,,color_black,538973,,black_plus_sign,,,,null,,,,,,,,,,,,,,,,,,
null,,learn_phase(without_color),541988,,black_plus_sign,,,,null,GW/hat.jpg,GW/dustpan.jpg,,,,,,,,,,,,,,,,
null,,black_cross(without_color),542431,,blue,,,,null,GW/hat.jpg,GW/dustpan.jpg,,,,,,,,,,,,,,,,
null,,rt_plussign_withcolor,542934,,blue,,,,null,GW/hat.jpg,GW/dustpan.jpg,,,,,,,,,,,,,,,,
1151.5,,rt_thecrossant_black,544508,,black_plus_sign,,,,49,,,1,0.9726027397260274,,,,,,,,,,,,,,
null,,color_black,544623,,black_plus_sign,,,,null,,,,,,,,,,,,,,,,,,
null,,learn_phase(without_color),547638,,black_plus_sign,,,,null,GW/teeth.jpg,GW/paint.jpg,,,,,,,,,,,,,,,,
null,,black_cross(without_color),548701,,blue,,,,null,GW/teeth.jpg,GW/paint.jpg,,,,,,,,,,,,,,,,
null,,rt_plussign_withcolor,549211,,blue,,,,null,GW/teeth.jpg,GW/paint.jpg,,,,,,,,,,,,,,,,
639.9000005722046,,rt_thecrossant_black,550167,,black_plus_sign,,,,49,,,1,0.972972972972973,,,,,,,,,,,,,,
null,,color_black,550272,,black_plus_sign,,,,null,,,,,,,,,,,,,,,,,,
null,,learn_phase(without_color),553282,,black_plus_sign,,,,null,GW/basket.jpg,GW/barrel.jpg,,,,,,,,,,,,,,,,
null,,black_cross(without_color),553802,,blue,,,,null,GW/basket.jpg,GW/barrel.jpg,,,,,,,,,,,,,,,,
null,,rt_plussign_withcolor,554307,,blue,,,,null,GW/basket.jpg,GW/barrel.jpg,,,,,,,,,,,,,,,,
1268.1000003814697,,rt_thecrossant_black,555806,,black_plus_sign,,,,49,,,1,0.9733333333333334,,,,,,,,,,,,,,
null,,color_black,555917,,black_plus_sign,,,,null,,,,,,,,,,,,,,,,,,
null,,learn_phase(without_color),558930,,black_plus_sign,,,,null,GW/gong.jpg,GW/soldier.jpg,,,,,,,,,,,,,,,,
null,,black_cross(without_color),559454,,blue,,,,null,GW/gong.jpg,GW/soldier.jpg,,,,,,,,,,,,,,,,
null,,rt_plussign_withcolor,559962,,blue,,,,null,GW/gong.jpg,GW/soldier.jpg,,,,,,,,,,,,,,,,
1359.0999994277954,,rt_thecrossant_black,561448,,black_plus_sign,,,,49,,,1,0.9736842105263158,,,,,,,,,,,,,,
null,,color_black,561552,,black_plus_sign,,,,null,,,,,,,,,,,,,,,,,,
null,,learn_phase(without_color),564566,,black_plus_sign,,,,null,GW/basket.jpg,GW/barrel.jpg,,,,,,,,,,,,,,,,
null,,black_cross(without_color),565397,,blue,,,,null,GW/basket.jpg,GW/barrel.jpg,,,,,,,,,,,,,,,,
457.29999923706055,,rt_plussign_withcolor,565904,,blue,,,,49,GW/basket.jpg,GW/barrel.jpg,,,,,,,,,,,,,,,,
null,,rt_thecrossant_black,567094,,black_plus_sign,,,,null,,,1,0.974025974025974,,,,,,,,,,,,,,
null,,color_black,567198,,black_plus_sign,,,,null,,,,,,,,,,,,,,,,,,
null,,learn_phase(without_color),570211,,black_plus_sign,,,,null,GW/soldier.jpg,GW/gong.jpg,,,,,,,,,,,,,,,,
null,,black_cross(without_color),570633,,green,,,,null,GW/soldier.jpg,GW/gong.jpg,,,,,,,,,,,,,,,,
489.30000019073486,,rt_plussign_withcolor,571141,,green,,,,50,GW/soldier.jpg,GW/gong.jpg,,,,,,,,,,,,,,,,
null,,rt_thecrossant_black,572745,,black_plus_sign,,,,null,,,1,0.9743589743589743,,,,,,,,,,,,,,
null,,color_black,572851,,black_plus_sign,,,,null,,,,,,,,,,,,,,,,,,
null,,learn_phase(without_color),575862,,black_plus_sign,,,,null,GW/paint.jpg,GW/teeth.jpg,,,,,,,,,,,,,,,,
null,,black_cross(without_color),576295,,green,,,,null,GW/paint.jpg,GW/teeth.jpg,,,,,,,,,,,,,,,,
null,,rt_plussign_withcolor,576804,,green,,,,null,GW/paint.jpg,GW/teeth.jpg,,,,,,,,,,,,,,,,
602.1000003814697,,rt_thecrossant_black,578398,,black_plus_sign,,,,49,,,0,0.9620253164556962,,,,,,,,,,,,,,
null,,color_black,578511,,black_plus_sign,,,,null,,,,,,,,,,,,,,,,,,
null,,learn_phase(without_color),581514,,black_plus_sign,,,,null,GW/basket.jpg,GW/barrel.jpg,,,,,,,,,,,,,,,,
null,,black_cross(without_color),582251,,blue,,,,null,GW/basket.jpg,GW/barrel.jpg,,,,,,,,,,,,,,,,
null,,rt_plussign_withcolor,582763,,blue,,,,null,GW/basket.jpg,GW/barrel.jpg,,,,,,,,,,,,,,,,
666.8000001907349,,rt_thecrossant_black,584041,,black_plus_sign,,,,49,,,1,0.9625,,,,,,,,,,,,,,
null,,color_black,584150,,black_plus_sign,,,,null,,,,,,,,,,,,,,,,,,
null,,learn_phase(without_color),587153,,black_plus_sign,,,,null,GW/gong.jpg,GW/soldier.jpg,,,,,,,,,,,,,,,,
null,,black_cross(without_color),587982,,blue,,,,null,GW/gong.jpg,GW/soldier.jpg,,,,,,,,,,,,,,,,
null,,rt_plussign_withcolor,588491,,blue,,,,null,GW/gong.jpg,GW/soldier.jpg,,,,,,,,,,,,,,,,
858,,rt_thecrossant_black,589688,,black_plus_sign,,,,49,,,1,0.9629629629629629,,,,,,,,,,,,,,
null,,color_black,589806,,black_plus_sign,,,,null,,,,,,,,,,,,,,,,,,
null,,learn_phase(without_color),592828,,black_plus_sign,,,,null,GW/paint.jpg,GW/teeth.jpg,,,,,,,,,,,,,,,,
null,,black_cross(without_color),593589,,blue,,,,null,GW/paint.jpg,GW/teeth.jpg,,,,,,,,,,,,,,,,
null,,rt_plussign_withcolor,594101,,blue,,,,null,GW/paint.jpg,GW/teeth.jpg,,,,,,,,,,,,,,,,
1027.8999996185303,,rt_thecrossant_black,595353,,black_plus_sign,,,,49,,,1,0.9634146341463414,,,,,,,,,,,,,,
null,,color_black,595460,,black_plus_sign,,,,null,,,,,,,,,,,,,,,,,,
null,,learn_phase(without_color),598474,,black_plus_sign,,,,null,GW/soldier.jpg,GW/gong.jpg,,,,,,,,,,,,,,,,
null,,black_cross(without_color),598955,,blue,,,,null,GW/soldier.jpg,GW/gong.jpg,,,,,,,,,,,,,,,,
null,,rt_plussign_withcolor,599463,,blue,,,,null,GW/soldier.jpg,GW/gong.jpg,,,,,,,,,,,,,,,,
1398.6999998092651,,rt_thecrossant_black,601014,,black_plus_sign,,,,49,,,1,0.963855421686747,,,,,,,,,,,,,,
null,,color_black,601122,,black_plus_sign,,,,null,,,,,,,,,,,,,,,,,,
null,,learn_phase(without_color),604130,,black_plus_sign,,,,null,GW/dustpan.jpg,GW/hat.jpg,,,,,,,,,,,,,,,,
null,,black_cross(without_color),605094,,blue,,,,null,GW/dustpan.jpg,GW/hat.jpg,,,,,,,,,,,,,,,,
485.5999994277954,,rt_plussign_withcolor,605600,,blue,,,,49,GW/dustpan.jpg,GW/hat.jpg,,,,,,,,,,,,,,,,
null,,rt_thecrossant_black,606643,,black_plus_sign,,,,null,,,1,0.9642857142857143,,,,,,,,,,,,,,
null,,color_black,606758,,black_plus_sign,,,,null,,,,,,,,,,,,,,,,,,
null,,learn_phase(without_color),609782,,black_plus_sign,,,,null,GW/teeth.jpg,GW/paint.jpg,,,,,,,,,,,,,,,,
null,,black_cross(without_color),610745,,green,,,,null,GW/teeth.jpg,GW/paint.jpg,,,,,,,,,,,,,,,,
456.3999996185303,,rt_plussign_withcolor,611253,,green,,,,50,GW/teeth.jpg,GW/paint.jpg,,,,,,,,,,,,,,,,
null,,rt_thecrossant_black,612305,,black_plus_sign,,,,null,,,1,0.9647058823529412,,,,,,,,,,,,,,
null,,color_black,612413,,black_plus_sign,,,,null,,,,,,,,,,,,,,,,,,
null,,learn_phase(without_color),615425,,black_plus_sign,,,,null,GW/basket.jpg,GW/barrel.jpg,,,,,,,,,,,,,,,,
null,,black_cross(without_color),616108,,green,,,,null,GW/basket.jpg,GW/barrel.jpg,,,,,,,,,,,,,,,,
478.5,,rt_plussign_withcolor,616612,,green,,,,50,GW/basket.jpg,GW/barrel.jpg,,,,,,,,,,,,,,,,
null,,rt_thecrossant_black,617954,,black_plus_sign,,,,null,,,1,0.9651162790697675,,,,,,,,,,,,,,
null,,color_black,618058,,black_plus_sign,,,,null,,,,,,,,,,,,,,,,,,
null,,learn_phase(without_color),621070,,black_plus_sign,,,,null,GW/hat.jpg,GW/dustpan.jpg,,,,,,,,,,,,,,,,
null,,black_cross(without_color),621938,,blue,,,,null,GW/hat.jpg,GW/dustpan.jpg,,,,,,,,,,,,,,,,
null,,rt_plussign_withcolor,622445,,blue,,,,null,GW/hat.jpg,GW/dustpan.jpg,,,,,,,,,,,,,,,,
917.1000003814697,,rt_thecrossant_black,623605,,black_plus_sign,,,,49,,,1,0.9655172413793104,,,,,,,,,,,,,,
null,,color_black,623707,,black_plus_sign,,,,null,,,,,,,,,,,,,,,,,,
null,,learn_phase(without_color),626714,,black_plus_sign,,,,null,GW/paint.jpg,GW/teeth.jpg,,,,,,,,,,,,,,,,
null,,black_cross(without_color),627581,,blue,,,,null,GW/paint.jpg,GW/teeth.jpg,,,,,,,,,,,,,,,,
null,,rt_plussign_withcolor,628092,,blue,,,,null,GW/paint.jpg,GW/teeth.jpg,,,,,,,,,,,,,,,,
1071.6999998092651,,rt_thecrossant_black,629237,,black_plus_sign,,,,49,,,1,0.9659090909090909,,,,,,,,,,,,,,
null,,color_black,629345,,black_plus_sign,,,,null,,,,,,,,,,,,,,,,,,
null,,learn_phase(without_color),632353,,black_plus_sign,,,,null,GW/basket.jpg,GW/barrel.jpg,,,,,,,,,,,,,,,,
null,,black_cross(without_color),633110,,blue,,,,null,GW/basket.jpg,GW/barrel.jpg,,,,,,,,,,,,,,,,
506.30000019073486,,rt_plussign_withcolor,633620,,blue,,,,49,GW/basket.jpg,GW/barrel.jpg,,,,,,,,,,,,,,,,
null,,rt_thecrossant_black,634890,,black_plus_sign,,,,null,,,1,0.9662921348314607,,,,,,,,,,,,,,
null,,color_black,635003,,black_plus_sign,,,,null,,,,,,,,,,,,,,,,,,
null,,learn_phase(without_color),638011,,black_plus_sign,,,,null,GW/dustpan.jpg,GW/hat.jpg,,,,,,,,,,,,,,,,
null,,black_cross(without_color),638936,,green,,,,null,GW/dustpan.jpg,GW/hat.jpg,,,,,,,,,,,,,,,,
null,,rt_plussign_withcolor,639451,,green,,,,null,GW/dustpan.jpg,GW/hat.jpg,,,,,,,,,,,,,,,,
855.3000001907349,,rt_thecrossant_black,640558,,black_plus_sign,,,,49,,,0,0.9555555555555556,,,,,,,,,,,,,,
null,,color_black,640675,,black_plus_sign,,,,null,,,,,,,,,,,,,,,,,,
null,,learn_phase(without_color),643677,,black_plus_sign,,,,null,GW/paint.jpg,GW/teeth.jpg,,,,,,,,,,,,,,,,
null,,black_cross(without_color),644323,,green,,,,null,GW/paint.jpg,GW/teeth.jpg,,,,,,,,,,,,,,,,
471.30000019073486,,rt_plussign_withcolor,644827,,green,,,,50,GW/paint.jpg,GW/teeth.jpg,,,,,,,,,,,,,,,,
null,,rt_thecrossant_black,646211,,black_plus_sign,,,,null,,,1,0.9560439560439561,,,,,,,,,,,,,,
null,,color_black,646324,,black_plus_sign,,,,null,,,,,,,,,,,,,,,,,,
null,,learn_phase(without_color),649339,,black_plus_sign,,,,null,GW/hat.jpg,GW/dustpan.jpg,,,,,,,,,,,,,,,,
null,,black_cross(without_color),649844,,blue,,,,null,GW/hat.jpg,GW/dustpan.jpg,,,,,,,,,,,,,,,,
null,,rt_plussign_withcolor,650347,,blue,,,,null,GW/hat.jpg,GW/dustpan.jpg,,,,,,,,,,,,,,,,
948.3000001907349,,rt_thecrossant_black,651862,,black_plus_sign,,,,49,,,1,0.9565217391304348,,,,,,,,,,,,,,
null,,color_black,651969,,black_plus_sign,,,,null,,,,,,,,,,,,,,,,,,
null,,learn_phase(without_color),654975,,black_plus_sign,,,,null,GW/soldier.jpg,GW/hat.jpg,,,,,,,,,,,,,,,,
null,,black_cross(without_color),655437,,green,,,,null,GW/soldier.jpg,GW/hat.jpg,,,,,,,,,,,,,,,,
null,,rt_plussign_withcolor,655955,,green,,,,null,GW/soldier.jpg,GW/hat.jpg,,,,,,,,,,,,,,,,
732.9000005722046,,rt_thecrossant_black,657524,,black_plus_sign,,,,50,,,1,0.956989247311828,,,,,,,,,,,,,,
null,,color_black,657636,,black_plus_sign,,,,null,,,,,,,,,,,,,,,,,,
null,,learn_phase(without_color),660649,,black_plus_sign,,,,null,GW/wheelchair.jpg,GW/teeth.jpg,,,,,,,,,,,,,,,,
null,,black_cross(without_color),661344,,blue,,,,null,GW/wheelchair.jpg,GW/teeth.jpg,,,,,,,,,,,,,,,,
null,,rt_plussign_withcolor,661854,,blue,,,,null,GW/wheelchair.jpg,GW/teeth.jpg,,,,,,,,,,,,,,,,
1367,,rt_thecrossant_black,663190,,black_plus_sign,,,,49,,,1,0.9574468085106383,,,,,,,,,,,,,,
null,,color_black,663299,,black_plus_sign,,,,null,,,,,,,,,,,,,,,,,,
null,,learn_phase(without_color),666310,,black_plus_sign,,,,null,GW/paint.jpg,GW/camera.jpg,,,,,,,,,,,,,,,,
null,,black_cross(without_color),666786,,green,,,,null,GW/paint.jpg,GW/camera.jpg,,,,,,,,,,,,,,,,
444.5,,rt_plussign_withcolor,667290,,green,,,,50,GW/paint.jpg,GW/camera.jpg,,,,,,,,,,,,,,,,
null,,rt_thecrossant_black,668831,,black_plus_sign,,,,null,,,1,0.9578947368421052,,,,,,,,,,,,,,
null,,color_black,668950,,black_plus_sign,,,,null,,,,,,,,,,,,,,,,,,
null,,learn_phase(without_color),671960,,black_plus_sign,,,,null,GW/soldier.jpg,GW/hat.jpg,,,,,,,,,,,,,,,,
null,,black_cross(without_color),672933,,green,,,,null,GW/soldier.jpg,GW/hat.jpg,,,,,,,,,,,,,,,,
null,,rt_plussign_withcolor,673447,,green,,,,null,GW/soldier.jpg,GW/hat.jpg,,,,,,,,,,,,,,,,
592.2000007629395,,rt_thecrossant_black,674499,,black_plus_sign,,,,50,,,1,0.9583333333333334,,,,,,,,,,,,,,
null,,color_black,674608,,black_plus_sign,,,,null,,,,,,,,,,,,,,,,,,
null,,learn_phase(without_color),677616,,black_plus_sign,,,,null,GW/camera.jpg,GW/paint.jpg,,,,,,,,,,,,,,,,
null,,black_cross(without_color),678152,,blue,,,,null,GW/camera.jpg,GW/paint.jpg,,,,,,,,,,,,,,,,
null,,rt_plussign_withcolor,678656,,blue,,,,null,GW/camera.jpg,GW/paint.jpg,,,,,,,,,,,,,,,,
1127.1999998092651,,rt_thecrossant_black,680150,,black_plus_sign,,,,49,,,1,0.9587628865979382,,,,,,,,,,,,,,
null,,color_black,680255,,black_plus_sign,,,,null,,,,,,,,,,,,,,,,,,
null,,learn_phase(without_color),683264,,black_plus_sign,,,,null,GW/hat.jpg,GW/soldier.jpg,,,,,,,,,,,,,,,,
null,,black_cross(without_color),683957,,blue,,,,null,GW/hat.jpg,GW/soldier.jpg,,,,,,,,,,,,,,,,
null,,rt_plussign_withcolor,684463,,blue,,,,null,GW/hat.jpg,GW/soldier.jpg,,,,,,,,,,,,,,,,
714.1000003814697,,rt_thecrossant_black,685794,,black_plus_sign,,,,49,,,1,0.9591836734693877,,,,,,,,,,,,,,
null,,color_black,685901,,black_plus_sign,,,,null,,,,,,,,,,,,,,,,,,
null,,learn_phase(without_color),688906,,black_plus_sign,,,,null,GW/jukebox.jpg,GW/basket.jpg,,,,,,,,,,,,,,,,
null,,black_cross(without_color),689952,,green,,,,null,GW/jukebox.jpg,GW/basket.jpg,,,,,,,,,,,,,,,,
null,,rt_plussign_withcolor,690460,,green,,,,null,GW/jukebox.jpg,GW/basket.jpg,,,,,,,,,,,,,,,,
874.2999992370605,,rt_thecrossant_black,691441,,black_plus_sign,,,,50,,,1,0.9595959595959596,,,,,,,,,,,,,,
null,,color_black,691549,,black_plus_sign,,,,null,,,,,,,,,,,,,,,,,,
null,,learn_phase(without_color),694558,,black_plus_sign,,,,null,GW/camera.jpg,GW/paint.jpg,,,,,,,,,,,,,,,,
null,,black_cross(without_color),695288,,green,,,,null,GW/camera.jpg,GW/paint.jpg,,,,,,,,,,,,,,,,
null,,rt_plussign_withcolor,695795,,green,,,,null,GW/camera.jpg,GW/paint.jpg,,,,,,,,,,,,,,,,
1590.1999998092651,,rt_thecrossant_black,697084,,black_plus_sign,,,,50,,,1,0.96,,,,,,,,,,,,,,
null,,color_black,697190,,black_plus_sign,,,,null,,,,,,,,,,,,,,,,,,
null,,learn_phase(without_color),700197,,black_plus_sign,,,,null,GW/soldier.jpg,GW/hat.jpg,,,,,,,,,,,,,,,,
null,,black_cross(without_color),701143,,green,,,,null,GW/soldier.jpg,GW/hat.jpg,,,,,,,,,,,,,,,,
null,,rt_plussign_withcolor,701651,,green,,,,null,GW/soldier.jpg,GW/hat.jpg,,,,,,,,,,,,,,,,
1099.8000001907349,,rt_thecrossant_black,702731,,black_plus_sign,,,,49,,,0,0.9504950495049505,,,,,,,,,,,,,,
null,,color_black,702834,,black_plus_sign,,,,null,,,,,,,,,,,,,,,,,,
null,,learn_phase(without_color),705843,,black_plus_sign,,,,null,GW/basket.jpg,GW/jukebox.jpg,,,,,,,,,,,,,,,,
null,,black_cross(without_color),706407,,green,,,,null,GW/basket.jpg,GW/jukebox.jpg,,,,,,,,,,,,,,,,
null,,rt_plussign_withcolor,706920,,green,,,,null,GW/basket.jpg,GW/jukebox.jpg,,,,,,,,,,,,,,,,
1167,,rt_thecrossant_black,708382,,black_plus_sign,,,,50,,,1,0.9509803921568627,,,,,,,,,,,,,,
null,,color_black,708489,,black_plus_sign,,,,null,,,,,,,,,,,,,,,,,,
null,,learn_phase(without_color),711515,,black_plus_sign,,,,null,GW/paint.jpg,GW/camera.jpg,,,,,,,,,,,,,,,,
null,,black_cross(without_color),712029,,blue,,,,null,GW/paint.jpg,GW/camera.jpg,,,,,,,,,,,,,,,,
405.30000019073486,,rt_plussign_withcolor,712533,,blue,,,,50,GW/paint.jpg,GW/camera.jpg,,,,,,,,,,,,,,,,
null,,rt_thecrossant_black,714040,,black_plus_sign,,,,null,,,0,0.941747572815534,,,,,,,,,,,,,,
null,,color_black,714152,,black_plus_sign,,,,null,,,,,,,,,,,,,,,,,,
null,,learn_phase(without_color),717164,,black_plus_sign,,,,null,GW/jukebox.jpg,GW/basket.jpg,,,,,,,,,,,,,,,,
null,,black_cross(without_color),717760,,blue,,,,null,GW/jukebox.jpg,GW/basket.jpg,,,,,,,,,,,,,,,,
449.80000019073486,,rt_plussign_withcolor,718268,,blue,,,,49,GW/jukebox.jpg,GW/basket.jpg,,,,,,,,,,,,,,,,
null,,rt_thecrossant_black,719684,,black_plus_sign,,,,null,,,1,0.9423076923076923,,,,,,,,,,,,,,
null,,color_black,719791,,black_plus_sign,,,,null,,,,,,,,,,,,,,,,,,
null,,learn_phase(without_color),722804,,black_plus_sign,,,,null,GW/paint.jpg,GW/camera.jpg,,,,,,,,,,,,,,,,
null,,black_cross(without_color),723296,,green,,,,null,GW/paint.jpg,GW/camera.jpg,,,,,,,,,,,,,,,,
466,,rt_plussign_withcolor,723804,,green,,,,50,GW/paint.jpg,GW/camera.jpg,,,,,,,,,,,,,,,,
null,,rt_thecrossant_black,725334,,black_plus_sign,,,,null,,,1,0.9428571428571428,,,,,,,,,,,,,,
null,,color_black,725444,,black_plus_sign,,,,null,,,,,,,,,,,,,,,,,,
null,,learn_phase(without_color),728453,,black_plus_sign,,,,null,GW/teeth.jpg,GW/wheelchair.jpg,,,,,,,,,,,,,,,,
null,,black_cross(without_color),729322,,blue,,,,null,GW/teeth.jpg,GW/wheelchair.jpg,,,,,,,,,,,,,,,,
null,,rt_plussign_withcolor,729825,,blue,,,,null,GW/teeth.jpg,GW/wheelchair.jpg,,,,,,,,,,,,,,,,
850.7000007629395,,rt_thecrossant_black,730976,,black_plus_sign,,,,49,,,1,0.9433962264150944,,,,,,,,,,,,,,
null,,color_black,731079,,black_plus_sign,,,,null,,,,,,,,,,,,,,,,,,
null,,learn_phase(without_color),734086,,black_plus_sign,,,,null,GW/camera.jpg,GW/paint.jpg,,,,,,,,,,,,,,,,
null,,black_cross(without_color),734833,,green,,,,null,GW/camera.jpg,GW/paint.jpg,,,,,,,,,,,,,,,,
null,,rt_plussign_withcolor,735341,,green,,,,null,GW/camera.jpg,GW/paint.jpg,,,,,,,,,,,,,,,,
978.8000001907349,,rt_thecrossant_black,736607,,black_plus_sign,,,,50,,,1,0.9439252336448598,,,,,,,,,,,,,,
null,,color_black,736716,,black_plus_sign,,,,null,,,,,,,,,,,,,,,,,,
null,,learn_phase(without_color),739731,,black_plus_sign,,,,null,GW/jukebox.jpg,GW/basket.jpg,,,,,,,,,,,,,,,,
null,,black_cross(without_color),740444,,blue,,,,null,GW/jukebox.jpg,GW/basket.jpg,,,,,,,,,,,,,,,,
443.80000019073486,,rt_plussign_withcolor,740948,,blue,,,,49,GW/jukebox.jpg,GW/basket.jpg,,,,,,,,,,,,,,,,
null,,rt_thecrossant_black,742264,,black_plus_sign,,,,null,,,1,0.9444444444444444,,,,,,,,,,,,,,
null,,color_black,742370,,black_plus_sign,,,,null,,,,,,,,,,,,,,,,,,
null,,learn_phase(without_color),745381,,black_plus_sign,,,,null,GW/teeth.jpg,GW/wheelchair.jpg,,,,,,,,,,,,,,,,
null,,black_cross(without_color),746232,,green,,,,null,GW/teeth.jpg,GW/wheelchair.jpg,,,,,,,,,,,,,,,,
null,,rt_plussign_withcolor,746742,,green,,,,null,GW/teeth.jpg,GW/wheelchair.jpg,,,,,,,,,,,,,,,,
930.3999996185303,,rt_thecrossant_black,747921,,black_plus_sign,,,,50,,,1,0.944954128440367,,,,,,,,,,,,,,
null,,color_black,748026,,black_plus_sign,,,,null,,,,,,,,,,,,,,,,,,
null,,learn_phase(without_color),751035,,black_plus_sign,,,,null,GW/camera.jpg,GW/paint.jpg,,,,,,,,,,,,,,,,
null,,black_cross(without_color),751772,,green,,,,null,GW/camera.jpg,GW/paint.jpg,,,,,,,,,,,,,,,,
null,,rt_plussign_withcolor,752286,,green,,,,null,GW/camera.jpg,GW/paint.jpg,,,,,,,,,,,,,,,,
1027.1999998092651,,rt_thecrossant_black,753561,,black_plus_sign,,,,50,,,1,0.9454545454545454,,,,,,,,,,,,,,
null,,color_black,753670,,black_plus_sign,,,,null,,,,,,,,,,,,,,,,,,
null,,learn_phase(without_color),756677,,black_plus_sign,,,,null,GW/hat.jpg,GW/soldier.jpg,,,,,,,,,,,,,,,,
null,,black_cross(without_color),757650,,blue,,,,null,GW/hat.jpg,GW/soldier.jpg,,,,,,,,,,,,,,,,
null,,rt_plussign_withcolor,758160,,blue,,,,null,GW/hat.jpg,GW/soldier.jpg,,,,,,,,,,,,,,,,
null,,rt_thecrossant_black,759207,,black_plus_sign,,,,null,,,,0.9454545454545454,,,,,,,,,,,,,,
null,,color_black,759319,,black_plus_sign,,,,null,,,,,,,,,,,,,,,,,,
null,,learn_phase(without_color),762330,,black_plus_sign,,,,null,GW/wheelchair.jpg,GW/teeth.jpg,,,,,,,,,,,,,,,,
null,,black_cross(without_color),763137,,blue,,,,null,GW/wheelchair.jpg,GW/teeth.jpg,,,,,,,,,,,,,,,,
null,,rt_plussign_withcolor,763639,,blue,,,,null,GW/wheelchair.jpg,GW/teeth.jpg,,,,,,,,,,,,,,,,
1215.8999996185303,,rt_thecrossant_black,764849,,black_plus_sign,,,,49,,,1,0.9459459459459459,,,,,,,,,,,,,,
null,,color_black,764962,,black_plus_sign,,,,null,,,,,,,,,,,,,,,,,,
null,,learn_phase(without_color),767973,,black_plus_sign,,,,null,GW/soldier.jpg,GW/hat.jpg,,,,,,,,,,,,,,,,
null,,black_cross(without_color),768938,,green,,,,null,GW/soldier.jpg,GW/hat.jpg,,,,,,,,,,,,,,,,
null,,rt_plussign_withcolor,769449,,green,,,,null,GW/soldier.jpg,GW/hat.jpg,,,,,,,,,,,,,,,,
1184.5,,rt_thecrossant_black,770497,,black_plus_sign,,,,50,,,1,0.9464285714285714,,,,,,,,,,,,,,
null,,color_black,770606,,black_plus_sign,,,,null,,,,,,,,,,,,,,,,,,
null,,learn_phase(without_color),773615,,black_plus_sign,,,,null,GW/jukebox.jpg,GW/basket.jpg,,,,,,,,,,,,,,,,
null,,black_cross(without_color),774377,,blue,,,,null,GW/jukebox.jpg,GW/basket.jpg,,,,,,,,,,,,,,,,
null,,rt_plussign_withcolor,774884,,blue,,,,null,GW/jukebox.jpg,GW/basket.jpg,,,,,,,,,,,,,,,,
1371.3999996185303,,rt_thecrossant_black,776136,,black_plus_sign,,,,49,,,1,0.9469026548672567,,,,,,,,,,,,,,
null,,color_black,776239,,black_plus_sign,,,,null,,,,,,,,,,,,,,,,,,
null,,learn_phase(without_color),779246,,black_plus_sign,,,,null,GW/teeth.jpg,GW/wheelchair.jpg,,,,,,,,,,,,,,,,
null,,black_cross(without_color),780065,,blue,,,,null,GW/teeth.jpg,GW/wheelchair.jpg,,,,,,,,,,,,,,,,
null,,rt_plussign_withcolor,780582,,blue,,,,null,GW/teeth.jpg,GW/wheelchair.jpg,,,,,,,,,,,,,,,,
979,,rt_thecrossant_black,781779,,black_plus_sign,,,,49,,,1,0.9473684210526315,,,,,,,,,,,,,,
null,,color_black,781887,,black_plus_sign,,,,null,,,,,,,,,,,,,,,,,,
null,,learn_phase(without_color),784890,,black_plus_sign,,,,null,GW/hat.jpg,GW/soldier.jpg,,,,,,,,,,,,,,,,
null,,black_cross(without_color),785809,,blue,,,,null,GW/hat.jpg,GW/soldier.jpg,,,,,,,,,,,,,,,,
444.69999980926514,,rt_plussign_withcolor,786312,,blue,,,,49,GW/hat.jpg,GW/soldier.jpg,,,,,,,,,,,,,,,,
null,,rt_thecrossant_black,787415,,black_plus_sign,,,,null,,,1,0.9478260869565217,,,,,,,,,,,,,,
null,,color_black,787519,,black_plus_sign,,,,null,,,,,,,,,,,,,,,,,,
null,,learn_phase(without_color),790523,,black_plus_sign,,,,null,GW/basket.jpg,GW/jukebox.jpg,,,,,,,,,,,,,,,,
null,,black_cross(without_color),791569,,blue,,,,null,GW/basket.jpg,GW/jukebox.jpg,,,,,,,,,,,,,,,,
470.8999996185303,,rt_plussign_withcolor,792071,,blue,,,,49,GW/basket.jpg,GW/jukebox.jpg,,,,,,,,,,,,,,,,
null,,rt_thecrossant_black,793039,,black_plus_sign,,,,null,,,1,0.9482758620689655,,,,,,,,,,,,,,
null,,color_black,793146,,black_plus_sign,,,,null,,,,,,,,,,,,,,,,,,
null,,learn_phase(without_color),796156,,black_plus_sign,,,,null,GW/paint.jpg,GW/camera.jpg,,,,,,,,,,,,,,,,
null,,black_cross(without_color),796711,,green,,,,null,GW/paint.jpg,GW/camera.jpg,,,,,,,,,,,,,,,,
null,,rt_plussign_withcolor,797224,,green,,,,null,GW/paint.jpg,GW/camera.jpg,,,,,,,,,,,,,,,,
1184.4000005722046,,rt_thecrossant_black,798698,,black_plus_sign,,,,50,,,1,0.9487179487179487,,,,,,,,,,,,,,
null,,color_black,798801,,black_plus_sign,,,,null,,,,,,,,,,,,,,,,,,
null,,learn_phase(without_color),801809,,black_plus_sign,,,,null,GW/wheelchair.jpg,GW/teeth.jpg,,,,,,,,,,,,,,,,
null,,black_cross(without_color),802685,,green,,,,null,GW/wheelchair.jpg,GW/teeth.jpg,,,,,,,,,,,,,,,,
null,,rt_plussign_withcolor,803188,,green,,,,null,GW/wheelchair.jpg,GW/teeth.jpg,,,,,,,,,,,,,,,,
843.8999996185303,,rt_thecrossant_black,804338,,black_plus_sign,,,,50,,,1,0.9491525423728814,,,,,,,,,,,,,,
null,,color_black,804445,,black_plus_sign,,,,null,,,,,,,,,,,,,,,,,,
null,,learn_phase(without_color),807449,,black_plus_sign,,,,null,GW/basket.jpg,GW/jukebox.jpg,,,,,,,,,,,,,,,,
null,,black_cross(without_color),808055,,green,,,,null,GW/basket.jpg,GW/jukebox.jpg,,,,,,,,,,,,,,,,
null,,rt_plussign_withcolor,808572,,green,,,,null,GW/basket.jpg,GW/jukebox.jpg,,,,,,,,,,,,,,,,
1147.5,,rt_thecrossant_black,809998,,black_plus_sign,,,,50,,,1,0.9495798319327731,,,,,,,,,,,,,,
null,,color_black,810110,,black_plus_sign,,,,null,,,,,,,,,,,,,,,,,,
null,,learn_phase(without_color),813122,,black_plus_sign,,,,null,GW/hat.jpg,GW/soldier.jpg,,,,,,,,,,,,,,,,
null,,black_cross(without_color),813839,,green,,,,null,GW/hat.jpg,GW/soldier.jpg,,,,,,,,,,,,,,,,
null,,rt_plussign_withcolor,814352,,green,,,,null,GW/hat.jpg,GW/soldier.jpg,,,,,,,,,,,,,,,,
886,,rt_thecrossant_black,815661,,black_plus_sign,,,,50,,,1,0.95,,,,,,,,,,,,,,
null,,color_black,815764,,black_plus_sign,,,,null,,,,,,,,,,,,,,,,,,
null,,learn_phase(without_color),818769,,black_plus_sign,,,,null,GW/teeth.jpg,GW/wheelchair.jpg,,,,,,,,,,,,,,,,
null,,black_cross(without_color),819633,,blue,,,,null,GW/teeth.jpg,GW/wheelchair.jpg,,,,,,,,,,,,,,,,
null,,rt_plussign_withcolor,820141,,blue,,,,null,GW/teeth.jpg,GW/wheelchair.jpg,,,,,,,,,,,,,,,,
870.1000003814697,,rt_thecrossant_black,821285,,black_plus_sign,,,,49,,,1,0.9504132231404959,,,,,,,,,,,,,,
null,,color_black,821392,,black_plus_sign,,,,null,,,,,,,,,,,,,,,,,,
null,,learn_phase(without_color),824402,,black_plus_sign,,,,null,GW/jukebox.jpg,GW/basket.jpg,,,,,,,,,,,,,,,,
null,,black_cross(without_color),824907,,blue,,,,null,GW/jukebox.jpg,GW/basket.jpg,,,,,,,,,,,,,,,,
null,,rt_plussign_withcolor,825420,,blue,,,,null,GW/jukebox.jpg,GW/basket.jpg,,,,,,,,,,,,,,,,
1037.8000001907349,,rt_thecrossant_black,826933,,black_plus_sign,,,,49,,,1,0.9508196721311475,,,,,,,,,,,,,,
null,,color_black,827041,,black_plus_sign,,,,null,,,,,,,,,,,,,,,,,,
null,,learn_phase(without_color),830051,,black_plus_sign,,,,null,GW/wheelchair.jpg,GW/teeth.jpg,,,,,,,,,,,,,,,,
null,,black_cross(without_color),830964,,green,,,,null,GW/wheelchair.jpg,GW/teeth.jpg,,,,,,,,,,,,,,,,
468,,rt_plussign_withcolor,831469,,green,,,,50,GW/wheelchair.jpg,GW/teeth.jpg,,,,,,,,,,,,,,,,
null,,rt_thecrossant_black,832586,,black_plus_sign,,,,null,,,1,0.9512195121951219,,,,,,,,,,,,,,
null,,color_black,832696,,black_plus_sign,,,,null,,,,,,,,,,,,,,,,,,
11290.10000038147,,intro_1,843989,,instruct,,0,Start,,,,,,,,,,,,,,,,,,,
2020.0999994277954,,directmemory_phase,846014,,GW/dustpan.jpg,,,,49,,,1,1,GW/hat.jpg,GW/teeth.jpg,GW/wheelchair.jpg,GW/hat.jpg,GW/wheelchair.jpg,GW/teeth.jpg,1,,,,,,,
null,,html-keyboard-response,847019,,<p></p>,,,,null,,,,,,,,,,,,,,,,,,
1890.6000003814697,,directmemory_phase,848912,,GW/camera.jpg,,,,51,,,1,1,GW/gong.jpg,GW/soldier.jpg,GW/paint.jpg,GW/paint.jpg,GW/soldier.jpg,GW/gong.jpg,1,,,,,,,
null,,html-keyboard-response,849919,,<p></p>,,,,null,,,,,,,,,,,,,,,,,,
1366.9000005722046,,directmemory_phase,851287,,GW/soldier.jpg,,,,51,,,1,1,GW/barrel.jpg,GW/wheelchair.jpg,GW/gong.jpg,GW/gong.jpg,GW/wheelchair.jpg,GW/barrel.jpg,1,,,,,,,
null,,html-keyboard-response,852296,,<p></p>,,,,null,,,,,,,,,,,,,,,,,,
1457.5999994277954,,directmemory_phase,853755,,GW/paint.jpg,,,,49,,,1,1,GW/camera.jpg,GW/dustpan.jpg,GW/snail.jpg,GW/camera.jpg,GW/snail.jpg,GW/dustpan.jpg,1,,,,,,,
null,,html-keyboard-response,854759,,<p></p>,,,,null,,,,,,,,,,,,,,,,,,
1458.5,,directmemory_phase,856220,,GW/basket.jpg,,,,50,,,1,1,GW/globe.jpg,GW/teeth.jpg,GW/dustpan.jpg,GW/teeth.jpg,GW/globe.jpg,GW/dustpan.jpg,1,,,,,,,
null,,html-keyboard-response,857225,,<p></p>,,,,null,,,,,,,,,,,,,,,,,,
914.3000001907349,,directmemory_phase,858140,,GW/camera.jpg,,,,51,,,1,1,GW/gong.jpg,GW/basket.jpg,GW/wheelchair.jpg,GW/wheelchair.jpg,GW/basket.jpg,GW/gong.jpg,1,,,,,,,
null,,html-keyboard-response,859149,,<p></p>,,,,null,,,,,,,,,,,,,,,,,,
null,,directmemory_phase,865661,,GW/teeth.jpg,,,,null,,,0,0.8571428571428571,GW/gong.jpg,GW/hat.jpg,GW/paint.jpg,GW/paint.jpg,GW/hat.jpg,GW/gong.jpg,0,,,,,,,
null,,html-keyboard-response,866671,,<p></p>,,,,null,,,,,,,,,,,,,,,,,,
1763,,directmemory_phase,868435,,GW/hat.jpg,,,,51,,,1,0.875,GW/barrel.jpg,GW/gong.jpg,GW/dustpan.jpg,GW/dustpan.jpg,GW/gong.jpg,GW/barrel.jpg,1,,,,,,,
null,,html-keyboard-response,869443,,<p></p>,,,,null,,,,,,,,,,,,,,,,,,
1891.6000003814697,,directmemory_phase,871336,,GW/wheelchair.jpg,,,,51,,,1,0.8888888888888888,GW/globe.jpg,GW/soldier.jpg,GW/teeth.jpg,GW/teeth.jpg,GW/soldier.jpg,GW/globe.jpg,1,,,,,,,
null,,html-keyboard-response,872343,,<p></p>,,,,null,,,,,,,,,,,,,,,,,,
2928.800000190735,,directmemory_phase,875274,,GW/basket.jpg,,,,51,,,1,0.9,GW/snail.jpg,GW/globe.jpg,GW/paint.jpg,GW/paint.jpg,GW/globe.jpg,GW/snail.jpg,1,,,,,,,
null,,html-keyboard-response,876291,,<p></p>,,,,null,,,,,,,,,,,,,,,,,,
4154.300000190735,,directmemory_phase,880447,,GW/wheelchair.jpg,,,,49,,,1,0.9090909090909091,GW/hat.jpg,GW/barrel.jpg,GW/basket.jpg,GW/hat.jpg,GW/basket.jpg,GW/barrel.jpg,1,,,,,,,
null,,html-keyboard-response,881452,,<p></p>,,,,null,,,,,,,,,,,,,,,,,,
3681.699999809265,,directmemory_phase,885134,,GW/basket.jpg,,,,50,,,1,0.9166666666666666,GW/camera.jpg,GW/barrel.jpg,GW/dustpan.jpg,GW/barrel.jpg,GW/camera.jpg,GW/dustpan.jpg,1,,,,,,,
null,,html-keyboard-response,886142,,<p></p>,,,,null,,,,,,,,,,,,,,,,,,
1024.5,,directmemory_phase,887168,,GW/snail.jpg,,,,49,,,1,0.9230769230769231,GW/camera.jpg,GW/jukebox.jpg,GW/wheelchair.jpg,GW/camera.jpg,GW/wheelchair.jpg,GW/jukebox.jpg,1,,,,,,,
null,,html-keyboard-response,888179,,<p></p>,,,,null,,,,,,,,,,,,,,,,,,
1809.8999996185303,,directmemory_phase,889991,,GW/hat.jpg,,,,50,,,1,0.9285714285714286,GW/teeth.jpg,GW/wheelchair.jpg,GW/jukebox.jpg,GW/wheelchair.jpg,GW/teeth.jpg,GW/jukebox.jpg,1,,,,,,,
null,,html-keyboard-response,891001,,<p></p>,,,,null,,,,,,,,,,,,,,,,,,
1580.6000003814697,,directmemory_phase,892583,,GW/basket.jpg,,,,50,,,1,0.9333333333333333,GW/globe.jpg,GW/jukebox.jpg,GW/soldier.jpg,GW/jukebox.jpg,GW/globe.jpg,GW/soldier.jpg,1,,,,,,,
null,,html-keyboard-response,893599,,<p></p>,,,,null,,,,,,,,,,,,,,,,,,
2209.0999994277954,,directmemory_phase,895811,,GW/soldier.jpg,,,,51,,,1,0.9375,GW/barrel.jpg,GW/dustpan.jpg,GW/hat.jpg,GW/hat.jpg,GW/dustpan.jpg,GW/barrel.jpg,1,,,,,,,
null,,html-keyboard-response,896832,,<p></p>,,,,null,,,,,,,,,,,,,,,,,,
1347.2000007629395,,directmemory_phase,898181,,GW/barrel.jpg,,,,50,,,1,0.9411764705882353,GW/camera.jpg,GW/basket.jpg,GW/snail.jpg,GW/basket.jpg,GW/camera.jpg,GW/snail.jpg,1,,,,,,,
null,,html-keyboard-response,899188,,<p></p>,,,,null,,,,,,,,,,,,,,,,,,
1187.1000003814697,,directmemory_phase,900377,,GW/gong.jpg,,,,51,,,1,0.9444444444444444,GW/wheelchair.jpg,GW/hat.jpg,GW/soldier.jpg,GW/soldier.jpg,GW/hat.jpg,GW/wheelchair.jpg,1,,,,,,,
null,,html-keyboard-response,901384,,<p></p>,,,,null,,,,,,,,,,,,,,,,,,
1169.5,,directmemory_phase,902555,,GW/camera.jpg,,,,51,,,1,0.9473684210526315,GW/gong.jpg,GW/basket.jpg,GW/snail.jpg,GW/snail.jpg,GW/basket.jpg,GW/gong.jpg,1,,,,,,,
null,,html-keyboard-response,903562,,<p></p>,,,,null,,,,,,,,,,,,,,,,,,
1922.6000003814697,,directmemory_phase,905486,,GW/hat.jpg,,,,51,,,1,0.95,GW/paint.jpg,GW/camera.jpg,GW/soldier.jpg,GW/soldier.jpg,GW/camera.jpg,GW/paint.jpg,1,,,,,,,
null,,html-keyboard-response,906491,,<p></p>,,,,null,,,,,,,,,,,,,,,,,,
2327.800000190735,,directmemory_phase,908820,,GW/paint.jpg,,,,51,,,1,0.9523809523809523,GW/gong.jpg,GW/snail.jpg,GW/barrel.jpg,GW/barrel.jpg,GW/snail.jpg,GW/gong.jpg,1,,,,,,,
null,,html-keyboard-response,909828,,<p></p>,,,,null,,,,,,,,,,,,,,,,,,
1922.6999998092651,,directmemory_phase,911752,,GW/snail.jpg,,,,51,,,1,0.9545454545454546,GW/globe.jpg,GW/paint.jpg,GW/soldier.jpg,GW/soldier.jpg,GW/paint.jpg,GW/globe.jpg,1,,,,,,,
null,,html-keyboard-response,912760,,<p></p>,,,,null,,,,,,,,,,,,,,,,,,
1000.6000003814697,,directmemory_phase,913762,,GW/teeth.jpg,,,,50,,,1,0.9565217391304348,GW/jukebox.jpg,GW/wheelchair.jpg,GW/soldier.jpg,GW/wheelchair.jpg,GW/jukebox.jpg,GW/soldier.jpg,1,,,,,,,
null,,html-keyboard-response,914767,,<p></p>,,,,null,,,,,,,,,,,,,,,,,,
2000.3000001907349,,directmemory_phase,916769,,GW/soldier.jpg,,,,51,,,1,0.9583333333333334,GW/basket.jpg,GW/dustpan.jpg,GW/snail.jpg,GW/snail.jpg,GW/dustpan.jpg,GW/basket.jpg,1,,,,,,,
null,,html-keyboard-response,917777,,<p></p>,,,,null,,,,,,,,,,,,,,,,,,
3327.3999996185303,,directmemory_phase,921106,,GW/wheelchair.jpg,,,,51,,,1,0.96,GW/barrel.jpg,GW/paint.jpg,GW/camera.jpg,GW/camera.jpg,GW/paint.jpg,GW/barrel.jpg,1,,,,,,,
null,,html-keyboard-response,922115,,<p></p>,,,,null,,,,,,,,,,,,,,,,,,
1734.6999998092651,,directmemory_phase,923852,,GW/globe.jpg,,,,51,,,1,0.9615384615384616,GW/jukebox.jpg,GW/basket.jpg,GW/barrel.jpg,GW/barrel.jpg,GW/basket.jpg,GW/jukebox.jpg,1,,,,,,,
null,,html-keyboard-response,924856,,<p></p>,,,,null,,,,,,,,,,,,,,,,,,
3988.4000005722046,,directmemory_phase,928846,,GW/paint.jpg,,,,50,,,1,0.9629629629629629,GW/wheelchair.jpg,GW/teeth.jpg,GW/hat.jpg,GW/teeth.jpg,GW/wheelchair.jpg,GW/hat.jpg,1,,,,,,,
null,,html-keyboard-response,929861,,<p></p>,,,,null,,,,,,,,,,,,,,,,,,
4427.700000762939,,directmemory_phase,934290,,GW/jukebox.jpg,,,,51,,,1,0.9642857142857143,GW/camera.jpg,GW/barrel.jpg,GW/basket.jpg,GW/basket.jpg,GW/barrel.jpg,GW/camera.jpg,1,,,,,,,
null,,html-keyboard-response,935301,,<p></p>,,,,null,,,,,,,,,,,,,,,,,,
3334.5999994277954,,directmemory_phase,938637,,GW/barrel.jpg,,,,49,,,1,0.9655172413793104,GW/paint.jpg,GW/soldier.jpg,GW/camera.jpg,GW/paint.jpg,GW/camera.jpg,GW/soldier.jpg,1,,,,,,,
null,,html-keyboard-response,939651,,<p></p>,,,,null,,,,,,,,,,,,,,,,,,
2752.8999996185303,,directmemory_phase,942405,,GW/teeth.jpg,,,,49,,,1,0.9666666666666667,GW/basket.jpg,GW/snail.jpg,GW/barrel.jpg,GW/basket.jpg,GW/barrel.jpg,GW/snail.jpg,1,,,,,,,
null,,html-keyboard-response,943411,,<p></p>,,,,null,,,,,,,,,,,,,,,,,,
4648.599999427795,,directmemory_phase,948061,,GW/barrel.jpg,,,,50,,,1,0.967741935483871,GW/jukebox.jpg,GW/globe.jpg,GW/soldier.jpg,GW/globe.jpg,GW/jukebox.jpg,GW/soldier.jpg,1,,,,,,,
null,,html-keyboard-response,949067,,<p></p>,,,,null,,,,,,,,,,,,,,,,,,
2854.300000190735,,directmemory_phase,951923,,GW/paint.jpg,,,,51,,,1,0.96875,GW/dustpan.jpg,GW/globe.jpg,GW/basket.jpg,GW/basket.jpg,GW/globe.jpg,GW/dustpan.jpg,1,,,,,,,
null,,html-keyboard-response,952932,,<p></p>,,,,null,,,,,,,,,,,,,,,,,,
8593.699999809265,,intro_1,961527,,instruct,,0,,,,,,,,,,,,,,,,,,,,
4258.800000190735,,intro_2,965788,,instruct,,1,Next,,,,,,,,,,,,,,,,,,,
1818.6999998092651,,intro_3,967609,,instruct,,1,Next,,,,,,,,,,,,,,,,,,,
3702.2000007629395,,intro_4,971313,,instruct,,1,Next,,,,,,,,,,,,,,,,,,,
7518.800000190735,,intro_5,978835,,instruct,,1,Next,,,,,,,,,,,,,,,,,,,
11181.099999427795,,intro_6,990019,,instruct,,1,Next,,,,,,,,,,,,,,,,,,,
7218.5,,intro_7,997239,,instruct,,1,Next,,,,,,,,,,,,,,,,,,,
13172.300000190735,,intro_8,1010414,,instruct,,1,Next,,,,,,,,,,,,,,,,,,,
3437.6000003814697,,shortestpath_phase,1013855,,GW/hat.jpg,,,,49,GW/camera.jpg,GW/globe.jpg,1,1,,,,GW/camera.jpg,,,,Two Edge Diff,Four Edge Six Edge,,,,,
null,,html-keyboard-response,1014862,,<p></p>,,,,null,,,,,,,,,,,,,,,,,,
4372.199999809265,,shortestpath_phase,1019237,,GW/barrel.jpg,,,,50,GW/dustpan.jpg,GW/jukebox.jpg,1,1,,,,GW/jukebox.jpg,,,,Two Edge Diff,Three Edge Five Edge,,,,,
null,,html-keyboard-response,1020239,,<p></p>,,,,null,,,,,,,,,,,,,,,,,,
4993.10000038147,,shortestpath_phase,1025234,,GW/paint.jpg,,,,50,GW/dustpan.jpg,GW/hat.jpg,1,1,,,,GW/hat.jpg,,,,One Edge Diff,Three Edge Four Edge,,,,,
null,,html-keyboard-response,1026246,,<p></p>,,,,null,,,,,,,,,,,,,,,,,,
4502.199999809265,,shortestpath_phase,1030750,,GW/barrel.jpg,,,,49,GW/dustpan.jpg,GW/teeth.jpg,0,0.75,,,,GW/teeth.jpg,,,,Two Edge Diff,Three Edge Five Edge,,,,,
null,,html-keyboard-response,1031767,,<p></p>,,,,null,,,,,,,,,,,,,,,,,,
6229.5,,shortestpath_phase,1037998,,GW/hat.jpg,,,,49,GW/snail.jpg,GW/globe.jpg,1,0.8,,,,GW/snail.jpg,,,,Two Edge Diff,Three Edge Five Edge,,,,,
null,,html-keyboard-response,1039004,,<p></p>,,,,null,,,,,,,,,,,,,,,,,,
3055.9000005722046,,shortestpath_phase,1042061,,GW/jukebox.jpg,,,,50,GW/soldier.jpg,GW/teeth.jpg,1,0.8333333333333334,,,,GW/teeth.jpg,,,,Two Edge Diff,Two Edge Four Edge,,,,,
null,,html-keyboard-response,1043066,,<p></p>,,,,null,,,,,,,,,,,,,,,,,,
3224.2999992370605,,shortestpath_phase,1046293,,GW/hat.jpg,,,,49,GW/barrel.jpg,GW/globe.jpg,1,0.8571428571428571,,,,GW/barrel.jpg,,,,One Edge Diff,Four Edge Five Edge,,,,,
null,,html-keyboard-response,1047296,,<p></p>,,,,null,,,,,,,,,,,,,,,,,,
null,,shortestpath_phase,1054800,,GW/basket.jpg,,,,null,GW/dustpan.jpg,GW/snail.jpg,0,0.75,,,,GW/snail.jpg,,,,One Edge Diff,Three Edge Four Edge,,,,,
null,,html-keyboard-response,1055818,,<p></p>,,,,null,,,,,,,,,,,,,,,,,,
5352.5,,shortestpath_phase,1061172,,GW/gong.jpg,,,,50,GW/jukebox.jpg,GW/paint.jpg,1,0.7777777777777778,,,,GW/paint.jpg,,,,One Edge Diff,Five Edge Six Edge,,,,,
null,,html-keyboard-response,1062188,,<p></p>,,,,null,,,,,,,,,,,,,,,,,,
2211.300000190735,,shortestpath_phase,1064401,,GW/jukebox.jpg,,,,50,GW/soldier.jpg,GW/barrel.jpg,1,0.8,,,,GW/barrel.jpg,,,,Two Edge Diff,Two Edge Four Edge,,,,,
null,,html-keyboard-response,1065410,,<p></p>,,,,null,,,,,,,,,,,,,,,,,,
2672.5999994277954,,shortestpath_phase,1068085,,GW/paint.jpg,,,,50,GW/globe.jpg,GW/hat.jpg,0,0.7272727272727273,,,,GW/globe.jpg,,,,One Edge Diff,Two Edge Three Edge,,,,,
null,,html-keyboard-response,1069091,,<p></p>,,,,null,,,,,,,,,,,,,,,,,,
6164.400000572205,,shortestpath_phase,1075257,,GW/gong.jpg,,,,49,GW/teeth.jpg,GW/globe.jpg,1,0.75,,,,GW/teeth.jpg,,,,One Edge Diff,Five Edge Six Edge,,,,,
null,,html-keyboard-response,1076263,,<p></p>,,,,null,,,,,,,,,,,,,,,,,,
3388.2000007629395,,shortestpath_phase,1079653,,GW/dustpan.jpg,,,,50,GW/globe.jpg,GW/barrel.jpg,1,0.7692307692307693,,,,GW/barrel.jpg,,,,One Edge Diff,Five Edge Six Edge,,,,,
null,,html-keyboard-response,1080670,,<p></p>,,,,null,,,,,,,,,,,,,,,,,,
3703,,shortestpath_phase,1084375,,GW/jukebox.jpg,,,,50,GW/gong.jpg,GW/teeth.jpg,1,0.7857142857142857,,,,GW/teeth.jpg,,,,Two Edge Diff,Four Edge Six Edge,,,,,
null,,html-keyboard-response,1085382,,<p></p>,,,,null,,,,,,,,,,,,,,,,,,
null,,shortestpath_phase,1092893,,GW/wheelchair.jpg,,,,null,GW/basket.jpg,GW/jukebox.jpg,0,0.7333333333333333,,,,GW/basket.jpg,,,,One Edge Diff,Two Edge Three Edge,,,,,
null,,html-keyboard-response,1093912,,<p></p>,,,,null,,,,,,,,,,,,,,,,,,
3617.699999809265,,shortestpath_phase,1097531,,GW/dustpan.jpg,,,,49,GW/jukebox.jpg,GW/globe.jpg,1,0.75,,,,GW/jukebox.jpg,,,,One Edge Diff,Five Edge Six Edge,,,,,
null,,html-keyboard-response,1098538,,<p></p>,,,,null,,,,,,,,,,,,,,,,,,
5629.800000190735,,shortestpath_phase,1104169,,GW/gong.jpg,,,,50,GW/basket.jpg,GW/hat.jpg,1,0.7647058823529411,,,,GW/hat.jpg,,,,Two Edge Diff,Two Edge Four Edge,,,,,
null,,html-keyboard-response,1105176,,<p></p>,,,,null,,,,,,,,,,,,,,,,,,
3706.2000007629395,,shortestpath_phase,1108885,,GW/dustpan.jpg,,,,49,GW/snail.jpg,GW/basket.jpg,1,0.7777777777777778,,,,GW/snail.jpg,,,,One Edge Diff,Three Edge Four Edge,,,,,
null,,html-keyboard-response,1109898,,<p></p>,,,,null,,,,,,,,,,,,,,,,,,
5125.199999809265,,shortestpath_phase,1115025,,GW/hat.jpg,,,,49,GW/basket.jpg,GW/globe.jpg,1,0.7894736842105263,,,,GW/basket.jpg,,,,One Edge Diff,Five Edge Six Edge,,,,,
null,,html-keyboard-response,1116044,,<p></p>,,,,null,,,,,,,,,,,,,,,,,,
4030.1000003814697,,shortestpath_phase,1120076,,GW/barrel.jpg,,,,49,GW/snail.jpg,GW/gong.jpg,1,0.8,,,,GW/snail.jpg,,,,One Edge Diff,Five Edge Six Edge,,,,,
null,,html-keyboard-response,1121087,,<p></p>,,,,null,,,,,,,,,,,,,,,,,,
6742,,shortestpath_phase,1127830,,GW/hat.jpg,,,,50,GW/globe.jpg,GW/camera.jpg,1,0.8095238095238095,,,,GW/camera.jpg,,,,Two Edge Diff,Two Edge Four Edge,,,,,
null,,html-keyboard-response,1128842,,<p></p>,,,,null,,,,,,,,,,,,,,,,,,
4781.799999237061,,shortestpath_phase,1133626,,GW/dustpan.jpg,,,,49,GW/teeth.jpg,GW/barrel.jpg,1,0.8181818181818182,,,,GW/teeth.jpg,,,,One Edge Diff,Five Edge Six Edge,,,,,
null,,html-keyboard-response,1134632,,<p></p>,,,,null,,,,,,,,,,,,,,,,,,
6803.60000038147,,shortestpath_phase,1141437,,GW/jukebox.jpg,,,,49,GW/snail.jpg,GW/gong.jpg,1,0.8260869565217391,,,,GW/snail.jpg,,,,One Edge Diff,Five Edge Six Edge,,,,,
null,,html-keyboard-response,1142445,,<p></p>,,,,null,,,,,,,,,,,,,,,,,,
6595.5,,shortestpath_phase,1149042,,GW/paint.jpg,,,,50,GW/soldier.jpg,GW/dustpan.jpg,0,0.7916666666666666,,,,GW/soldier.jpg,,,,One Edge Diff,Three Edge Four Edge,,,,,
null,,html-keyboard-response,1150050,,<p></p>,,,,null,,,,,,,,,,,,,,,,,,
2220.699999809265,,shortestpath_phase,1152272,,GW/jukebox.jpg,,,,50,GW/globe.jpg,GW/soldier.jpg,0,0.76,,,,GW/globe.jpg,,,,One Edge Diff,Five Edge Six Edge,,,,,
null,,html-keyboard-response,1153277,,<p></p>,,,,null,,,,,,,,,,,,,,,,,,
2978.4000005722046,,shortestpath_phase,1156257,,GW/gong.jpg,,,,50,GW/snail.jpg,GW/jukebox.jpg,0,0.7307692307692307,,,,GW/snail.jpg,,,,Two Edge Diff,Four Edge Six Edge,,,,,
null,,html-keyboard-response,1157265,,<p></p>,,,,null,,,,,,,,,,,,,,,,,,
null,,shortestpath_phase,1164768,,GW/globe.jpg,,,,null,GW/dustpan.jpg,GW/soldier.jpg,0,0.7037037037037037,,,,GW/soldier.jpg,,,,One Edge Diff,Five Edge Six Edge,,,,,
null,,html-keyboard-response,1165780,,<p></p>,,,,null,,,,,,,,,,,,,,,,,,
2932.6000003814697,,shortestpath_phase,1168714,,GW/gong.jpg,,,,49,GW/paint.jpg,GW/globe.jpg,1,0.7142857142857143,,,,GW/paint.jpg,,,,One Edge Diff,Five Edge Six Edge,,,,,
null,,html-keyboard-response,1169730,,<p></p>,,,,null,,,,,,,,,,,,,,,,,,
975.1000003814697,,shortestpath_phase,1170707,,GW/basket.jpg,,,,49,GW/dustpan.jpg,GW/globe.jpg,0,0.6896551724137931,,,,GW/globe.jpg,,,,One Edge Diff,Five Edge Six Edge,,,,,
null,,html-keyboard-response,1171726,,<p></p>,,,,null,,,,,,,,,,,,,,,,,,
6911.200000762939,,shortestpath_phase,1178639,,GW/gong.jpg,,,,49,GW/dustpan.jpg,GW/basket.jpg,1,0.7,,,,GW/dustpan.jpg,,,,One Edge Diff,Five Edge Six Edge,,,,,
null,,html-keyboard-response,1179645,,<p></p>,,,,null,,,,,,,,,,,,,,,,,,
4341.300000190735,,shortestpath_phase,1183988,,GW/teeth.jpg,,,,50,GW/soldier.jpg,GW/jukebox.jpg,1,0.7096774193548387,,,,GW/jukebox.jpg,,,,One Edge Diff,Two Edge Three Edge,,,,,
null,,html-keyboard-response,1184999,,<p></p>,,,,null,,,,,,,,,,,,,,,,,,
4262.60000038147,,shortestpath_phase,1189264,,GW/gong.jpg,,,,50,GW/jukebox.jpg,GW/hat.jpg,1,0.71875,,,,GW/hat.jpg,,,,Two Edge Diff,Four Edge Six Edge,,,,,
null,,html-keyboard-response,1190270,,<p></p>,,,,null,,,,,,,,,,,,,,,,,,
5645.199999809265,,shortestpath_phase,1195917,,GW/soldier.jpg,,,,49,GW/paint.jpg,GW/barrel.jpg,1,0.7272727272727273,,,,GW/paint.jpg,,,,One Edge Diff,Three Edge Four Edge,,,,,
null,,html-keyboard-response,1196927,,<p></p>,,,,null,,,,,,,,,,,,,,,,,,
5916.89999961853,,shortestpath_phase,1202846,,GW/basket.jpg,,,,49,GW/globe.jpg,GW/soldier.jpg,1,0.7352941176470589,,,,GW/globe.jpg,,,,One Edge Diff,Five Edge Six Edge,,,,,
null,,html-keyboard-response,1203855,,<p></p>,,,,null,,,,,,,,,,,,,,,,,,
3324.6000003814697,,shortestpath_phase,1207181,,GW/paint.jpg,,,,50,GW/dustpan.jpg,GW/jukebox.jpg,1,0.7428571428571429,,,,GW/jukebox.jpg,,,,One Edge Diff,Five Edge Six Edge,,,,,
null,,html-keyboard-response,1208194,,<p></p>,,,,null,,,,,,,,,,,,,,,,,,
1304.3000001907349,,shortestpath_phase,1209500,,GW/gong.jpg,,,,50,GW/globe.jpg,GW/snail.jpg,1,0.75,,,,GW/snail.jpg,,,,Two Edge Diff,Four Edge Six Edge,,,,,
null,,html-keyboard-response,1210508,,<p></p>,,,,null,,,,,,,,,,,,,,,,,,
4488,,shortestpath_phase,1214998,,GW/globe.jpg,,,,49,GW/paint.jpg,GW/teeth.jpg,1,0.7567567567567568,,,,GW/paint.jpg,,,,One Edge Diff,Two Edge Three Edge,,,,,
null,,html-keyboard-response,1216006,,<p></p>,,,,null,,,,,,,,,,,,,,,,,,
1895,,shortestpath_phase,1217903,,GW/dustpan.jpg,,,,49,GW/soldier.jpg,GW/globe.jpg,1,0.7631578947368421,,,,GW/soldier.jpg,,,,Two Edge Diff,Four Edge Six Edge,,,,,
null,,html-keyboard-response,1218916,,<p></p>,,,,null,,,,,,,,,,,,,,,,,,
2315.5,,shortestpath_phase,1221233,,GW/jukebox.jpg,,,,50,GW/dustpan.jpg,GW/paint.jpg,1,0.7692307692307693,,,,GW/paint.jpg,,,,Two Edge Diff,Three Edge Five Edge,,,,,
null,,html-keyboard-response,1222245,,<p></p>,,,,null,,,,,,,,,,,,,,,,,,
1769.6999998092651,,shortestpath_phase,1224016,,GW/snail.jpg,,,,50,GW/globe.jpg,GW/hat.jpg,1,0.775,,,,GW/hat.jpg,,,,One Edge Diff,Five Edge Six Edge,,,,,
null,,html-keyboard-response,1225021,,<p></p>,,,,null,,,,,,,,,,,,,,,,,,
3727.699999809265,,shortestpath_phase,1228750,,GW/paint.jpg,,,,49,GW/globe.jpg,GW/dustpan.jpg,1,0.7804878048780488,,,,GW/globe.jpg,,,,One Edge Diff,Five Edge Six Edge,,,,,
null,,html-keyboard-response,1229760,,<p></p>,,,,null,,,,,,,,,,,,,,,,,,
6080,,shortestpath_phase,1235842,,GW/barrel.jpg,,,,50,GW/camera.jpg,GW/dustpan.jpg,0,0.7619047619047619,,,,GW/camera.jpg,,,,Two Edge Diff,Four Edge Six Edge,,,,,
null,,html-keyboard-response,1236851,,<p></p>,,,,null,,,,,,,,,,,,,,,,,,
2743.699999809265,,shortestpath_phase,1239597,,GW/dustpan.jpg,,,,49,GW/soldier.jpg,GW/jukebox.jpg,1,0.7674418604651163,,,,GW/soldier.jpg,,,,Two Edge Diff,Four Edge Six Edge,,,,,
null,,html-keyboard-response,1240606,,<p></p>,,,,null,,,,,,,,,,,,,,,,,,
1544.3999996185303,,shortestpath_phase,1242151,,GW/globe.jpg,,,,49,GW/basket.jpg,GW/dustpan.jpg,1,0.7727272727272727,,,,GW/basket.jpg,,,,Two Edge Diff,Four Edge Six Edge,,,,,
null,,html-keyboard-response,1243157,,<p></p>,,,,null,,,,,,,,,,,,,,,,,,
2145.699999809265,,shortestpath_phase,1245305,,GW/jukebox.jpg,,,,49,GW/barrel.jpg,GW/soldier.jpg,1,0.7777777777777778,,,,GW/barrel.jpg,,,,Two Edge Diff,Four Edge Six Edge,,,,,
null,,html-keyboard-response,1246311,,<p></p>,,,,null,,,,,,,,,,,,,,,,,,
4677,,shortestpath_phase,1250990,,GW/gong.jpg,,,,50,GW/basket.jpg,GW/teeth.jpg,1,0.782608695652174,,,,GW/teeth.jpg,,,,One Edge Diff,Four Edge Five Edge,,,,,
null,,html-keyboard-response,1252005,,<p></p>,,,,null,,,,,,,,,,,,,,,,,,
4676,,shortestpath_phase,1256683,,GW/globe.jpg,,,,50,GW/wheelchair.jpg,GW/dustpan.jpg,0,0.7659574468085106,,,,GW/wheelchair.jpg,,,,One Edge Diff,Five Edge Six Edge,,,,,
null,,html-keyboard-response,1257692,,<p></p>,,,,null,,,,,,,,,,,,,,,,,,
null,,shortestpath_phase,1265197,,GW/hat.jpg,,,,null,GW/jukebox.jpg,GW/gong.jpg,0,0.75,,,,GW/gong.jpg,,,,One Edge Diff,Five Edge Six Edge,,,,,
null,,html-keyboard-response,1266207,,<p></p>,,,,null,,,,,,,,,,,,,,,,,,
5775,,shortestpath_phase,1271984,,GW/dustpan.jpg,,,,49,GW/wheelchair.jpg,GW/jukebox.jpg,1,0.7551020408163265,,,,GW/wheelchair.jpg,,,,Two Edge Diff,Two Edge Four Edge,,,,,
null,,html-keyboard-response,1272992,,<p></p>,,,,null,,,,,,,,,,,,,,,,,,
2261.0999994277954,,shortestpath_phase,1275256,,GW/globe.jpg,,,,49,GW/paint.jpg,GW/gong.jpg,1,0.76,,,,GW/paint.jpg,,,,Two Edge Diff,Four Edge Six Edge,,,,,
null,,html-keyboard-response,1276266,,<p></p>,,,,null,,,,,,,,,,,,,,,,,,
4632.699999809265,,shortestpath_phase,1280900,,GW/gong.jpg,,,,49,GW/wheelchair.jpg,GW/teeth.jpg,1,0.7647058823529411,,,,GW/wheelchair.jpg,,,,One Edge Diff,Three Edge Four Edge,,,,,
null,,html-keyboard-response,1281908,,<p></p>,,,,null,,,,,,,,,,,,,,,,,,
2094.300000190735,,shortestpath_phase,1284004,,GW/soldier.jpg,,,,50,GW/jukebox.jpg,GW/dustpan.jpg,1,0.7692307692307693,,,,GW/dustpan.jpg,,,,Two Edge Diff,Three Edge Five Edge,,,,,
null,,html-keyboard-response,1285011,,<p></p>,,,,null,,,,,,,,,,,,,,,,,,
1673.5,,shortestpath_phase,1286686,,GW/jukebox.jpg,,,,49,GW/barrel.jpg,GW/dustpan.jpg,1,0.7735849056603774,,,,GW/barrel.jpg,,,,Two Edge Diff,Two Edge Four Edge,,,,,
null,,html-keyboard-response,1287700,,<p></p>,,,,null,,,,,,,,,,,,,,,,,,
1315.6999998092651,,shortestpath_phase,1289017,,GW/hat.jpg,,,,49,GW/snail.jpg,GW/globe.jpg,1,0.7777777777777778,,,,GW/snail.jpg,,,,Two Edge Diff,Four Edge Six Edge,,,,,
null,,html-keyboard-response,1290031,,<p></p>,,,,null,,,,,,,,,,,,,,,,,,
4657.199999809265,,shortestpath_phase,1294690,,GW/gong.jpg,,,,49,GW/teeth.jpg,GW/jukebox.jpg,1,0.7818181818181819,,,,GW/teeth.jpg,,,,One Edge Diff,Five Edge Six Edge,,,,,
null,,html-keyboard-response,1295695,,<p></p>,,,,null,,,,,,,,,,,,,,,,,,
1172.4000005722046,,shortestpath_phase,1296868,,GW/jukebox.jpg,,,,49,GW/barrel.jpg,GW/gong.jpg,1,0.7857142857142857,,,,GW/barrel.jpg,,,,Two Edge Diff,Four Edge Six Edge,,,,,
null,,html-keyboard-response,1297872,,<p></p>,,,,null,,,,,,,,,,,,,,,,,,
5810.799999237061,,shortestpath_phase,1303684,,GW/dustpan.jpg,,,,49,GW/jukebox.jpg,GW/paint.jpg,0,0.7719298245614035,,,,GW/paint.jpg,,,,One Edge Diff,Four Edge Five Edge,,,,,
null,,html-keyboard-response,1304694,,<p></p>,,,,null,,,,,,,,,,,,,,,,,,
5576.5,,shortestpath_phase,1310272,,GW/barrel.jpg,,,,49,GW/camera.jpg,GW/gong.jpg,1,0.7758620689655172,,,,GW/camera.jpg,,,,Two Edge Diff,Two Edge Four Edge,,,,,
null,,html-keyboard-response,1311282,,<p></p>,,,,null,,,,,,,,,,,,,,,,,,
1425.1999998092651,,shortestpath_phase,1312710,,GW/globe.jpg,,,,49,GW/basket.jpg,GW/soldier.jpg,1,0.7796610169491526,,,,GW/basket.jpg,,,,Two Edge Diff,Four Edge Six Edge,,,,,
null,,html-keyboard-response,1313714,,<p></p>,,,,null,,,,,,,,,,,,,,,,,,
5735.699999809265,,shortestpath_phase,1319451,,GW/barrel.jpg,,,,50,GW/soldier.jpg,GW/teeth.jpg,1,0.7833333333333333,,,,GW/teeth.jpg,,,,One Edge Diff,Five Edge Six Edge,,,,,
null,,html-keyboard-response,1320459,,<p></p>,,,,null,,,,,,,,,,,,,,,,,,
3344.699999809265,,shortestpath_phase,1323807,,GW/globe.jpg,,,,49,GW/basket.jpg,GW/gong.jpg,1,0.7868852459016393,,,,GW/basket.jpg,,,,Two Edge Diff,Four Edge Six Edge,,,,,
null,,html-keyboard-response,1324815,,<p></p>,,,,null,,,,,,,,,,,,,,,,,,
3324.8999996185303,,shortestpath_phase,1328141,,GW/dustpan.jpg,,,,49,GW/wheelchair.jpg,GW/globe.jpg,1,0.7903225806451613,,,,GW/wheelchair.jpg,,,,Two Edge Diff,Four Edge Six Edge,,,,,
null,,html-keyboard-response,1329148,,<p></p>,,,,null,,,,,,,,,,,,,,,,,,
6162.300000190735,,shortestpath_phase,1335313,,GW/soldier.jpg,,,,49,GW/paint.jpg,GW/globe.jpg,1,0.7936507936507936,,,,GW/paint.jpg,,,,One Edge Diff,Five Edge Six Edge,,,,,
null,,html-keyboard-response,1336316,,<p></p>,,,,null,,,,,,,,,,,,,,,,,,
2597.1000003814697,,shortestpath_phase,1338915,,GW/jukebox.jpg,,,,49,GW/barrel.jpg,GW/dustpan.jpg,1,0.796875,,,,GW/barrel.jpg,,,,Two Edge Diff,Three Edge Five Edge,,,,,
null,,html-keyboard-response,1339922,,<p></p>,,,,null,,,,,,,,,,,,,,,,,,
4160.89999961853,,shortestpath_phase,1344084,,GW/dustpan.jpg,,,,50,GW/barrel.jpg,GW/paint.jpg,1,0.8,,,,GW/paint.jpg,,,,One Edge Diff,Four Edge Five Edge,,,,,
null,,html-keyboard-response,1345097,,<p></p>,,,,null,,,,,,,,,,,,,,,,,,
5709.60000038147,,shortestpath_phase,1350808,,GW/jukebox.jpg,,,,49,GW/gong.jpg,GW/hat.jpg,0,0.7878787878787878,,,,GW/hat.jpg,,,,One Edge Diff,Five Edge Six Edge,,,,,
null,,html-keyboard-response,1351824,,<p></p>,,,,null,,,,,,,,,,,,,,,,,,
4158.60000038147,,shortestpath_phase,1355985,,GW/globe.jpg,,,,49,GW/teeth.jpg,GW/soldier.jpg,1,0.7910447761194029,,,,GW/teeth.jpg,,,,One Edge Diff,Five Edge Six Edge,,,,,
null,,html-keyboard-response,1356991,,<p></p>,,,,null,,,,,,,,,,,,,,,,,,
4508.199999809265,,shortestpath_phase,1361500,,GW/jukebox.jpg,,,,50,GW/gong.jpg,GW/paint.jpg,1,0.7941176470588235,,,,GW/paint.jpg,,,,Two Edge Diff,Four Edge Six Edge,,,,,
null,,html-keyboard-response,1362514,,<p></p>,,,,null,,,,,,,,,,,,,,,,,,
3651.1000003814697,,shortestpath_phase,1366167,,GW/globe.jpg,,,,50,GW/dustpan.jpg,GW/hat.jpg,1,0.7971014492753623,,,,GW/hat.jpg,,,,One Edge Diff,Five Edge Six Edge,,,,,
null,,html-keyboard-response,1367179,,<p></p>,,,,null,,,,,,,,,,,,,,,,,,
null,,shortestpath_phase,1374699,,GW/camera.jpg,,,,null,GW/teeth.jpg,GW/dustpan.jpg,0,0.7857142857142857,,,,GW/teeth.jpg,,,,One Edge Diff,Two Edge Three Edge,,,,,
null,,html-keyboard-response,1375708,,<p></p>,,,,null,,,,,,,,,,,,,,,,,,
6557.300000190735,,shortestpath_phase,1382267,,GW/barrel.jpg,,,,50,GW/gong.jpg,GW/wheelchair.jpg,1,0.7887323943661971,,,,GW/wheelchair.jpg,,,,One Edge Diff,Five Edge Six Edge,,,,,
null,,html-keyboard-response,1383279,,<p></p>,,,,null,,,,,,,,,,,,,,,,,,
3852.9000005722046,,shortestpath_phase,1387133,,GW/jukebox.jpg,,,,49,GW/teeth.jpg,GW/dustpan.jpg,1,0.7916666666666666,,,,GW/teeth.jpg,,,,Two Edge Diff,Four Edge Six Edge,,,,,
null,,html-keyboard-response,1388138,,<p></p>,,,,null,,,,,,,,,,,,,,,,,,
5908.799999237061,,shortestpath_phase,1394049,,GW/globe.jpg,,,,50,GW/dustpan.jpg,GW/snail.jpg,1,0.7945205479452054,,,,GW/snail.jpg,,,,One Edge Diff,Five Edge Six Edge,,,,,
null,,html-keyboard-response,1395054,,<p></p>,,,,null,,,,,,,,,,,,,,,,,,
3971.300000190735,,shortestpath_phase,1399027,,GW/jukebox.jpg,,,,49,GW/barrel.jpg,GW/snail.jpg,1,0.7972972972972973,,,,GW/barrel.jpg,,,,One Edge Diff,Five Edge Six Edge,,,,,
null,,html-keyboard-response,1400040,,<p></p>,,,,null,,,,,,,,,,,,,,,,,,
1995.1999998092651,,shortestpath_phase,1402037,,GW/soldier.jpg,,,,50,GW/globe.jpg,GW/dustpan.jpg,1,0.8,,,,GW/dustpan.jpg,,,,Two Edge Diff,Two Edge Four Edge,,,,,
null,,html-keyboard-response,1403042,,<p></p>,,,,null,,,,,,,,,,,,,,,,,,
1594,,shortestpath_phase,1404638,,GW/gong.jpg,,,,49,GW/hat.jpg,GW/barrel.jpg,1,0.8026315789473685,,,,GW/hat.jpg,,,,Two Edge Diff,Three Edge Five Edge,,,,,
null,,html-keyboard-response,1405647,,<p></p>,,,,null,,,,,,,,,,,,,,,,,,
2004.1999998092651,,shortestpath_phase,1407652,,GW/jukebox.jpg,,,,50,GW/camera.jpg,GW/barrel.jpg,1,0.8051948051948052,,,,GW/barrel.jpg,,,,One Edge Diff,Two Edge Three Edge,,,,,
null,,html-keyboard-response,1408664,,<p></p>,,,,null,,,,,,,,,,,,,,,,,,
1342.5,,shortestpath_phase,1410008,,GW/gong.jpg,,,,49,GW/hat.jpg,GW/globe.jpg,1,0.8076923076923077,,,,GW/hat.jpg,,,,Two Edge Diff,Four Edge Six Edge,,,,,
null,,html-keyboard-response,1411019,,<p></p>,,,,null,,,,,,,,,,,,,,,,,,
2299.8999996185303,,shortestpath_phase,1413320,,GW/soldier.jpg,,,,49,GW/wheelchair.jpg,GW/globe.jpg,1,0.810126582278481,,,,GW/wheelchair.jpg,,,,Two Edge Diff,Four Edge Six Edge,,,,,
null,,html-keyboard-response,1414327,,<p></p>,,,,null,,,,,,,,,,,,,,,,,,
null,,shortestpath_phase,1421835,,GW/jukebox.jpg,,,,null,GW/hat.jpg,GW/dustpan.jpg,0,0.8,,,,GW/hat.jpg,,,,One Edge Diff,Four Edge Five Edge,,,,,
null,,html-keyboard-response,1422841,,<p></p>,,,,null,,,,,,,,,,,,,,,,,,
5295.699999809265,,shortestpath_phase,1428139,,GW/soldier.jpg,,,,50,GW/jukebox.jpg,GW/basket.jpg,1,0.8024691358024691,,,,GW/basket.jpg,,,,One Edge Diff,Four Edge Five Edge,,,,,
null,,html-keyboard-response,1429144,,<p></p>,,,,null,,,,,,,,,,,,,,,,,,
6265.099999427795,,shortestpath_phase,1435411,,GW/globe.jpg,,,,49,GW/gong.jpg,GW/hat.jpg,0,0.7926829268292683,,,,GW/hat.jpg,,,,One Edge Diff,Five Edge Six Edge,,,,,
null,,html-keyboard-response,1436427,,<p></p>,,,,null,,,,,,,,,,,,,,,,,,
5069.89999961853,,shortestpath_phase,1441498,,GW/jukebox.jpg,,,,49,GW/soldier.jpg,GW/gong.jpg,1,0.7951807228915663,,,,GW/soldier.jpg,,,,One Edge Diff,Five Edge Six Edge,,,,,
null,,html-keyboard-response,1442504,,<p></p>,,,,null,,,,,,,,,,,,,,,,,,
2323.199999809265,,shortestpath_phase,1444828,,GW/basket.jpg,,,,49,GW/globe.jpg,GW/gong.jpg,1,0.7976190476190477,,,,GW/globe.jpg,,,,Two Edge Diff,Three Edge Five Edge,,,,,
null,,html-keyboard-response,1445840,,<p></p>,,,,null,,,,,,,,,,,,,,,,,,
6639.199999809265,,intro_1,1452481,,instruct,,0,,,,,,,,,,,,,,,,,,,,
8471.300000190735,,intro_2,1460954,,instruct,,1,Next,,,,,,,,,,,,,,,,,,,
2747.7999992370605,,intro_3,1463706,,instruct,,1,Next,,,,,,,,,,,,,,,,,,,
,,Goal Directed Planning,1497096,,GDP-0,,,,,,,,,,,,,,,,,,camera,jukebox,,undefinedimgLdrag03:[x1:74.20001220703125 x2:313.6000213623047 y1:210.00003051757812 y2:214.18753051757812]drag03drag06:[x1:313.6000213623047 x2:658.0000152587891 y1:214.18753051757812 y2:214.00003051757812]drag06drag07:[x1:658.0000152587891 x2:873.5999908447266 y1:214.00003051757812 y2:219.18753051757812]drag07imgR:[x1:873.5999908447266 x2:1074.2000274658203 y1:219.18753051757812 y2:210.00003051757812],false
