rt,responses,trial_type,time_elapsed,sequence,stimulus,graphorder,button_pressed,response,key_press,stimulus_left,stimulus_right,accuracy,cumulative_accuracy,stimulus_down_left,stimulus_down_mid,stimulus_down_right,stimulus_correct,stimulus_short,stimulus_far,weighted_accuracy,missedtrial,condition,specific_pairs,imgL_ID,imgR_ID,linedress,linedressed,detour_trial
2757.199999809265,{worker_id:3007},id_enter,2759,interleaved,id_enter,GW/dustpan.jpg; GW/hat.jpg; GW/basket.jpg; GW/soldier.jpg; GW/paint.jpg; GW/snail.jpg; GW/jukebox.jpg; GW/wheelchair.jpg; GW/gong.jpg; GW/camera.jpg; GW/teeth.jpg; GW/barrel.jpg; GW/globe.jpg,,,,,,,,,,,,,,,,,,,,,,
1458.5,,fullscreen,4221,,fullscreen,,0,,,,,,,,,,,,,,,,,,,,,
1166.3999996185303,,intro_1,5389,,instruct,,0,,,,,,,,,,,,,,,,,,,,,
1114.6999998092651,,intro_2,6506,,instruct,,1,Next,,,,,,,,,,,,,,,,,,,,
933.6000003814697,,intro_3,7441,,instruct,,1,Next,,,,,,,,,,,,,,,,,,,,
null,,learn_prac_1,10445,,lean_prac_1,,,,null,,,,,,,,,,,,,,,,,,,
null,,html-keyboard-response,11451,,<p></p>,,,,null,,,,,,,,,,,,,,,,,,,
568.3000001907349,,intro_1,12020,,instruct,,0,,,,,,,,,,,,,,,,,,,,,
709.5,,intro_2,12731,,instruct,,1,Next,,,,,,,,,,,,,,,,,,,,
null,,learn_prac_2,15733,,lean_prac_2,,,,null,,,,,,,,,,,,,,,,,,,
null,,html-keyboard-response,16735,,<p></p>,,,,null,,,,,,,,,,,,,,,,,,,
624.5,,intro_1,17361,,instruct,,0,,,,,,,,,,,,,,,,,,,,,
3150.199999809265,,intro_2,20513,,instruct,,1,Next,,,,,,,,,,,,,,,,,,,,
2346.8999996185303,,intro_3,22862,,instruct,,1,Next,,,,,,,,,,,,,,,,,,,,
null,,prac_atten_color_black,23875,,black_plus_sign,,,,null,,,,,,,,,,,,,,,,,,,
334.79999923706055,,prac_atten_color,24296,,prac_stop_color,,,,49,,,,,,,,,,,,,,,,,,,
null,,prac_atten_color_black,26308,,black_plus_sign,,,,null,,,,,,,,,,,,,,,,,,,
null,,prac_atten_color_black,27322,,black_plus_sign,,,,null,,,,,,,,,,,,,,,,,,,
null,,prac_atten_color,27916,,prac_stop_color,,,,null,,,,,,,,,,,,,,,,,,,
65.40000057220459,,prac_atten_color_black,29926,,black_plus_sign,,,,50,,,,,,,,,,,,,,,,,,,
null,,prac_atten_color_black,30760,,black_plus_sign,,,,null,,,,,,,,,,,,,,,,,,,
496.29999923706055,,prac_atten_color,31855,,prac_stop_color,,,,50,,,,,,,,,,,,,,,,,,,
null,,prac_atten_color_black,33864,,black_plus_sign,,,,null,,,,,,,,,,,,,,,,,,,
null,,prac_atten_color_black,34200,,black_plus_sign,,,,null,,,,,,,,,,,,,,,,,,,
499.9000005722046,,prac_atten_color,35033,,prac_stop_color,,,,49,,,,,,,,,,,,,,,,,,,
null,,prac_atten_color_black,37046,,black_plus_sign,,,,null,,,,,,,,,,,,,,,,,,,
null,,prac_atten_color_black,37636,,black_plus_sign,,,,null,,,,,,,,,,,,,,,,,,,
674.6999998092651,,prac_atten_color,38663,,prac_stop_color,,,,49,,,,,,,,,,,,,,,,,,,
null,,prac_atten_color_black,40675,,black_plus_sign,,,,null,,,,,,,,,,,,,,,,,,,
4820.5,,attentioncheck_help,45496,,instruct,,,,32,,,,,,,,,,,,,,,,,,,
null,,prac_atten_color_black,45879,,black_plus_sign,,,,null,,,,,,,,,,,,,,,,,,,
null,,prac_atten_color,46494,,prac_stop_color,,,,null,,,,,,,,,,,,,,,,,,,
182.60000038146973,,prac_atten_color_black,48504,,black_plus_sign,,,,49,,,,,,,,,,,,,,,,,,,
2612,,attentioncheck_help,51118,,instruct,,,,32,,,,,,,,,,,,,,,,,,,
null,,prac_atten_color_black,51926,,black_plus_sign,,,,null,,,,,,,,,,,,,,,,,,,
455.3999996185303,,prac_atten_color,52535,,prac_stop_color,,,,49,,,,,,,,,,,,,,,,,,,
null,,prac_atten_color_black,54540,,black_plus_sign,,,,null,,,,,,,,,,,,,,,,,,,
null,,prac_atten_color_black,55341,,black_plus_sign,,,,null,,,,,,,,,,,,,,,,,,,
467.4000005722046,,prac_atten_color,56173,,prac_stop_color,,,,49,,,,,,,,,,,,,,,,,,,
null,,prac_atten_color_black,58180,,black_plus_sign,,,,null,,,,,,,,,,,,,,,,,,,
1133.3000001907349,,attentioncheck_help,59314,,instruct,,,,32,,,,,,,,,,,,,,,,,,,
null,,prac_atten_color_black,59897,,black_plus_sign,,,,null,,,,,,,,,,,,,,,,,,,
null,,prac_atten_color,60385,,prac_stop_color,,,,null,,,,,,,,,,,,,,,,,,,
330.5,,prac_atten_color_black,62394,,black_plus_sign,,,,49,,,,,,,,,,,,,,,,,,,
null,,prac_atten_color_black,63324,,black_plus_sign,,,,null,,,,,,,,,,,,,,,,,,,
504,,prac_atten_color,64037,,prac_stop_color,,,,49,,,,,,,,,,,,,,,,,,,
null,,prac_atten_color_black,66047,,black_plus_sign,,,,null,,,,,,,,,,,,,,,,,,,
1526.6000003814697,,attentioncheck_feedback,67576,,cross_check_feedback,,0,,,,,,,,,,,,,,,,,,,,,
3469.300000190735,,last_instruct,71047,,instruct,,,,32,,,,,,,,,,,,,,,,,,,
null,,learn_phase(without_color),74063,,black_plus_sign,,,,null,GW/wheelchair.jpg,GW/camera.jpg,,,,,,,,,,,,,,,,,
null,,black_cross(without_color),74953,,green,,,,null,GW/wheelchair.jpg,GW/camera.jpg,,,,,,,,,,,,,,,,,
null,,rt_plussign_withcolor,75458,,green,,,,null,GW/wheelchair.jpg,GW/camera.jpg,,,,,,,,,,,,,,,,,
1044.2999992370605,,rt_thecrossant_black,76589,,black_plus_sign,,,,50,,,1,1,,,,,,,,,,,,,,,
null,,color_black,76696,,black_plus_sign,,,,null,,,,,,,,,,,,,,,,,,,
null,,learn_phase(without_color),79708,,black_plus_sign,,,,null,GW/paint.jpg,GW/soldier.jpg,,,,,,,,,,,,,,,,,
null,,black_cross(without_color),80408,,green,,,,null,GW/paint.jpg,GW/soldier.jpg,,,,,,,,,,,,,,,,,
470.80000019073486,,rt_plussign_withcolor,80915,,green,,,,50,GW/paint.jpg,GW/soldier.jpg,,,,,,,,,,,,,,,,,
null,,rt_thecrossant_black,82233,,black_plus_sign,,,,null,,,1,1,,,,,,,,,,,,,,,
null,,color_black,82342,,black_plus_sign,,,,null,,,,,,,,,,,,,,,,,,,
null,,learn_phase(without_color),85353,,black_plus_sign,,,,null,GW/jukebox.jpg,GW/wheelchair.jpg,,,,,,,,,,,,,,,,,
null,,black_cross(without_color),86056,,blue,,,,null,GW/jukebox.jpg,GW/wheelchair.jpg,,,,,,,,,,,,,,,,,
null,,rt_plussign_withcolor,86571,,blue,,,,null,GW/jukebox.jpg,GW/wheelchair.jpg,,,,,,,,,,,,,,,,,
836.3000001907349,,rt_thecrossant_black,87898,,black_plus_sign,,,,49,,,1,1,,,,,,,,,,,,,,,
null,,color_black,88014,,black_plus_sign,,,,null,,,,,,,,,,,,,,,,,,,
null,,learn_phase(without_color),91024,,black_plus_sign,,,,null,GW/camera.jpg,GW/wheelchair.jpg,,,,,,,,,,,,,,,,,
null,,black_cross(without_color),91891,,blue,,,,null,GW/camera.jpg,GW/wheelchair.jpg,,,,,,,,,,,,,,,,,
424.30000019073486,,rt_plussign_withcolor,92396,,blue,,,,50,GW/camera.jpg,GW/wheelchair.jpg,,,,,,,,,,,,,,,,,
null,,rt_thecrossant_black,93547,,black_plus_sign,,,,null,,,0,0.75,,,,,,,,,,,,,,,
null,,color_black,93664,,black_plus_sign,,,,null,,,,,,,,,,,,,,,,,,,
null,,learn_phase(without_color),96674,,black_plus_sign,,,,null,GW/teeth.jpg,GW/barrel.jpg,,,,,,,,,,,,,,,,,
null,,black_cross(without_color),97361,,blue,,,,null,GW/teeth.jpg,GW/barrel.jpg,,,,,,,,,,,,,,,,,
416.8999996185303,,rt_plussign_withcolor,97865,,blue,,,,49,GW/teeth.jpg,GW/barrel.jpg,,,,,,,,,,,,,,,,,
null,,rt_thecrossant_black,99214,,black_plus_sign,,,,null,,,1,0.8,,,,,,,,,,,,,,,
null,,color_black,99322,,black_plus_sign,,,,null,,,,,,,,,,,,,,,,,,,
1555.3000001907349,,intro_1,100880,,instruct,,0,Start,,,,,,,,,,,,,,,,,,,,
1460.1000003814697,,directmemory_phase,102343,,GW/barrel.jpg,,,,51,,,0,0,GW/hat.jpg,GW/soldier.jpg,GW/snail.jpg,GW/soldier.jpg,GW/hat.jpg,GW/snail.jpg,0.5,closer,,,,,,,
null,,html-keyboard-response,103354,,<p></p>,,,,null,,,,,,,,,,,,,,,,,,,
983.0999994277954,,directmemory_phase,104340,,GW/dustpan.jpg,,,,51,,,0,0,GW/hat.jpg,GW/gong.jpg,GW/soldier.jpg,GW/hat.jpg,GW/soldier.jpg,GW/gong.jpg,0.5,closer,,,,,,,
null,,html-keyboard-response,105348,,<p></p>,,,,null,,,,,,,,,,,,,,,,,,,
1008.1999998092651,,directmemory_phase,106357,,GW/gong.jpg,,,,51,,,1,0.3333333333333333,GW/dustpan.jpg,GW/camera.jpg,GW/jukebox.jpg,GW/jukebox.jpg,GW/camera.jpg,GW/dustpan.jpg,1,,,,,,,,
null,,html-keyboard-response,107374,,<p></p>,,,,null,,,,,,,,,,,,,,,,,,,
761,,directmemory_phase,108137,,GW/hat.jpg,,,,51,,,1,0.5,GW/jukebox.jpg,GW/teeth.jpg,GW/soldier.jpg,GW/soldier.jpg,GW/teeth.jpg,GW/jukebox.jpg,1,,,,,,,,
null,,html-keyboard-response,109154,,<p></p>,,,,null,,,,,,,,,,,,,,,,,,,
401.30000019073486,,directmemory_phase,109556,,GW/gong.jpg,,,,51,,,1,0.6,GW/paint.jpg,GW/globe.jpg,GW/wheelchair.jpg,GW/wheelchair.jpg,GW/globe.jpg,GW/paint.jpg,1,,,,,,,,
null,,html-keyboard-response,110573,,<p></p>,,,,null,,,,,,,,,,,,,,,,,,,
7900.300000190735,,intro_1,118475,,instruct,,0,,,,,,,,,,,,,,,,,,,,,
4194.700000762939,,intro_2,122671,,instruct,,1,Next,,,,,,,,,,,,,,,,,,,,
997.8999996185303,,intro_3,123671,,instruct,,1,Next,,,,,,,,,,,,,,,,,,,,
415.1000003814697,,intro_4,124088,,instruct,,1,Next,,,,,,,,,,,,,,,,,,,,
699.5,,intro_5,124791,,instruct,,1,Next,,,,,,,,,,,,,,,,,,,,
9341.300000190735,,intro_6,134134,,instruct,,1,Next,,,,,,,,,,,,,,,,,,,,
511.79999923706055,,intro_7,134648,,instruct,,1,Next,,,,,,,,,,,,,,,,,,,,
795.8000001907349,,intro_8,135445,,instruct,,1,Next,,,,,,,,,,,,,,,,,,,,
1170.3000001907349,,shortestpath_phase,136617,,GW/soldier.jpg,,,,49,GW/camera.jpg,GW/teeth.jpg,0,0,,,,GW/teeth.jpg,,,,,Three Edge Diff,Three Edge Six Edge,,,,,
null,,html-keyboard-response,137621,,<p></p>,,,,null,,,,,,,,,,,,,,,,,,,
343.30000019073486,,shortestpath_phase,137966,,GW/globe.jpg,,,,49,GW/soldier.jpg,GW/hat.jpg,0,0,,,,GW/hat.jpg,,,,,One Edge Diff,Four Edge Five Edge,,,,,
null,,html-keyboard-response,138969,,<p></p>,,,,null,,,,,,,,,,,,,,,,,,,
250.39999961853027,,shortestpath_phase,139221,,GW/camera.jpg,,,,49,GW/jukebox.jpg,GW/basket.jpg,1,0.3333333333333333,,,,GW/jukebox.jpg,,,,,Two Edge Diff,Two Edge Four Edge,,,,,
null,,html-keyboard-response,140223,,<p></p>,,,,null,,,,,,,,,,,,,,,,,,,
271.19999980926514,,shortestpath_phase,140496,,GW/paint.jpg,,,,49,GW/hat.jpg,GW/wheelchair.jpg,1,0.5,,,,GW/hat.jpg,,,,,Three Edge Diff,Two Edge Five Edge,,,,,
null,,html-keyboard-response,141501,,<p></p>,,,,null,,,,,,,,,,,,,,,,,,,
276.69999980926514,,shortestpath_phase,141779,,GW/dustpan.jpg,,,,49,GW/globe.jpg,GW/camera.jpg,1,0.6,,,,GW/globe.jpg,,,,,One Edge Diff,Five Edge Six Edge,,,,,
null,,html-keyboard-response,142796,,<p></p>,,,,null,,,,,,,,,,,,,,,,,,,
1320.6000003814697,,intro_1,144117,,instruct,,0,,,,,,,,,,,,,,,,,,,,,
2794.8999996185303,,intro_2,146914,,instruct,,1,Next,,,,,,,,,,,,,,,,,,,,
1010.3000001907349,,intro_3,147927,,instruct,,1,Next,,,,,,,,,,,,,,,,,,,,
5062.099999427795,,intro_4,152991,,instruct,,0,Previous,,,,,,,,,,,,,,,,,,,,
1352.6999998092651,,intro_3,154347,,instruct,,0,Previous,,,,,,,,,,,,,,,,,,,,
8751.400000572205,,intro_2,163100,,instruct,,1,Next,,,,,,,,,,,,,,,,,,,,
906.6999998092651,,intro_3,164010,,instruct,,1,Next,,,,,,,,,,,,,,,,,,,,
2139.199999809265,,intro_4,166152,,instruct,,1,Next,,,,,,,,,,,,,,,,,,,,
1388.2000007629395,,intro_5,167541,,instruct,,1,Next,,,,,,,,,,,,,,,,,,,,
545.6999998092651,,intro_6,168088,,instruct,,1,Next,,,,,,,,,,,,,,,,,,,,
,,Goal Directed Planning,183540,,GDP-0,,,,,,,,,,,,,,,,,,,hat,snail,,undefinedimgLdrag09:[x1:74.20001220703125 x2:387.6000213623047 y1:210 y2:86.78753662109375]drag09imgR:[x1:387.6000213623047 x2:1074.2000274658203 y1:86.78753662109375 y2:210],false
11905.800000190735,,intro_1,195450,,instruct,,0,,,,,,,,,,,,,,,,,,,,,
2144.800000190735,,intro_2,197596,,instruct,,1,Next,,,,,,,,,,,,,,,,,,,,
1134,,intro_3,198732,,instruct,,1,Next,,,,,,,,,,,,,,,,,,,,
