rt,responses,trial_type,time_elapsed,sequence,stimulus,graphorder,button_pressed,response,key_press,stimulus_left,stimulus_right,accuracy,cumulative_accuracy,stimulus_down_left,stimulus_down_mid,stimulus_down_right,stimulus_correct,stimulus_short,stimulus_far,weighted_accuracy,condition,specific_pairs,imgL_ID,imgR_ID,linedress,linedressed,detour_trial,linedressed_detor
6434.600000000093,{worker_id:3026},id_enter,6436,interleaved,replication,GW/carmel.png; GW/boulder.png; GW/peoria.png; GW/newhope.png; GW/hanover.png; GW/westpalmbeach.png; GW/shreveport.png; GW/huntsville.png; GW/leesburg.png; GW/racine.png; GW/hotsprings.png; GW/cornwall.png; GW/gatlinburg.png,,,,,,,,,,,,,,,,,,,,,,
13289.099999999627,,fullscreen,19731,,fullscreen,,0,,,,,,,,,,,,,,,,,,,,,
14222.600000000093,,intro_1,33956,,instruct,,0,,,,,,,,,,,,,,,,,,,,,
10066.30000000028,,intro_2,44025,,instruct,,1,Next,,,,,,,,,,,,,,,,,,,,
9760.5,,intro_3,53788,,instruct,,1,Next,,,,,,,,,,,,,,,,,,,,
null,,learn_prac_1,56792,,lean_prac_1,,,,null,,,,,,,,,,,,,,,,,,,
null,,html-keyboard-response,57796,,<p></p>,,,,null,,,,,,,,,,,,,,,,,,,
4002.5,,intro_1,61800,,instruct,,0,,,,,,,,,,,,,,,,,,,,,
4601.299999999814,,intro_2,66404,,instruct,,1,Next,,,,,,,,,,,,,,,,,,,,
null,,learn_prac_2,69407,,lean_prac_2,,,,null,,,,,,,,,,,,,,,,,,,
null,,html-keyboard-response,70412,,<p></p>,,,,null,,,,,,,,,,,,,,,,,,,
1446.6000000000931,,intro_1,71860,,instruct,,0,,,,,,,,,,,,,,,,,,,,,
2459,,intro_2,74321,,instruct,,1,Next,,,,,,,,,,,,,,,,,,,,
5504.5,,intro_3,79828,,instruct,,1,Next,,,,,,,,,,,,,,,,,,,,
null,,prac_atten_color_black,80480,,black_plus_sign,,,,null,,,,,,,,,,,,,,,,,,,
null,,prac_atten_color,81236,,prac_stop_color,,,,null,,,,,,,,,,,,,,,,,,,
158.40000000037253,,prac_atten_color_black,83239,,black_plus_sign,,,,49,,,,,,,,,,,,,,,,,,,
null,,prac_atten_color_black,83891,,black_plus_sign,,,,null,,,,,,,,,,,,,,,,,,,
332.89999999990687,,prac_atten_color,84462,,prac_stop_color,,,,50,,,,,,,,,,,,,,,,,,,
null,,prac_atten_color_black,86465,,black_plus_sign,,,,null,,,,,,,,,,,,,,,,,,,
null,,prac_atten_color_black,87302,,black_plus_sign,,,,null,,,,,,,,,,,,,,,,,,,
252.79999999981374,,prac_atten_color,88189,,prac_stop_color,,,,49,,,,,,,,,,,,,,,,,,,
null,,prac_atten_color_black,90192,,black_plus_sign,,,,null,,,,,,,,,,,,,,,,,,,
3937,,attentioncheck_help,94131,,instruct,,,,32,,,,,,,,,,,,,,,,,,,
null,,prac_atten_color_black,94651,,black_plus_sign,,,,null,,,,,,,,,,,,,,,,,,,
354.5,,prac_atten_color,95125,,prac_stop_color,,,,49,,,,,,,,,,,,,,,,,,,
null,,prac_atten_color_black,97128,,black_plus_sign,,,,null,,,,,,,,,,,,,,,,,,,
null,,prac_atten_color_black,98060,,black_plus_sign,,,,null,,,,,,,,,,,,,,,,,,,
345.79999999981374,,prac_atten_color,98991,,prac_stop_color,,,,50,,,,,,,,,,,,,,,,,,,
null,,prac_atten_color_black,100995,,black_plus_sign,,,,null,,,,,,,,,,,,,,,,,,,
null,,prac_atten_color_black,101471,,black_plus_sign,,,,null,,,,,,,,,,,,,,,,,,,
354,,prac_atten_color,102223,,prac_stop_color,,,,50,,,,,,,,,,,,,,,,,,,
null,,prac_atten_color_black,104226,,black_plus_sign,,,,null,,,,,,,,,,,,,,,,,,,
null,,prac_atten_color_black,104881,,black_plus_sign,,,,null,,,,,,,,,,,,,,,,,,,
544.3000000002794,,prac_atten_color,105672,,prac_stop_color,,,,49,,,,,,,,,,,,,,,,,,,
null,,prac_atten_color_black,107675,,black_plus_sign,,,,null,,,,,,,,,,,,,,,,,,,
null,,prac_atten_color_black,108291,,black_plus_sign,,,,null,,,,,,,,,,,,,,,,,,,
510.59999999962747,,prac_atten_color,109371,,prac_stop_color,,,,50,,,,,,,,,,,,,,,,,,,
null,,prac_atten_color_black,111375,,black_plus_sign,,,,null,,,,,,,,,,,,,,,,,,,
null,,prac_atten_color_black,111702,,black_plus_sign,,,,null,,,,,,,,,,,,,,,,,,,
389.5,,prac_atten_color,112727,,prac_stop_color,,,,49,,,,,,,,,,,,,,,,,,,
null,,prac_atten_color_black,114730,,black_plus_sign,,,,null,,,,,,,,,,,,,,,,,,,
null,,prac_atten_color_black,115112,,black_plus_sign,,,,null,,,,,,,,,,,,,,,,,,,
572.1000000000931,,prac_atten_color,116128,,prac_stop_color,,,,49,,,,,,,,,,,,,,,,,,,
null,,prac_atten_color_black,118131,,black_plus_sign,,,,null,,,,,,,,,,,,,,,,,,,
5923.799999999814,,attentioncheck_feedback,124058,,cross_check_feedback,,0,,,,,,,,,,,,,,,,,,,,,
12625.69999999972,,last_instruct,136684,,instruct,,,,32,,,,,,,,,,,,,,,,,,,
null,,learn_phase(without_color),139688,,black_plus_sign,,,,null,GW/newhope.png,GW/cornwall.png,,,,,,,,,,,,,,,,,
null,,black_cross(without_color),140782,,blue,,,,null,GW/newhope.png,GW/cornwall.png,,,,,,,,,,,,,,,,,
null,,rt_plussign_withcolor,141285,,blue,,,,null,GW/newhope.png,GW/cornwall.png,,,,,,,,,,,,,,,,,
1363.5,,rt_thecrossant_black,142199,,black_plus_sign,,,,49,,,1,1,,,,,,,,,,,,,,,
null,,color_black,142304,,black_plus_sign,,,,null,,,,,,,,,,,,,,,,,,,
null,,learn_phase(without_color),145310,,black_plus_sign,,,,null,GW/hotsprings.png,GW/peoria.png,,,,,,,,,,,,,,,,,
null,,black_cross(without_color),146112,,blue,,,,null,GW/hotsprings.png,GW/peoria.png,,,,,,,,,,,,,,,,,
null,,rt_plussign_withcolor,146616,,blue,,,,null,GW/hotsprings.png,GW/peoria.png,,,,,,,,,,,,,,,,,
1380.5999999996275,,rt_thecrossant_black,147821,,black_plus_sign,,,,49,,,1,1,,,,,,,,,,,,,,,
null,,color_black,147925,,black_plus_sign,,,,null,,,,,,,,,,,,,,,,,,,
null,,learn_phase(without_color),150929,,black_plus_sign,,,,null,GW/shreveport.png,GW/leesburg.png,,,,,,,,,,,,,,,,,
null,,black_cross(without_color),151530,,yellow,,,,null,GW/shreveport.png,GW/leesburg.png,,,,,,,,,,,,,,,,,
null,,rt_plussign_withcolor,152032,,yellow,,,,null,GW/shreveport.png,GW/leesburg.png,,,,,,,,,,,,,,,,,
972.6999999997206,,rt_thecrossant_black,153439,,black_plus_sign,,,,50,,,1,1,,,,,,,,,,,,,,,
null,,color_black,153542,,black_plus_sign,,,,null,,,,,,,,,,,,,,,,,,,
null,,learn_phase(without_color),156547,,black_plus_sign,,,,null,GW/leesburg.png,GW/huntsville.png,,,,,,,,,,,,,,,,,
null,,black_cross(without_color),157510,,yellow,,,,null,GW/leesburg.png,GW/huntsville.png,,,,,,,,,,,,,,,,,
null,,rt_plussign_withcolor,158013,,yellow,,,,null,GW/leesburg.png,GW/huntsville.png,,,,,,,,,,,,,,,,,
915.7000000001863,,rt_thecrossant_black,159057,,black_plus_sign,,,,50,,,1,1,,,,,,,,,,,,,,,
null,,color_black,159161,,black_plus_sign,,,,null,,,,,,,,,,,,,,,,,,,
null,,learn_phase(without_color),162165,,black_plus_sign,,,,null,GW/huntsville.png,GW/racine.png,,,,,,,,,,,,,,,,,
null,,black_cross(without_color),163116,,blue,,,,null,GW/huntsville.png,GW/racine.png,,,,,,,,,,,,,,,,,
null,,rt_plussign_withcolor,163619,,blue,,,,null,GW/huntsville.png,GW/racine.png,,,,,,,,,,,,,,,,,
1602.1000000000931,,rt_thecrossant_black,164676,,black_plus_sign,,,,49,,,1,1,,,,,,,,,,,,,,,
null,,color_black,164779,,black_plus_sign,,,,null,,,,,,,,,,,,,,,,,,,
null,,learn_phase(without_color),167783,,black_plus_sign,,,,null,GW/shreveport.png,GW/leesburg.png,,,,,,,,,,,,,,,,,
null,,black_cross(without_color),168800,,yellow,,,,null,GW/shreveport.png,GW/leesburg.png,,,,,,,,,,,,,,,,,
null,,rt_plussign_withcolor,169303,,yellow,,,,null,GW/shreveport.png,GW/leesburg.png,,,,,,,,,,,,,,,,,
1305.6000000000931,,rt_thecrossant_black,170293,,black_plus_sign,,,,50,,,1,1,,,,,,,,,,,,,,,
null,,color_black,170397,,black_plus_sign,,,,null,,,,,,,,,,,,,,,,,,,
null,,learn_phase(without_color),173401,,black_plus_sign,,,,null,GW/boulder.png,GW/carmel.png,,,,,,,,,,,,,,,,,
null,,black_cross(without_color),174396,,blue,,,,null,GW/boulder.png,GW/carmel.png,,,,,,,,,,,,,,,,,
null,,rt_plussign_withcolor,174900,,blue,,,,null,GW/boulder.png,GW/carmel.png,,,,,,,,,,,,,,,,,
1358.5,,rt_thecrossant_black,175912,,black_plus_sign,,,,49,,,1,1,,,,,,,,,,,,,,,
null,,color_black,176015,,black_plus_sign,,,,null,,,,,,,,,,,,,,,,,,,
null,,learn_phase(without_color),179020,,black_plus_sign,,,,null,GW/newhope.png,GW/cornwall.png,,,,,,,,,,,,,,,,,
null,,black_cross(without_color),179681,,blue,,,,null,GW/newhope.png,GW/cornwall.png,,,,,,,,,,,,,,,,,
null,,rt_plussign_withcolor,180183,,blue,,,,null,GW/newhope.png,GW/cornwall.png,,,,,,,,,,,,,,,,,
1345.6999999997206,,rt_thecrossant_black,181530,,black_plus_sign,,,,49,,,1,1,,,,,,,,,,,,,,,
null,,color_black,181634,,black_plus_sign,,,,null,,,,,,,,,,,,,,,,,,,
null,,learn_phase(without_color),184639,,black_plus_sign,,,,null,GW/shreveport.png,GW/leesburg.png,,,,,,,,,,,,,,,,,
null,,black_cross(without_color),185366,,blue,,,,null,GW/shreveport.png,GW/leesburg.png,,,,,,,,,,,,,,,,,
null,,rt_plussign_withcolor,185868,,blue,,,,null,GW/shreveport.png,GW/leesburg.png,,,,,,,,,,,,,,,,,
1035.6000000000931,,rt_thecrossant_black,187148,,black_plus_sign,,,,49,,,1,1,,,,,,,,,,,,,,,
null,,color_black,187251,,black_plus_sign,,,,null,,,,,,,,,,,,,,,,,,,
null,,learn_phase(without_color),190256,,black_plus_sign,,,,null,GW/shreveport.png,GW/westpalmbeach.png,,,,,,,,,,,,,,,,,
null,,black_cross(without_color),191227,,blue,,,,null,GW/shreveport.png,GW/westpalmbeach.png,,,,,,,,,,,,,,,,,
null,,rt_plussign_withcolor,191729,,blue,,,,null,GW/shreveport.png,GW/westpalmbeach.png,,,,,,,,,,,,,,,,,
1175.3000000002794,,rt_thecrossant_black,192765,,black_plus_sign,,,,49,,,1,1,,,,,,,,,,,,,,,
null,,color_black,192869,,black_plus_sign,,,,null,,,,,,,,,,,,,,,,,,,
null,,learn_phase(without_color),195873,,black_plus_sign,,,,null,GW/newhope.png,GW/hanover.png,,,,,,,,,,,,,,,,,
null,,black_cross(without_color),196460,,blue,,,,null,GW/newhope.png,GW/hanover.png,,,,,,,,,,,,,,,,,
null,,rt_plussign_withcolor,196963,,blue,,,,null,GW/newhope.png,GW/hanover.png,,,,,,,,,,,,,,,,,
1299.8000000002794,,rt_thecrossant_black,198383,,black_plus_sign,,,,49,,,1,1,,,,,,,,,,,,,,,
null,,color_black,198487,,black_plus_sign,,,,null,,,,,,,,,,,,,,,,,,,
null,,learn_phase(without_color),201492,,black_plus_sign,,,,null,GW/leesburg.png,GW/shreveport.png,,,,,,,,,,,,,,,,,
null,,black_cross(without_color),202215,,yellow,,,,null,GW/leesburg.png,GW/shreveport.png,,,,,,,,,,,,,,,,,
null,,rt_plussign_withcolor,202719,,yellow,,,,null,GW/leesburg.png,GW/shreveport.png,,,,,,,,,,,,,,,,,
684.1000000000931,,rt_thecrossant_black,204002,,black_plus_sign,,,,50,,,1,1,,,,,,,,,,,,,,,
null,,color_black,204105,,black_plus_sign,,,,null,,,,,,,,,,,,,,,,,,,
null,,learn_phase(without_color),207110,,black_plus_sign,,,,null,GW/boulder.png,GW/peoria.png,,,,,,,,,,,,,,,,,
null,,black_cross(without_color),207521,,yellow,,,,null,GW/boulder.png,GW/peoria.png,,,,,,,,,,,,,,,,,
null,,rt_plussign_withcolor,208024,,yellow,,,,null,GW/boulder.png,GW/peoria.png,,,,,,,,,,,,,,,,,
1333.8999999999069,,rt_thecrossant_black,209619,,black_plus_sign,,,,50,,,1,1,,,,,,,,,,,,,,,
null,,color_black,209722,,black_plus_sign,,,,null,,,,,,,,,,,,,,,,,,,
null,,learn_phase(without_color),212727,,black_plus_sign,,,,null,GW/hotsprings.png,GW/peoria.png,,,,,,,,,,,,,,,,,
null,,black_cross(without_color),213160,,yellow,,,,null,GW/hotsprings.png,GW/peoria.png,,,,,,,,,,,,,,,,,
null,,rt_plussign_withcolor,213663,,yellow,,,,null,GW/hotsprings.png,GW/peoria.png,,,,,,,,,,,,,,,,,
1019.2999999998137,,rt_thecrossant_black,215236,,black_plus_sign,,,,50,,,1,1,,,,,,,,,,,,,,,
null,,color_black,215340,,black_plus_sign,,,,null,,,,,,,,,,,,,,,,,,,
null,,learn_phase(without_color),218344,,black_plus_sign,,,,null,GW/carmel.png,GW/boulder.png,,,,,,,,,,,,,,,,,
null,,black_cross(without_color),219162,,blue,,,,null,GW/carmel.png,GW/boulder.png,,,,,,,,,,,,,,,,,
null,,rt_plussign_withcolor,219665,,blue,,,,null,GW/carmel.png,GW/boulder.png,,,,,,,,,,,,,,,,,
819.6000000000931,,rt_thecrossant_black,220854,,black_plus_sign,,,,49,,,1,1,,,,,,,,,,,,,,,
null,,color_black,220957,,black_plus_sign,,,,null,,,,,,,,,,,,,,,,,,,
null,,learn_phase(without_color),223961,,black_plus_sign,,,,null,GW/shreveport.png,GW/leesburg.png,,,,,,,,,,,,,,,,,
null,,black_cross(without_color),224870,,yellow,,,,null,GW/shreveport.png,GW/leesburg.png,,,,,,,,,,,,,,,,,
null,,rt_plussign_withcolor,225372,,yellow,,,,null,GW/shreveport.png,GW/leesburg.png,,,,,,,,,,,,,,,,,
1097.2999999998137,,rt_thecrossant_black,226471,,black_plus_sign,,,,50,,,1,1,,,,,,,,,,,,,,,
null,,color_black,226574,,black_plus_sign,,,,null,,,,,,,,,,,,,,,,,,,
null,,learn_phase(without_color),229578,,black_plus_sign,,,,null,GW/boulder.png,GW/newhope.png,,,,,,,,,,,,,,,,,
null,,black_cross(without_color),230192,,yellow,,,,null,GW/boulder.png,GW/newhope.png,,,,,,,,,,,,,,,,,
null,,rt_plussign_withcolor,230695,,yellow,,,,null,GW/boulder.png,GW/newhope.png,,,,,,,,,,,,,,,,,
1506,,rt_thecrossant_black,232087,,black_plus_sign,,,,50,,,1,1,,,,,,,,,,,,,,,
null,,color_black,232191,,black_plus_sign,,,,null,,,,,,,,,,,,,,,,,,,
null,,learn_phase(without_color),235195,,black_plus_sign,,,,null,GW/newhope.png,GW/cornwall.png,,,,,,,,,,,,,,,,,
null,,black_cross(without_color),236284,,yellow,,,,null,GW/newhope.png,GW/cornwall.png,,,,,,,,,,,,,,,,,
null,,rt_plussign_withcolor,236787,,yellow,,,,null,GW/newhope.png,GW/cornwall.png,,,,,,,,,,,,,,,,,
807.2999999998137,,rt_thecrossant_black,237705,,black_plus_sign,,,,50,,,1,1,,,,,,,,,,,,,,,
null,,color_black,237809,,black_plus_sign,,,,null,,,,,,,,,,,,,,,,,,,
null,,learn_phase(without_color),240813,,black_plus_sign,,,,null,GW/racine.png,GW/huntsville.png,,,,,,,,,,,,,,,,,
null,,black_cross(without_color),241721,,yellow,,,,null,GW/racine.png,GW/huntsville.png,,,,,,,,,,,,,,,,,
null,,rt_plussign_withcolor,242224,,yellow,,,,null,GW/racine.png,GW/huntsville.png,,,,,,,,,,,,,,,,,
1554.3999999999069,,rt_thecrossant_black,243323,,black_plus_sign,,,,50,,,1,1,,,,,,,,,,,,,,,
null,,color_black,243427,,black_plus_sign,,,,null,,,,,,,,,,,,,,,,,,,
null,,learn_phase(without_color),246431,,black_plus_sign,,,,null,GW/peoria.png,GW/westpalmbeach.png,,,,,,,,,,,,,,,,,
null,,black_cross(without_color),247020,,yellow,,,,null,GW/peoria.png,GW/westpalmbeach.png,,,,,,,,,,,,,,,,,
null,,rt_plussign_withcolor,247522,,yellow,,,,null,GW/peoria.png,GW/westpalmbeach.png,,,,,,,,,,,,,,,,,
1101.7000000001863,,rt_thecrossant_black,248941,,black_plus_sign,,,,50,,,1,1,,,,,,,,,,,,,,,
null,,color_black,249045,,black_plus_sign,,,,null,,,,,,,,,,,,,,,,,,,
null,,learn_phase(without_color),252049,,black_plus_sign,,,,null,GW/peoria.png,GW/westpalmbeach.png,,,,,,,,,,,,,,,,,
null,,black_cross(without_color),252846,,blue,,,,null,GW/peoria.png,GW/westpalmbeach.png,,,,,,,,,,,,,,,,,
null,,rt_plussign_withcolor,253349,,blue,,,,null,GW/peoria.png,GW/westpalmbeach.png,,,,,,,,,,,,,,,,,
1005.3999999999069,,rt_thecrossant_black,254559,,black_plus_sign,,,,49,,,1,1,,,,,,,,,,,,,,,
null,,color_black,254663,,black_plus_sign,,,,null,,,,,,,,,,,,,,,,,,,
null,,learn_phase(without_color),257667,,black_plus_sign,,,,null,GW/hotsprings.png,GW/leesburg.png,,,,,,,,,,,,,,,,,
null,,black_cross(without_color),258101,,blue,,,,null,GW/hotsprings.png,GW/leesburg.png,,,,,,,,,,,,,,,,,
null,,rt_plussign_withcolor,258604,,blue,,,,null,GW/hotsprings.png,GW/leesburg.png,,,,,,,,,,,,,,,,,
1489.4000000003725,,rt_thecrossant_black,260178,,black_plus_sign,,,,49,,,1,1,,,,,,,,,,,,,,,
null,,color_black,260282,,black_plus_sign,,,,null,,,,,,,,,,,,,,,,,,,
null,,learn_phase(without_color),263286,,black_plus_sign,,,,null,GW/boulder.png,GW/newhope.png,,,,,,,,,,,,,,,,,
null,,black_cross(without_color),263824,,blue,,,,null,GW/boulder.png,GW/newhope.png,,,,,,,,,,,,,,,,,
null,,rt_plussign_withcolor,264327,,blue,,,,null,GW/boulder.png,GW/newhope.png,,,,,,,,,,,,,,,,,
790.1000000000931,,rt_thecrossant_black,265795,,black_plus_sign,,,,49,,,1,1,,,,,,,,,,,,,,,
null,,color_black,265898,,black_plus_sign,,,,null,,,,,,,,,,,,,,,,,,,
null,,learn_phase(without_color),268903,,black_plus_sign,,,,null,GW/hotsprings.png,GW/leesburg.png,,,,,,,,,,,,,,,,,
null,,black_cross(without_color),269659,,blue,,,,null,GW/hotsprings.png,GW/leesburg.png,,,,,,,,,,,,,,,,,
null,,rt_plussign_withcolor,270162,,blue,,,,null,GW/hotsprings.png,GW/leesburg.png,,,,,,,,,,,,,,,,,
913.5999999996275,,rt_thecrossant_black,271414,,black_plus_sign,,,,49,,,1,1,,,,,,,,,,,,,,,
null,,color_black,271517,,black_plus_sign,,,,null,,,,,,,,,,,,,,,,,,,
null,,learn_phase(without_color),274522,,black_plus_sign,,,,null,GW/shreveport.png,GW/huntsville.png,,,,,,,,,,,,,,,,,
null,,black_cross(without_color),275257,,blue,,,,null,GW/shreveport.png,GW/huntsville.png,,,,,,,,,,,,,,,,,
null,,rt_plussign_withcolor,275760,,blue,,,,null,GW/shreveport.png,GW/huntsville.png,,,,,,,,,,,,,,,,,
919.0999999996275,,rt_thecrossant_black,277032,,black_plus_sign,,,,49,,,1,1,,,,,,,,,,,,,,,
null,,color_black,277136,,black_plus_sign,,,,null,,,,,,,,,,,,,,,,,,,
null,,learn_phase(without_color),280141,,black_plus_sign,,,,null,GW/shreveport.png,GW/westpalmbeach.png,,,,,,,,,,,,,,,,,
null,,black_cross(without_color),281134,,blue,,,,null,GW/shreveport.png,GW/westpalmbeach.png,,,,,,,,,,,,,,,,,
null,,rt_plussign_withcolor,281637,,blue,,,,null,GW/shreveport.png,GW/westpalmbeach.png,,,,,,,,,,,,,,,,,
1037.7000000001863,,rt_thecrossant_black,282651,,black_plus_sign,,,,49,,,1,1,,,,,,,,,,,,,,,
null,,color_black,282755,,black_plus_sign,,,,null,,,,,,,,,,,,,,,,,,,
null,,learn_phase(without_color),285759,,black_plus_sign,,,,null,GW/boulder.png,GW/newhope.png,,,,,,,,,,,,,,,,,
null,,black_cross(without_color),286348,,blue,,,,null,GW/boulder.png,GW/newhope.png,,,,,,,,,,,,,,,,,
null,,rt_plussign_withcolor,286851,,blue,,,,null,GW/boulder.png,GW/newhope.png,,,,,,,,,,,,,,,,,
1519.8999999999069,,rt_thecrossant_black,288269,,black_plus_sign,,,,49,,,1,1,,,,,,,,,,,,,,,
null,,color_black,288373,,black_plus_sign,,,,null,,,,,,,,,,,,,,,,,,,
null,,learn_phase(without_color),291377,,black_plus_sign,,,,null,GW/cornwall.png,GW/newhope.png,,,,,,,,,,,,,,,,,
null,,black_cross(without_color),292300,,yellow,,,,null,GW/cornwall.png,GW/newhope.png,,,,,,,,,,,,,,,,,
null,,rt_plussign_withcolor,292804,,yellow,,,,null,GW/cornwall.png,GW/newhope.png,,,,,,,,,,,,,,,,,
951.7999999998137,,rt_thecrossant_black,293887,,black_plus_sign,,,,50,,,1,1,,,,,,,,,,,,,,,
null,,color_black,293991,,black_plus_sign,,,,null,,,,,,,,,,,,,,,,,,,
null,,learn_phase(without_color),296995,,black_plus_sign,,,,null,GW/gatlinburg.png,GW/shreveport.png,,,,,,,,,,,,,,,,,
null,,black_cross(without_color),297876,,yellow,,,,null,GW/gatlinburg.png,GW/shreveport.png,,,,,,,,,,,,,,,,,
null,,rt_plussign_withcolor,298379,,yellow,,,,null,GW/gatlinburg.png,GW/shreveport.png,,,,,,,,,,,,,,,,,
1356.7000000001863,,rt_thecrossant_black,299506,,black_plus_sign,,,,50,,,1,1,,,,,,,,,,,,,,,
null,,color_black,299609,,black_plus_sign,,,,null,,,,,,,,,,,,,,,,,,,
null,,learn_phase(without_color),302613,,black_plus_sign,,,,null,GW/boulder.png,GW/carmel.png,,,,,,,,,,,,,,,,,
null,,black_cross(without_color),303716,,blue,,,,null,GW/boulder.png,GW/carmel.png,,,,,,,,,,,,,,,,,
null,,rt_plussign_withcolor,304219,,blue,,,,null,GW/boulder.png,GW/carmel.png,,,,,,,,,,,,,,,,,
1302.7999999998137,,rt_thecrossant_black,305122,,black_plus_sign,,,,49,,,1,1,,,,,,,,,,,,,,,
null,,color_black,305226,,black_plus_sign,,,,null,,,,,,,,,,,,,,,,,,,
null,,learn_phase(without_color),308230,,black_plus_sign,,,,null,GW/hotsprings.png,GW/peoria.png,,,,,,,,,,,,,,,,,
null,,black_cross(without_color),308930,,blue,,,,null,GW/hotsprings.png,GW/peoria.png,,,,,,,,,,,,,,,,,
null,,rt_plussign_withcolor,309433,,blue,,,,null,GW/hotsprings.png,GW/peoria.png,,,,,,,,,,,,,,,,,
1448.2000000001863,,rt_thecrossant_black,310740,,black_plus_sign,,,,49,,,1,1,,,,,,,,,,,,,,,
null,,color_black,310843,,black_plus_sign,,,,null,,,,,,,,,,,,,,,,,,,
null,,learn_phase(without_color),313847,,black_plus_sign,,,,null,GW/westpalmbeach.png,GW/leesburg.png,,,,,,,,,,,,,,,,,
null,,black_cross(without_color),314518,,yellow,,,,null,GW/westpalmbeach.png,GW/leesburg.png,,,,,,,,,,,,,,,,,
null,,rt_plussign_withcolor,315021,,yellow,,,,null,GW/westpalmbeach.png,GW/leesburg.png,,,,,,,,,,,,,,,,,
1081.5,,rt_thecrossant_black,316356,,black_plus_sign,,,,50,,,1,1,,,,,,,,,,,,,,,
null,,color_black,316459,,black_plus_sign,,,,null,,,,,,,,,,,,,,,,,,,
null,,learn_phase(without_color),319463,,black_plus_sign,,,,null,GW/newhope.png,GW/boulder.png,,,,,,,,,,,,,,,,,
null,,black_cross(without_color),320255,,blue,,,,null,GW/newhope.png,GW/boulder.png,,,,,,,,,,,,,,,,,
441.1999999997206,,rt_plussign_withcolor,320758,,blue,,,,49,GW/newhope.png,GW/boulder.png,,,,,,,,,,,,,,,,,
null,,rt_thecrossant_black,321973,,black_plus_sign,,,,null,,,1,1,,,,,,,,,,,,,,,
null,,color_black,322077,,black_plus_sign,,,,null,,,,,,,,,,,,,,,,,,,
null,,learn_phase(without_color),325081,,black_plus_sign,,,,null,GW/leesburg.png,GW/hotsprings.png,,,,,,,,,,,,,,,,,
null,,black_cross(without_color),325841,,blue,,,,null,GW/leesburg.png,GW/hotsprings.png,,,,,,,,,,,,,,,,,
null,,rt_plussign_withcolor,326344,,blue,,,,null,GW/leesburg.png,GW/hotsprings.png,,,,,,,,,,,,,,,,,
906.8000000002794,,rt_thecrossant_black,327592,,black_plus_sign,,,,49,,,1,1,,,,,,,,,,,,,,,
null,,color_black,327696,,black_plus_sign,,,,null,,,,,,,,,,,,,,,,,,,
null,,learn_phase(without_color),330700,,black_plus_sign,,,,null,GW/leesburg.png,GW/shreveport.png,,,,,,,,,,,,,,,,,
null,,black_cross(without_color),331710,,blue,,,,null,GW/leesburg.png,GW/shreveport.png,,,,,,,,,,,,,,,,,
null,,rt_plussign_withcolor,332213,,blue,,,,null,GW/leesburg.png,GW/shreveport.png,,,,,,,,,,,,,,,,,
975.6000000000931,,rt_thecrossant_black,333210,,black_plus_sign,,,,49,,,1,1,,,,,,,,,,,,,,,
null,,color_black,333313,,black_plus_sign,,,,null,,,,,,,,,,,,,,,,,,,
null,,learn_phase(without_color),336318,,black_plus_sign,,,,null,GW/newhope.png,GW/hanover.png,,,,,,,,,,,,,,,,,
null,,black_cross(without_color),336971,,blue,,,,null,GW/newhope.png,GW/hanover.png,,,,,,,,,,,,,,,,,
null,,rt_plussign_withcolor,337473,,blue,,,,null,GW/newhope.png,GW/hanover.png,,,,,,,,,,,,,,,,,
1908.5,,rt_thecrossant_black,338828,,black_plus_sign,,,,49,,,1,1,,,,,,,,,,,,,,,
null,,color_black,338932,,black_plus_sign,,,,null,,,,,,,,,,,,,,,,,,,
null,,learn_phase(without_color),341936,,black_plus_sign,,,,null,GW/peoria.png,GW/hotsprings.png,,,,,,,,,,,,,,,,,
null,,black_cross(without_color),342987,,blue,,,,null,GW/peoria.png,GW/hotsprings.png,,,,,,,,,,,,,,,,,
null,,rt_plussign_withcolor,343491,,blue,,,,null,GW/peoria.png,GW/hotsprings.png,,,,,,,,,,,,,,,,,
1189.5,,rt_thecrossant_black,344446,,black_plus_sign,,,,49,,,1,1,,,,,,,,,,,,,,,
null,,color_black,344549,,black_plus_sign,,,,null,,,,,,,,,,,,,,,,,,,
null,,learn_phase(without_color),347554,,black_plus_sign,,,,null,GW/newhope.png,GW/boulder.png,,,,,,,,,,,,,,,,,
null,,black_cross(without_color),348414,,blue,,,,null,GW/newhope.png,GW/boulder.png,,,,,,,,,,,,,,,,,
null,,rt_plussign_withcolor,348917,,blue,,,,null,GW/newhope.png,GW/boulder.png,,,,,,,,,,,,,,,,,
1459.8999999999069,,rt_thecrossant_black,350065,,black_plus_sign,,,,49,,,1,1,,,,,,,,,,,,,,,
null,,color_black,350168,,black_plus_sign,,,,null,,,,,,,,,,,,,,,,,,,
null,,learn_phase(without_color),353173,,black_plus_sign,,,,null,GW/hotsprings.png,GW/cornwall.png,,,,,,,,,,,,,,,,,
null,,black_cross(without_color),354186,,yellow,,,,null,GW/hotsprings.png,GW/cornwall.png,,,,,,,,,,,,,,,,,
null,,rt_plussign_withcolor,354689,,yellow,,,,null,GW/hotsprings.png,GW/cornwall.png,,,,,,,,,,,,,,,,,
1261.3000000002794,,rt_thecrossant_black,355683,,black_plus_sign,,,,50,,,1,1,,,,,,,,,,,,,,,
null,,color_black,355787,,black_plus_sign,,,,null,,,,,,,,,,,,,,,,,,,
null,,learn_phase(without_color),358791,,black_plus_sign,,,,null,GW/huntsville.png,GW/shreveport.png,,,,,,,,,,,,,,,,,
null,,black_cross(without_color),359550,,blue,,,,null,GW/huntsville.png,GW/shreveport.png,,,,,,,,,,,,,,,,,
null,,rt_plussign_withcolor,360053,,blue,,,,null,GW/huntsville.png,GW/shreveport.png,,,,,,,,,,,,,,,,,
2030.2999999998137,,rt_thecrossant_black,361301,,black_plus_sign,,,,49,,,1,1,,,,,,,,,,,,,,,
null,,color_black,361404,,black_plus_sign,,,,null,,,,,,,,,,,,,,,,,,,
null,,learn_phase(without_color),364408,,black_plus_sign,,,,null,GW/hotsprings.png,GW/cornwall.png,,,,,,,,,,,,,,,,,
null,,black_cross(without_color),365250,,blue,,,,null,GW/hotsprings.png,GW/cornwall.png,,,,,,,,,,,,,,,,,
null,,rt_plussign_withcolor,365752,,blue,,,,null,GW/hotsprings.png,GW/cornwall.png,,,,,,,,,,,,,,,,,
958.2000000001863,,rt_thecrossant_black,366919,,black_plus_sign,,,,49,,,1,1,,,,,,,,,,,,,,,
null,,color_black,367022,,black_plus_sign,,,,null,,,,,,,,,,,,,,,,,,,
null,,learn_phase(without_color),370026,,black_plus_sign,,,,null,GW/peoria.png,GW/hotsprings.png,,,,,,,,,,,,,,,,,
null,,black_cross(without_color),371120,,blue,,,,null,GW/peoria.png,GW/hotsprings.png,,,,,,,,,,,,,,,,,
null,,rt_plussign_withcolor,371623,,blue,,,,null,GW/peoria.png,GW/hotsprings.png,,,,,,,,,,,,,,,,,
1071.6000000000931,,rt_thecrossant_black,372536,,black_plus_sign,,,,49,,,1,1,,,,,,,,,,,,,,,
null,,color_black,372640,,black_plus_sign,,,,null,,,,,,,,,,,,,,,,,,,
null,,learn_phase(without_color),375644,,black_plus_sign,,,,null,GW/boulder.png,GW/peoria.png,,,,,,,,,,,,,,,,,
null,,black_cross(without_color),376401,,yellow,,,,null,GW/boulder.png,GW/peoria.png,,,,,,,,,,,,,,,,,
null,,rt_plussign_withcolor,376904,,yellow,,,,null,GW/boulder.png,GW/peoria.png,,,,,,,,,,,,,,,,,
1539,,rt_thecrossant_black,378155,,black_plus_sign,,,,50,,,1,1,,,,,,,,,,,,,,,
null,,color_black,378258,,black_plus_sign,,,,null,,,,,,,,,,,,,,,,,,,
null,,learn_phase(without_color),381263,,black_plus_sign,,,,null,GW/gatlinburg.png,GW/shreveport.png,,,,,,,,,,,,,,,,,
null,,black_cross(without_color),381841,,blue,,,,null,GW/gatlinburg.png,GW/shreveport.png,,,,,,,,,,,,,,,,,
null,,rt_plussign_withcolor,382344,,blue,,,,null,GW/gatlinburg.png,GW/shreveport.png,,,,,,,,,,,,,,,,,
996.6000000000931,,rt_thecrossant_black,383773,,black_plus_sign,,,,49,,,1,1,,,,,,,,,,,,,,,
null,,color_black,383876,,black_plus_sign,,,,null,,,,,,,,,,,,,,,,,,,
null,,learn_phase(without_color),386881,,black_plus_sign,,,,null,GW/westpalmbeach.png,GW/shreveport.png,,,,,,,,,,,,,,,,,
null,,black_cross(without_color),387543,,yellow,,,,null,GW/westpalmbeach.png,GW/shreveport.png,,,,,,,,,,,,,,,,,
null,,rt_plussign_withcolor,388046,,yellow,,,,null,GW/westpalmbeach.png,GW/shreveport.png,,,,,,,,,,,,,,,,,
1289.1999999997206,,rt_thecrossant_black,389391,,black_plus_sign,,,,50,,,1,1,,,,,,,,,,,,,,,
null,,color_black,389495,,black_plus_sign,,,,null,,,,,,,,,,,,,,,,,,,
null,,learn_phase(without_color),392499,,black_plus_sign,,,,null,GW/hotsprings.png,GW/peoria.png,,,,,,,,,,,,,,,,,
null,,black_cross(without_color),393291,,yellow,,,,null,GW/hotsprings.png,GW/peoria.png,,,,,,,,,,,,,,,,,
null,,rt_plussign_withcolor,393794,,yellow,,,,null,GW/hotsprings.png,GW/peoria.png,,,,,,,,,,,,,,,,,
844.5,,rt_thecrossant_black,395009,,black_plus_sign,,,,50,,,1,1,,,,,,,,,,,,,,,
null,,color_black,395113,,black_plus_sign,,,,null,,,,,,,,,,,,,,,,,,,
null,,learn_phase(without_color),398117,,black_plus_sign,,,,null,GW/hotsprings.png,GW/leesburg.png,,,,,,,,,,,,,,,,,
null,,black_cross(without_color),399058,,yellow,,,,null,GW/hotsprings.png,GW/leesburg.png,,,,,,,,,,,,,,,,,
null,,rt_plussign_withcolor,399562,,yellow,,,,null,GW/hotsprings.png,GW/leesburg.png,,,,,,,,,,,,,,,,,
1050,,rt_thecrossant_black,400627,,black_plus_sign,,,,49,,,0,0.9787234042553191,,,,,,,,,,,,,,,
null,,color_black,400731,,black_plus_sign,,,,null,,,,,,,,,,,,,,,,,,,
null,,learn_phase(without_color),403736,,black_plus_sign,,,,null,GW/peoria.png,GW/hotsprings.png,,,,,,,,,,,,,,,,,
null,,black_cross(without_color),404601,,yellow,,,,null,GW/peoria.png,GW/hotsprings.png,,,,,,,,,,,,,,,,,
null,,rt_plussign_withcolor,405103,,yellow,,,,null,GW/peoria.png,GW/hotsprings.png,,,,,,,,,,,,,,,,,
1594.6000000000931,,rt_thecrossant_black,406245,,black_plus_sign,,,,50,,,1,0.9791666666666666,,,,,,,,,,,,,,,
null,,color_black,406348,,black_plus_sign,,,,null,,,,,,,,,,,,,,,,,,,
null,,learn_phase(without_color),409353,,black_plus_sign,,,,null,GW/hotsprings.png,GW/leesburg.png,,,,,,,,,,,,,,,,,
null,,black_cross(without_color),410260,,yellow,,,,null,GW/hotsprings.png,GW/leesburg.png,,,,,,,,,,,,,,,,,
null,,rt_plussign_withcolor,410764,,yellow,,,,null,GW/hotsprings.png,GW/leesburg.png,,,,,,,,,,,,,,,,,
1086.3999999999069,,rt_thecrossant_black,411864,,black_plus_sign,,,,50,,,1,0.9795918367346939,,,,,,,,,,,,,,,
null,,color_black,411967,,black_plus_sign,,,,null,,,,,,,,,,,,,,,,,,,
null,,learn_phase(without_color),414972,,black_plus_sign,,,,null,GW/shreveport.png,GW/gatlinburg.png,,,,,,,,,,,,,,,,,
null,,black_cross(without_color),415937,,blue,,,,null,GW/shreveport.png,GW/gatlinburg.png,,,,,,,,,,,,,,,,,
null,,rt_plussign_withcolor,416440,,blue,,,,null,GW/shreveport.png,GW/gatlinburg.png,,,,,,,,,,,,,,,,,
1330.8999999999069,,rt_thecrossant_black,417483,,black_plus_sign,,,,49,,,1,0.98,,,,,,,,,,,,,,,
null,,color_black,417586,,black_plus_sign,,,,null,,,,,,,,,,,,,,,,,,,
null,,learn_phase(without_color),420591,,black_plus_sign,,,,null,GW/hanover.png,GW/newhope.png,,,,,,,,,,,,,,,,,
null,,black_cross(without_color),421467,,blue,,,,null,GW/hanover.png,GW/newhope.png,,,,,,,,,,,,,,,,,
null,,rt_plussign_withcolor,421969,,blue,,,,null,GW/hanover.png,GW/newhope.png,,,,,,,,,,,,,,,,,
1205.1000000000931,,rt_thecrossant_black,423100,,black_plus_sign,,,,49,,,1,0.9803921568627451,,,,,,,,,,,,,,,
null,,color_black,423204,,black_plus_sign,,,,null,,,,,,,,,,,,,,,,,,,
null,,learn_phase(without_color),426208,,black_plus_sign,,,,null,GW/peoria.png,GW/westpalmbeach.png,,,,,,,,,,,,,,,,,
null,,black_cross(without_color),427214,,blue,,,,null,GW/peoria.png,GW/westpalmbeach.png,,,,,,,,,,,,,,,,,
null,,rt_plussign_withcolor,427716,,blue,,,,null,GW/peoria.png,GW/westpalmbeach.png,,,,,,,,,,,,,,,,,
1182.5,,rt_thecrossant_black,428718,,black_plus_sign,,,,49,,,1,0.9807692307692307,,,,,,,,,,,,,,,
null,,color_black,428821,,black_plus_sign,,,,null,,,,,,,,,,,,,,,,,,,
null,,learn_phase(without_color),431826,,black_plus_sign,,,,null,GW/shreveport.png,GW/huntsville.png,,,,,,,,,,,,,,,,,
null,,black_cross(without_color),432245,,blue,,,,null,GW/shreveport.png,GW/huntsville.png,,,,,,,,,,,,,,,,,
null,,rt_plussign_withcolor,432748,,blue,,,,null,GW/shreveport.png,GW/huntsville.png,,,,,,,,,,,,,,,,,
1410.1000000000931,,rt_thecrossant_black,434336,,black_plus_sign,,,,49,,,1,0.9811320754716981,,,,,,,,,,,,,,,
null,,color_black,434440,,black_plus_sign,,,,null,,,,,,,,,,,,,,,,,,,
null,,learn_phase(without_color),437445,,black_plus_sign,,,,null,GW/newhope.png,GW/hanover.png,,,,,,,,,,,,,,,,,
null,,black_cross(without_color),438003,,yellow,,,,null,GW/newhope.png,GW/hanover.png,,,,,,,,,,,,,,,,,
null,,rt_plussign_withcolor,438506,,yellow,,,,null,GW/newhope.png,GW/hanover.png,,,,,,,,,,,,,,,,,
823.1000000000931,,rt_thecrossant_black,439955,,black_plus_sign,,,,50,,,1,0.9814814814814815,,,,,,,,,,,,,,,
null,,color_black,440059,,black_plus_sign,,,,null,,,,,,,,,,,,,,,,,,,
null,,learn_phase(without_color),443064,,black_plus_sign,,,,null,GW/westpalmbeach.png,GW/leesburg.png,,,,,,,,,,,,,,,,,
null,,black_cross(without_color),443982,,blue,,,,null,GW/westpalmbeach.png,GW/leesburg.png,,,,,,,,,,,,,,,,,
472.6999999997206,,rt_plussign_withcolor,444485,,blue,,,,49,GW/westpalmbeach.png,GW/leesburg.png,,,,,,,,,,,,,,,,,
null,,rt_thecrossant_black,445574,,black_plus_sign,,,,null,,,1,0.9818181818181818,,,,,,,,,,,,,,,
null,,color_black,445678,,black_plus_sign,,,,null,,,,,,,,,,,,,,,,,,,
null,,learn_phase(without_color),448682,,black_plus_sign,,,,null,GW/leesburg.png,GW/hotsprings.png,,,,,,,,,,,,,,,,,
null,,black_cross(without_color),449148,,blue,,,,null,GW/leesburg.png,GW/hotsprings.png,,,,,,,,,,,,,,,,,
null,,rt_plussign_withcolor,449651,,blue,,,,null,GW/leesburg.png,GW/hotsprings.png,,,,,,,,,,,,,,,,,
1254.5,,rt_thecrossant_black,451191,,black_plus_sign,,,,49,,,1,0.9821428571428571,,,,,,,,,,,,,,,
null,,color_black,451295,,black_plus_sign,,,,null,,,,,,,,,,,,,,,,,,,
null,,learn_phase(without_color),454299,,black_plus_sign,,,,null,GW/boulder.png,GW/peoria.png,,,,,,,,,,,,,,,,,
null,,black_cross(without_color),455175,,blue,,,,null,GW/boulder.png,GW/peoria.png,,,,,,,,,,,,,,,,,
null,,rt_plussign_withcolor,455678,,blue,,,,null,GW/boulder.png,GW/peoria.png,,,,,,,,,,,,,,,,,
593.1000000000931,,rt_thecrossant_black,456810,,black_plus_sign,,,,49,,,1,0.9824561403508771,,,,,,,,,,,,,,,
null,,color_black,456914,,black_plus_sign,,,,null,,,,,,,,,,,,,,,,,,,
null,,learn_phase(without_color),459918,,black_plus_sign,,,,null,GW/shreveport.png,GW/huntsville.png,,,,,,,,,,,,,,,,,
null,,black_cross(without_color),460511,,yellow,,,,null,GW/shreveport.png,GW/huntsville.png,,,,,,,,,,,,,,,,,
null,,rt_plussign_withcolor,461013,,yellow,,,,null,GW/shreveport.png,GW/huntsville.png,,,,,,,,,,,,,,,,,
1471.1000000000931,,rt_thecrossant_black,462426,,black_plus_sign,,,,50,,,1,0.9827586206896551,,,,,,,,,,,,,,,
null,,color_black,462529,,black_plus_sign,,,,null,,,,,,,,,,,,,,,,,,,
null,,learn_phase(without_color),465533,,black_plus_sign,,,,null,GW/huntsville.png,GW/leesburg.png,,,,,,,,,,,,,,,,,
null,,black_cross(without_color),466428,,blue,,,,null,GW/huntsville.png,GW/leesburg.png,,,,,,,,,,,,,,,,,
null,,rt_plussign_withcolor,466932,,blue,,,,null,GW/huntsville.png,GW/leesburg.png,,,,,,,,,,,,,,,,,
810.8999999999069,,rt_thecrossant_black,468043,,black_plus_sign,,,,49,,,1,0.9830508474576272,,,,,,,,,,,,,,,
null,,color_black,468147,,black_plus_sign,,,,null,,,,,,,,,,,,,,,,,,,
null,,learn_phase(without_color),471152,,black_plus_sign,,,,null,GW/boulder.png,GW/peoria.png,,,,,,,,,,,,,,,,,
null,,black_cross(without_color),471672,,blue,,,,null,GW/boulder.png,GW/peoria.png,,,,,,,,,,,,,,,,,
null,,rt_plussign_withcolor,472175,,blue,,,,null,GW/boulder.png,GW/peoria.png,,,,,,,,,,,,,,,,,
1308.3999999999069,,rt_thecrossant_black,473662,,black_plus_sign,,,,49,,,1,0.9833333333333333,,,,,,,,,,,,,,,
null,,color_black,473765,,black_plus_sign,,,,null,,,,,,,,,,,,,,,,,,,
null,,learn_phase(without_color),476770,,black_plus_sign,,,,null,GW/hotsprings.png,GW/cornwall.png,,,,,,,,,,,,,,,,,
null,,black_cross(without_color),477209,,yellow,,,,null,GW/hotsprings.png,GW/cornwall.png,,,,,,,,,,,,,,,,,
null,,rt_plussign_withcolor,477711,,yellow,,,,null,GW/hotsprings.png,GW/cornwall.png,,,,,,,,,,,,,,,,,
868.3999999999069,,rt_thecrossant_black,479281,,black_plus_sign,,,,50,,,1,0.9836065573770492,,,,,,,,,,,,,,,
null,,color_black,479385,,black_plus_sign,,,,null,,,,,,,,,,,,,,,,,,,
null,,learn_phase(without_color),482389,,black_plus_sign,,,,null,GW/peoria.png,GW/westpalmbeach.png,,,,,,,,,,,,,,,,,
null,,black_cross(without_color),483086,,blue,,,,null,GW/peoria.png,GW/westpalmbeach.png,,,,,,,,,,,,,,,,,
null,,rt_plussign_withcolor,483589,,blue,,,,null,GW/peoria.png,GW/westpalmbeach.png,,,,,,,,,,,,,,,,,
642.3999999999069,,rt_thecrossant_black,484899,,black_plus_sign,,,,49,,,1,0.9838709677419355,,,,,,,,,,,,,,,
null,,color_black,485003,,black_plus_sign,,,,null,,,,,,,,,,,,,,,,,,,
null,,learn_phase(without_color),488008,,black_plus_sign,,,,null,GW/cornwall.png,GW/hotsprings.png,,,,,,,,,,,,,,,,,
null,,black_cross(without_color),488744,,yellow,,,,null,GW/cornwall.png,GW/hotsprings.png,,,,,,,,,,,,,,,,,
null,,rt_plussign_withcolor,489247,,yellow,,,,null,GW/cornwall.png,GW/hotsprings.png,,,,,,,,,,,,,,,,,
1378.3999999999069,,rt_thecrossant_black,490518,,black_plus_sign,,,,50,,,1,0.9841269841269841,,,,,,,,,,,,,,,
null,,color_black,490622,,black_plus_sign,,,,null,,,,,,,,,,,,,,,,,,,
null,,learn_phase(without_color),493627,,black_plus_sign,,,,null,GW/cornwall.png,GW/hotsprings.png,,,,,,,,,,,,,,,,,
null,,black_cross(without_color),494561,,yellow,,,,null,GW/cornwall.png,GW/hotsprings.png,,,,,,,,,,,,,,,,,
null,,rt_plussign_withcolor,495065,,yellow,,,,null,GW/cornwall.png,GW/hotsprings.png,,,,,,,,,,,,,,,,,
856.7999999998137,,rt_thecrossant_black,496138,,black_plus_sign,,,,50,,,1,0.984375,,,,,,,,,,,,,,,
null,,color_black,496242,,black_plus_sign,,,,null,,,,,,,,,,,,,,,,,,,
null,,learn_break,556246,,learn_break,,,,null,,,,,,,,,,,,,,,,,,,
null,,html-keyboard-response,557249,,<p></p>,,,,null,,,,,,,,,,,,,,,,,,,
null,,learn_phase(without_color),560253,,black_plus_sign,,,,null,GW/cornwall.png,GW/newhope.png,,,,,,,,,,,,,,,,,
null,,black_cross(without_color),560754,,blue,,,,null,GW/cornwall.png,GW/newhope.png,,,,,,,,,,,,,,,,,
null,,rt_plussign_withcolor,561257,,blue,,,,null,GW/cornwall.png,GW/newhope.png,,,,,,,,,,,,,,,,,
1321.8999999999069,,rt_thecrossant_black,562764,,black_plus_sign,,,,49,,,1,0.9846153846153847,,,,,,,,,,,,,,,
null,,color_black,562868,,black_plus_sign,,,,null,,,,,,,,,,,,,,,,,,,
null,,learn_phase(without_color),565872,,black_plus_sign,,,,null,GW/boulder.png,GW/peoria.png,,,,,,,,,,,,,,,,,
null,,black_cross(without_color),566424,,blue,,,,null,GW/boulder.png,GW/peoria.png,,,,,,,,,,,,,,,,,
null,,rt_plussign_withcolor,566927,,blue,,,,null,GW/boulder.png,GW/peoria.png,,,,,,,,,,,,,,,,,
757.1999999997206,,rt_thecrossant_black,568383,,black_plus_sign,,,,49,,,1,0.9848484848484849,,,,,,,,,,,,,,,
null,,color_black,568487,,black_plus_sign,,,,null,,,,,,,,,,,,,,,,,,,
null,,learn_phase(without_color),571493,,black_plus_sign,,,,null,GW/leesburg.png,GW/westpalmbeach.png,,,,,,,,,,,,,,,,,
null,,black_cross(without_color),572486,,yellow,,,,null,GW/leesburg.png,GW/westpalmbeach.png,,,,,,,,,,,,,,,,,
null,,rt_plussign_withcolor,572989,,yellow,,,,null,GW/leesburg.png,GW/westpalmbeach.png,,,,,,,,,,,,,,,,,
1008,,rt_thecrossant_black,574004,,black_plus_sign,,,,50,,,1,0.9850746268656716,,,,,,,,,,,,,,,
null,,color_black,574108,,black_plus_sign,,,,null,,,,,,,,,,,,,,,,,,,
null,,learn_phase(without_color),577112,,black_plus_sign,,,,null,GW/westpalmbeach.png,GW/shreveport.png,,,,,,,,,,,,,,,,,
null,,black_cross(without_color),577654,,blue,,,,null,GW/westpalmbeach.png,GW/shreveport.png,,,,,,,,,,,,,,,,,
null,,rt_plussign_withcolor,578158,,blue,,,,null,GW/westpalmbeach.png,GW/shreveport.png,,,,,,,,,,,,,,,,,
1308.2999999998137,,rt_thecrossant_black,579625,,black_plus_sign,,,,49,,,1,0.9852941176470589,,,,,,,,,,,,,,,
null,,color_black,579728,,black_plus_sign,,,,null,,,,,,,,,,,,,,,,,,,
null,,learn_phase(without_color),582733,,black_plus_sign,,,,null,GW/huntsville.png,GW/shreveport.png,,,,,,,,,,,,,,,,,
null,,black_cross(without_color),583824,,yellow,,,,null,GW/huntsville.png,GW/shreveport.png,,,,,,,,,,,,,,,,,
null,,rt_plussign_withcolor,584328,,yellow,,,,null,GW/huntsville.png,GW/shreveport.png,,,,,,,,,,,,,,,,,
1156.5,,rt_thecrossant_black,585245,,black_plus_sign,,,,50,,,1,0.9855072463768116,,,,,,,,,,,,,,,
null,,color_black,585349,,black_plus_sign,,,,null,,,,,,,,,,,,,,,,,,,
null,,learn_phase(without_color),588354,,black_plus_sign,,,,null,GW/leesburg.png,GW/huntsville.png,,,,,,,,,,,,,,,,,
null,,black_cross(without_color),589054,,yellow,,,,null,GW/leesburg.png,GW/huntsville.png,,,,,,,,,,,,,,,,,
null,,rt_plussign_withcolor,589556,,yellow,,,,null,GW/leesburg.png,GW/huntsville.png,,,,,,,,,,,,,,,,,
1825,,rt_thecrossant_black,590864,,black_plus_sign,,,,50,,,1,0.9857142857142858,,,,,,,,,,,,,,,
null,,color_black,590968,,black_plus_sign,,,,null,,,,,,,,,,,,,,,,,,,
null,,learn_phase(without_color),593972,,black_plus_sign,,,,null,GW/westpalmbeach.png,GW/leesburg.png,,,,,,,,,,,,,,,,,
null,,black_cross(without_color),594699,,yellow,,,,null,GW/westpalmbeach.png,GW/leesburg.png,,,,,,,,,,,,,,,,,
null,,rt_plussign_withcolor,595202,,yellow,,,,null,GW/westpalmbeach.png,GW/leesburg.png,,,,,,,,,,,,,,,,,
1208.2999999998137,,rt_thecrossant_black,596483,,black_plus_sign,,,,50,,,1,0.9859154929577465,,,,,,,,,,,,,,,
null,,color_black,596586,,black_plus_sign,,,,null,,,,,,,,,,,,,,,,,,,
null,,learn_phase(without_color),599591,,black_plus_sign,,,,null,GW/leesburg.png,GW/hotsprings.png,,,,,,,,,,,,,,,,,
null,,black_cross(without_color),600519,,blue,,,,null,GW/leesburg.png,GW/hotsprings.png,,,,,,,,,,,,,,,,,
null,,rt_plussign_withcolor,601021,,blue,,,,null,GW/leesburg.png,GW/hotsprings.png,,,,,,,,,,,,,,,,,
986.9000000003725,,rt_thecrossant_black,602101,,black_plus_sign,,,,49,,,1,0.9861111111111112,,,,,,,,,,,,,,,
null,,color_black,602204,,black_plus_sign,,,,null,,,,,,,,,,,,,,,,,,,
null,,learn_phase(without_color),605210,,black_plus_sign,,,,null,GW/huntsville.png,GW/leesburg.png,,,,,,,,,,,,,,,,,
null,,black_cross(without_color),606210,,blue,,,,null,GW/huntsville.png,GW/leesburg.png,,,,,,,,,,,,,,,,,
null,,rt_plussign_withcolor,606713,,blue,,,,null,GW/huntsville.png,GW/leesburg.png,,,,,,,,,,,,,,,,,
1170.800000000745,,rt_thecrossant_black,607721,,black_plus_sign,,,,49,,,1,0.9863013698630136,,,,,,,,,,,,,,,
null,,color_black,607825,,black_plus_sign,,,,null,,,,,,,,,,,,,,,,,,,
null,,learn_phase(without_color),610829,,black_plus_sign,,,,null,GW/cornwall.png,GW/hotsprings.png,,,,,,,,,,,,,,,,,
null,,black_cross(without_color),611692,,yellow,,,,null,GW/cornwall.png,GW/hotsprings.png,,,,,,,,,,,,,,,,,
null,,rt_plussign_withcolor,612194,,yellow,,,,null,GW/cornwall.png,GW/hotsprings.png,,,,,,,,,,,,,,,,,
1288.2999999998137,,rt_thecrossant_black,613339,,black_plus_sign,,,,50,,,1,0.9864864864864865,,,,,,,,,,,,,,,
null,,color_black,613443,,black_plus_sign,,,,null,,,,,,,,,,,,,,,,,,,
null,,learn_phase(without_color),616448,,black_plus_sign,,,,null,GW/peoria.png,GW/westpalmbeach.png,,,,,,,,,,,,,,,,,
null,,black_cross(without_color),617121,,yellow,,,,null,GW/peoria.png,GW/westpalmbeach.png,,,,,,,,,,,,,,,,,
null,,rt_plussign_withcolor,617624,,yellow,,,,null,GW/peoria.png,GW/westpalmbeach.png,,,,,,,,,,,,,,,,,
1214.9000000003725,,rt_thecrossant_black,618957,,black_plus_sign,,,,50,,,1,0.9866666666666667,,,,,,,,,,,,,,,
null,,color_black,619062,,black_plus_sign,,,,null,,,,,,,,,,,,,,,,,,,
null,,learn_phase(without_color),622066,,black_plus_sign,,,,null,GW/shreveport.png,GW/leesburg.png,,,,,,,,,,,,,,,,,
null,,black_cross(without_color),623009,,yellow,,,,null,GW/shreveport.png,GW/leesburg.png,,,,,,,,,,,,,,,,,
null,,rt_plussign_withcolor,623513,,yellow,,,,null,GW/shreveport.png,GW/leesburg.png,,,,,,,,,,,,,,,,,
1026.699999999255,,rt_thecrossant_black,624577,,black_plus_sign,,,,50,,,1,0.9868421052631579,,,,,,,,,,,,,,,
null,,color_black,624681,,black_plus_sign,,,,null,,,,,,,,,,,,,,,,,,,
null,,learn_phase(without_color),627687,,black_plus_sign,,,,null,GW/carmel.png,GW/boulder.png,,,,,,,,,,,,,,,,,
null,,black_cross(without_color),628238,,yellow,,,,null,GW/carmel.png,GW/boulder.png,,,,,,,,,,,,,,,,,
null,,rt_plussign_withcolor,628741,,yellow,,,,null,GW/carmel.png,GW/boulder.png,,,,,,,,,,,,,,,,,
1896.5,,rt_thecrossant_black,630196,,black_plus_sign,,,,50,,,1,0.987012987012987,,,,,,,,,,,,,,,
null,,color_black,630301,,black_plus_sign,,,,null,,,,,,,,,,,,,,,,,,,
null,,learn_phase(without_color),633306,,black_plus_sign,,,,null,GW/westpalmbeach.png,GW/peoria.png,,,,,,,,,,,,,,,,,
null,,black_cross(without_color),634299,,yellow,,,,null,GW/westpalmbeach.png,GW/peoria.png,,,,,,,,,,,,,,,,,
null,,rt_plussign_withcolor,634802,,yellow,,,,null,GW/westpalmbeach.png,GW/peoria.png,,,,,,,,,,,,,,,,,
922.2000000001863,,rt_thecrossant_black,635816,,black_plus_sign,,,,50,,,1,0.9871794871794872,,,,,,,,,,,,,,,
null,,color_black,635920,,black_plus_sign,,,,null,,,,,,,,,,,,,,,,,,,
null,,learn_phase(without_color),638924,,black_plus_sign,,,,null,GW/newhope.png,GW/boulder.png,,,,,,,,,,,,,,,,,
null,,black_cross(without_color),639592,,blue,,,,null,GW/newhope.png,GW/boulder.png,,,,,,,,,,,,,,,,,
null,,rt_plussign_withcolor,640095,,blue,,,,null,GW/newhope.png,GW/boulder.png,,,,,,,,,,,,,,,,,
1277.4000000003725,,rt_thecrossant_black,641434,,black_plus_sign,,,,49,,,1,0.9873417721518988,,,,,,,,,,,,,,,
null,,color_black,641538,,black_plus_sign,,,,null,,,,,,,,,,,,,,,,,,,
null,,learn_phase(without_color),644543,,black_plus_sign,,,,null,GW/peoria.png,GW/boulder.png,,,,,,,,,,,,,,,,,
null,,black_cross(without_color),645367,,blue,,,,null,GW/peoria.png,GW/boulder.png,,,,,,,,,,,,,,,,,
null,,rt_plussign_withcolor,645870,,blue,,,,null,GW/peoria.png,GW/boulder.png,,,,,,,,,,,,,,,,,
1023.6000000005588,,rt_thecrossant_black,647054,,black_plus_sign,,,,49,,,1,0.9875,,,,,,,,,,,,,,,
null,,color_black,647157,,black_plus_sign,,,,null,,,,,,,,,,,,,,,,,,,
null,,learn_phase(without_color),650162,,black_plus_sign,,,,null,GW/hotsprings.png,GW/cornwall.png,,,,,,,,,,,,,,,,,
null,,black_cross(without_color),651031,,blue,,,,null,GW/hotsprings.png,GW/cornwall.png,,,,,,,,,,,,,,,,,
null,,rt_plussign_withcolor,651534,,blue,,,,null,GW/hotsprings.png,GW/cornwall.png,,,,,,,,,,,,,,,,,
996.5,,rt_thecrossant_black,652673,,black_plus_sign,,,,49,,,1,0.9876543209876543,,,,,,,,,,,,,,,
null,,color_black,652776,,black_plus_sign,,,,null,,,,,,,,,,,,,,,,,,,
null,,learn_phase(without_color),655782,,black_plus_sign,,,,null,GW/leesburg.png,GW/westpalmbeach.png,,,,,,,,,,,,,,,,,
null,,black_cross(without_color),656732,,blue,,,,null,GW/leesburg.png,GW/westpalmbeach.png,,,,,,,,,,,,,,,,,
null,,rt_plussign_withcolor,657236,,blue,,,,null,GW/leesburg.png,GW/westpalmbeach.png,,,,,,,,,,,,,,,,,
1151.7999999998137,,rt_thecrossant_black,658293,,black_plus_sign,,,,49,,,1,0.9878048780487805,,,,,,,,,,,,,,,
null,,color_black,658397,,black_plus_sign,,,,null,,,,,,,,,,,,,,,,,,,
null,,learn_phase(without_color),661402,,black_plus_sign,,,,null,GW/cornwall.png,GW/hotsprings.png,,,,,,,,,,,,,,,,,
null,,black_cross(without_color),662018,,blue,,,,null,GW/cornwall.png,GW/hotsprings.png,,,,,,,,,,,,,,,,,
null,,rt_plussign_withcolor,662522,,blue,,,,null,GW/cornwall.png,GW/hotsprings.png,,,,,,,,,,,,,,,,,
1186.2000000001863,,rt_thecrossant_black,663912,,black_plus_sign,,,,49,,,1,0.9879518072289156,,,,,,,,,,,,,,,
null,,color_black,664016,,black_plus_sign,,,,null,,,,,,,,,,,,,,,,,,,
null,,learn_phase(without_color),667021,,black_plus_sign,,,,null,GW/shreveport.png,GW/leesburg.png,,,,,,,,,,,,,,,,,
null,,black_cross(without_color),668125,,yellow,,,,null,GW/shreveport.png,GW/leesburg.png,,,,,,,,,,,,,,,,,
null,,rt_plussign_withcolor,668628,,yellow,,,,null,GW/shreveport.png,GW/leesburg.png,,,,,,,,,,,,,,,,,
1101.2000000001863,,rt_thecrossant_black,669532,,black_plus_sign,,,,50,,,1,0.9880952380952381,,,,,,,,,,,,,,,
null,,color_black,669636,,black_plus_sign,,,,null,,,,,,,,,,,,,,,,,,,
null,,learn_phase(without_color),672641,,black_plus_sign,,,,null,GW/racine.png,GW/huntsville.png,,,,,,,,,,,,,,,,,
null,,black_cross(without_color),673323,,blue,,,,null,GW/racine.png,GW/huntsville.png,,,,,,,,,,,,,,,,,
null,,rt_plussign_withcolor,673826,,blue,,,,null,GW/racine.png,GW/huntsville.png,,,,,,,,,,,,,,,,,
1418.7000000001863,,rt_thecrossant_black,675150,,black_plus_sign,,,,49,,,1,0.9882352941176471,,,,,,,,,,,,,,,
null,,color_black,675255,,black_plus_sign,,,,null,,,,,,,,,,,,,,,,,,,
null,,learn_phase(without_color),678259,,black_plus_sign,,,,null,GW/boulder.png,GW/carmel.png,,,,,,,,,,,,,,,,,
null,,black_cross(without_color),678974,,yellow,,,,null,GW/boulder.png,GW/carmel.png,,,,,,,,,,,,,,,,,
null,,rt_plussign_withcolor,679478,,yellow,,,,null,GW/boulder.png,GW/carmel.png,,,,,,,,,,,,,,,,,
1169.5,,rt_thecrossant_black,680771,,black_plus_sign,,,,50,,,1,0.9883720930232558,,,,,,,,,,,,,,,
null,,color_black,680875,,black_plus_sign,,,,null,,,,,,,,,,,,,,,,,,,
null,,learn_phase(without_color),683879,,black_plus_sign,,,,null,GW/shreveport.png,GW/gatlinburg.png,,,,,,,,,,,,,,,,,
null,,black_cross(without_color),684384,,blue,,,,null,GW/shreveport.png,GW/gatlinburg.png,,,,,,,,,,,,,,,,,
null,,rt_plussign_withcolor,684886,,blue,,,,null,GW/shreveport.png,GW/gatlinburg.png,,,,,,,,,,,,,,,,,
1119.9000000003725,,rt_thecrossant_black,686390,,black_plus_sign,,,,49,,,1,0.9885057471264368,,,,,,,,,,,,,,,
null,,color_black,686494,,black_plus_sign,,,,null,,,,,,,,,,,,,,,,,,,
null,,learn_phase(without_color),689498,,black_plus_sign,,,,null,GW/peoria.png,GW/hotsprings.png,,,,,,,,,,,,,,,,,
null,,black_cross(without_color),690286,,yellow,,,,null,GW/peoria.png,GW/hotsprings.png,,,,,,,,,,,,,,,,,
null,,rt_plussign_withcolor,690789,,yellow,,,,null,GW/peoria.png,GW/hotsprings.png,,,,,,,,,,,,,,,,,
1565.4000000003725,,rt_thecrossant_black,692009,,black_plus_sign,,,,50,,,1,0.9886363636363636,,,,,,,,,,,,,,,
null,,color_black,692112,,black_plus_sign,,,,null,,,,,,,,,,,,,,,,,,,
null,,learn_phase(without_color),695117,,black_plus_sign,,,,null,GW/cornwall.png,GW/newhope.png,,,,,,,,,,,,,,,,,
null,,black_cross(without_color),695962,,yellow,,,,null,GW/cornwall.png,GW/newhope.png,,,,,,,,,,,,,,,,,
null,,rt_plussign_withcolor,696466,,yellow,,,,null,GW/cornwall.png,GW/newhope.png,,,,,,,,,,,,,,,,,
1204.4000000003725,,rt_thecrossant_black,697628,,black_plus_sign,,,,49,,,0,0.9775280898876404,,,,,,,,,,,,,,,
null,,color_black,697732,,black_plus_sign,,,,null,,,,,,,,,,,,,,,,,,,
null,,learn_phase(without_color),700737,,black_plus_sign,,,,null,GW/racine.png,GW/huntsville.png,,,,,,,,,,,,,,,,,
null,,black_cross(without_color),701198,,blue,,,,null,GW/racine.png,GW/huntsville.png,,,,,,,,,,,,,,,,,
null,,rt_plussign_withcolor,701701,,blue,,,,null,GW/racine.png,GW/huntsville.png,,,,,,,,,,,,,,,,,
1182.699999999255,,rt_thecrossant_black,703248,,black_plus_sign,,,,49,,,1,0.9777777777777777,,,,,,,,,,,,,,,
null,,color_black,703353,,black_plus_sign,,,,null,,,,,,,,,,,,,,,,,,,
null,,learn_phase(without_color),706357,,black_plus_sign,,,,null,GW/hotsprings.png,GW/leesburg.png,,,,,,,,,,,,,,,,,
null,,black_cross(without_color),706963,,yellow,,,,null,GW/hotsprings.png,GW/leesburg.png,,,,,,,,,,,,,,,,,
null,,rt_plussign_withcolor,707466,,yellow,,,,null,GW/hotsprings.png,GW/leesburg.png,,,,,,,,,,,,,,,,,
665.3999999994412,,rt_thecrossant_black,708868,,black_plus_sign,,,,50,,,1,0.978021978021978,,,,,,,,,,,,,,,
null,,color_black,708973,,black_plus_sign,,,,null,,,,,,,,,,,,,,,,,,,
null,,learn_phase(without_color),711977,,black_plus_sign,,,,null,GW/hanover.png,GW/newhope.png,,,,,,,,,,,,,,,,,
null,,black_cross(without_color),712763,,blue,,,,null,GW/hanover.png,GW/newhope.png,,,,,,,,,,,,,,,,,
null,,rt_plussign_withcolor,713266,,blue,,,,null,GW/hanover.png,GW/newhope.png,,,,,,,,,,,,,,,,,
1020.7999999998137,,rt_thecrossant_black,714489,,black_plus_sign,,,,49,,,1,0.9782608695652174,,,,,,,,,,,,,,,
null,,color_black,714593,,black_plus_sign,,,,null,,,,,,,,,,,,,,,,,,,
null,,learn_phase(without_color),717598,,black_plus_sign,,,,null,GW/newhope.png,GW/hanover.png,,,,,,,,,,,,,,,,,
null,,black_cross(without_color),718053,,yellow,,,,null,GW/newhope.png,GW/hanover.png,,,,,,,,,,,,,,,,,
null,,rt_plussign_withcolor,718556,,yellow,,,,null,GW/newhope.png,GW/hanover.png,,,,,,,,,,,,,,,,,
1182.0999999996275,,rt_thecrossant_black,720109,,black_plus_sign,,,,50,,,1,0.978494623655914,,,,,,,,,,,,,,,
null,,color_black,720213,,black_plus_sign,,,,null,,,,,,,,,,,,,,,,,,,
null,,learn_phase(without_color),723218,,black_plus_sign,,,,null,GW/shreveport.png,GW/westpalmbeach.png,,,,,,,,,,,,,,,,,
null,,black_cross(without_color),723949,,blue,,,,null,GW/shreveport.png,GW/westpalmbeach.png,,,,,,,,,,,,,,,,,
null,,rt_plussign_withcolor,724453,,blue,,,,null,GW/shreveport.png,GW/westpalmbeach.png,,,,,,,,,,,,,,,,,
1111.7000000001863,,rt_thecrossant_black,725730,,black_plus_sign,,,,49,,,1,0.9787234042553191,,,,,,,,,,,,,,,
null,,color_black,725834,,black_plus_sign,,,,null,,,,,,,,,,,,,,,,,,,
null,,learn_phase(without_color),728839,,black_plus_sign,,,,null,GW/boulder.png,GW/carmel.png,,,,,,,,,,,,,,,,,
null,,black_cross(without_color),729477,,blue,,,,null,GW/boulder.png,GW/carmel.png,,,,,,,,,,,,,,,,,
null,,rt_plussign_withcolor,729981,,blue,,,,null,GW/boulder.png,GW/carmel.png,,,,,,,,,,,,,,,,,
911.1000000005588,,rt_thecrossant_black,731351,,black_plus_sign,,,,49,,,1,0.9789473684210527,,,,,,,,,,,,,,,
null,,color_black,731455,,black_plus_sign,,,,null,,,,,,,,,,,,,,,,,,,
null,,learn_phase(without_color),734460,,black_plus_sign,,,,null,GW/peoria.png,GW/boulder.png,,,,,,,,,,,,,,,,,
null,,black_cross(without_color),735109,,yellow,,,,null,GW/peoria.png,GW/boulder.png,,,,,,,,,,,,,,,,,
null,,rt_plussign_withcolor,735612,,yellow,,,,null,GW/peoria.png,GW/boulder.png,,,,,,,,,,,,,,,,,
939.3000000007451,,rt_thecrossant_black,736972,,black_plus_sign,,,,50,,,1,0.9791666666666666,,,,,,,,,,,,,,,
null,,color_black,737076,,black_plus_sign,,,,null,,,,,,,,,,,,,,,,,,,
null,,learn_phase(without_color),740081,,black_plus_sign,,,,null,GW/leesburg.png,GW/westpalmbeach.png,,,,,,,,,,,,,,,,,
null,,black_cross(without_color),740633,,blue,,,,null,GW/leesburg.png,GW/westpalmbeach.png,,,,,,,,,,,,,,,,,
null,,rt_plussign_withcolor,741136,,blue,,,,null,GW/leesburg.png,GW/westpalmbeach.png,,,,,,,,,,,,,,,,,
961.0999999996275,,rt_thecrossant_black,742591,,black_plus_sign,,,,49,,,1,0.979381443298969,,,,,,,,,,,,,,,
null,,color_black,742695,,black_plus_sign,,,,null,,,,,,,,,,,,,,,,,,,
null,,learn_phase(without_color),745699,,black_plus_sign,,,,null,GW/carmel.png,GW/boulder.png,,,,,,,,,,,,,,,,,
null,,black_cross(without_color),746435,,yellow,,,,null,GW/carmel.png,GW/boulder.png,,,,,,,,,,,,,,,,,
null,,rt_plussign_withcolor,746939,,yellow,,,,null,GW/carmel.png,GW/boulder.png,,,,,,,,,,,,,,,,,
1073.8999999994412,,rt_thecrossant_black,748210,,black_plus_sign,,,,50,,,1,0.9795918367346939,,,,,,,,,,,,,,,
null,,color_black,748315,,black_plus_sign,,,,null,,,,,,,,,,,,,,,,,,,
null,,learn_phase(without_color),751320,,black_plus_sign,,,,null,GW/peoria.png,GW/westpalmbeach.png,,,,,,,,,,,,,,,,,
null,,black_cross(without_color),752078,,yellow,,,,null,GW/peoria.png,GW/westpalmbeach.png,,,,,,,,,,,,,,,,,
null,,rt_plussign_withcolor,752581,,yellow,,,,null,GW/peoria.png,GW/westpalmbeach.png,,,,,,,,,,,,,,,,,
969.4000000003725,,rt_thecrossant_black,753830,,black_plus_sign,,,,50,,,1,0.9797979797979798,,,,,,,,,,,,,,,
null,,color_black,753934,,black_plus_sign,,,,null,,,,,,,,,,,,,,,,,,,
null,,learn_phase(without_color),756939,,black_plus_sign,,,,null,GW/boulder.png,GW/peoria.png,,,,,,,,,,,,,,,,,
null,,black_cross(without_color),757756,,yellow,,,,null,GW/boulder.png,GW/peoria.png,,,,,,,,,,,,,,,,,
null,,rt_plussign_withcolor,758259,,yellow,,,,null,GW/boulder.png,GW/peoria.png,,,,,,,,,,,,,,,,,
1244.4000000003725,,rt_thecrossant_black,759449,,black_plus_sign,,,,50,,,1,0.98,,,,,,,,,,,,,,,
null,,color_black,759553,,black_plus_sign,,,,null,,,,,,,,,,,,,,,,,,,
null,,learn_phase(without_color),762558,,black_plus_sign,,,,null,GW/boulder.png,GW/newhope.png,,,,,,,,,,,,,,,,,
null,,black_cross(without_color),763353,,yellow,,,,null,GW/boulder.png,GW/newhope.png,,,,,,,,,,,,,,,,,
null,,rt_plussign_withcolor,763856,,yellow,,,,null,GW/boulder.png,GW/newhope.png,,,,,,,,,,,,,,,,,
1125.2999999998137,,rt_thecrossant_black,765068,,black_plus_sign,,,,50,,,1,0.9801980198019802,,,,,,,,,,,,,,,
null,,color_black,765172,,black_plus_sign,,,,null,,,,,,,,,,,,,,,,,,,
null,,learn_phase(without_color),768176,,black_plus_sign,,,,null,GW/cornwall.png,GW/newhope.png,,,,,,,,,,,,,,,,,
null,,black_cross(without_color),768947,,blue,,,,null,GW/cornwall.png,GW/newhope.png,,,,,,,,,,,,,,,,,
null,,rt_plussign_withcolor,769449,,blue,,,,null,GW/cornwall.png,GW/newhope.png,,,,,,,,,,,,,,,,,
1319,,rt_thecrossant_black,770685,,black_plus_sign,,,,49,,,1,0.9803921568627451,,,,,,,,,,,,,,,
null,,color_black,770789,,black_plus_sign,,,,null,,,,,,,,,,,,,,,,,,,
null,,learn_phase(without_color),773791,,black_plus_sign,,,,null,GW/shreveport.png,GW/huntsville.png,,,,,,,,,,,,,,,,,
null,,black_cross(without_color),774382,,blue,,,,null,GW/shreveport.png,GW/huntsville.png,,,,,,,,,,,,,,,,,
null,,rt_plussign_withcolor,774885,,blue,,,,null,GW/shreveport.png,GW/huntsville.png,,,,,,,,,,,,,,,,,
1288.2000000001863,,rt_thecrossant_black,776299,,black_plus_sign,,,,49,,,1,0.9805825242718447,,,,,,,,,,,,,,,
null,,color_black,776403,,black_plus_sign,,,,null,,,,,,,,,,,,,,,,,,,
null,,learn_phase(without_color),779407,,black_plus_sign,,,,null,GW/huntsville.png,GW/racine.png,,,,,,,,,,,,,,,,,
null,,black_cross(without_color),779845,,yellow,,,,null,GW/huntsville.png,GW/racine.png,,,,,,,,,,,,,,,,,
null,,rt_plussign_withcolor,780348,,yellow,,,,null,GW/huntsville.png,GW/racine.png,,,,,,,,,,,,,,,,,
988.2999999998137,,rt_thecrossant_black,781917,,black_plus_sign,,,,50,,,1,0.9807692307692307,,,,,,,,,,,,,,,
null,,color_black,782021,,black_plus_sign,,,,null,,,,,,,,,,,,,,,,,,,
null,,learn_phase(without_color),785025,,black_plus_sign,,,,null,GW/hanover.png,GW/newhope.png,,,,,,,,,,,,,,,,,
null,,black_cross(without_color),785536,,blue,,,,null,GW/hanover.png,GW/newhope.png,,,,,,,,,,,,,,,,,
null,,rt_plussign_withcolor,786039,,blue,,,,null,GW/hanover.png,GW/newhope.png,,,,,,,,,,,,,,,,,
1142.2999999998137,,rt_thecrossant_black,787536,,black_plus_sign,,,,49,,,1,0.9809523809523809,,,,,,,,,,,,,,,
null,,color_black,787640,,black_plus_sign,,,,null,,,,,,,,,,,,,,,,,,,
null,,learn_phase(without_color),790644,,black_plus_sign,,,,null,GW/gatlinburg.png,GW/shreveport.png,,,,,,,,,,,,,,,,,
null,,black_cross(without_color),791421,,yellow,,,,null,GW/gatlinburg.png,GW/shreveport.png,,,,,,,,,,,,,,,,,
null,,rt_plussign_withcolor,791924,,yellow,,,,null,GW/gatlinburg.png,GW/shreveport.png,,,,,,,,,,,,,,,,,
1020.7999999998137,,rt_thecrossant_black,793155,,black_plus_sign,,,,50,,,1,0.9811320754716981,,,,,,,,,,,,,,,
null,,color_black,793259,,black_plus_sign,,,,null,,,,,,,,,,,,,,,,,,,
null,,learn_phase(without_color),796264,,black_plus_sign,,,,null,GW/shreveport.png,GW/westpalmbeach.png,,,,,,,,,,,,,,,,,
null,,black_cross(without_color),797145,,yellow,,,,null,GW/shreveport.png,GW/westpalmbeach.png,,,,,,,,,,,,,,,,,
null,,rt_plussign_withcolor,797648,,yellow,,,,null,GW/shreveport.png,GW/westpalmbeach.png,,,,,,,,,,,,,,,,,
1853.2000000001863,,rt_thecrossant_black,798775,,black_plus_sign,,,,50,,,1,0.9813084112149533,,,,,,,,,,,,,,,
null,,color_black,798878,,black_plus_sign,,,,null,,,,,,,,,,,,,,,,,,,
null,,learn_phase(without_color),801883,,black_plus_sign,,,,null,GW/leesburg.png,GW/westpalmbeach.png,,,,,,,,,,,,,,,,,
null,,black_cross(without_color),802314,,yellow,,,,null,GW/leesburg.png,GW/westpalmbeach.png,,,,,,,,,,,,,,,,,
null,,rt_plussign_withcolor,802818,,yellow,,,,null,GW/leesburg.png,GW/westpalmbeach.png,,,,,,,,,,,,,,,,,
1125.5999999996275,,rt_thecrossant_black,804395,,black_plus_sign,,,,50,,,1,0.9814814814814815,,,,,,,,,,,,,,,
null,,color_black,804500,,black_plus_sign,,,,null,,,,,,,,,,,,,,,,,,,
null,,learn_phase(without_color),807505,,black_plus_sign,,,,null,GW/huntsville.png,GW/leesburg.png,,,,,,,,,,,,,,,,,
null,,black_cross(without_color),807910,,yellow,,,,null,GW/huntsville.png,GW/leesburg.png,,,,,,,,,,,,,,,,,
null,,rt_plussign_withcolor,808414,,yellow,,,,null,GW/huntsville.png,GW/leesburg.png,,,,,,,,,,,,,,,,,
900.2000000001863,,rt_thecrossant_black,810015,,black_plus_sign,,,,50,,,1,0.981651376146789,,,,,,,,,,,,,,,
null,,color_black,810119,,black_plus_sign,,,,null,,,,,,,,,,,,,,,,,,,
null,,learn_phase(without_color),813124,,black_plus_sign,,,,null,GW/carmel.png,GW/boulder.png,,,,,,,,,,,,,,,,,
null,,black_cross(without_color),813947,,yellow,,,,null,GW/carmel.png,GW/boulder.png,,,,,,,,,,,,,,,,,
null,,rt_plussign_withcolor,814450,,yellow,,,,null,GW/carmel.png,GW/boulder.png,,,,,,,,,,,,,,,,,
504.5,,rt_thecrossant_black,815635,,black_plus_sign,,,,50,,,1,0.9818181818181818,,,,,,,,,,,,,,,
null,,color_black,815739,,black_plus_sign,,,,null,,,,,,,,,,,,,,,,,,,
null,,learn_phase(without_color),818745,,black_plus_sign,,,,null,GW/gatlinburg.png,GW/shreveport.png,,,,,,,,,,,,,,,,,
null,,black_cross(without_color),819685,,yellow,,,,null,GW/gatlinburg.png,GW/shreveport.png,,,,,,,,,,,,,,,,,
null,,rt_plussign_withcolor,820188,,yellow,,,,null,GW/gatlinburg.png,GW/shreveport.png,,,,,,,,,,,,,,,,,
952.0999999996275,,rt_thecrossant_black,821257,,black_plus_sign,,,,50,,,1,0.9819819819819819,,,,,,,,,,,,,,,
null,,color_black,821361,,black_plus_sign,,,,null,,,,,,,,,,,,,,,,,,,
null,,learn_phase(without_color),824366,,black_plus_sign,,,,null,GW/racine.png,GW/huntsville.png,,,,,,,,,,,,,,,,,
null,,black_cross(without_color),825393,,yellow,,,,null,GW/racine.png,GW/huntsville.png,,,,,,,,,,,,,,,,,
null,,rt_plussign_withcolor,825896,,yellow,,,,null,GW/racine.png,GW/huntsville.png,,,,,,,,,,,,,,,,,
1387,,rt_thecrossant_black,826878,,black_plus_sign,,,,50,,,1,0.9821428571428571,,,,,,,,,,,,,,,
null,,color_black,826982,,black_plus_sign,,,,null,,,,,,,,,,,,,,,,,,,
null,,learn_phase(without_color),829987,,black_plus_sign,,,,null,GW/newhope.png,GW/boulder.png,,,,,,,,,,,,,,,,,
null,,black_cross(without_color),830748,,yellow,,,,null,GW/newhope.png,GW/boulder.png,,,,,,,,,,,,,,,,,
null,,rt_plussign_withcolor,831251,,yellow,,,,null,GW/newhope.png,GW/boulder.png,,,,,,,,,,,,,,,,,
1226.5,,rt_thecrossant_black,832499,,black_plus_sign,,,,50,,,1,0.9823008849557522,,,,,,,,,,,,,,,
null,,color_black,832603,,black_plus_sign,,,,null,,,,,,,,,,,,,,,,,,,
null,,learn_phase(without_color),835608,,black_plus_sign,,,,null,GW/huntsville.png,GW/leesburg.png,,,,,,,,,,,,,,,,,
null,,black_cross(without_color),836083,,blue,,,,null,GW/huntsville.png,GW/leesburg.png,,,,,,,,,,,,,,,,,
null,,rt_plussign_withcolor,836586,,blue,,,,null,GW/huntsville.png,GW/leesburg.png,,,,,,,,,,,,,,,,,
979.5999999996275,,rt_thecrossant_black,838119,,black_plus_sign,,,,49,,,1,0.9824561403508771,,,,,,,,,,,,,,,
null,,color_black,838224,,black_plus_sign,,,,null,,,,,,,,,,,,,,,,,,,
null,,learn_phase(without_color),841229,,black_plus_sign,,,,null,GW/westpalmbeach.png,GW/leesburg.png,,,,,,,,,,,,,,,,,
null,,black_cross(without_color),842278,,yellow,,,,null,GW/westpalmbeach.png,GW/leesburg.png,,,,,,,,,,,,,,,,,
null,,rt_plussign_withcolor,842781,,yellow,,,,null,GW/westpalmbeach.png,GW/leesburg.png,,,,,,,,,,,,,,,,,
1449.7999999998137,,rt_thecrossant_black,843740,,black_plus_sign,,,,50,,,1,0.9826086956521739,,,,,,,,,,,,,,,
null,,color_black,843844,,black_plus_sign,,,,null,,,,,,,,,,,,,,,,,,,
null,,learn_phase(without_color),846849,,black_plus_sign,,,,null,GW/huntsville.png,GW/racine.png,,,,,,,,,,,,,,,,,
null,,black_cross(without_color),847746,,blue,,,,null,GW/huntsville.png,GW/racine.png,,,,,,,,,,,,,,,,,
null,,rt_plussign_withcolor,848250,,blue,,,,null,GW/huntsville.png,GW/racine.png,,,,,,,,,,,,,,,,,
1288.7000000001863,,rt_thecrossant_black,849360,,black_plus_sign,,,,49,,,1,0.9827586206896551,,,,,,,,,,,,,,,
null,,color_black,849463,,black_plus_sign,,,,null,,,,,,,,,,,,,,,,,,,
null,,learn_phase(without_color),852468,,black_plus_sign,,,,null,GW/westpalmbeach.png,GW/peoria.png,,,,,,,,,,,,,,,,,
null,,black_cross(without_color),853176,,yellow,,,,null,GW/westpalmbeach.png,GW/peoria.png,,,,,,,,,,,,,,,,,
null,,rt_plussign_withcolor,853679,,yellow,,,,null,GW/westpalmbeach.png,GW/peoria.png,,,,,,,,,,,,,,,,,
1078.4000000003725,,rt_thecrossant_black,854979,,black_plus_sign,,,,50,,,1,0.9829059829059829,,,,,,,,,,,,,,,
null,,color_black,855084,,black_plus_sign,,,,null,,,,,,,,,,,,,,,,,,,
null,,learn_phase(without_color),858088,,black_plus_sign,,,,null,GW/newhope.png,GW/hanover.png,,,,,,,,,,,,,,,,,
null,,black_cross(without_color),858546,,blue,,,,null,GW/newhope.png,GW/hanover.png,,,,,,,,,,,,,,,,,
null,,rt_plussign_withcolor,859048,,blue,,,,null,GW/newhope.png,GW/hanover.png,,,,,,,,,,,,,,,,,
970.2999999998137,,rt_thecrossant_black,860600,,black_plus_sign,,,,49,,,1,0.9830508474576272,,,,,,,,,,,,,,,
null,,color_black,860704,,black_plus_sign,,,,null,,,,,,,,,,,,,,,,,,,
null,,learn_phase(without_color),863710,,black_plus_sign,,,,null,GW/huntsville.png,GW/leesburg.png,,,,,,,,,,,,,,,,,
null,,black_cross(without_color),864711,,blue,,,,null,GW/huntsville.png,GW/leesburg.png,,,,,,,,,,,,,,,,,
null,,rt_plussign_withcolor,865214,,blue,,,,null,GW/huntsville.png,GW/leesburg.png,,,,,,,,,,,,,,,,,
1061.5999999996275,,rt_thecrossant_black,866222,,black_plus_sign,,,,49,,,1,0.9831932773109243,,,,,,,,,,,,,,,
null,,color_black,866326,,black_plus_sign,,,,null,,,,,,,,,,,,,,,,,,,
null,,learn_phase(without_color),869331,,black_plus_sign,,,,null,GW/leesburg.png,GW/huntsville.png,,,,,,,,,,,,,,,,,
null,,black_cross(without_color),870103,,yellow,,,,null,GW/leesburg.png,GW/huntsville.png,,,,,,,,,,,,,,,,,
null,,rt_plussign_withcolor,870606,,yellow,,,,null,GW/leesburg.png,GW/huntsville.png,,,,,,,,,,,,,,,,,
1237,,rt_thecrossant_black,871842,,black_plus_sign,,,,50,,,1,0.9833333333333333,,,,,,,,,,,,,,,
null,,color_black,871946,,black_plus_sign,,,,null,,,,,,,,,,,,,,,,,,,
null,,learn_phase(without_color),874952,,black_plus_sign,,,,null,GW/shreveport.png,GW/huntsville.png,,,,,,,,,,,,,,,,,
null,,black_cross(without_color),875805,,yellow,,,,null,GW/shreveport.png,GW/huntsville.png,,,,,,,,,,,,,,,,,
null,,rt_plussign_withcolor,876308,,yellow,,,,null,GW/shreveport.png,GW/huntsville.png,,,,,,,,,,,,,,,,,
895.0999999996275,,rt_thecrossant_black,877462,,black_plus_sign,,,,50,,,1,0.9834710743801653,,,,,,,,,,,,,,,
null,,color_black,877567,,black_plus_sign,,,,null,,,,,,,,,,,,,,,,,,,
null,,learn_phase(without_color),880573,,black_plus_sign,,,,null,GW/shreveport.png,GW/gatlinburg.png,,,,,,,,,,,,,,,,,
null,,black_cross(without_color),881547,,yellow,,,,null,GW/shreveport.png,GW/gatlinburg.png,,,,,,,,,,,,,,,,,
null,,rt_plussign_withcolor,882050,,yellow,,,,null,GW/shreveport.png,GW/gatlinburg.png,,,,,,,,,,,,,,,,,
973.8000000007451,,rt_thecrossant_black,883084,,black_plus_sign,,,,50,,,1,0.9836065573770492,,,,,,,,,,,,,,,
null,,color_black,883189,,black_plus_sign,,,,null,,,,,,,,,,,,,,,,,,,
null,,learn_phase(without_color),886194,,black_plus_sign,,,,null,GW/huntsville.png,GW/shreveport.png,,,,,,,,,,,,,,,,,
null,,black_cross(without_color),887145,,yellow,,,,null,GW/huntsville.png,GW/shreveport.png,,,,,,,,,,,,,,,,,
null,,rt_plussign_withcolor,887648,,yellow,,,,null,GW/huntsville.png,GW/shreveport.png,,,,,,,,,,,,,,,,,
1372.1000000005588,,rt_thecrossant_black,888706,,black_plus_sign,,,,50,,,1,0.983739837398374,,,,,,,,,,,,,,,
null,,color_black,888810,,black_plus_sign,,,,null,,,,,,,,,,,,,,,,,,,
null,,learn_phase(without_color),891815,,black_plus_sign,,,,null,GW/gatlinburg.png,GW/shreveport.png,,,,,,,,,,,,,,,,,
null,,black_cross(without_color),892797,,yellow,,,,null,GW/gatlinburg.png,GW/shreveport.png,,,,,,,,,,,,,,,,,
null,,rt_plussign_withcolor,893299,,yellow,,,,null,GW/gatlinburg.png,GW/shreveport.png,,,,,,,,,,,,,,,,,
1253.8999999994412,,rt_thecrossant_black,894325,,black_plus_sign,,,,50,,,1,0.9838709677419355,,,,,,,,,,,,,,,
null,,color_black,894429,,black_plus_sign,,,,null,,,,,,,,,,,,,,,,,,,
null,,learn_phase(without_color),897435,,black_plus_sign,,,,null,GW/westpalmbeach.png,GW/shreveport.png,,,,,,,,,,,,,,,,,
null,,black_cross(without_color),898498,,yellow,,,,null,GW/westpalmbeach.png,GW/shreveport.png,,,,,,,,,,,,,,,,,
null,,rt_plussign_withcolor,899002,,yellow,,,,null,GW/westpalmbeach.png,GW/shreveport.png,,,,,,,,,,,,,,,,,
1080.5999999996275,,rt_thecrossant_black,899946,,black_plus_sign,,,,50,,,1,0.984,,,,,,,,,,,,,,,
null,,color_black,900051,,black_plus_sign,,,,null,,,,,,,,,,,,,,,,,,,
null,,learn_phase(without_color),903056,,black_plus_sign,,,,null,GW/shreveport.png,GW/westpalmbeach.png,,,,,,,,,,,,,,,,,
null,,black_cross(without_color),903831,,blue,,,,null,GW/shreveport.png,GW/westpalmbeach.png,,,,,,,,,,,,,,,,,
null,,rt_plussign_withcolor,904335,,blue,,,,null,GW/shreveport.png,GW/westpalmbeach.png,,,,,,,,,,,,,,,,,
1333.7000000001863,,rt_thecrossant_black,905568,,black_plus_sign,,,,49,,,1,0.9841269841269841,,,,,,,,,,,,,,,
null,,color_black,905672,,black_plus_sign,,,,null,,,,,,,,,,,,,,,,,,,
null,,learn_phase(without_color),908678,,black_plus_sign,,,,null,GW/newhope.png,GW/cornwall.png,,,,,,,,,,,,,,,,,
null,,black_cross(without_color),909546,,blue,,,,null,GW/newhope.png,GW/cornwall.png,,,,,,,,,,,,,,,,,
null,,rt_plussign_withcolor,910049,,blue,,,,null,GW/newhope.png,GW/cornwall.png,,,,,,,,,,,,,,,,,
898.8000000007451,,rt_thecrossant_black,911190,,black_plus_sign,,,,49,,,1,0.984251968503937,,,,,,,,,,,,,,,
null,,color_black,911294,,black_plus_sign,,,,null,,,,,,,,,,,,,,,,,,,
null,,learn_phase(without_color),914299,,black_plus_sign,,,,null,GW/huntsville.png,GW/racine.png,,,,,,,,,,,,,,,,,
null,,black_cross(without_color),914779,,yellow,,,,null,GW/huntsville.png,GW/racine.png,,,,,,,,,,,,,,,,,
null,,rt_plussign_withcolor,915282,,yellow,,,,null,GW/huntsville.png,GW/racine.png,,,,,,,,,,,,,,,,,
1030.2000000001863,,rt_thecrossant_black,916811,,black_plus_sign,,,,49,,,0,0.9765625,,,,,,,,,,,,,,,
null,,color_black,916915,,black_plus_sign,,,,null,,,,,,,,,,,,,,,,,,,
null,,learn_break,976919,,learn_break,,,,null,,,,,,,,,,,,,,,,,,,
22845.200000000186,,intro_1,999767,,instruct,,0,Start,,,,,,,,,,,,,,,,,,,,
1462.7000000001863,,directmemory_phase,1001233,,GW/gatlinburg.png,,,,49,,,1,1,GW/shreveport.png,GW/hotsprings.png,GW/huntsville.png,GW/shreveport.png,GW/huntsville.png,GW/hotsprings.png,1,,,,,,,,
null,,html-keyboard-response,1002238,,<p></p>,,,,null,,,,,,,,,,,,,,,,,,,
1881.7999999998137,,directmemory_phase,1004123,,GW/newhope.png,,,,51,,,1,1,GW/shreveport.png,GW/peoria.png,GW/hanover.png,GW/hanover.png,GW/peoria.png,GW/shreveport.png,1,,,,,,,,
null,,html-keyboard-response,1005127,,<p></p>,,,,null,,,,,,,,,,,,,,,,,,,
868.7000000001863,,directmemory_phase,1005997,,GW/huntsville.png,,,,49,,,1,1,GW/shreveport.png,GW/peoria.png,GW/westpalmbeach.png,GW/shreveport.png,GW/westpalmbeach.png,GW/peoria.png,1,,,,,,,,
null,,html-keyboard-response,1006999,,<p></p>,,,,null,,,,,,,,,,,,,,,,,,,
947.3999999994412,,directmemory_phase,1007948,,GW/cornwall.png,,,,51,,,1,1,GW/shreveport.png,GW/hanover.png,GW/newhope.png,GW/newhope.png,GW/hanover.png,GW/shreveport.png,1,,,,,,,,
null,,html-keyboard-response,1008951,,<p></p>,,,,null,,,,,,,,,,,,,,,,,,,
1124.2999999998137,,directmemory_phase,1010077,,GW/peoria.png,,,,50,,,1,1,GW/leesburg.png,GW/westpalmbeach.png,GW/huntsville.png,GW/westpalmbeach.png,GW/leesburg.png,GW/huntsville.png,1,,,,,,,,
null,,html-keyboard-response,1011081,,<p></p>,,,,null,,,,,,,,,,,,,,,,,,,
913.1999999992549,,directmemory_phase,1011996,,GW/huntsville.png,,,,51,,,1,1,GW/peoria.png,GW/westpalmbeach.png,GW/leesburg.png,GW/leesburg.png,GW/westpalmbeach.png,GW/peoria.png,1,,,,,,,,
null,,html-keyboard-response,1013000,,<p></p>,,,,null,,,,,,,,,,,,,,,,,,,
787.6000000005588,,directmemory_phase,1013790,,GW/shreveport.png,,,,51,,,1,1,GW/boulder.png,GW/hotsprings.png,GW/gatlinburg.png,GW/gatlinburg.png,GW/hotsprings.png,GW/boulder.png,1,,,,,,,,
null,,html-keyboard-response,1014794,,<p></p>,,,,null,,,,,,,,,,,,,,,,,,,
1288.2000000001863,,directmemory_phase,1016085,,GW/peoria.png,,,,49,,,1,1,GW/hotsprings.png,GW/hanover.png,GW/leesburg.png,GW/hotsprings.png,GW/leesburg.png,GW/hanover.png,1,,,,,,,,
null,,html-keyboard-response,1017090,,<p></p>,,,,null,,,,,,,,,,,,,,,,,,,
1598.2000000001863,,directmemory_phase,1018691,,GW/huntsville.png,,,,51,,,1,1,GW/boulder.png,GW/westpalmbeach.png,GW/racine.png,GW/racine.png,GW/westpalmbeach.png,GW/boulder.png,1,,,,,,,,
null,,html-keyboard-response,1019695,,<p></p>,,,,null,,,,,,,,,,,,,,,,,,,
866.2000000001863,,directmemory_phase,1020564,,GW/hotsprings.png,,,,51,,,1,1,GW/hanover.png,GW/westpalmbeach.png,GW/peoria.png,GW/peoria.png,GW/westpalmbeach.png,GW/hanover.png,1,,,,,,,,
null,,html-keyboard-response,1021567,,<p></p>,,,,null,,,,,,,,,,,,,,,,,,,
1872.2999999998137,,directmemory_phase,1023442,,GW/westpalmbeach.png,,,,51,,,1,1,GW/newhope.png,GW/hotsprings.png,GW/leesburg.png,GW/leesburg.png,GW/hotsprings.png,GW/newhope.png,1,,,,,,,,
null,,html-keyboard-response,1024446,,<p></p>,,,,null,,,,,,,,,,,,,,,,,,,
5518.899999999441,,directmemory_phase,1029967,,GW/boulder.png,,,,49,,,1,1,GW/peoria.png,GW/shreveport.png,GW/hanover.png,GW/peoria.png,GW/hanover.png,GW/shreveport.png,1,,,,,,,,
null,,html-keyboard-response,1030972,,<p></p>,,,,null,,,,,,,,,,,,,,,,,,,
3399.7000000001863,,directmemory_phase,1034374,,GW/hotsprings.png,,,,49,,,1,1,GW/leesburg.png,GW/hanover.png,GW/boulder.png,GW/leesburg.png,GW/boulder.png,GW/hanover.png,1,,,,,,,,
null,,html-keyboard-response,1035377,,<p></p>,,,,null,,,,,,,,,,,,,,,,,,,
1713.5,,directmemory_phase,1037093,,GW/westpalmbeach.png,,,,49,,,1,1,GW/peoria.png,GW/cornwall.png,GW/huntsville.png,GW/peoria.png,GW/huntsville.png,GW/cornwall.png,1,,,,,,,,
null,,html-keyboard-response,1038097,,<p></p>,,,,null,,,,,,,,,,,,,,,,,,,
3017.7999999998137,,directmemory_phase,1041117,,GW/leesburg.png,,,,51,,,1,1,GW/newhope.png,GW/cornwall.png,GW/hotsprings.png,GW/hotsprings.png,GW/cornwall.png,GW/newhope.png,1,,,,,,,,
null,,html-keyboard-response,1042122,,<p></p>,,,,null,,,,,,,,,,,,,,,,,,,
1279.2000000001863,,directmemory_phase,1043403,,GW/boulder.png,,,,50,,,1,1,GW/hanover.png,GW/carmel.png,GW/gatlinburg.png,GW/carmel.png,GW/hanover.png,GW/gatlinburg.png,1,,,,,,,,
null,,html-keyboard-response,1044407,,<p></p>,,,,null,,,,,,,,,,,,,,,,,,,
3350.4000000003725,,directmemory_phase,1047759,,GW/leesburg.png,,,,51,,,1,1,GW/boulder.png,GW/peoria.png,GW/huntsville.png,GW/huntsville.png,GW/peoria.png,GW/boulder.png,1,,,,,,,,
null,,html-keyboard-response,1048762,,<p></p>,,,,null,,,,,,,,,,,,,,,,,,,
2140.7999999998137,,directmemory_phase,1050905,,GW/boulder.png,,,,49,,,1,1,GW/newhope.png,GW/gatlinburg.png,GW/westpalmbeach.png,GW/newhope.png,GW/westpalmbeach.png,GW/gatlinburg.png,1,,,,,,,,
null,,html-keyboard-response,1051909,,<p></p>,,,,null,,,,,,,,,,,,,,,,,,,
2786.4000000003725,,directmemory_phase,1054697,,GW/leesburg.png,,,,51,,,1,1,GW/boulder.png,GW/cornwall.png,GW/westpalmbeach.png,GW/westpalmbeach.png,GW/cornwall.png,GW/boulder.png,1,,,,,,,,
null,,html-keyboard-response,1055702,,<p></p>,,,,null,,,,,,,,,,,,,,,,,,,
896.5,,directmemory_phase,1056600,,GW/carmel.png,,,,50,,,1,1,GW/peoria.png,GW/boulder.png,GW/cornwall.png,GW/boulder.png,GW/peoria.png,GW/cornwall.png,1,,,,,,,,
null,,html-keyboard-response,1057604,,<p></p>,,,,null,,,,,,,,,,,,,,,,,,,
1290.199999999255,,directmemory_phase,1058896,,GW/shreveport.png,,,,51,,,1,1,GW/carmel.png,GW/peoria.png,GW/westpalmbeach.png,GW/westpalmbeach.png,GW/peoria.png,GW/carmel.png,1,,,,,,,,
null,,html-keyboard-response,1059898,,<p></p>,,,,null,,,,,,,,,,,,,,,,,,,
872.6000000005588,,directmemory_phase,1060773,,GW/hanover.png,,,,51,,,1,1,GW/peoria.png,GW/cornwall.png,GW/newhope.png,GW/newhope.png,GW/cornwall.png,GW/peoria.png,1,,,,,,,,
null,,html-keyboard-response,1061776,,<p></p>,,,,null,,,,,,,,,,,,,,,,,,,
702.0999999996275,,directmemory_phase,1062480,,GW/racine.png,,,,51,,,1,1,GW/gatlinburg.png,GW/shreveport.png,GW/huntsville.png,GW/huntsville.png,GW/shreveport.png,GW/gatlinburg.png,1,,,,,,,,
null,,html-keyboard-response,1063485,,<p></p>,,,,null,,,,,,,,,,,,,,,,,,,
4439,,directmemory_phase,1067926,,GW/leesburg.png,,,,51,,,1,1,GW/carmel.png,GW/gatlinburg.png,GW/shreveport.png,GW/shreveport.png,GW/gatlinburg.png,GW/carmel.png,1,,,,,,,,
null,,html-keyboard-response,1068930,,<p></p>,,,,null,,,,,,,,,,,,,,,,,,,
1066.2999999998137,,directmemory_phase,1069998,,GW/newhope.png,,,,50,,,1,1,GW/hotsprings.png,GW/cornwall.png,GW/westpalmbeach.png,GW/cornwall.png,GW/hotsprings.png,GW/westpalmbeach.png,1,,,,,,,,
null,,html-keyboard-response,1071001,,<p></p>,,,,null,,,,,,,,,,,,,,,,,,,
2773.2000000001863,,directmemory_phase,1073776,,GW/peoria.png,,,,51,,,1,1,GW/gatlinburg.png,GW/newhope.png,GW/boulder.png,GW/boulder.png,GW/newhope.png,GW/gatlinburg.png,1,,,,,,,,
null,,html-keyboard-response,1074781,,<p></p>,,,,null,,,,,,,,,,,,,,,,,,,
818.2999999998137,,directmemory_phase,1075601,,GW/shreveport.png,,,,51,,,1,1,GW/boulder.png,GW/racine.png,GW/leesburg.png,GW/leesburg.png,GW/racine.png,GW/boulder.png,1,,,,,,,,
null,,html-keyboard-response,1076605,,<p></p>,,,,null,,,,,,,,,,,,,,,,,,,
1787.6000000005588,,directmemory_phase,1078395,,GW/cornwall.png,,,,49,,,1,1,GW/hotsprings.png,GW/shreveport.png,GW/hanover.png,GW/hotsprings.png,GW/hanover.png,GW/shreveport.png,1,,,,,,,,
null,,html-keyboard-response,1079399,,<p></p>,,,,null,,,,,,,,,,,,,,,,,,,
1232.199999999255,,directmemory_phase,1080634,,GW/westpalmbeach.png,,,,51,,,1,1,GW/hanover.png,GW/hotsprings.png,GW/shreveport.png,GW/shreveport.png,GW/hotsprings.png,GW/hanover.png,1,,,,,,,,
null,,html-keyboard-response,1081638,,<p></p>,,,,null,,,,,,,,,,,,,,,,,,,
2322.2999999998137,,directmemory_phase,1083963,,GW/hotsprings.png,,,,51,,,1,1,GW/carmel.png,GW/shreveport.png,GW/cornwall.png,GW/cornwall.png,GW/shreveport.png,GW/carmel.png,1,,,,,,,,
null,,html-keyboard-response,1084967,,<p></p>,,,,null,,,,,,,,,,,,,,,,,,,
1363.2000000001863,,directmemory_phase,1086333,,GW/shreveport.png,,,,50,,,1,1,GW/hotsprings.png,GW/huntsville.png,GW/cornwall.png,GW/huntsville.png,GW/hotsprings.png,GW/cornwall.png,1,,,,,,,,
null,,html-keyboard-response,1087336,,<p></p>,,,,null,,,,,,,,,,,,,,,,,,,
2662.5,,directmemory_phase,1090001,,GW/newhope.png,,,,49,,,1,1,GW/boulder.png,GW/huntsville.png,GW/carmel.png,GW/boulder.png,GW/carmel.png,GW/huntsville.png,1,,,,,,,,
null,,html-keyboard-response,1091005,,<p></p>,,,,null,,,,,,,,,,,,,,,,,,,
15242,,intro_1,1106249,,instruct,,0,,,,,,,,,,,,,,,,,,,,,
2612.0999999996275,,intro_2,1108863,,instruct,,1,Next,,,,,,,,,,,,,,,,,,,,
1811.4000000003725,,intro_3,1110678,,instruct,,1,Next,,,,,,,,,,,,,,,,,,,,
2127.5999999996275,,intro_4,1112808,,instruct,,1,Next,,,,,,,,,,,,,,,,,,,,
2820.2999999998137,,intro_5,1115632,,instruct,,1,Next,,,,,,,,,,,,,,,,,,,,
2417.2000000001863,,intro_6,1118052,,instruct,,1,Next,,,,,,,,,,,,,,,,,,,,
1246.2999999998137,,intro_7,1119302,,instruct,,1,Next,,,,,,,,,,,,,,,,,,,,
8370.600000000559,,intro_8,1127675,,instruct,,1,Next,,,,,,,,,,,,,,,,,,,,
null,,shortestpath_phase,1135180,,GW/newhope.png,,,,null,GW/gatlinburg.png,GW/hotsprings.png,0,0,,,,GW/hotsprings.png,,,,Three Edge Diff,Three Edge Six Edge,,,,,,
null,,warning_page,1138187,,warning,,,,null,,,,,,,,,,,,,,,,,,,
null,,html-keyboard-response,1139191,,<p></p>,,,,null,,,,,,,,,,,,,,,,,,,
3319.0999999996275,,shortestpath_phase,1142513,,GW/hanover.png,,,,49,GW/boulder.png,GW/shreveport.png,1,0.5,,,,GW/boulder.png,,,,Three Edge Diff,Three Edge Six Edge,,,,,,
null,,html-keyboard-response,1143516,,<p></p>,,,,null,,,,,,,,,,,,,,,,,,,
1722.4000000003725,,shortestpath_phase,1145242,,GW/racine.png,,,,49,GW/leesburg.png,GW/boulder.png,1,0.6666666666666666,,,,GW/leesburg.png,,,,Three Edge Diff,Two Edge Five Edge,,,,,,
null,,html-keyboard-response,1146247,,<p></p>,,,,null,,,,,,,,,,,,,,,,,,,
2997,,shortestpath_phase,1149247,,GW/gatlinburg.png,,,,49,GW/hotsprings.png,GW/boulder.png,1,0.75,,,,GW/hotsprings.png,,,,One Edge Diff,Three Edge Four Edge,,,,,,
null,,html-keyboard-response,1150251,,<p></p>,,,,null,,,,,,,,,,,,,,,,,,,
1412.8999999994412,,shortestpath_phase,1151667,,GW/racine.png,,,,49,GW/shreveport.png,GW/boulder.png,1,0.8,,,,GW/shreveport.png,,,,Three Edge Diff,Three Edge Six Edge,,,,,,
null,,html-keyboard-response,1152671,,<p></p>,,,,null,,,,,,,,,,,,,,,,,,,
2186.2000000001863,,shortestpath_phase,1154860,,GW/gatlinburg.png,,,,49,GW/huntsville.png,GW/hanover.png,1,0.8333333333333334,,,,GW/huntsville.png,,,,Four Edge Diff,Two Edge Six Edge,,,,,,
null,,html-keyboard-response,1155864,,<p></p>,,,,null,,,,,,,,,,,,,,,,,,,
2285.300000000745,,shortestpath_phase,1158152,,GW/racine.png,,,,49,GW/newhope.png,GW/carmel.png,1,0.8571428571428571,,,,GW/newhope.png,,,,One Edge Diff,Five Edge Six Edge,,,,,,
null,,html-keyboard-response,1159157,,<p></p>,,,,null,,,,,,,,,,,,,,,,,,,
2897.5999999996275,,shortestpath_phase,1162057,,GW/gatlinburg.png,,,,49,GW/cornwall.png,GW/carmel.png,1,0.875,,,,GW/cornwall.png,,,,One Edge Diff,Four Edge Five Edge,,,,,,
null,,html-keyboard-response,1163060,,<p></p>,,,,null,,,,,,,,,,,,,,,,,,,
3053.4000000003725,,shortestpath_phase,1166117,,GW/racine.png,,,,49,GW/peoria.png,GW/hanover.png,1,0.8888888888888888,,,,GW/peoria.png,,,,Two Edge Diff,Four Edge Six Edge,,,,,,
null,,html-keyboard-response,1167122,,<p></p>,,,,null,,,,,,,,,,,,,,,,,,,
3323.4000000003725,,shortestpath_phase,1170448,,GW/gatlinburg.png,,,,50,GW/hotsprings.png,GW/leesburg.png,1,0.9,,,,GW/leesburg.png,,,,One Edge Diff,Two Edge Three Edge,,,,,,
null,,html-keyboard-response,1171453,,<p></p>,,,,null,,,,,,,,,,,,,,,,,,,
2173.5,,shortestpath_phase,1173629,,GW/racine.png,,,,50,GW/carmel.png,GW/shreveport.png,1,0.9090909090909091,,,,GW/shreveport.png,,,,Four Edge Diff,Two Edge Six Edge,,,,,,
null,,html-keyboard-response,1174632,,<p></p>,,,,null,,,,,,,,,,,,,,,,,,,
3660.399999999441,,shortestpath_phase,1178295,,GW/peoria.png,,,,50,GW/racine.png,GW/gatlinburg.png,1,0.9166666666666666,,,,GW/gatlinburg.png,,,,One Edge Diff,Three Edge Four Edge,,,,,,
null,,html-keyboard-response,1179300,,<p></p>,,,,null,,,,,,,,,,,,,,,,,,,
1498.3999999994412,,shortestpath_phase,1180801,,GW/racine.png,,,,50,GW/hanover.png,GW/leesburg.png,1,0.9230769230769231,,,,GW/leesburg.png,,,,Four Edge Diff,Two Edge Six Edge,,,,,,
null,,html-keyboard-response,1181805,,<p></p>,,,,null,,,,,,,,,,,,,,,,,,,
2559.5,,shortestpath_phase,1184367,,GW/hanover.png,,,,50,GW/boulder.png,GW/leesburg.png,0,0.8571428571428571,,,,GW/boulder.png,,,,Two Edge Diff,Two Edge Four Edge,,,,,,
null,,html-keyboard-response,1185372,,<p></p>,,,,null,,,,,,,,,,,,,,,,,,,
3168.7000000001863,,shortestpath_phase,1188544,,GW/gatlinburg.png,,,,50,GW/leesburg.png,GW/racine.png,0,0.8,,,,GW/leesburg.png,,,,One Edge Diff,Two Edge Three Edge,,,,,,
null,,html-keyboard-response,1189548,,<p></p>,,,,null,,,,,,,,,,,,,,,,,,,
2862.2999999998137,,shortestpath_phase,1192413,,GW/carmel.png,,,,50,GW/huntsville.png,GW/racine.png,0,0.75,,,,GW/huntsville.png,,,,One Edge Diff,Five Edge Six Edge,,,,,,
null,,html-keyboard-response,1193417,,<p></p>,,,,null,,,,,,,,,,,,,,,,,,,
3457.2000000001863,,shortestpath_phase,1196877,,GW/racine.png,,,,49,GW/gatlinburg.png,GW/boulder.png,1,0.7647058823529411,,,,GW/gatlinburg.png,,,,Two Edge Diff,Three Edge Five Edge,,,,,,
null,,html-keyboard-response,1197881,,<p></p>,,,,null,,,,,,,,,,,,,,,,,,,
3222.899999999441,,shortestpath_phase,1201106,,GW/hotsprings.png,,,,49,GW/westpalmbeach.png,GW/gatlinburg.png,1,0.7777777777777778,,,,GW/westpalmbeach.png,,,,One Edge Diff,Two Edge Three Edge,,,,,,
null,,html-keyboard-response,1202109,,<p></p>,,,,null,,,,,,,,,,,,,,,,,,,
3663.5,,shortestpath_phase,1205775,,GW/carmel.png,,,,50,GW/racine.png,GW/peoria.png,1,0.7894736842105263,,,,GW/peoria.png,,,,Four Edge Diff,Two Edge Six Edge,,,,,,
null,,html-keyboard-response,1206778,,<p></p>,,,,null,,,,,,,,,,,,,,,,,,,
2352.600000000559,,shortestpath_phase,1209133,,GW/hanover.png,,,,49,GW/leesburg.png,GW/racine.png,1,0.8,,,,GW/leesburg.png,,,,Two Edge Diff,Four Edge Six Edge,,,,,,
null,,html-keyboard-response,1210136,,<p></p>,,,,null,,,,,,,,,,,,,,,,,,,
3071.5,,shortestpath_phase,1213210,,GW/newhope.png,,,,50,GW/peoria.png,GW/huntsville.png,0,0.7619047619047619,,,,GW/peoria.png,,,,Two Edge Diff,Two Edge Four Edge,,,,,,
null,,html-keyboard-response,1214215,,<p></p>,,,,null,,,,,,,,,,,,,,,,,,,
3620.2000000001863,,shortestpath_phase,1217838,,GW/boulder.png,,,,50,GW/racine.png,GW/hotsprings.png,1,0.7727272727272727,,,,GW/hotsprings.png,,,,Three Edge Diff,Three Edge Six Edge,,,,,,
null,,html-keyboard-response,1218840,,<p></p>,,,,null,,,,,,,,,,,,,,,,,,,
2950.399999999441,,shortestpath_phase,1221793,,GW/hanover.png,,,,49,GW/westpalmbeach.png,GW/shreveport.png,1,0.782608695652174,,,,GW/westpalmbeach.png,,,,One Edge Diff,Four Edge Five Edge,,,,,,
null,,html-keyboard-response,1222797,,<p></p>,,,,null,,,,,,,,,,,,,,,,,,,
2703.7000000001863,,shortestpath_phase,1225504,,GW/gatlinburg.png,,,,50,GW/carmel.png,GW/leesburg.png,1,0.7916666666666666,,,,GW/leesburg.png,,,,Three Edge Diff,Three Edge Six Edge,,,,,,
null,,html-keyboard-response,1226508,,<p></p>,,,,null,,,,,,,,,,,,,,,,,,,
3903,,shortestpath_phase,1230414,,GW/hanover.png,,,,50,GW/gatlinburg.png,GW/huntsville.png,1,0.8,,,,GW/huntsville.png,,,,One Edge Diff,Five Edge Six Edge,,,,,,
null,,html-keyboard-response,1231417,,<p></p>,,,,null,,,,,,,,,,,,,,,,,,,
1334,,shortestpath_phase,1232753,,GW/racine.png,,,,50,GW/newhope.png,GW/shreveport.png,1,0.8076923076923077,,,,GW/shreveport.png,,,,Three Edge Diff,Two Edge Five Edge,,,,,,
null,,html-keyboard-response,1233758,,<p></p>,,,,null,,,,,,,,,,,,,,,,,,,
3296.5,,shortestpath_phase,1237057,,GW/hanover.png,,,,49,GW/westpalmbeach.png,GW/hotsprings.png,0,0.7777777777777778,,,,GW/hotsprings.png,,,,One Edge Diff,Three Edge Four Edge,,,,,,
null,,html-keyboard-response,1238061,,<p></p>,,,,null,,,,,,,,,,,,,,,,,,,
4475.100000000559,,shortestpath_phase,1242538,,GW/gatlinburg.png,,,,50,GW/carmel.png,GW/huntsville.png,1,0.7857142857142857,,,,GW/huntsville.png,,,,Three Edge Diff,Two Edge Five Edge,,,,,,
null,,html-keyboard-response,1243542,,<p></p>,,,,null,,,,,,,,,,,,,,,,,,,
2386.899999999441,,shortestpath_phase,1245932,,GW/carmel.png,,,,50,GW/peoria.png,GW/shreveport.png,0,0.7586206896551724,,,,GW/peoria.png,,,,Two Edge Diff,Two Edge Four Edge,,,,,,
null,,html-keyboard-response,1246936,,<p></p>,,,,null,,,,,,,,,,,,,,,,,,,
4082.5,,shortestpath_phase,1251021,,GW/gatlinburg.png,,,,49,GW/hotsprings.png,GW/newhope.png,1,0.7666666666666667,,,,GW/hotsprings.png,,,,Two Edge Diff,Three Edge Five Edge,,,,,,
null,,html-keyboard-response,1252027,,<p></p>,,,,null,,,,,,,,,,,,,,,,,,,
2860.899999999441,,shortestpath_phase,1254890,,GW/shreveport.png,,,,49,GW/boulder.png,GW/hanover.png,1,0.7741935483870968,,,,GW/boulder.png,,,,Two Edge Diff,Three Edge Five Edge,,,,,,
null,,html-keyboard-response,1255894,,<p></p>,,,,null,,,,,,,,,,,,,,,,,,,
3974.100000000559,,shortestpath_phase,1259871,,GW/hotsprings.png,,,,49,GW/huntsville.png,GW/hanover.png,1,0.78125,,,,GW/huntsville.png,,,,One Edge Diff,Two Edge Three Edge,,,,,,
null,,html-keyboard-response,1260876,,<p></p>,,,,null,,,,,,,,,,,,,,,,,,,
2453.7999999998137,,shortestpath_phase,1263333,,GW/hanover.png,,,,50,GW/shreveport.png,GW/boulder.png,1,0.7878787878787878,,,,GW/boulder.png,,,,Three Edge Diff,Two Edge Five Edge,,,,,,
null,,html-keyboard-response,1264337,,<p></p>,,,,null,,,,,,,,,,,,,,,,,,,
2087.100000000559,,shortestpath_phase,1266427,,GW/gatlinburg.png,,,,50,GW/newhope.png,GW/huntsville.png,1,0.7941176470588235,,,,GW/huntsville.png,,,,Three Edge Diff,Three Edge Six Edge,,,,,,
null,,html-keyboard-response,1267432,,<p></p>,,,,null,,,,,,,,,,,,,,,,,,,
3181.5,,shortestpath_phase,1270617,,GW/carmel.png,,,,49,GW/huntsville.png,GW/hanover.png,0,0.7714285714285715,,,,GW/hanover.png,,,,Two Edge Diff,Three Edge Five Edge,,,,,,
null,,html-keyboard-response,1271621,,<p></p>,,,,null,,,,,,,,,,,,,,,,,,,
2049.7999999998137,,shortestpath_phase,1273674,,GW/cornwall.png,,,,49,GW/boulder.png,GW/racine.png,1,0.7777777777777778,,,,GW/boulder.png,,,,Two Edge Diff,Two Edge Four Edge,,,,,,
null,,html-keyboard-response,1274678,,<p></p>,,,,null,,,,,,,,,,,,,,,,,,,
1134.2999999998137,,shortestpath_phase,1275815,,GW/gatlinburg.png,,,,50,GW/hanover.png,GW/leesburg.png,1,0.7837837837837838,,,,GW/leesburg.png,,,,Four Edge Diff,Two Edge Six Edge,,,,,,
null,,html-keyboard-response,1276820,,<p></p>,,,,null,,,,,,,,,,,,,,,,,,,
2734.2000000001863,,shortestpath_phase,1279557,,GW/shreveport.png,,,,49,GW/peoria.png,GW/hanover.png,1,0.7894736842105263,,,,GW/peoria.png,,,,Three Edge Diff,Two Edge Five Edge,,,,,,
null,,html-keyboard-response,1280562,,<p></p>,,,,null,,,,,,,,,,,,,,,,,,,
2065.5999999996275,,shortestpath_phase,1282630,,GW/boulder.png,,,,50,GW/racine.png,GW/leesburg.png,1,0.7948717948717948,,,,GW/leesburg.png,,,,Two Edge Diff,Three Edge Five Edge,,,,,,
null,,html-keyboard-response,1283634,,<p></p>,,,,null,,,,,,,,,,,,,,,,,,,
3791.600000000559,,shortestpath_phase,1287428,,GW/gatlinburg.png,,,,50,GW/hanover.png,GW/newhope.png,1,0.8,,,,GW/newhope.png,,,,One Edge Diff,Five Edge Six Edge,,,,,,
null,,html-keyboard-response,1288434,,<p></p>,,,,null,,,,,,,,,,,,,,,,,,,
4531.5,,shortestpath_phase,1292968,,GW/shreveport.png,,,,49,GW/peoria.png,GW/newhope.png,1,0.8048780487804879,,,,GW/peoria.png,,,,Two Edge Diff,Two Edge Four Edge,,,,,,
null,,html-keyboard-response,1293972,,<p></p>,,,,null,,,,,,,,,,,,,,,,,,,
3738.5999999996275,,shortestpath_phase,1297713,,GW/hanover.png,,,,49,GW/boulder.png,GW/gatlinburg.png,1,0.8095238095238095,,,,GW/boulder.png,,,,Four Edge Diff,Two Edge Six Edge,,,,,,
null,,html-keyboard-response,1298716,,<p></p>,,,,null,,,,,,,,,,,,,,,,,,,
2915.7000000001863,,shortestpath_phase,1301635,,GW/gatlinburg.png,,,,50,GW/hotsprings.png,GW/carmel.png,0,0.7906976744186046,,,,GW/hotsprings.png,,,,Two Edge Diff,Three Edge Five Edge,,,,,,
null,,html-keyboard-response,1302638,,<p></p>,,,,null,,,,,,,,,,,,,,,,,,,
3084.5999999996275,,shortestpath_phase,1305725,,GW/hanover.png,,,,49,GW/shreveport.png,GW/cornwall.png,0,0.7727272727272727,,,,GW/cornwall.png,,,,Three Edge Diff,Three Edge Six Edge,,,,,,
null,,html-keyboard-response,1306730,,<p></p>,,,,null,,,,,,,,,,,,,,,,,,,
4243.100000000559,,shortestpath_phase,1310975,,GW/gatlinburg.png,,,,50,GW/racine.png,GW/cornwall.png,0,0.7555555555555555,,,,GW/racine.png,,,,One Edge Diff,Three Edge Four Edge,,,,,,
null,,html-keyboard-response,1311979,,<p></p>,,,,null,,,,,,,,,,,,,,,,,,,
3448.7000000001863,,shortestpath_phase,1315430,,GW/carmel.png,,,,50,GW/peoria.png,GW/huntsville.png,0,0.7391304347826086,,,,GW/peoria.png,,,,Three Edge Diff,Two Edge Five Edge,,,,,,
null,,html-keyboard-response,1316433,,<p></p>,,,,null,,,,,,,,,,,,,,,,,,,
1708,,shortestpath_phase,1318144,,GW/racine.png,,,,49,GW/leesburg.png,GW/newhope.png,1,0.7446808510638298,,,,GW/leesburg.png,,,,Three Edge Diff,Two Edge Five Edge,,,,,,
null,,html-keyboard-response,1319147,,<p></p>,,,,null,,,,,,,,,,,,,,,,,,,
3441.5,,shortestpath_phase,1322591,,GW/carmel.png,,,,50,GW/shreveport.png,GW/racine.png,0,0.7291666666666666,,,,GW/shreveport.png,,,,Two Edge Diff,Four Edge Six Edge,,,,,,
null,,html-keyboard-response,1323595,,<p></p>,,,,null,,,,,,,,,,,,,,,,,,,
3796.199999999255,,shortestpath_phase,1327393,,GW/gatlinburg.png,,,,50,GW/huntsville.png,GW/carmel.png,0,0.7142857142857143,,,,GW/huntsville.png,,,,Three Edge Diff,Three Edge Six Edge,,,,,,
null,,html-keyboard-response,1328396,,<p></p>,,,,null,,,,,,,,,,,,,,,,,,,
3991.7000000001863,,shortestpath_phase,1332390,,GW/racine.png,,,,49,GW/newhope.png,GW/hotsprings.png,0,0.7,,,,GW/hotsprings.png,,,,Two Edge Diff,Three Edge Five Edge,,,,,,
null,,html-keyboard-response,1333394,,<p></p>,,,,null,,,,,,,,,,,,,,,,,,,
2303.899999999441,,shortestpath_phase,1335701,,GW/gatlinburg.png,,,,50,GW/hanover.png,GW/westpalmbeach.png,1,0.7058823529411765,,,,GW/westpalmbeach.png,,,,Four Edge Diff,Two Edge Six Edge,,,,,,
null,,html-keyboard-response,1336705,,<p></p>,,,,null,,,,,,,,,,,,,,,,,,,
2588.7000000001863,,shortestpath_phase,1339296,,GW/huntsville.png,,,,49,GW/boulder.png,GW/carmel.png,1,0.7115384615384616,,,,GW/boulder.png,,,,One Edge Diff,Four Edge Five Edge,,,,,,
null,,html-keyboard-response,1340301,,<p></p>,,,,null,,,,,,,,,,,,,,,,,,,
3202.600000000559,,shortestpath_phase,1343506,,GW/hanover.png,,,,49,GW/cornwall.png,GW/racine.png,1,0.7169811320754716,,,,GW/cornwall.png,,,,Four Edge Diff,Two Edge Six Edge,,,,,,
null,,html-keyboard-response,1344511,,<p></p>,,,,null,,,,,,,,,,,,,,,,,,,
2846.5,,shortestpath_phase,1347360,,GW/huntsville.png,,,,49,GW/gatlinburg.png,GW/carmel.png,1,0.7222222222222222,,,,GW/gatlinburg.png,,,,Three Edge Diff,Three Edge Six Edge,,,,,,
null,,html-keyboard-response,1348364,,<p></p>,,,,null,,,,,,,,,,,,,,,,,,,
3377.2000000001863,,shortestpath_phase,1351743,,GW/hotsprings.png,,,,49,GW/shreveport.png,GW/racine.png,1,0.7272727272727273,,,,GW/shreveport.png,,,,One Edge Diff,Two Edge Three Edge,,,,,,
null,,html-keyboard-response,1352746,,<p></p>,,,,null,,,,,,,,,,,,,,,,,,,
2419.199999999255,,shortestpath_phase,1355168,,GW/huntsville.png,,,,50,GW/newhope.png,GW/carmel.png,0,0.7142857142857143,,,,GW/newhope.png,,,,One Edge Diff,Four Edge Five Edge,,,,,,
null,,html-keyboard-response,1356171,,<p></p>,,,,null,,,,,,,,,,,,,,,,,,,
3535.4000000003725,,shortestpath_phase,1359708,,GW/racine.png,,,,50,GW/hanover.png,GW/boulder.png,1,0.7192982456140351,,,,GW/boulder.png,,,,One Edge Diff,Five Edge Six Edge,,,,,,
null,,html-keyboard-response,1360712,,<p></p>,,,,null,,,,,,,,,,,,,,,,,,,
2871.9000000003725,,shortestpath_phase,1363586,,GW/hanover.png,,,,50,GW/gatlinburg.png,GW/westpalmbeach.png,1,0.7241379310344828,,,,GW/westpalmbeach.png,,,,Two Edge Diff,Four Edge Six Edge,,,,,,
null,,html-keyboard-response,1364589,,<p></p>,,,,null,,,,,,,,,,,,,,,,,,,
1456.1000000005588,,shortestpath_phase,1366048,,GW/racine.png,,,,50,GW/carmel.png,GW/leesburg.png,1,0.7288135593220338,,,,GW/leesburg.png,,,,Four Edge Diff,Two Edge Six Edge,,,,,,
null,,html-keyboard-response,1367052,,<p></p>,,,,null,,,,,,,,,,,,,,,,,,,
4806.799999999814,,shortestpath_phase,1371861,,GW/newhope.png,,,,50,GW/shreveport.png,GW/racine.png,0,0.7166666666666667,,,,GW/shreveport.png,,,,One Edge Diff,Four Edge Five Edge,,,,,,
null,,html-keyboard-response,1372866,,<p></p>,,,,null,,,,,,,,,,,,,,,,,,,
2421.7000000001863,,shortestpath_phase,1375290,,GW/hanover.png,,,,50,GW/gatlinburg.png,GW/leesburg.png,1,0.7213114754098361,,,,GW/leesburg.png,,,,Two Edge Diff,Four Edge Six Edge,,,,,,
null,,html-keyboard-response,1376294,,<p></p>,,,,null,,,,,,,,,,,,,,,,,,,
1310.7000000001863,,shortestpath_phase,1377608,,GW/racine.png,,,,49,GW/shreveport.png,GW/hanover.png,1,0.7258064516129032,,,,GW/shreveport.png,,,,Four Edge Diff,Two Edge Six Edge,,,,,,
null,,html-keyboard-response,1378612,,<p></p>,,,,null,,,,,,,,,,,,,,,,,,,
2141,,shortestpath_phase,1380756,,GW/boulder.png,,,,49,GW/huntsville.png,GW/westpalmbeach.png,0,0.7142857142857143,,,,GW/westpalmbeach.png,,,,Two Edge Diff,Two Edge Four Edge,,,,,,
null,,html-keyboard-response,1381761,,<p></p>,,,,null,,,,,,,,,,,,,,,,,,,
3528.699999999255,,shortestpath_phase,1385292,,GW/racine.png,,,,49,GW/peoria.png,GW/carmel.png,1,0.71875,,,,GW/peoria.png,,,,Two Edge Diff,Four Edge Six Edge,,,,,,
null,,html-keyboard-response,1386295,,<p></p>,,,,null,,,,,,,,,,,,,,,,,,,
3206,,shortestpath_phase,1389503,,GW/carmel.png,,,,49,GW/huntsville.png,GW/leesburg.png,0,0.7076923076923077,,,,GW/leesburg.png,,,,One Edge Diff,Four Edge Five Edge,,,,,,
null,,html-keyboard-response,1390509,,<p></p>,,,,null,,,,,,,,,,,,,,,,,,,
1521.4000000003725,,shortestpath_phase,1392033,,GW/gatlinburg.png,,,,50,GW/carmel.png,GW/westpalmbeach.png,1,0.7121212121212122,,,,GW/westpalmbeach.png,,,,Three Edge Diff,Three Edge Six Edge,,,,,,
null,,html-keyboard-response,1393036,,<p></p>,,,,null,,,,,,,,,,,,,,,,,,,
4339.799999999814,,shortestpath_phase,1397379,,GW/leesburg.png,,,,50,GW/carmel.png,GW/peoria.png,1,0.7164179104477612,,,,GW/peoria.png,,,,Two Edge Diff,Two Edge Four Edge,,,,,,
null,,html-keyboard-response,1398383,,<p></p>,,,,null,,,,,,,,,,,,,,,,,,,
2922.7000000001863,,shortestpath_phase,1401309,,GW/racine.png,,,,50,GW/hanover.png,GW/newhope.png,1,0.7205882352941176,,,,GW/newhope.png,,,,One Edge Diff,Five Edge Six Edge,,,,,,
null,,html-keyboard-response,1402312,,<p></p>,,,,null,,,,,,,,,,,,,,,,,,,
1841.5,,shortestpath_phase,1404156,,GW/boulder.png,,,,50,GW/racine.png,GW/hotsprings.png,1,0.7246376811594203,,,,GW/hotsprings.png,,,,Three Edge Diff,Two Edge Five Edge,,,,,,
null,,html-keyboard-response,1405162,,<p></p>,,,,null,,,,,,,,,,,,,,,,,,,
2132.199999999255,,shortestpath_phase,1407297,,GW/newhope.png,,,,49,GW/leesburg.png,GW/gatlinburg.png,1,0.7285714285714285,,,,GW/leesburg.png,,,,Two Edge Diff,Three Edge Five Edge,,,,,,
null,,html-keyboard-response,1408301,,<p></p>,,,,null,,,,,,,,,,,,,,,,,,,
2300.4000000003725,,shortestpath_phase,1410604,,GW/shreveport.png,,,,50,GW/hanover.png,GW/hotsprings.png,1,0.7323943661971831,,,,GW/hotsprings.png,,,,Three Edge Diff,Two Edge Five Edge,,,,,,
null,,html-keyboard-response,1411609,,<p></p>,,,,null,,,,,,,,,,,,,,,,,,,
1008.0999999996275,,shortestpath_phase,1412620,,GW/racine.png,,,,50,GW/gatlinburg.png,GW/leesburg.png,1,0.7361111111111112,,,,GW/leesburg.png,,,,One Edge Diff,Two Edge Three Edge,,,,,,
null,,html-keyboard-response,1413624,,<p></p>,,,,null,,,,,,,,,,,,,,,,,,,
2720.7999999998137,,shortestpath_phase,1416347,,GW/hanover.png,,,,50,GW/gatlinburg.png,GW/cornwall.png,1,0.7397260273972602,,,,GW/cornwall.png,,,,Four Edge Diff,Two Edge Six Edge,,,,,,
null,,html-keyboard-response,1417352,,<p></p>,,,,null,,,,,,,,,,,,,,,,,,,
5509.399999999441,,shortestpath_phase,1422864,,GW/gatlinburg.png,,,,49,GW/leesburg.png,GW/newhope.png,1,0.7432432432432432,,,,GW/leesburg.png,,,,Three Edge Diff,Three Edge Six Edge,,,,,,
null,,html-keyboard-response,1423868,,<p></p>,,,,null,,,,,,,,,,,,,,,,,,,
4096.800000000745,,shortestpath_phase,1427968,,GW/hanover.png,,,,50,GW/racine.png,GW/boulder.png,1,0.7466666666666667,,,,GW/boulder.png,,,,Four Edge Diff,Two Edge Six Edge,,,,,,
null,,html-keyboard-response,1428973,,<p></p>,,,,null,,,,,,,,,,,,,,,,,,,
3331.7999999998137,,shortestpath_phase,1432308,,GW/newhope.png,,,,49,GW/peoria.png,GW/gatlinburg.png,1,0.75,,,,GW/peoria.png,,,,Three Edge Diff,Three Edge Six Edge,,,,,,
null,,html-keyboard-response,1433312,,<p></p>,,,,null,,,,,,,,,,,,,,,,,,,
1603.5,,shortestpath_phase,1434919,,GW/racine.png,,,,49,GW/cornwall.png,GW/carmel.png,1,0.7532467532467533,,,,GW/cornwall.png,,,,Two Edge Diff,Four Edge Six Edge,,,,,,
null,,html-keyboard-response,1435923,,<p></p>,,,,null,,,,,,,,,,,,,,,,,,,
3962.100000000559,,shortestpath_phase,1439888,,GW/newhope.png,,,,49,GW/hotsprings.png,GW/gatlinburg.png,1,0.7564102564102564,,,,GW/hotsprings.png,,,,Three Edge Diff,Two Edge Five Edge,,,,,,
null,,html-keyboard-response,1440893,,<p></p>,,,,null,,,,,,,,,,,,,,,,,,,
2382.5999999996275,,shortestpath_phase,1443279,,GW/peoria.png,,,,49,GW/racine.png,GW/carmel.png,0,0.7468354430379747,,,,GW/carmel.png,,,,Two Edge Diff,Two Edge Four Edge,,,,,,
null,,html-keyboard-response,1444283,,<p></p>,,,,null,,,,,,,,,,,,,,,,,,,
1503.9000000003725,,shortestpath_phase,1445789,,GW/leesburg.png,,,,49,GW/newhope.png,GW/hanover.png,1,0.75,,,,GW/newhope.png,,,,One Edge Diff,Three Edge Four Edge,,,,,,
null,,html-keyboard-response,1446794,,<p></p>,,,,null,,,,,,,,,,,,,,,,,,,
3026.2999999998137,,shortestpath_phase,1449823,,GW/hanover.png,,,,50,GW/racine.png,GW/westpalmbeach.png,1,0.7530864197530864,,,,GW/westpalmbeach.png,,,,Two Edge Diff,Four Edge Six Edge,,,,,,
null,,html-keyboard-response,1450827,,<p></p>,,,,null,,,,,,,,,,,,,,,,,,,
4802.700000000186,,shortestpath_phase,1455632,,GW/newhope.png,,,,49,GW/peoria.png,GW/gatlinburg.png,1,0.7560975609756098,,,,GW/peoria.png,,,,Three Edge Diff,Two Edge Five Edge,,,,,,
null,,html-keyboard-response,1456636,,<p></p>,,,,null,,,,,,,,,,,,,,,,,,,
4029,,shortestpath_phase,1460668,,GW/racine.png,,,,50,GW/peoria.png,GW/gatlinburg.png,1,0.7590361445783133,,,,GW/gatlinburg.png,,,,One Edge Diff,Three Edge Four Edge,,,,,,
null,,html-keyboard-response,1461673,,<p></p>,,,,null,,,,,,,,,,,,,,,,,,,
3523.5999999996275,,shortestpath_phase,1465199,,GW/newhope.png,,,,49,GW/gatlinburg.png,GW/carmel.png,0,0.75,,,,GW/carmel.png,,,,Three Edge Diff,Two Edge Five Edge,,,,,,
null,,html-keyboard-response,1466203,,<p></p>,,,,null,,,,,,,,,,,,,,,,,,,
3710.800000000745,,intro_1,1469916,,instruct,,0,,,,,,,,,,,,,,,,,,,,,
3353,,intro_2,1473273,,instruct,,1,Next,,,,,,,,,,,,,,,,,,,,
6469.0999999996275,,intro_3,1479746,,instruct,,1,Next,,,,,,,,,,,,,,,,,,,,
1828.5,,intro_4,1481578,,instruct,,1,Next,,,,,,,,,,,,,,,,,,,,
5641.9000000003725,,intro_5,1487224,,instruct,,1,Next,,,,,,,,,,,,,,,,,,,,
5503.600000000559,,intro_6,1492731,,instruct,,1,Next,,,,,,,,,,,,,,,,,,,,
,,Goal Directed Planning,1541340,,GDP-0,,,,,,,,,,,,,,,,,,racine.png,hotsprings.png,,undefinedimgLdrag08:[x1:74 x2:180 y1:210 y2:210]drag08drag07:[x1:180 x2:311 y1:210 y2:84]drag07imgR:[x1:311 x2:1074 y1:84 y2:210],false,
,,Goal Directed Planning,1600557,,GDP-1,,,,,,,,,,,,,,,,,,peoria.png,racine.png,,undefinedimgLdrag06:[x1:74 x2:190 y1:210 y2:85.609375]drag06drag07:[x1:190 x2:763 y1:85.609375 y2:319]drag07drag08:[x1:763 x2:910 y1:319 y2:165]drag08imgR:[x1:910 x2:1074 y1:165 y2:210],false,
,,Goal Directed Planning,1638375,,GDP-2,,,,,,,,,,,,,,,,,,hotsprings.png,gatlinburg.png,,undefinedimgLdrag09:[x1:74 x2:312 y1:210 y2:181.609375]drag09drag07:[x1:312 x2:977 y1:181.609375 y2:62.609375]drag07imgR:[x1:977 x2:1074 y1:62.609375 y2:210],false,
,,Goal Directed Planning,1662114,,GDP-3,,,,,,,,,,,,,,,,,,cornwall.png,gatlinburg.png,,undefinedimgLdrag11:[x1:74 x2:243 y1:210 y2:99.609375]drag11drag07:[x1:243 x2:928 y1:99.609375 y2:97.609375]drag07imgR:[x1:928 x2:1074 y1:97.609375 y2:210],false,
,,Goal Directed Planning,1691843,,GDP-4,,,,,,,,,,,,,,,,,,carmel.png,gatlinburg.png,,undefinedimgLdrag11:[x1:74 x2:271 y1:210 y2:220.609375]drag11drag07:[x1:271 x2:891 y1:220.609375 y2:177]drag07imgR:[x1:891 x2:1074 y1:177 y2:210],true,undefinedimgLdrag09:[x1:74 x2:353 y1:210 y2:205.609375]drag09drag07:[x1:353 x2:928 y1:205.609375 y2:193.609375]drag07imgR:[x1:928 x2:1074 y1:193.609375 y2:210]
