rt,responses,trial_type,time_elapsed,sequence,stimulus,graphorder,button_pressed,response,key_press,stimulus_left,stimulus_right,accuracy,cumulative_accuracy,stimulus_down_left,stimulus_down_mid,stimulus_down_right,stimulus_correct,stimulus_short,stimulus_far,weighted_accuracy,missedtrial,condition,specific_pairs,imgL_ID,imgR_ID,linedress,linedressed,detour_trial,linedressed_detor,problems,smooth,distraction,strategies,easier,similar,comments
5004.799999952316,{worker_id:5e2ac2aa0038f21089a533a4},id_enter,5008,blocked,replication,GW/leesburg.png; GW/hanover.png; GW/cornwall.png; GW/boulder.png; GW/huntsville.png; GW/racine.png; GW/hotsprings.png; GW/carmel.png; GW/gatlinburg.png; GW/shreveport.png; GW/newhope.png; GW/westpalmbeach.png; GW/peoria.png,,,,,,,,,,,,,,,,,,,,,,,,,,,,,,
9116,,fullscreen,14131,,fullscreen,,0,,,,,,,,,,,,,,,,,,,,,,,,,,,,,
38999.700000047684,,intro_1,53133,,instruct,,0,,,,,,,,,,,,,,,,,,,,,,,,,,,,,
27878.299999952316,,intro_2,81013,,instruct,,1,Next,,,,,,,,,,,,,,,,,,,,,,,,,,,,
20124.600000023842,,intro_3,101138,,instruct,,1,Next,,,,,,,,,,,,,,,,,,,,,,,,,,,,
null,,learn_prac_1,104141,,lean_prac_1,,,,null,,,,,,,,,,,,,,,,,,,,,,,,,,,
null,,html-keyboard-response,105145,,<p></p>,,,,null,,,,,,,,,,,,,,,,,,,,,,,,,,,
2430.2999999523163,,intro_1,107577,,instruct,,0,,,,,,,,,,,,,,,,,,,,,,,,,,,,,
4618.5,,intro_2,112197,,instruct,,1,Next,,,,,,,,,,,,,,,,,,,,,,,,,,,,
null,,learn_prac_2,115199,,lean_prac_2,,,,null,,,,,,,,,,,,,,,,,,,,,,,,,,,
null,,html-keyboard-response,116202,,<p></p>,,,,null,,,,,,,,,,,,,,,,,,,,,,,,,,,
1877.1000000238419,,intro_1,118080,,instruct,,0,,,,,,,,,,,,,,,,,,,,,,,,,,,,,
4598.799999952316,,intro_2,122680,,instruct,,1,Next,,,,,,,,,,,,,,,,,,,,,,,,,,,,
16984.700000047684,,intro_3,139666,,instruct,,1,Next,,,,,,,,,,,,,,,,,,,,,,,,,,,,
null,,prac_atten_color_black,140218,,black_plus_sign,,,,null,,,,,,,,,,,,,,,,,,,,,,,,,,,
null,,prac_atten_color,141072,,prac_stop_color,,,,null,,,,,,,,,,,,,,,,,,,,,,,,,,,
415.7000000476837,,prac_atten_color_black,143074,,black_plus_sign,,,,49,,,,,,,,,,,,,,,,,,,,,,,,,,,
null,,prac_atten_color_black,143627,,black_plus_sign,,,,null,,,,,,,,,,,,,,,,,,,,,,,,,,,
831.2999999523163,,prac_atten_color,144504,,prac_stop_color,,,,50,,,,,,,,,,,,,,,,,,,,,,,,,,,
null,,prac_atten_color_black,146505,,black_plus_sign,,,,null,,,,,,,,,,,,,,,,,,,,,,,,,,,
null,,prac_atten_color_black,147035,,black_plus_sign,,,,null,,,,,,,,,,,,,,,,,,,,,,,,,,,
604.1000000238419,,prac_atten_color,147646,,prac_stop_color,,,,50,,,,,,,,,,,,,,,,,,,,,,,,,,,
null,,prac_atten_color_black,149648,,black_plus_sign,,,,null,,,,,,,,,,,,,,,,,,,,,,,,,,,
null,,prac_atten_color_black,150442,,black_plus_sign,,,,null,,,,,,,,,,,,,,,,,,,,,,,,,,,
null,,prac_atten_color,151043,,prac_stop_color,,,,null,,,,,,,,,,,,,,,,,,,,,,,,,,,
384.89999997615814,,prac_atten_color_black,153045,,black_plus_sign,,,,49,,,,,,,,,,,,,,,,,,,,,,,,,,,
null,,prac_atten_color_black,153849,,black_plus_sign,,,,null,,,,,,,,,,,,,,,,,,,,,,,,,,,
null,,prac_atten_color,154706,,prac_stop_color,,,,null,,,,,,,,,,,,,,,,,,,,,,,,,,,
350.1999999284744,,prac_atten_color_black,156708,,black_plus_sign,,,,50,,,,,,,,,,,,,,,,,,,,,,,,,,,
null,,prac_atten_color_black,157258,,black_plus_sign,,,,null,,,,,,,,,,,,,,,,,,,,,,,,,,,
577.1000000238419,,prac_atten_color,158359,,prac_stop_color,,,,50,,,,,,,,,,,,,,,,,,,,,,,,,,,
null,,prac_atten_color_black,160361,,black_plus_sign,,,,null,,,,,,,,,,,,,,,,,,,,,,,,,,,
null,,prac_atten_color_black,160665,,black_plus_sign,,,,null,,,,,,,,,,,,,,,,,,,,,,,,,,,
796.2999999523163,,prac_atten_color,161532,,prac_stop_color,,,,49,,,,,,,,,,,,,,,,,,,,,,,,,,,
null,,prac_atten_color_black,163533,,black_plus_sign,,,,null,,,,,,,,,,,,,,,,,,,,,,,,,,,
null,,prac_atten_color_black,164073,,black_plus_sign,,,,null,,,,,,,,,,,,,,,,,,,,,,,,,,,
768.8000000715256,,prac_atten_color,165076,,prac_stop_color,,,,50,,,,,,,,,,,,,,,,,,,,,,,,,,,
null,,prac_atten_color_black,167078,,black_plus_sign,,,,null,,,,,,,,,,,,,,,,,,,,,,,,,,,
null,,prac_atten_color_black,167481,,black_plus_sign,,,,null,,,,,,,,,,,,,,,,,,,,,,,,,,,
666.6000000238419,,prac_atten_color,168458,,prac_stop_color,,,,49,,,,,,,,,,,,,,,,,,,,,,,,,,,
null,,prac_atten_color_black,170459,,black_plus_sign,,,,null,,,,,,,,,,,,,,,,,,,,,,,,,,,
null,,prac_atten_color_black,170889,,black_plus_sign,,,,null,,,,,,,,,,,,,,,,,,,,,,,,,,,
670.6999999284744,,prac_atten_color,171838,,prac_stop_color,,,,49,,,,,,,,,,,,,,,,,,,,,,,,,,,
null,,prac_atten_color_black,173840,,black_plus_sign,,,,null,,,,,,,,,,,,,,,,,,,,,,,,,,,
5401.699999928474,,attentioncheck_feedback,179244,,cross_check_feedback,,0,,,,,,,,,,,,,,,,,,,,,,,,,,,,,
25523,,last_instruct,204768,,instruct,,,,32,,,,,,,,,,,,,,,,,,,,,,,,,,,
null,,learn_phase(without_color),207770,,black_plus_sign,,,,null,GW/hanover.png,GW/leesburg.png,,,,,,,,,,,,,,,,,,,,,,,,,
null,,black_cross(without_color),208318,,yellow,,,,null,GW/hanover.png,GW/leesburg.png,,,,,,,,,,,,,,,,,,,,,,,,,
null,,rt_plussign_withcolor,208821,,yellow,,,,null,GW/hanover.png,GW/leesburg.png,,,,,,,,,,,,,,,,,,,,,,,,,
925.8999999761581,,rt_thecrossant_black,210279,,black_plus_sign,,,,50,,,1,1,,,,,,,,,,,,,,,,,,,,,,,
null,,color_black,210382,,black_plus_sign,,,,null,,,,,,,,,,,,,,,,,,,,,,,,,,,
null,,learn_phase(without_color),213386,,black_plus_sign,,,,null,GW/gatlinburg.png,GW/hotsprings.png,,,,,,,,,,,,,,,,,,,,,,,,,
null,,black_cross(without_color),214231,,blue,,,,null,GW/gatlinburg.png,GW/hotsprings.png,,,,,,,,,,,,,,,,,,,,,,,,,
439.3000000715256,,rt_plussign_withcolor,214733,,blue,,,,49,GW/gatlinburg.png,GW/hotsprings.png,,,,,,,,,,,,,,,,,,,,,,,,,
null,,rt_thecrossant_black,215893,,black_plus_sign,,,,null,,,1,1,,,,,,,,,,,,,,,,,,,,,,,
null,,color_black,215995,,black_plus_sign,,,,null,,,,,,,,,,,,,,,,,,,,,,,,,,,
null,,learn_phase(without_color),218999,,black_plus_sign,,,,null,GW/hanover.png,GW/leesburg.png,,,,,,,,,,,,,,,,,,,,,,,,,
null,,black_cross(without_color),219484,,yellow,,,,null,GW/hanover.png,GW/leesburg.png,,,,,,,,,,,,,,,,,,,,,,,,,
null,,rt_plussign_withcolor,219987,,yellow,,,,null,GW/hanover.png,GW/leesburg.png,,,,,,,,,,,,,,,,,,,,,,,,,
1479.8000000715256,,rt_thecrossant_black,221508,,black_plus_sign,,,,50,,,1,1,,,,,,,,,,,,,,,,,,,,,,,
null,,color_black,221610,,black_plus_sign,,,,null,,,,,,,,,,,,,,,,,,,,,,,,,,,
null,,learn_phase(without_color),224614,,black_plus_sign,,,,null,GW/hotsprings.png,GW/gatlinburg.png,,,,,,,,,,,,,,,,,,,,,,,,,
null,,black_cross(without_color),225508,,blue,,,,null,GW/hotsprings.png,GW/gatlinburg.png,,,,,,,,,,,,,,,,,,,,,,,,,
null,,rt_plussign_withcolor,226010,,blue,,,,null,GW/hotsprings.png,GW/gatlinburg.png,,,,,,,,,,,,,,,,,,,,,,,,,
928.3999999761581,,rt_thecrossant_black,227120,,black_plus_sign,,,,49,,,1,1,,,,,,,,,,,,,,,,,,,,,,,
null,,color_black,227223,,black_plus_sign,,,,null,,,,,,,,,,,,,,,,,,,,,,,,,,,
null,,learn_phase(without_color),230225,,black_plus_sign,,,,null,GW/huntsville.png,GW/boulder.png,,,,,,,,,,,,,,,,,,,,,,,,,
null,,black_cross(without_color),231197,,yellow,,,,null,GW/huntsville.png,GW/boulder.png,,,,,,,,,,,,,,,,,,,,,,,,,
null,,rt_plussign_withcolor,231699,,yellow,,,,null,GW/huntsville.png,GW/boulder.png,,,,,,,,,,,,,,,,,,,,,,,,,
1180.5,,rt_thecrossant_black,232735,,black_plus_sign,,,,50,,,1,1,,,,,,,,,,,,,,,,,,,,,,,
null,,color_black,232838,,black_plus_sign,,,,null,,,,,,,,,,,,,,,,,,,,,,,,,,,
null,,learn_phase(without_color),235842,,black_plus_sign,,,,null,GW/hotsprings.png,GW/gatlinburg.png,,,,,,,,,,,,,,,,,,,,,,,,,
null,,black_cross(without_color),236258,,yellow,,,,null,GW/hotsprings.png,GW/gatlinburg.png,,,,,,,,,,,,,,,,,,,,,,,,,
null,,rt_plussign_withcolor,236760,,yellow,,,,null,GW/hotsprings.png,GW/gatlinburg.png,,,,,,,,,,,,,,,,,,,,,,,,,
1434.7999999523163,,rt_thecrossant_black,238348,,black_plus_sign,,,,50,,,1,1,,,,,,,,,,,,,,,,,,,,,,,
null,,color_black,238451,,black_plus_sign,,,,null,,,,,,,,,,,,,,,,,,,,,,,,,,,
null,,learn_phase(without_color),241454,,black_plus_sign,,,,null,GW/huntsville.png,GW/boulder.png,,,,,,,,,,,,,,,,,,,,,,,,,
null,,black_cross(without_color),241941,,yellow,,,,null,GW/huntsville.png,GW/boulder.png,,,,,,,,,,,,,,,,,,,,,,,,,
null,,rt_plussign_withcolor,242443,,yellow,,,,null,GW/huntsville.png,GW/boulder.png,,,,,,,,,,,,,,,,,,,,,,,,,
628.7999999523163,,rt_thecrossant_black,243961,,black_plus_sign,,,,50,,,1,1,,,,,,,,,,,,,,,,,,,,,,,
null,,color_black,244063,,black_plus_sign,,,,null,,,,,,,,,,,,,,,,,,,,,,,,,,,
null,,learn_phase(without_color),247066,,black_plus_sign,,,,null,GW/cornwall.png,GW/racine.png,,,,,,,,,,,,,,,,,,,,,,,,,
null,,black_cross(without_color),247653,,yellow,,,,null,GW/cornwall.png,GW/racine.png,,,,,,,,,,,,,,,,,,,,,,,,,
null,,rt_plussign_withcolor,248155,,yellow,,,,null,GW/cornwall.png,GW/racine.png,,,,,,,,,,,,,,,,,,,,,,,,,
665.3999999761581,,rt_thecrossant_black,249575,,black_plus_sign,,,,50,,,1,1,,,,,,,,,,,,,,,,,,,,,,,
null,,color_black,249678,,black_plus_sign,,,,null,,,,,,,,,,,,,,,,,,,,,,,,,,,
null,,learn_phase(without_color),252681,,black_plus_sign,,,,null,GW/leesburg.png,GW/hanover.png,,,,,,,,,,,,,,,,,,,,,,,,,
null,,black_cross(without_color),253379,,yellow,,,,null,GW/leesburg.png,GW/hanover.png,,,,,,,,,,,,,,,,,,,,,,,,,
null,,rt_plussign_withcolor,253880,,yellow,,,,null,GW/leesburg.png,GW/hanover.png,,,,,,,,,,,,,,,,,,,,,,,,,
1031.6000000238419,,rt_thecrossant_black,255188,,black_plus_sign,,,,50,,,1,1,,,,,,,,,,,,,,,,,,,,,,,
null,,color_black,255292,,black_plus_sign,,,,null,,,,,,,,,,,,,,,,,,,,,,,,,,,
null,,learn_phase(without_color),258295,,black_plus_sign,,,,null,GW/huntsville.png,GW/boulder.png,,,,,,,,,,,,,,,,,,,,,,,,,
null,,black_cross(without_color),259229,,blue,,,,null,GW/huntsville.png,GW/boulder.png,,,,,,,,,,,,,,,,,,,,,,,,,
null,,rt_plussign_withcolor,259730,,blue,,,,null,GW/huntsville.png,GW/boulder.png,,,,,,,,,,,,,,,,,,,,,,,,,
1073.6999999284744,,rt_thecrossant_black,260801,,black_plus_sign,,,,49,,,1,1,,,,,,,,,,,,,,,,,,,,,,,
null,,color_black,260904,,black_plus_sign,,,,null,,,,,,,,,,,,,,,,,,,,,,,,,,,
null,,learn_phase(without_color),263908,,black_plus_sign,,,,null,GW/gatlinburg.png,GW/hotsprings.png,,,,,,,,,,,,,,,,,,,,,,,,,
null,,black_cross(without_color),264906,,yellow,,,,null,GW/gatlinburg.png,GW/hotsprings.png,,,,,,,,,,,,,,,,,,,,,,,,,
null,,rt_plussign_withcolor,265408,,yellow,,,,null,GW/gatlinburg.png,GW/hotsprings.png,,,,,,,,,,,,,,,,,,,,,,,,,
1127.7999999523163,,rt_thecrossant_black,266414,,black_plus_sign,,,,50,,,1,1,,,,,,,,,,,,,,,,,,,,,,,
null,,color_black,266518,,black_plus_sign,,,,null,,,,,,,,,,,,,,,,,,,,,,,,,,,
null,,learn_phase(without_color),269521,,black_plus_sign,,,,null,GW/hanover.png,GW/leesburg.png,,,,,,,,,,,,,,,,,,,,,,,,,
null,,black_cross(without_color),269934,,yellow,,,,null,GW/hanover.png,GW/leesburg.png,,,,,,,,,,,,,,,,,,,,,,,,,
null,,rt_plussign_withcolor,270438,,yellow,,,,null,GW/hanover.png,GW/leesburg.png,,,,,,,,,,,,,,,,,,,,,,,,,
1423,,rt_thecrossant_black,272029,,black_plus_sign,,,,50,,,1,1,,,,,,,,,,,,,,,,,,,,,,,
null,,color_black,272132,,black_plus_sign,,,,null,,,,,,,,,,,,,,,,,,,,,,,,,,,
null,,learn_phase(without_color),275135,,black_plus_sign,,,,null,GW/boulder.png,GW/huntsville.png,,,,,,,,,,,,,,,,,,,,,,,,,
null,,black_cross(without_color),276076,,blue,,,,null,GW/boulder.png,GW/huntsville.png,,,,,,,,,,,,,,,,,,,,,,,,,
null,,rt_plussign_withcolor,276578,,blue,,,,null,GW/boulder.png,GW/huntsville.png,,,,,,,,,,,,,,,,,,,,,,,,,
793.1000000238419,,rt_thecrossant_black,277641,,black_plus_sign,,,,49,,,1,1,,,,,,,,,,,,,,,,,,,,,,,
null,,color_black,277743,,black_plus_sign,,,,null,,,,,,,,,,,,,,,,,,,,,,,,,,,
null,,learn_phase(without_color),280748,,black_plus_sign,,,,null,GW/hanover.png,GW/leesburg.png,,,,,,,,,,,,,,,,,,,,,,,,,
null,,black_cross(without_color),281431,,yellow,,,,null,GW/hanover.png,GW/leesburg.png,,,,,,,,,,,,,,,,,,,,,,,,,
null,,rt_plussign_withcolor,281933,,yellow,,,,null,GW/hanover.png,GW/leesburg.png,,,,,,,,,,,,,,,,,,,,,,,,,
1603.8999999761581,,rt_thecrossant_black,283253,,black_plus_sign,,,,50,,,1,1,,,,,,,,,,,,,,,,,,,,,,,
null,,color_black,283371,,black_plus_sign,,,,null,,,,,,,,,,,,,,,,,,,,,,,,,,,
null,,learn_phase(without_color),286374,,black_plus_sign,,,,null,GW/huntsville.png,GW/boulder.png,,,,,,,,,,,,,,,,,,,,,,,,,
null,,black_cross(without_color),286951,,yellow,,,,null,GW/huntsville.png,GW/boulder.png,,,,,,,,,,,,,,,,,,,,,,,,,
490,,rt_plussign_withcolor,287453,,yellow,,,,50,GW/huntsville.png,GW/boulder.png,,,,,,,,,,,,,,,,,,,,,,,,,
null,,rt_thecrossant_black,288880,,black_plus_sign,,,,null,,,1,1,,,,,,,,,,,,,,,,,,,,,,,
null,,color_black,288982,,black_plus_sign,,,,null,,,,,,,,,,,,,,,,,,,,,,,,,,,
null,,learn_phase(without_color),291985,,black_plus_sign,,,,null,GW/racine.png,GW/cornwall.png,,,,,,,,,,,,,,,,,,,,,,,,,
null,,black_cross(without_color),292911,,yellow,,,,null,GW/racine.png,GW/cornwall.png,,,,,,,,,,,,,,,,,,,,,,,,,
null,,rt_plussign_withcolor,293413,,yellow,,,,null,GW/racine.png,GW/cornwall.png,,,,,,,,,,,,,,,,,,,,,,,,,
701.3999999761581,,rt_thecrossant_black,294493,,black_plus_sign,,,,50,,,1,1,,,,,,,,,,,,,,,,,,,,,,,
null,,color_black,294596,,black_plus_sign,,,,null,,,,,,,,,,,,,,,,,,,,,,,,,,,
null,,learn_phase(without_color),297599,,black_plus_sign,,,,null,GW/boulder.png,GW/huntsville.png,,,,,,,,,,,,,,,,,,,,,,,,,
null,,black_cross(without_color),298436,,yellow,,,,null,GW/boulder.png,GW/huntsville.png,,,,,,,,,,,,,,,,,,,,,,,,,
null,,rt_plussign_withcolor,298939,,yellow,,,,null,GW/boulder.png,GW/huntsville.png,,,,,,,,,,,,,,,,,,,,,,,,,
1169.8999999761581,,rt_thecrossant_black,300106,,black_plus_sign,,,,50,,,1,1,,,,,,,,,,,,,,,,,,,,,,,
null,,color_black,300208,,black_plus_sign,,,,null,,,,,,,,,,,,,,,,,,,,,,,,,,,
null,,learn_phase(without_color),303211,,black_plus_sign,,,,null,GW/cornwall.png,GW/racine.png,,,,,,,,,,,,,,,,,,,,,,,,,
null,,black_cross(without_color),303649,,blue,,,,null,GW/cornwall.png,GW/racine.png,,,,,,,,,,,,,,,,,,,,,,,,,
null,,rt_plussign_withcolor,304150,,blue,,,,null,GW/cornwall.png,GW/racine.png,,,,,,,,,,,,,,,,,,,,,,,,,
1098.5,,rt_thecrossant_black,305718,,black_plus_sign,,,,49,,,1,1,,,,,,,,,,,,,,,,,,,,,,,
null,,color_black,305821,,black_plus_sign,,,,null,,,,,,,,,,,,,,,,,,,,,,,,,,,
null,,learn_phase(without_color),308824,,black_plus_sign,,,,null,GW/leesburg.png,GW/hanover.png,,,,,,,,,,,,,,,,,,,,,,,,,
null,,black_cross(without_color),309661,,blue,,,,null,GW/leesburg.png,GW/hanover.png,,,,,,,,,,,,,,,,,,,,,,,,,
null,,rt_plussign_withcolor,310163,,blue,,,,null,GW/leesburg.png,GW/hanover.png,,,,,,,,,,,,,,,,,,,,,,,,,
917.1000000238419,,rt_thecrossant_black,311331,,black_plus_sign,,,,49,,,1,1,,,,,,,,,,,,,,,,,,,,,,,
null,,color_black,311433,,black_plus_sign,,,,null,,,,,,,,,,,,,,,,,,,,,,,,,,,
null,,learn_phase(without_color),314437,,black_plus_sign,,,,null,GW/racine.png,GW/cornwall.png,,,,,,,,,,,,,,,,,,,,,,,,,
null,,black_cross(without_color),315366,,blue,,,,null,GW/racine.png,GW/cornwall.png,,,,,,,,,,,,,,,,,,,,,,,,,
null,,rt_plussign_withcolor,315868,,blue,,,,null,GW/racine.png,GW/cornwall.png,,,,,,,,,,,,,,,,,,,,,,,,,
1233.6000000238419,,rt_thecrossant_black,316943,,black_plus_sign,,,,49,,,1,1,,,,,,,,,,,,,,,,,,,,,,,
null,,color_black,317046,,black_plus_sign,,,,null,,,,,,,,,,,,,,,,,,,,,,,,,,,
null,,learn_phase(without_color),320050,,black_plus_sign,,,,null,GW/hanover.png,GW/leesburg.png,,,,,,,,,,,,,,,,,,,,,,,,,
null,,black_cross(without_color),320794,,yellow,,,,null,GW/hanover.png,GW/leesburg.png,,,,,,,,,,,,,,,,,,,,,,,,,
null,,rt_plussign_withcolor,321310,,yellow,,,,null,GW/hanover.png,GW/leesburg.png,,,,,,,,,,,,,,,,,,,,,,,,,
1227.0999999046326,,rt_thecrossant_black,322571,,black_plus_sign,,,,50,,,1,1,,,,,,,,,,,,,,,,,,,,,,,
null,,color_black,322673,,black_plus_sign,,,,null,,,,,,,,,,,,,,,,,,,,,,,,,,,
null,,learn_phase(without_color),325677,,black_plus_sign,,,,null,GW/racine.png,GW/cornwall.png,,,,,,,,,,,,,,,,,,,,,,,,,
null,,black_cross(without_color),326715,,blue,,,,null,GW/racine.png,GW/cornwall.png,,,,,,,,,,,,,,,,,,,,,,,,,
null,,rt_plussign_withcolor,327217,,blue,,,,null,GW/racine.png,GW/cornwall.png,,,,,,,,,,,,,,,,,,,,,,,,,
1278,,rt_thecrossant_black,328190,,black_plus_sign,,,,49,,,1,1,,,,,,,,,,,,,,,,,,,,,,,
null,,color_black,328292,,black_plus_sign,,,,null,,,,,,,,,,,,,,,,,,,,,,,,,,,
null,,learn_phase(without_color),331296,,black_plus_sign,,,,null,GW/gatlinburg.png,GW/hotsprings.png,,,,,,,,,,,,,,,,,,,,,,,,,
null,,black_cross(without_color),331843,,blue,,,,null,GW/gatlinburg.png,GW/hotsprings.png,,,,,,,,,,,,,,,,,,,,,,,,,
null,,rt_plussign_withcolor,332345,,blue,,,,null,GW/gatlinburg.png,GW/hotsprings.png,,,,,,,,,,,,,,,,,,,,,,,,,
1433.6999999284744,,rt_thecrossant_black,333805,,black_plus_sign,,,,49,,,1,1,,,,,,,,,,,,,,,,,,,,,,,
null,,color_black,333908,,black_plus_sign,,,,null,,,,,,,,,,,,,,,,,,,,,,,,,,,
null,,learn_phase(without_color),336911,,black_plus_sign,,,,null,GW/huntsville.png,GW/boulder.png,,,,,,,,,,,,,,,,,,,,,,,,,
null,,black_cross(without_color),337341,,yellow,,,,null,GW/huntsville.png,GW/boulder.png,,,,,,,,,,,,,,,,,,,,,,,,,
null,,rt_plussign_withcolor,337843,,yellow,,,,null,GW/huntsville.png,GW/boulder.png,,,,,,,,,,,,,,,,,,,,,,,,,
1252.2000000476837,,rt_thecrossant_black,339424,,black_plus_sign,,,,50,,,1,1,,,,,,,,,,,,,,,,,,,,,,,
null,,color_black,339527,,black_plus_sign,,,,null,,,,,,,,,,,,,,,,,,,,,,,,,,,
null,,learn_phase(without_color),342530,,black_plus_sign,,,,null,GW/hotsprings.png,GW/gatlinburg.png,,,,,,,,,,,,,,,,,,,,,,,,,
null,,black_cross(without_color),343228,,yellow,,,,null,GW/hotsprings.png,GW/gatlinburg.png,,,,,,,,,,,,,,,,,,,,,,,,,
null,,rt_plussign_withcolor,343729,,yellow,,,,null,GW/hotsprings.png,GW/gatlinburg.png,,,,,,,,,,,,,,,,,,,,,,,,,
993,,rt_thecrossant_black,345037,,black_plus_sign,,,,50,,,1,1,,,,,,,,,,,,,,,,,,,,,,,
null,,color_black,345140,,black_plus_sign,,,,null,,,,,,,,,,,,,,,,,,,,,,,,,,,
null,,learn_phase(without_color),348144,,black_plus_sign,,,,null,GW/cornwall.png,GW/racine.png,,,,,,,,,,,,,,,,,,,,,,,,,
null,,black_cross(without_color),349104,,yellow,,,,null,GW/cornwall.png,GW/racine.png,,,,,,,,,,,,,,,,,,,,,,,,,
null,,rt_plussign_withcolor,349607,,yellow,,,,null,GW/cornwall.png,GW/racine.png,,,,,,,,,,,,,,,,,,,,,,,,,
1076.5,,rt_thecrossant_black,350651,,black_plus_sign,,,,50,,,1,1,,,,,,,,,,,,,,,,,,,,,,,
null,,color_black,350754,,black_plus_sign,,,,null,,,,,,,,,,,,,,,,,,,,,,,,,,,
null,,learn_phase(without_color),353758,,black_plus_sign,,,,null,GW/huntsville.png,GW/boulder.png,,,,,,,,,,,,,,,,,,,,,,,,,
null,,black_cross(without_color),354182,,blue,,,,null,GW/huntsville.png,GW/boulder.png,,,,,,,,,,,,,,,,,,,,,,,,,
null,,rt_plussign_withcolor,354684,,blue,,,,null,GW/huntsville.png,GW/boulder.png,,,,,,,,,,,,,,,,,,,,,,,,,
1179.3999999761581,,rt_thecrossant_black,356266,,black_plus_sign,,,,49,,,1,1,,,,,,,,,,,,,,,,,,,,,,,
null,,color_black,356368,,black_plus_sign,,,,null,,,,,,,,,,,,,,,,,,,,,,,,,,,
null,,learn_phase(without_color),359372,,black_plus_sign,,,,null,GW/racine.png,GW/cornwall.png,,,,,,,,,,,,,,,,,,,,,,,,,
null,,black_cross(without_color),360369,,yellow,,,,null,GW/racine.png,GW/cornwall.png,,,,,,,,,,,,,,,,,,,,,,,,,
410.7999999523163,,rt_plussign_withcolor,360872,,yellow,,,,49,GW/racine.png,GW/cornwall.png,,,,,,,,,,,,,,,,,,,,,,,,,
null,,rt_thecrossant_black,361879,,black_plus_sign,,,,50,,,0,0.9642857142857143,,,,,,,,,,,,,,,,,,,,,,,
null,,color_black,361982,,black_plus_sign,,,,null,,,,,,,,,,,,,,,,,,,,,,,,,,,
null,,learn_phase(without_color),364985,,black_plus_sign,,,,null,GW/hotsprings.png,GW/gatlinburg.png,,,,,,,,,,,,,,,,,,,,,,,,,
null,,black_cross(without_color),366050,,blue,,,,null,GW/hotsprings.png,GW/gatlinburg.png,,,,,,,,,,,,,,,,,,,,,,,,,
null,,rt_plussign_withcolor,366552,,blue,,,,null,GW/hotsprings.png,GW/gatlinburg.png,,,,,,,,,,,,,,,,,,,,,,,,,
1335.7999999523163,,rt_thecrossant_black,367491,,black_plus_sign,,,,49,,,1,0.9655172413793104,,,,,,,,,,,,,,,,,,,,,,,
null,,color_black,367593,,black_plus_sign,,,,null,,,,,,,,,,,,,,,,,,,,,,,,,,,
null,,learn_phase(without_color),370595,,black_plus_sign,,,,null,GW/cornwall.png,GW/racine.png,,,,,,,,,,,,,,,,,,,,,,,,,
null,,black_cross(without_color),371012,,yellow,,,,null,GW/cornwall.png,GW/racine.png,,,,,,,,,,,,,,,,,,,,,,,,,
null,,rt_plussign_withcolor,371514,,yellow,,,,null,GW/cornwall.png,GW/racine.png,,,,,,,,,,,,,,,,,,,,,,,,,
1352.2000000476837,,rt_thecrossant_black,373102,,black_plus_sign,,,,50,,,1,0.9666666666666667,,,,,,,,,,,,,,,,,,,,,,,
null,,color_black,373215,,black_plus_sign,,,,null,,,,,,,,,,,,,,,,,,,,,,,,,,,
null,,learn_phase(without_color),376218,,black_plus_sign,,,,null,GW/leesburg.png,GW/hanover.png,,,,,,,,,,,,,,,,,,,,,,,,,
null,,black_cross(without_color),376665,,yellow,,,,null,GW/leesburg.png,GW/hanover.png,,,,,,,,,,,,,,,,,,,,,,,,,
null,,rt_plussign_withcolor,377167,,yellow,,,,null,GW/leesburg.png,GW/hanover.png,,,,,,,,,,,,,,,,,,,,,,,,,
655.6000000238419,,rt_thecrossant_black,378724,,black_plus_sign,,,,50,,,1,0.967741935483871,,,,,,,,,,,,,,,,,,,,,,,
null,,color_black,378828,,black_plus_sign,,,,null,,,,,,,,,,,,,,,,,,,,,,,,,,,
null,,learn_phase(without_color),381832,,black_plus_sign,,,,null,GW/gatlinburg.png,GW/hotsprings.png,,,,,,,,,,,,,,,,,,,,,,,,,
null,,black_cross(without_color),382816,,yellow,,,,null,GW/gatlinburg.png,GW/hotsprings.png,,,,,,,,,,,,,,,,,,,,,,,,,
null,,rt_plussign_withcolor,383318,,yellow,,,,null,GW/gatlinburg.png,GW/hotsprings.png,,,,,,,,,,,,,,,,,,,,,,,,,
902.1000000238419,,rt_thecrossant_black,384340,,black_plus_sign,,,,50,,,1,0.96875,,,,,,,,,,,,,,,,,,,,,,,
null,,color_black,384443,,black_plus_sign,,,,null,,,,,,,,,,,,,,,,,,,,,,,,,,,
null,,learn_phase(without_color),387448,,black_plus_sign,,,,null,GW/newhope.png,GW/gatlinburg.png,,,,,,,,,,,,,,,,,,,,,,,,,
null,,black_cross(without_color),388414,,blue,,,,null,GW/newhope.png,GW/gatlinburg.png,,,,,,,,,,,,,,,,,,,,,,,,,
null,,rt_plussign_withcolor,388916,,blue,,,,null,GW/newhope.png,GW/gatlinburg.png,,,,,,,,,,,,,,,,,,,,,,,,,
null,,rt_thecrossant_black,389955,,black_plus_sign,,,,null,,,,0.96875,,,,,,,,,,,,,,,,,,,,,,,
null,,color_black,390058,,black_plus_sign,,,,null,,,,,,,,,,,,,,,,,,,,,,,,,,,
null,,learn_phase(without_color),393061,,black_plus_sign,,,,null,GW/carmel.png,GW/shreveport.png,,,,,,,,,,,,,,,,,,,,,,,,,
null,,black_cross(without_color),393500,,blue,,,,null,GW/carmel.png,GW/shreveport.png,,,,,,,,,,,,,,,,,,,,,,,,,
null,,rt_plussign_withcolor,394002,,blue,,,,null,GW/carmel.png,GW/shreveport.png,,,,,,,,,,,,,,,,,,,,,,,,,
1505.1000000238419,,rt_thecrossant_black,395581,,black_plus_sign,,,,49,,,1,0.9696969696969697,,,,,,,,,,,,,,,,,,,,,,,
null,,color_black,395692,,black_plus_sign,,,,null,,,,,,,,,,,,,,,,,,,,,,,,,,,
null,,learn_phase(without_color),398695,,black_plus_sign,,,,null,GW/boulder.png,GW/hanover.png,,,,,,,,,,,,,,,,,,,,,,,,,
null,,black_cross(without_color),399231,,blue,,,,null,GW/boulder.png,GW/hanover.png,,,,,,,,,,,,,,,,,,,,,,,,,
null,,rt_plussign_withcolor,399734,,blue,,,,null,GW/boulder.png,GW/hanover.png,,,,,,,,,,,,,,,,,,,,,,,,,
990.2000000476837,,rt_thecrossant_black,401204,,black_plus_sign,,,,49,,,1,0.9705882352941176,,,,,,,,,,,,,,,,,,,,,,,
null,,color_black,401306,,black_plus_sign,,,,null,,,,,,,,,,,,,,,,,,,,,,,,,,,
null,,learn_phase(without_color),404309,,black_plus_sign,,,,null,GW/shreveport.png,GW/carmel.png,,,,,,,,,,,,,,,,,,,,,,,,,
null,,black_cross(without_color),405348,,yellow,,,,null,GW/shreveport.png,GW/carmel.png,,,,,,,,,,,,,,,,,,,,,,,,,
null,,rt_plussign_withcolor,405850,,yellow,,,,null,GW/shreveport.png,GW/carmel.png,,,,,,,,,,,,,,,,,,,,,,,,,
694.0999999046326,,rt_thecrossant_black,406816,,black_plus_sign,,,,50,,,1,0.9714285714285714,,,,,,,,,,,,,,,,,,,,,,,
null,,color_black,406919,,black_plus_sign,,,,null,,,,,,,,,,,,,,,,,,,,,,,,,,,
null,,learn_phase(without_color),409922,,black_plus_sign,,,,null,GW/newhope.png,GW/gatlinburg.png,,,,,,,,,,,,,,,,,,,,,,,,,
null,,black_cross(without_color),410859,,blue,,,,null,GW/newhope.png,GW/gatlinburg.png,,,,,,,,,,,,,,,,,,,,,,,,,
null,,rt_plussign_withcolor,411362,,blue,,,,null,GW/newhope.png,GW/gatlinburg.png,,,,,,,,,,,,,,,,,,,,,,,,,
1261.8999999761581,,rt_thecrossant_black,412430,,black_plus_sign,,,,49,,,1,0.9722222222222222,,,,,,,,,,,,,,,,,,,,,,,
null,,color_black,412533,,black_plus_sign,,,,null,,,,,,,,,,,,,,,,,,,,,,,,,,,
null,,learn_phase(without_color),415536,,black_plus_sign,,,,null,GW/boulder.png,GW/hanover.png,,,,,,,,,,,,,,,,,,,,,,,,,
null,,black_cross(without_color),416372,,blue,,,,null,GW/boulder.png,GW/hanover.png,,,,,,,,,,,,,,,,,,,,,,,,,
null,,rt_plussign_withcolor,416874,,blue,,,,null,GW/boulder.png,GW/hanover.png,,,,,,,,,,,,,,,,,,,,,,,,,
1214.3999999761581,,rt_thecrossant_black,418043,,black_plus_sign,,,,49,,,1,0.972972972972973,,,,,,,,,,,,,,,,,,,,,,,
null,,color_black,418146,,black_plus_sign,,,,null,,,,,,,,,,,,,,,,,,,,,,,,,,,
null,,learn_phase(without_color),421150,,black_plus_sign,,,,null,GW/gatlinburg.png,GW/newhope.png,,,,,,,,,,,,,,,,,,,,,,,,,
null,,black_cross(without_color),421687,,blue,,,,null,GW/gatlinburg.png,GW/newhope.png,,,,,,,,,,,,,,,,,,,,,,,,,
null,,rt_plussign_withcolor,422189,,blue,,,,null,GW/gatlinburg.png,GW/newhope.png,,,,,,,,,,,,,,,,,,,,,,,,,
1519.5,,rt_thecrossant_black,423656,,black_plus_sign,,,,49,,,1,0.9736842105263158,,,,,,,,,,,,,,,,,,,,,,,
null,,color_black,423757,,black_plus_sign,,,,null,,,,,,,,,,,,,,,,,,,,,,,,,,,
null,,learn_phase(without_color),426760,,black_plus_sign,,,,null,GW/hotsprings.png,GW/racine.png,,,,,,,,,,,,,,,,,,,,,,,,,
null,,black_cross(without_color),427186,,yellow,,,,null,GW/hotsprings.png,GW/racine.png,,,,,,,,,,,,,,,,,,,,,,,,,
null,,rt_plussign_withcolor,427688,,yellow,,,,null,GW/hotsprings.png,GW/racine.png,,,,,,,,,,,,,,,,,,,,,,,,,
1962,,rt_thecrossant_black,429269,,black_plus_sign,,,,50,,,1,0.9743589743589743,,,,,,,,,,,,,,,,,,,,,,,
null,,color_black,429372,,black_plus_sign,,,,null,,,,,,,,,,,,,,,,,,,,,,,,,,,
null,,learn_phase(without_color),432375,,black_plus_sign,,,,null,GW/hanover.png,GW/boulder.png,,,,,,,,,,,,,,,,,,,,,,,,,
null,,black_cross(without_color),433402,,blue,,,,null,GW/hanover.png,GW/boulder.png,,,,,,,,,,,,,,,,,,,,,,,,,
null,,rt_plussign_withcolor,433904,,blue,,,,null,GW/hanover.png,GW/boulder.png,,,,,,,,,,,,,,,,,,,,,,,,,
975.4000000953674,,rt_thecrossant_black,434883,,black_plus_sign,,,,49,,,1,0.975,,,,,,,,,,,,,,,,,,,,,,,
null,,color_black,434985,,black_plus_sign,,,,null,,,,,,,,,,,,,,,,,,,,,,,,,,,
null,,learn_phase(without_color),437993,,black_plus_sign,,,,null,GW/carmel.png,GW/shreveport.png,,,,,,,,,,,,,,,,,,,,,,,,,
null,,black_cross(without_color),438715,,yellow,,,,null,GW/carmel.png,GW/shreveport.png,,,,,,,,,,,,,,,,,,,,,,,,,
null,,rt_plussign_withcolor,439218,,yellow,,,,null,GW/carmel.png,GW/shreveport.png,,,,,,,,,,,,,,,,,,,,,,,,,
1326.2999999523163,,rt_thecrossant_black,440500,,black_plus_sign,,,,50,,,1,0.975609756097561,,,,,,,,,,,,,,,,,,,,,,,
null,,color_black,440603,,black_plus_sign,,,,null,,,,,,,,,,,,,,,,,,,,,,,,,,,
null,,learn_phase(without_color),443608,,black_plus_sign,,,,null,GW/boulder.png,GW/hanover.png,,,,,,,,,,,,,,,,,,,,,,,,,
null,,black_cross(without_color),444059,,blue,,,,null,GW/boulder.png,GW/hanover.png,,,,,,,,,,,,,,,,,,,,,,,,,
null,,rt_plussign_withcolor,444561,,blue,,,,null,GW/boulder.png,GW/hanover.png,,,,,,,,,,,,,,,,,,,,,,,,,
995.3999999761581,,rt_thecrossant_black,446117,,black_plus_sign,,,,49,,,1,0.9761904761904762,,,,,,,,,,,,,,,,,,,,,,,
null,,color_black,446221,,black_plus_sign,,,,null,,,,,,,,,,,,,,,,,,,,,,,,,,,
null,,learn_phase(without_color),449223,,black_plus_sign,,,,null,GW/newhope.png,GW/gatlinburg.png,,,,,,,,,,,,,,,,,,,,,,,,,
null,,black_cross(without_color),449898,,yellow,,,,null,GW/newhope.png,GW/gatlinburg.png,,,,,,,,,,,,,,,,,,,,,,,,,
null,,rt_plussign_withcolor,450400,,yellow,,,,null,GW/newhope.png,GW/gatlinburg.png,,,,,,,,,,,,,,,,,,,,,,,,,
900.7000000476837,,rt_thecrossant_black,451732,,black_plus_sign,,,,50,,,1,0.9767441860465116,,,,,,,,,,,,,,,,,,,,,,,
null,,color_black,451843,,black_plus_sign,,,,null,,,,,,,,,,,,,,,,,,,,,,,,,,,
null,,learn_phase(without_color),454846,,black_plus_sign,,,,null,GW/shreveport.png,GW/carmel.png,,,,,,,,,,,,,,,,,,,,,,,,,
null,,black_cross(without_color),455603,,blue,,,,null,GW/shreveport.png,GW/carmel.png,,,,,,,,,,,,,,,,,,,,,,,,,
468.60000002384186,,rt_plussign_withcolor,456104,,blue,,,,49,GW/shreveport.png,GW/carmel.png,,,,,,,,,,,,,,,,,,,,,,,,,
null,,rt_thecrossant_black,457353,,black_plus_sign,,,,null,,,1,0.9772727272727273,,,,,,,,,,,,,,,,,,,,,,,
null,,color_black,457456,,black_plus_sign,,,,null,,,,,,,,,,,,,,,,,,,,,,,,,,,
null,,learn_phase(without_color),460459,,black_plus_sign,,,,null,GW/racine.png,GW/hotsprings.png,,,,,,,,,,,,,,,,,,,,,,,,,
null,,black_cross(without_color),461215,,blue,,,,null,GW/racine.png,GW/hotsprings.png,,,,,,,,,,,,,,,,,,,,,,,,,
null,,rt_plussign_withcolor,461718,,blue,,,,null,GW/racine.png,GW/hotsprings.png,,,,,,,,,,,,,,,,,,,,,,,,,
1159.0999999046326,,rt_thecrossant_black,462968,,black_plus_sign,,,,49,,,1,0.9777777777777777,,,,,,,,,,,,,,,,,,,,,,,
null,,color_black,463071,,black_plus_sign,,,,null,,,,,,,,,,,,,,,,,,,,,,,,,,,
null,,learn_phase(without_color),466075,,black_plus_sign,,,,null,GW/newhope.png,GW/gatlinburg.png,,,,,,,,,,,,,,,,,,,,,,,,,
null,,black_cross(without_color),466533,,yellow,,,,null,GW/newhope.png,GW/gatlinburg.png,,,,,,,,,,,,,,,,,,,,,,,,,
null,,rt_plussign_withcolor,467035,,yellow,,,,null,GW/newhope.png,GW/gatlinburg.png,,,,,,,,,,,,,,,,,,,,,,,,,
1319.5999999046326,,rt_thecrossant_black,468583,,black_plus_sign,,,,50,,,1,0.9782608695652174,,,,,,,,,,,,,,,,,,,,,,,
null,,color_black,468686,,black_plus_sign,,,,null,,,,,,,,,,,,,,,,,,,,,,,,,,,
null,,learn_phase(without_color),471690,,black_plus_sign,,,,null,GW/hotsprings.png,GW/racine.png,,,,,,,,,,,,,,,,,,,,,,,,,
null,,black_cross(without_color),472459,,blue,,,,null,GW/hotsprings.png,GW/racine.png,,,,,,,,,,,,,,,,,,,,,,,,,
null,,rt_plussign_withcolor,472961,,blue,,,,null,GW/hotsprings.png,GW/racine.png,,,,,,,,,,,,,,,,,,,,,,,,,
767.5,,rt_thecrossant_black,474198,,black_plus_sign,,,,49,,,1,0.9787234042553191,,,,,,,,,,,,,,,,,,,,,,,
null,,color_black,474301,,black_plus_sign,,,,null,,,,,,,,,,,,,,,,,,,,,,,,,,,
null,,learn_phase(without_color),477304,,black_plus_sign,,,,null,GW/newhope.png,GW/gatlinburg.png,,,,,,,,,,,,,,,,,,,,,,,,,
null,,black_cross(without_color),478150,,blue,,,,null,GW/newhope.png,GW/gatlinburg.png,,,,,,,,,,,,,,,,,,,,,,,,,
null,,rt_plussign_withcolor,478652,,blue,,,,null,GW/newhope.png,GW/gatlinburg.png,,,,,,,,,,,,,,,,,,,,,,,,,
954.2999999523163,,rt_thecrossant_black,479813,,black_plus_sign,,,,49,,,1,0.9791666666666666,,,,,,,,,,,,,,,,,,,,,,,
null,,color_black,479916,,black_plus_sign,,,,null,,,,,,,,,,,,,,,,,,,,,,,,,,,
null,,learn_phase(without_color),482919,,black_plus_sign,,,,null,GW/hotsprings.png,GW/racine.png,,,,,,,,,,,,,,,,,,,,,,,,,
null,,black_cross(without_color),483379,,yellow,,,,null,GW/hotsprings.png,GW/racine.png,,,,,,,,,,,,,,,,,,,,,,,,,
null,,rt_plussign_withcolor,483881,,yellow,,,,null,GW/hotsprings.png,GW/racine.png,,,,,,,,,,,,,,,,,,,,,,,,,
1184.8999999761581,,rt_thecrossant_black,485426,,black_plus_sign,,,,50,,,1,0.9795918367346939,,,,,,,,,,,,,,,,,,,,,,,
null,,color_black,485529,,black_plus_sign,,,,null,,,,,,,,,,,,,,,,,,,,,,,,,,,
null,,learn_phase(without_color),488532,,black_plus_sign,,,,null,GW/newhope.png,GW/gatlinburg.png,,,,,,,,,,,,,,,,,,,,,,,,,
null,,black_cross(without_color),489624,,yellow,,,,null,GW/newhope.png,GW/gatlinburg.png,,,,,,,,,,,,,,,,,,,,,,,,,
442.39999997615814,,rt_plussign_withcolor,490126,,yellow,,,,49,GW/newhope.png,GW/gatlinburg.png,,,,,,,,,,,,,,,,,,,,,,,,,
null,,rt_thecrossant_black,491038,,black_plus_sign,,,,50,,,0,0.96,,,,,,,,,,,,,,,,,,,,,,,
null,,color_black,491141,,black_plus_sign,,,,null,,,,,,,,,,,,,,,,,,,,,,,,,,,
null,,learn_phase(without_color),494145,,black_plus_sign,,,,null,GW/carmel.png,GW/shreveport.png,,,,,,,,,,,,,,,,,,,,,,,,,
null,,black_cross(without_color),494910,,blue,,,,null,GW/carmel.png,GW/shreveport.png,,,,,,,,,,,,,,,,,,,,,,,,,
null,,rt_plussign_withcolor,495412,,blue,,,,null,GW/carmel.png,GW/shreveport.png,,,,,,,,,,,,,,,,,,,,,,,,,
1351.8999999761581,,rt_thecrossant_black,496653,,black_plus_sign,,,,49,,,1,0.9607843137254902,,,,,,,,,,,,,,,,,,,,,,,
null,,color_black,496764,,black_plus_sign,,,,null,,,,,,,,,,,,,,,,,,,,,,,,,,,
null,,learn_phase(without_color),499768,,black_plus_sign,,,,null,GW/hotsprings.png,GW/racine.png,,,,,,,,,,,,,,,,,,,,,,,,,
null,,black_cross(without_color),500555,,blue,,,,null,GW/hotsprings.png,GW/racine.png,,,,,,,,,,,,,,,,,,,,,,,,,
null,,rt_plussign_withcolor,501056,,blue,,,,null,GW/hotsprings.png,GW/racine.png,,,,,,,,,,,,,,,,,,,,,,,,,
1394.2999999523163,,rt_thecrossant_black,502275,,black_plus_sign,,,,49,,,1,0.9615384615384616,,,,,,,,,,,,,,,,,,,,,,,
null,,color_black,502378,,black_plus_sign,,,,null,,,,,,,,,,,,,,,,,,,,,,,,,,,
null,,learn_phase(without_color),505382,,black_plus_sign,,,,null,GW/gatlinburg.png,GW/newhope.png,,,,,,,,,,,,,,,,,,,,,,,,,
null,,black_cross(without_color),506168,,yellow,,,,null,GW/gatlinburg.png,GW/newhope.png,,,,,,,,,,,,,,,,,,,,,,,,,
null,,rt_plussign_withcolor,506670,,yellow,,,,null,GW/gatlinburg.png,GW/newhope.png,,,,,,,,,,,,,,,,,,,,,,,,,
1274.3999999761581,,rt_thecrossant_black,507888,,black_plus_sign,,,,50,,,1,0.9622641509433962,,,,,,,,,,,,,,,,,,,,,,,
null,,color_black,507991,,black_plus_sign,,,,null,,,,,,,,,,,,,,,,,,,,,,,,,,,
null,,learn_phase(without_color),510993,,black_plus_sign,,,,null,GW/shreveport.png,GW/carmel.png,,,,,,,,,,,,,,,,,,,,,,,,,
null,,black_cross(without_color),511735,,yellow,,,,null,GW/shreveport.png,GW/carmel.png,,,,,,,,,,,,,,,,,,,,,,,,,
null,,rt_plussign_withcolor,512238,,yellow,,,,null,GW/shreveport.png,GW/carmel.png,,,,,,,,,,,,,,,,,,,,,,,,,
1095.8000000715256,,rt_thecrossant_black,513502,,black_plus_sign,,,,50,,,1,0.9629629629629629,,,,,,,,,,,,,,,,,,,,,,,
null,,color_black,513605,,black_plus_sign,,,,null,,,,,,,,,,,,,,,,,,,,,,,,,,,
null,,learn_phase(without_color),516609,,black_plus_sign,,,,null,GW/racine.png,GW/hotsprings.png,,,,,,,,,,,,,,,,,,,,,,,,,
null,,black_cross(without_color),517593,,blue,,,,null,GW/racine.png,GW/hotsprings.png,,,,,,,,,,,,,,,,,,,,,,,,,
null,,rt_plussign_withcolor,518095,,blue,,,,null,GW/racine.png,GW/hotsprings.png,,,,,,,,,,,,,,,,,,,,,,,,,
1056.2999999523163,,rt_thecrossant_black,519119,,black_plus_sign,,,,49,,,1,0.9636363636363636,,,,,,,,,,,,,,,,,,,,,,,
null,,color_black,519221,,black_plus_sign,,,,null,,,,,,,,,,,,,,,,,,,,,,,,,,,
null,,learn_phase(without_color),522225,,black_plus_sign,,,,null,GW/carmel.png,GW/shreveport.png,,,,,,,,,,,,,,,,,,,,,,,,,
null,,black_cross(without_color),522771,,yellow,,,,null,GW/carmel.png,GW/shreveport.png,,,,,,,,,,,,,,,,,,,,,,,,,
null,,rt_plussign_withcolor,523273,,yellow,,,,null,GW/carmel.png,GW/shreveport.png,,,,,,,,,,,,,,,,,,,,,,,,,
1453.8999999761581,,rt_thecrossant_black,524733,,black_plus_sign,,,,50,,,1,0.9642857142857143,,,,,,,,,,,,,,,,,,,,,,,
null,,color_black,524837,,black_plus_sign,,,,null,,,,,,,,,,,,,,,,,,,,,,,,,,,
null,,learn_phase(without_color),527840,,black_plus_sign,,,,null,GW/hotsprings.png,GW/racine.png,,,,,,,,,,,,,,,,,,,,,,,,,
null,,black_cross(without_color),528700,,yellow,,,,null,GW/hotsprings.png,GW/racine.png,,,,,,,,,,,,,,,,,,,,,,,,,
null,,rt_plussign_withcolor,529202,,yellow,,,,null,GW/hotsprings.png,GW/racine.png,,,,,,,,,,,,,,,,,,,,,,,,,
855.7999999523163,,rt_thecrossant_black,530348,,black_plus_sign,,,,50,,,1,0.9649122807017544,,,,,,,,,,,,,,,,,,,,,,,
null,,color_black,530450,,black_plus_sign,,,,null,,,,,,,,,,,,,,,,,,,,,,,,,,,
null,,learn_phase(without_color),533454,,black_plus_sign,,,,null,GW/boulder.png,GW/hanover.png,,,,,,,,,,,,,,,,,,,,,,,,,
null,,black_cross(without_color),534483,,blue,,,,null,GW/boulder.png,GW/hanover.png,,,,,,,,,,,,,,,,,,,,,,,,,
null,,rt_plussign_withcolor,534985,,blue,,,,null,GW/boulder.png,GW/hanover.png,,,,,,,,,,,,,,,,,,,,,,,,,
1063.7999999523163,,rt_thecrossant_black,535975,,black_plus_sign,,,,49,,,1,0.9655172413793104,,,,,,,,,,,,,,,,,,,,,,,
null,,color_black,536078,,black_plus_sign,,,,null,,,,,,,,,,,,,,,,,,,,,,,,,,,
null,,learn_phase(without_color),539081,,black_plus_sign,,,,null,GW/hotsprings.png,GW/racine.png,,,,,,,,,,,,,,,,,,,,,,,,,
null,,black_cross(without_color),539920,,blue,,,,null,GW/hotsprings.png,GW/racine.png,,,,,,,,,,,,,,,,,,,,,,,,,
null,,rt_plussign_withcolor,540422,,blue,,,,null,GW/hotsprings.png,GW/racine.png,,,,,,,,,,,,,,,,,,,,,,,,,
1583.3999999761581,,rt_thecrossant_black,541590,,black_plus_sign,,,,49,,,1,0.9661016949152542,,,,,,,,,,,,,,,,,,,,,,,
null,,color_black,541692,,black_plus_sign,,,,null,,,,,,,,,,,,,,,,,,,,,,,,,,,
null,,learn_phase(without_color),544696,,black_plus_sign,,,,null,GW/carmel.png,GW/shreveport.png,,,,,,,,,,,,,,,,,,,,,,,,,
null,,black_cross(without_color),545444,,blue,,,,null,GW/carmel.png,GW/shreveport.png,,,,,,,,,,,,,,,,,,,,,,,,,
null,,rt_plussign_withcolor,545947,,blue,,,,null,GW/carmel.png,GW/shreveport.png,,,,,,,,,,,,,,,,,,,,,,,,,
1118,,rt_thecrossant_black,547204,,black_plus_sign,,,,49,,,1,0.9666666666666667,,,,,,,,,,,,,,,,,,,,,,,
null,,color_black,547308,,black_plus_sign,,,,null,,,,,,,,,,,,,,,,,,,,,,,,,,,
null,,learn_phase(without_color),550311,,black_plus_sign,,,,null,GW/hanover.png,GW/boulder.png,,,,,,,,,,,,,,,,,,,,,,,,,
null,,black_cross(without_color),551159,,yellow,,,,null,GW/hanover.png,GW/boulder.png,,,,,,,,,,,,,,,,,,,,,,,,,
null,,rt_plussign_withcolor,551661,,yellow,,,,null,GW/hanover.png,GW/boulder.png,,,,,,,,,,,,,,,,,,,,,,,,,
944.9000000953674,,rt_thecrossant_black,552821,,black_plus_sign,,,,50,,,1,0.9672131147540983,,,,,,,,,,,,,,,,,,,,,,,
null,,color_black,552924,,black_plus_sign,,,,null,,,,,,,,,,,,,,,,,,,,,,,,,,,
null,,learn_phase(without_color),555929,,black_plus_sign,,,,null,GW/hanover.png,GW/boulder.png,,,,,,,,,,,,,,,,,,,,,,,,,
null,,black_cross(without_color),556723,,yellow,,,,null,GW/hanover.png,GW/boulder.png,,,,,,,,,,,,,,,,,,,,,,,,,
null,,rt_plussign_withcolor,557226,,yellow,,,,null,GW/hanover.png,GW/boulder.png,,,,,,,,,,,,,,,,,,,,,,,,,
1118.5,,rt_thecrossant_black,558436,,black_plus_sign,,,,50,,,1,0.967741935483871,,,,,,,,,,,,,,,,,,,,,,,
null,,color_black,558539,,black_plus_sign,,,,null,,,,,,,,,,,,,,,,,,,,,,,,,,,
null,,learn_phase(without_color),561543,,black_plus_sign,,,,null,GW/hanover.png,GW/boulder.png,,,,,,,,,,,,,,,,,,,,,,,,,
null,,black_cross(without_color),562252,,blue,,,,null,GW/hanover.png,GW/boulder.png,,,,,,,,,,,,,,,,,,,,,,,,,
null,,rt_plussign_withcolor,562756,,blue,,,,null,GW/hanover.png,GW/boulder.png,,,,,,,,,,,,,,,,,,,,,,,,,
951.7999999523163,,rt_thecrossant_black,564052,,black_plus_sign,,,,49,,,1,0.9682539682539683,,,,,,,,,,,,,,,,,,,,,,,
null,,color_black,564155,,black_plus_sign,,,,null,,,,,,,,,,,,,,,,,,,,,,,,,,,
17003.5,,learn_break,581162,,learn_break,,,,32,,,,,,,,,,,,,,,,,,,,,,,,,,,
null,,html-keyboard-response,582164,,<p></p>,,,,null,,,,,,,,,,,,,,,,,,,,,,,,,,,
null,,learn_phase(without_color),585166,,black_plus_sign,,,,null,GW/racine.png,GW/gatlinburg.png,,,,,,,,,,,,,,,,,,,,,,,,,
null,,black_cross(without_color),585963,,yellow,,,,null,GW/racine.png,GW/gatlinburg.png,,,,,,,,,,,,,,,,,,,,,,,,,
null,,rt_plussign_withcolor,586466,,yellow,,,,null,GW/racine.png,GW/gatlinburg.png,,,,,,,,,,,,,,,,,,,,,,,,,
952.5,,rt_thecrossant_black,587675,,black_plus_sign,,,,50,,,1,0.96875,,,,,,,,,,,,,,,,,,,,,,,
null,,color_black,587778,,black_plus_sign,,,,null,,,,,,,,,,,,,,,,,,,,,,,,,,,
null,,learn_phase(without_color),590782,,black_plus_sign,,,,null,GW/carmel.png,GW/hotsprings.png,,,,,,,,,,,,,,,,,,,,,,,,,
null,,black_cross(without_color),591430,,yellow,,,,null,GW/carmel.png,GW/hotsprings.png,,,,,,,,,,,,,,,,,,,,,,,,,
null,,rt_plussign_withcolor,591932,,yellow,,,,null,GW/carmel.png,GW/hotsprings.png,,,,,,,,,,,,,,,,,,,,,,,,,
1061.3000000715256,,rt_thecrossant_black,593290,,black_plus_sign,,,,50,,,1,0.9692307692307692,,,,,,,,,,,,,,,,,,,,,,,
null,,color_black,593393,,black_plus_sign,,,,null,,,,,,,,,,,,,,,,,,,,,,,,,,,
null,,learn_phase(without_color),596396,,black_plus_sign,,,,null,GW/westpalmbeach.png,GW/boulder.png,,,,,,,,,,,,,,,,,,,,,,,,,
null,,black_cross(without_color),597226,,blue,,,,null,GW/westpalmbeach.png,GW/boulder.png,,,,,,,,,,,,,,,,,,,,,,,,,
null,,rt_plussign_withcolor,597728,,blue,,,,null,GW/westpalmbeach.png,GW/boulder.png,,,,,,,,,,,,,,,,,,,,,,,,,
786.8000000715256,,rt_thecrossant_black,598904,,black_plus_sign,,,,49,,,1,0.9696969696969697,,,,,,,,,,,,,,,,,,,,,,,
null,,color_black,599007,,black_plus_sign,,,,null,,,,,,,,,,,,,,,,,,,,,,,,,,,
null,,learn_phase(without_color),602011,,black_plus_sign,,,,null,GW/cornwall.png,GW/newhope.png,,,,,,,,,,,,,,,,,,,,,,,,,
null,,black_cross(without_color),602473,,blue,,,,null,GW/cornwall.png,GW/newhope.png,,,,,,,,,,,,,,,,,,,,,,,,,
null,,rt_plussign_withcolor,602975,,blue,,,,null,GW/cornwall.png,GW/newhope.png,,,,,,,,,,,,,,,,,,,,,,,,,
1057.8999999761581,,rt_thecrossant_black,604520,,black_plus_sign,,,,49,,,1,0.9701492537313433,,,,,,,,,,,,,,,,,,,,,,,
null,,color_black,604622,,black_plus_sign,,,,null,,,,,,,,,,,,,,,,,,,,,,,,,,,
null,,learn_phase(without_color),607626,,black_plus_sign,,,,null,GW/westpalmbeach.png,GW/boulder.png,,,,,,,,,,,,,,,,,,,,,,,,,
null,,black_cross(without_color),608401,,yellow,,,,null,GW/westpalmbeach.png,GW/boulder.png,,,,,,,,,,,,,,,,,,,,,,,,,
null,,rt_plussign_withcolor,608904,,yellow,,,,null,GW/westpalmbeach.png,GW/boulder.png,,,,,,,,,,,,,,,,,,,,,,,,,
1192.8999999761581,,rt_thecrossant_black,610137,,black_plus_sign,,,,50,,,1,0.9705882352941176,,,,,,,,,,,,,,,,,,,,,,,
null,,color_black,610240,,black_plus_sign,,,,null,,,,,,,,,,,,,,,,,,,,,,,,,,,
null,,learn_phase(without_color),613243,,black_plus_sign,,,,null,GW/racine.png,GW/gatlinburg.png,,,,,,,,,,,,,,,,,,,,,,,,,
null,,black_cross(without_color),614263,,blue,,,,null,GW/racine.png,GW/gatlinburg.png,,,,,,,,,,,,,,,,,,,,,,,,,
null,,rt_plussign_withcolor,614766,,blue,,,,null,GW/racine.png,GW/gatlinburg.png,,,,,,,,,,,,,,,,,,,,,,,,,
1456.1999999284744,,rt_thecrossant_black,615752,,black_plus_sign,,,,49,,,1,0.9710144927536232,,,,,,,,,,,,,,,,,,,,,,,
null,,color_black,615855,,black_plus_sign,,,,null,,,,,,,,,,,,,,,,,,,,,,,,,,,
null,,learn_phase(without_color),618858,,black_plus_sign,,,,null,GW/carmel.png,GW/hotsprings.png,,,,,,,,,,,,,,,,,,,,,,,,,
null,,black_cross(without_color),619580,,blue,,,,null,GW/carmel.png,GW/hotsprings.png,,,,,,,,,,,,,,,,,,,,,,,,,
null,,rt_plussign_withcolor,620082,,blue,,,,null,GW/carmel.png,GW/hotsprings.png,,,,,,,,,,,,,,,,,,,,,,,,,
1310.8000000715256,,rt_thecrossant_black,621366,,black_plus_sign,,,,49,,,1,0.9714285714285714,,,,,,,,,,,,,,,,,,,,,,,
null,,color_black,621469,,black_plus_sign,,,,null,,,,,,,,,,,,,,,,,,,,,,,,,,,
null,,learn_phase(without_color),624473,,black_plus_sign,,,,null,GW/newhope.png,GW/cornwall.png,,,,,,,,,,,,,,,,,,,,,,,,,
null,,black_cross(without_color),625520,,yellow,,,,null,GW/newhope.png,GW/cornwall.png,,,,,,,,,,,,,,,,,,,,,,,,,
null,,rt_plussign_withcolor,626021,,yellow,,,,null,GW/newhope.png,GW/cornwall.png,,,,,,,,,,,,,,,,,,,,,,,,,
996.2999999523163,,rt_thecrossant_black,626992,,black_plus_sign,,,,50,,,1,0.971830985915493,,,,,,,,,,,,,,,,,,,,,,,
null,,color_black,627095,,black_plus_sign,,,,null,,,,,,,,,,,,,,,,,,,,,,,,,,,
null,,learn_phase(without_color),630099,,black_plus_sign,,,,null,GW/gatlinburg.png,GW/racine.png,,,,,,,,,,,,,,,,,,,,,,,,,
null,,black_cross(without_color),630991,,yellow,,,,null,GW/gatlinburg.png,GW/racine.png,,,,,,,,,,,,,,,,,,,,,,,,,
null,,rt_plussign_withcolor,631493,,yellow,,,,null,GW/gatlinburg.png,GW/racine.png,,,,,,,,,,,,,,,,,,,,,,,,,
1260.8999999761581,,rt_thecrossant_black,632608,,black_plus_sign,,,,50,,,1,0.9722222222222222,,,,,,,,,,,,,,,,,,,,,,,
null,,color_black,632712,,black_plus_sign,,,,null,,,,,,,,,,,,,,,,,,,,,,,,,,,
null,,learn_phase(without_color),635715,,black_plus_sign,,,,null,GW/boulder.png,GW/westpalmbeach.png,,,,,,,,,,,,,,,,,,,,,,,,,
null,,black_cross(without_color),636259,,blue,,,,null,GW/boulder.png,GW/westpalmbeach.png,,,,,,,,,,,,,,,,,,,,,,,,,
468.2999999523163,,rt_plussign_withcolor,636761,,blue,,,,49,GW/boulder.png,GW/westpalmbeach.png,,,,,,,,,,,,,,,,,,,,,,,,,
null,,rt_thecrossant_black,638222,,black_plus_sign,,,,null,,,1,0.9726027397260274,,,,,,,,,,,,,,,,,,,,,,,
null,,color_black,638325,,black_plus_sign,,,,null,,,,,,,,,,,,,,,,,,,,,,,,,,,
null,,learn_phase(without_color),641329,,black_plus_sign,,,,null,GW/gatlinburg.png,GW/racine.png,,,,,,,,,,,,,,,,,,,,,,,,,
null,,black_cross(without_color),642112,,yellow,,,,null,GW/gatlinburg.png,GW/racine.png,,,,,,,,,,,,,,,,,,,,,,,,,
null,,rt_plussign_withcolor,642614,,yellow,,,,null,GW/gatlinburg.png,GW/racine.png,,,,,,,,,,,,,,,,,,,,,,,,,
708.2000000476837,,rt_thecrossant_black,643836,,black_plus_sign,,,,50,,,1,0.972972972972973,,,,,,,,,,,,,,,,,,,,,,,
null,,color_black,643938,,black_plus_sign,,,,null,,,,,,,,,,,,,,,,,,,,,,,,,,,
null,,learn_phase(without_color),646942,,black_plus_sign,,,,null,GW/newhope.png,GW/cornwall.png,,,,,,,,,,,,,,,,,,,,,,,,,
null,,black_cross(without_color),647918,,yellow,,,,null,GW/newhope.png,GW/cornwall.png,,,,,,,,,,,,,,,,,,,,,,,,,
null,,rt_plussign_withcolor,648420,,yellow,,,,null,GW/newhope.png,GW/cornwall.png,,,,,,,,,,,,,,,,,,,,,,,,,
990.0999999046326,,rt_thecrossant_black,649462,,black_plus_sign,,,,50,,,1,0.9733333333333334,,,,,,,,,,,,,,,,,,,,,,,
null,,color_black,649564,,black_plus_sign,,,,null,,,,,,,,,,,,,,,,,,,,,,,,,,,
null,,learn_phase(without_color),652568,,black_plus_sign,,,,null,GW/westpalmbeach.png,GW/boulder.png,,,,,,,,,,,,,,,,,,,,,,,,,
null,,black_cross(without_color),653625,,blue,,,,null,GW/westpalmbeach.png,GW/boulder.png,,,,,,,,,,,,,,,,,,,,,,,,,
null,,rt_plussign_withcolor,654128,,blue,,,,null,GW/westpalmbeach.png,GW/boulder.png,,,,,,,,,,,,,,,,,,,,,,,,,
1207,,rt_thecrossant_black,655078,,black_plus_sign,,,,49,,,1,0.9736842105263158,,,,,,,,,,,,,,,,,,,,,,,
null,,color_black,655180,,black_plus_sign,,,,null,,,,,,,,,,,,,,,,,,,,,,,,,,,
null,,learn_phase(without_color),658183,,black_plus_sign,,,,null,GW/racine.png,GW/gatlinburg.png,,,,,,,,,,,,,,,,,,,,,,,,,
null,,black_cross(without_color),659003,,blue,,,,null,GW/racine.png,GW/gatlinburg.png,,,,,,,,,,,,,,,,,,,,,,,,,
null,,rt_plussign_withcolor,659505,,blue,,,,null,GW/racine.png,GW/gatlinburg.png,,,,,,,,,,,,,,,,,,,,,,,,,
1370.6000000238419,,rt_thecrossant_black,660691,,black_plus_sign,,,,49,,,1,0.974025974025974,,,,,,,,,,,,,,,,,,,,,,,
null,,color_black,660794,,black_plus_sign,,,,null,,,,,,,,,,,,,,,,,,,,,,,,,,,
null,,learn_phase(without_color),663798,,black_plus_sign,,,,null,GW/hotsprings.png,GW/carmel.png,,,,,,,,,,,,,,,,,,,,,,,,,
null,,black_cross(without_color),664805,,yellow,,,,null,GW/hotsprings.png,GW/carmel.png,,,,,,,,,,,,,,,,,,,,,,,,,
null,,rt_plussign_withcolor,665307,,yellow,,,,null,GW/hotsprings.png,GW/carmel.png,,,,,,,,,,,,,,,,,,,,,,,,,
1172.3000000715256,,rt_thecrossant_black,666307,,black_plus_sign,,,,50,,,1,0.9743589743589743,,,,,,,,,,,,,,,,,,,,,,,
null,,color_black,666410,,black_plus_sign,,,,null,,,,,,,,,,,,,,,,,,,,,,,,,,,
null,,learn_phase(without_color),669413,,black_plus_sign,,,,null,GW/newhope.png,GW/cornwall.png,,,,,,,,,,,,,,,,,,,,,,,,,
null,,black_cross(without_color),670475,,blue,,,,null,GW/newhope.png,GW/cornwall.png,,,,,,,,,,,,,,,,,,,,,,,,,
null,,rt_plussign_withcolor,670978,,blue,,,,null,GW/newhope.png,GW/cornwall.png,,,,,,,,,,,,,,,,,,,,,,,,,
1320.6999999284744,,rt_thecrossant_black,671923,,black_plus_sign,,,,49,,,1,0.9746835443037974,,,,,,,,,,,,,,,,,,,,,,,
null,,color_black,672027,,black_plus_sign,,,,null,,,,,,,,,,,,,,,,,,,,,,,,,,,
null,,learn_phase(without_color),675030,,black_plus_sign,,,,null,GW/gatlinburg.png,GW/racine.png,,,,,,,,,,,,,,,,,,,,,,,,,
null,,black_cross(without_color),675586,,blue,,,,null,GW/gatlinburg.png,GW/racine.png,,,,,,,,,,,,,,,,,,,,,,,,,
null,,rt_plussign_withcolor,676088,,blue,,,,null,GW/gatlinburg.png,GW/racine.png,,,,,,,,,,,,,,,,,,,,,,,,,
1264,,rt_thecrossant_black,677539,,black_plus_sign,,,,49,,,1,0.975,,,,,,,,,,,,,,,,,,,,,,,
null,,color_black,677642,,black_plus_sign,,,,null,,,,,,,,,,,,,,,,,,,,,,,,,,,
null,,learn_phase(without_color),680646,,black_plus_sign,,,,null,GW/boulder.png,GW/westpalmbeach.png,,,,,,,,,,,,,,,,,,,,,,,,,
null,,black_cross(without_color),681285,,yellow,,,,null,GW/boulder.png,GW/westpalmbeach.png,,,,,,,,,,,,,,,,,,,,,,,,,
null,,rt_plussign_withcolor,681788,,yellow,,,,null,GW/boulder.png,GW/westpalmbeach.png,,,,,,,,,,,,,,,,,,,,,,,,,
883.7999999523163,,rt_thecrossant_black,683155,,black_plus_sign,,,,50,,,1,0.9753086419753086,,,,,,,,,,,,,,,,,,,,,,,
null,,color_black,683258,,black_plus_sign,,,,null,,,,,,,,,,,,,,,,,,,,,,,,,,,
null,,learn_phase(without_color),686262,,black_plus_sign,,,,null,GW/cornwall.png,GW/newhope.png,,,,,,,,,,,,,,,,,,,,,,,,,
null,,black_cross(without_color),686903,,blue,,,,null,GW/cornwall.png,GW/newhope.png,,,,,,,,,,,,,,,,,,,,,,,,,
null,,rt_plussign_withcolor,687404,,blue,,,,null,GW/cornwall.png,GW/newhope.png,,,,,,,,,,,,,,,,,,,,,,,,,
1135,,rt_thecrossant_black,688769,,black_plus_sign,,,,49,,,1,0.975609756097561,,,,,,,,,,,,,,,,,,,,,,,
null,,color_black,688871,,black_plus_sign,,,,null,,,,,,,,,,,,,,,,,,,,,,,,,,,
null,,learn_phase(without_color),691875,,black_plus_sign,,,,null,GW/racine.png,GW/gatlinburg.png,,,,,,,,,,,,,,,,,,,,,,,,,
null,,black_cross(without_color),692392,,yellow,,,,null,GW/racine.png,GW/gatlinburg.png,,,,,,,,,,,,,,,,,,,,,,,,,
null,,rt_plussign_withcolor,692894,,yellow,,,,null,GW/racine.png,GW/gatlinburg.png,,,,,,,,,,,,,,,,,,,,,,,,,
854.2000000476837,,rt_thecrossant_black,694383,,black_plus_sign,,,,50,,,1,0.9759036144578314,,,,,,,,,,,,,,,,,,,,,,,
null,,color_black,694486,,black_plus_sign,,,,null,,,,,,,,,,,,,,,,,,,,,,,,,,,
null,,learn_phase(without_color),697491,,black_plus_sign,,,,null,GW/carmel.png,GW/hotsprings.png,,,,,,,,,,,,,,,,,,,,,,,,,
null,,black_cross(without_color),698488,,blue,,,,null,GW/carmel.png,GW/hotsprings.png,,,,,,,,,,,,,,,,,,,,,,,,,
null,,rt_plussign_withcolor,698991,,blue,,,,null,GW/carmel.png,GW/hotsprings.png,,,,,,,,,,,,,,,,,,,,,,,,,
616.3000000715256,,rt_thecrossant_black,700001,,black_plus_sign,,,,49,,,1,0.9761904761904762,,,,,,,,,,,,,,,,,,,,,,,
null,,color_black,700109,,black_plus_sign,,,,null,,,,,,,,,,,,,,,,,,,,,,,,,,,
null,,learn_phase(without_color),703112,,black_plus_sign,,,,null,GW/westpalmbeach.png,GW/boulder.png,,,,,,,,,,,,,,,,,,,,,,,,,
null,,black_cross(without_color),703623,,yellow,,,,null,GW/westpalmbeach.png,GW/boulder.png,,,,,,,,,,,,,,,,,,,,,,,,,
null,,rt_plussign_withcolor,704125,,yellow,,,,null,GW/westpalmbeach.png,GW/boulder.png,,,,,,,,,,,,,,,,,,,,,,,,,
1327.8000000715256,,rt_thecrossant_black,705621,,black_plus_sign,,,,50,,,1,0.9764705882352941,,,,,,,,,,,,,,,,,,,,,,,
null,,color_black,705724,,black_plus_sign,,,,null,,,,,,,,,,,,,,,,,,,,,,,,,,,
null,,learn_phase(without_color),708728,,black_plus_sign,,,,null,GW/hotsprings.png,GW/carmel.png,,,,,,,,,,,,,,,,,,,,,,,,,
null,,black_cross(without_color),709663,,yellow,,,,null,GW/hotsprings.png,GW/carmel.png,,,,,,,,,,,,,,,,,,,,,,,,,
null,,rt_plussign_withcolor,710165,,yellow,,,,null,GW/hotsprings.png,GW/carmel.png,,,,,,,,,,,,,,,,,,,,,,,,,
691.7000000476837,,rt_thecrossant_black,711237,,black_plus_sign,,,,50,,,1,0.9767441860465116,,,,,,,,,,,,,,,,,,,,,,,
null,,color_black,711340,,black_plus_sign,,,,null,,,,,,,,,,,,,,,,,,,,,,,,,,,
null,,learn_phase(without_color),714343,,black_plus_sign,,,,null,GW/cornwall.png,GW/newhope.png,,,,,,,,,,,,,,,,,,,,,,,,,
null,,black_cross(without_color),715121,,yellow,,,,null,GW/cornwall.png,GW/newhope.png,,,,,,,,,,,,,,,,,,,,,,,,,
null,,rt_plussign_withcolor,715623,,yellow,,,,null,GW/cornwall.png,GW/newhope.png,,,,,,,,,,,,,,,,,,,,,,,,,
1361.5,,rt_thecrossant_black,716853,,black_plus_sign,,,,50,,,1,0.9770114942528736,,,,,,,,,,,,,,,,,,,,,,,
null,,color_black,716956,,black_plus_sign,,,,null,,,,,,,,,,,,,,,,,,,,,,,,,,,
null,,learn_phase(without_color),719960,,black_plus_sign,,,,null,GW/boulder.png,GW/westpalmbeach.png,,,,,,,,,,,,,,,,,,,,,,,,,
null,,black_cross(without_color),720388,,yellow,,,,null,GW/boulder.png,GW/westpalmbeach.png,,,,,,,,,,,,,,,,,,,,,,,,,
null,,rt_plussign_withcolor,720890,,yellow,,,,null,GW/boulder.png,GW/westpalmbeach.png,,,,,,,,,,,,,,,,,,,,,,,,,
966.2999999523163,,rt_thecrossant_black,722469,,black_plus_sign,,,,50,,,1,0.9772727272727273,,,,,,,,,,,,,,,,,,,,,,,
null,,color_black,722573,,black_plus_sign,,,,null,,,,,,,,,,,,,,,,,,,,,,,,,,,
null,,learn_phase(without_color),725576,,black_plus_sign,,,,null,GW/carmel.png,GW/hotsprings.png,,,,,,,,,,,,,,,,,,,,,,,,,
null,,black_cross(without_color),726633,,yellow,,,,null,GW/carmel.png,GW/hotsprings.png,,,,,,,,,,,,,,,,,,,,,,,,,
null,,rt_plussign_withcolor,727135,,yellow,,,,null,GW/carmel.png,GW/hotsprings.png,,,,,,,,,,,,,,,,,,,,,,,,,
677.5,,rt_thecrossant_black,728086,,black_plus_sign,,,,50,,,1,0.9775280898876404,,,,,,,,,,,,,,,,,,,,,,,
null,,color_black,728189,,black_plus_sign,,,,null,,,,,,,,,,,,,,,,,,,,,,,,,,,
null,,learn_phase(without_color),731193,,black_plus_sign,,,,null,GW/newhope.png,GW/cornwall.png,,,,,,,,,,,,,,,,,,,,,,,,,
null,,black_cross(without_color),731618,,yellow,,,,null,GW/newhope.png,GW/cornwall.png,,,,,,,,,,,,,,,,,,,,,,,,,
null,,rt_plussign_withcolor,732120,,yellow,,,,null,GW/newhope.png,GW/cornwall.png,,,,,,,,,,,,,,,,,,,,,,,,,
1889.2999999523163,,rt_thecrossant_black,733701,,black_plus_sign,,,,50,,,1,0.9777777777777777,,,,,,,,,,,,,,,,,,,,,,,
null,,color_black,733803,,black_plus_sign,,,,null,,,,,,,,,,,,,,,,,,,,,,,,,,,
null,,learn_phase(without_color),736808,,black_plus_sign,,,,null,GW/boulder.png,GW/westpalmbeach.png,,,,,,,,,,,,,,,,,,,,,,,,,
null,,black_cross(without_color),737849,,blue,,,,null,GW/boulder.png,GW/westpalmbeach.png,,,,,,,,,,,,,,,,,,,,,,,,,
null,,rt_plussign_withcolor,738351,,blue,,,,null,GW/boulder.png,GW/westpalmbeach.png,,,,,,,,,,,,,,,,,,,,,,,,,
673.2000000476837,,rt_thecrossant_black,739319,,black_plus_sign,,,,49,,,1,0.978021978021978,,,,,,,,,,,,,,,,,,,,,,,
null,,color_black,739423,,black_plus_sign,,,,null,,,,,,,,,,,,,,,,,,,,,,,,,,,
null,,learn_phase(without_color),742427,,black_plus_sign,,,,null,GW/carmel.png,GW/hotsprings.png,,,,,,,,,,,,,,,,,,,,,,,,,
null,,black_cross(without_color),743263,,yellow,,,,null,GW/carmel.png,GW/hotsprings.png,,,,,,,,,,,,,,,,,,,,,,,,,
null,,rt_plussign_withcolor,743765,,yellow,,,,null,GW/carmel.png,GW/hotsprings.png,,,,,,,,,,,,,,,,,,,,,,,,,
1382.1000000238419,,rt_thecrossant_black,744935,,black_plus_sign,,,,50,,,1,0.9782608695652174,,,,,,,,,,,,,,,,,,,,,,,
null,,color_black,745037,,black_plus_sign,,,,null,,,,,,,,,,,,,,,,,,,,,,,,,,,
null,,learn_phase(without_color),748041,,black_plus_sign,,,,null,GW/gatlinburg.png,GW/racine.png,,,,,,,,,,,,,,,,,,,,,,,,,
null,,black_cross(without_color),749140,,yellow,,,,null,GW/gatlinburg.png,GW/racine.png,,,,,,,,,,,,,,,,,,,,,,,,,
null,,rt_plussign_withcolor,749643,,yellow,,,,null,GW/gatlinburg.png,GW/racine.png,,,,,,,,,,,,,,,,,,,,,,,,,
null,,rt_thecrossant_black,750549,,black_plus_sign,,,,null,,,,0.9782608695652174,,,,,,,,,,,,,,,,,,,,,,,
null,,color_black,750652,,black_plus_sign,,,,null,,,,,,,,,,,,,,,,,,,,,,,,,,,
null,,learn_phase(without_color),753656,,black_plus_sign,,,,null,GW/cornwall.png,GW/newhope.png,,,,,,,,,,,,,,,,,,,,,,,,,
null,,black_cross(without_color),754445,,yellow,,,,null,GW/cornwall.png,GW/newhope.png,,,,,,,,,,,,,,,,,,,,,,,,,
null,,rt_plussign_withcolor,754948,,yellow,,,,null,GW/cornwall.png,GW/newhope.png,,,,,,,,,,,,,,,,,,,,,,,,,
1556.8999999761581,,rt_thecrossant_black,756165,,black_plus_sign,,,,50,,,1,0.978494623655914,,,,,,,,,,,,,,,,,,,,,,,
null,,color_black,756268,,black_plus_sign,,,,null,,,,,,,,,,,,,,,,,,,,,,,,,,,
null,,learn_phase(without_color),759272,,black_plus_sign,,,,null,GW/hotsprings.png,GW/carmel.png,,,,,,,,,,,,,,,,,,,,,,,,,
null,,black_cross(without_color),760357,,blue,,,,null,GW/hotsprings.png,GW/carmel.png,,,,,,,,,,,,,,,,,,,,,,,,,
null,,rt_plussign_withcolor,760859,,blue,,,,null,GW/hotsprings.png,GW/carmel.png,,,,,,,,,,,,,,,,,,,,,,,,,
1254.7000000476837,,rt_thecrossant_black,761782,,black_plus_sign,,,,49,,,1,0.9787234042553191,,,,,,,,,,,,,,,,,,,,,,,
null,,color_black,761884,,black_plus_sign,,,,null,,,,,,,,,,,,,,,,,,,,,,,,,,,
null,,learn_phase(without_color),764889,,black_plus_sign,,,,null,GW/carmel.png,GW/gatlinburg.png,,,,,,,,,,,,,,,,,,,,,,,,,
null,,black_cross(without_color),765926,,yellow,,,,null,GW/carmel.png,GW/gatlinburg.png,,,,,,,,,,,,,,,,,,,,,,,,,
null,,rt_plussign_withcolor,766428,,yellow,,,,null,GW/carmel.png,GW/gatlinburg.png,,,,,,,,,,,,,,,,,,,,,,,,,
1836.1999999284744,,rt_thecrossant_black,767396,,black_plus_sign,,,,50,,,1,0.9789473684210527,,,,,,,,,,,,,,,,,,,,,,,
null,,color_black,767498,,black_plus_sign,,,,null,,,,,,,,,,,,,,,,,,,,,,,,,,,
null,,learn_phase(without_color),770504,,black_plus_sign,,,,null,GW/hanover.png,GW/cornwall.png,,,,,,,,,,,,,,,,,,,,,,,,,
null,,black_cross(without_color),771382,,blue,,,,null,GW/hanover.png,GW/cornwall.png,,,,,,,,,,,,,,,,,,,,,,,,,
412,,rt_plussign_withcolor,771885,,blue,,,,49,GW/hanover.png,GW/cornwall.png,,,,,,,,,,,,,,,,,,,,,,,,,
null,,rt_thecrossant_black,773013,,black_plus_sign,,,,null,,,1,0.9791666666666666,,,,,,,,,,,,,,,,,,,,,,,
null,,color_black,773123,,black_plus_sign,,,,null,,,,,,,,,,,,,,,,,,,,,,,,,,,
null,,learn_phase(without_color),776132,,black_plus_sign,,,,null,GW/gatlinburg.png,GW/carmel.png,,,,,,,,,,,,,,,,,,,,,,,,,
null,,black_cross(without_color),776783,,blue,,,,null,GW/gatlinburg.png,GW/carmel.png,,,,,,,,,,,,,,,,,,,,,,,,,
null,,rt_plussign_withcolor,777285,,blue,,,,null,GW/gatlinburg.png,GW/carmel.png,,,,,,,,,,,,,,,,,,,,,,,,,
1260.8000000715256,,rt_thecrossant_black,778641,,black_plus_sign,,,,49,,,1,0.979381443298969,,,,,,,,,,,,,,,,,,,,,,,
null,,color_black,778745,,black_plus_sign,,,,null,,,,,,,,,,,,,,,,,,,,,,,,,,,
null,,learn_phase(without_color),781749,,black_plus_sign,,,,null,GW/hanover.png,GW/cornwall.png,,,,,,,,,,,,,,,,,,,,,,,,,
null,,black_cross(without_color),782475,,yellow,,,,null,GW/hanover.png,GW/cornwall.png,,,,,,,,,,,,,,,,,,,,,,,,,
null,,rt_plussign_withcolor,782979,,yellow,,,,null,GW/hanover.png,GW/cornwall.png,,,,,,,,,,,,,,,,,,,,,,,,,
849.7999999523163,,rt_thecrossant_black,784260,,black_plus_sign,,,,50,,,1,0.9795918367346939,,,,,,,,,,,,,,,,,,,,,,,
null,,color_black,784362,,black_plus_sign,,,,null,,,,,,,,,,,,,,,,,,,,,,,,,,,
null,,learn_phase(without_color),787366,,black_plus_sign,,,,null,GW/peoria.png,GW/hotsprings.png,,,,,,,,,,,,,,,,,,,,,,,,,
null,,black_cross(without_color),788025,,blue,,,,null,GW/peoria.png,GW/hotsprings.png,,,,,,,,,,,,,,,,,,,,,,,,,
null,,rt_plussign_withcolor,788527,,blue,,,,null,GW/peoria.png,GW/hotsprings.png,,,,,,,,,,,,,,,,,,,,,,,,,
921.3999999761581,,rt_thecrossant_black,789875,,black_plus_sign,,,,49,,,1,0.9797979797979798,,,,,,,,,,,,,,,,,,,,,,,
null,,color_black,789979,,black_plus_sign,,,,null,,,,,,,,,,,,,,,,,,,,,,,,,,,
null,,learn_phase(without_color),792983,,black_plus_sign,,,,null,GW/newhope.png,GW/westpalmbeach.png,,,,,,,,,,,,,,,,,,,,,,,,,
null,,black_cross(without_color),794019,,yellow,,,,null,GW/newhope.png,GW/westpalmbeach.png,,,,,,,,,,,,,,,,,,,,,,,,,
null,,rt_plussign_withcolor,794522,,yellow,,,,null,GW/newhope.png,GW/westpalmbeach.png,,,,,,,,,,,,,,,,,,,,,,,,,
837.8999999761581,,rt_thecrossant_black,795493,,black_plus_sign,,,,50,,,1,0.98,,,,,,,,,,,,,,,,,,,,,,,
null,,color_black,795599,,black_plus_sign,,,,null,,,,,,,,,,,,,,,,,,,,,,,,,,,
null,,learn_phase(without_color),798602,,black_plus_sign,,,,null,GW/hotsprings.png,GW/peoria.png,,,,,,,,,,,,,,,,,,,,,,,,,
null,,black_cross(without_color),799152,,yellow,,,,null,GW/hotsprings.png,GW/peoria.png,,,,,,,,,,,,,,,,,,,,,,,,,
null,,rt_plussign_withcolor,799655,,yellow,,,,null,GW/hotsprings.png,GW/peoria.png,,,,,,,,,,,,,,,,,,,,,,,,,
1478.5999999046326,,rt_thecrossant_black,801110,,black_plus_sign,,,,50,,,1,0.9801980198019802,,,,,,,,,,,,,,,,,,,,,,,
null,,color_black,801213,,black_plus_sign,,,,null,,,,,,,,,,,,,,,,,,,,,,,,,,,
null,,learn_phase(without_color),804218,,black_plus_sign,,,,null,GW/cornwall.png,GW/hanover.png,,,,,,,,,,,,,,,,,,,,,,,,,
null,,black_cross(without_color),804642,,blue,,,,null,GW/cornwall.png,GW/hanover.png,,,,,,,,,,,,,,,,,,,,,,,,,
null,,rt_plussign_withcolor,805144,,blue,,,,null,GW/cornwall.png,GW/hanover.png,,,,,,,,,,,,,,,,,,,,,,,,,
873.2999999523163,,rt_thecrossant_black,806727,,black_plus_sign,,,,49,,,1,0.9803921568627451,,,,,,,,,,,,,,,,,,,,,,,
null,,color_black,806830,,black_plus_sign,,,,null,,,,,,,,,,,,,,,,,,,,,,,,,,,
null,,learn_phase(without_color),809833,,black_plus_sign,,,,null,GW/newhope.png,GW/westpalmbeach.png,,,,,,,,,,,,,,,,,,,,,,,,,
null,,black_cross(without_color),810704,,yellow,,,,null,GW/newhope.png,GW/westpalmbeach.png,,,,,,,,,,,,,,,,,,,,,,,,,
null,,rt_plussign_withcolor,811206,,yellow,,,,null,GW/newhope.png,GW/westpalmbeach.png,,,,,,,,,,,,,,,,,,,,,,,,,
533.7999999523163,,rt_thecrossant_black,812341,,black_plus_sign,,,,50,,,1,0.9805825242718447,,,,,,,,,,,,,,,,,,,,,,,
null,,color_black,812443,,black_plus_sign,,,,null,,,,,,,,,,,,,,,,,,,,,,,,,,,
null,,learn_phase(without_color),815448,,black_plus_sign,,,,null,GW/hanover.png,GW/cornwall.png,,,,,,,,,,,,,,,,,,,,,,,,,
null,,black_cross(without_color),816164,,blue,,,,null,GW/hanover.png,GW/cornwall.png,,,,,,,,,,,,,,,,,,,,,,,,,
null,,rt_plussign_withcolor,816666,,blue,,,,null,GW/hanover.png,GW/cornwall.png,,,,,,,,,,,,,,,,,,,,,,,,,
1489.8999999761581,,rt_thecrossant_black,817957,,black_plus_sign,,,,49,,,1,0.9807692307692307,,,,,,,,,,,,,,,,,,,,,,,
null,,color_black,818060,,black_plus_sign,,,,null,,,,,,,,,,,,,,,,,,,,,,,,,,,
null,,learn_phase(without_color),821066,,black_plus_sign,,,,null,GW/carmel.png,GW/gatlinburg.png,,,,,,,,,,,,,,,,,,,,,,,,,
null,,black_cross(without_color),821784,,yellow,,,,null,GW/carmel.png,GW/gatlinburg.png,,,,,,,,,,,,,,,,,,,,,,,,,
null,,rt_plussign_withcolor,822286,,yellow,,,,null,GW/carmel.png,GW/gatlinburg.png,,,,,,,,,,,,,,,,,,,,,,,,,
1300.5,,rt_thecrossant_black,823574,,black_plus_sign,,,,50,,,1,0.9809523809523809,,,,,,,,,,,,,,,,,,,,,,,
null,,color_black,823677,,black_plus_sign,,,,null,,,,,,,,,,,,,,,,,,,,,,,,,,,
null,,learn_phase(without_color),826681,,black_plus_sign,,,,null,GW/westpalmbeach.png,GW/newhope.png,,,,,,,,,,,,,,,,,,,,,,,,,
null,,black_cross(without_color),827382,,yellow,,,,null,GW/westpalmbeach.png,GW/newhope.png,,,,,,,,,,,,,,,,,,,,,,,,,
null,,rt_plussign_withcolor,827884,,yellow,,,,null,GW/westpalmbeach.png,GW/newhope.png,,,,,,,,,,,,,,,,,,,,,,,,,
929.1000000238419,,rt_thecrossant_black,829189,,black_plus_sign,,,,50,,,1,0.9811320754716981,,,,,,,,,,,,,,,,,,,,,,,
null,,color_black,829291,,black_plus_sign,,,,null,,,,,,,,,,,,,,,,,,,,,,,,,,,
null,,learn_phase(without_color),832295,,black_plus_sign,,,,null,GW/carmel.png,GW/gatlinburg.png,,,,,,,,,,,,,,,,,,,,,,,,,
null,,black_cross(without_color),832969,,yellow,,,,null,GW/carmel.png,GW/gatlinburg.png,,,,,,,,,,,,,,,,,,,,,,,,,
null,,rt_plussign_withcolor,833472,,yellow,,,,null,GW/carmel.png,GW/gatlinburg.png,,,,,,,,,,,,,,,,,,,,,,,,,
1645.8999999761581,,rt_thecrossant_black,834805,,black_plus_sign,,,,50,,,1,0.9813084112149533,,,,,,,,,,,,,,,,,,,,,,,
null,,color_black,834908,,black_plus_sign,,,,null,,,,,,,,,,,,,,,,,,,,,,,,,,,
null,,learn_phase(without_color),837911,,black_plus_sign,,,,null,GW/hotsprings.png,GW/peoria.png,,,,,,,,,,,,,,,,,,,,,,,,,
null,,black_cross(without_color),838928,,blue,,,,null,GW/hotsprings.png,GW/peoria.png,,,,,,,,,,,,,,,,,,,,,,,,,
null,,rt_plussign_withcolor,839430,,blue,,,,null,GW/hotsprings.png,GW/peoria.png,,,,,,,,,,,,,,,,,,,,,,,,,
1236.7000000476837,,rt_thecrossant_black,840419,,black_plus_sign,,,,49,,,1,0.9814814814814815,,,,,,,,,,,,,,,,,,,,,,,
null,,color_black,840522,,black_plus_sign,,,,null,,,,,,,,,,,,,,,,,,,,,,,,,,,
null,,learn_phase(without_color),843525,,black_plus_sign,,,,null,GW/gatlinburg.png,GW/carmel.png,,,,,,,,,,,,,,,,,,,,,,,,,
null,,black_cross(without_color),844216,,yellow,,,,null,GW/gatlinburg.png,GW/carmel.png,,,,,,,,,,,,,,,,,,,,,,,,,
null,,rt_plussign_withcolor,844718,,yellow,,,,null,GW/gatlinburg.png,GW/carmel.png,,,,,,,,,,,,,,,,,,,,,,,,,
1469.7000000476837,,rt_thecrossant_black,846030,,black_plus_sign,,,,50,,,1,0.981651376146789,,,,,,,,,,,,,,,,,,,,,,,
null,,color_black,846133,,black_plus_sign,,,,null,,,,,,,,,,,,,,,,,,,,,,,,,,,
null,,learn_phase(without_color),849138,,black_plus_sign,,,,null,GW/westpalmbeach.png,GW/newhope.png,,,,,,,,,,,,,,,,,,,,,,,,,
null,,black_cross(without_color),849725,,blue,,,,null,GW/westpalmbeach.png,GW/newhope.png,,,,,,,,,,,,,,,,,,,,,,,,,
null,,rt_plussign_withcolor,850228,,blue,,,,null,GW/westpalmbeach.png,GW/newhope.png,,,,,,,,,,,,,,,,,,,,,,,,,
993.2000000476837,,rt_thecrossant_black,851649,,black_plus_sign,,,,49,,,1,0.9818181818181818,,,,,,,,,,,,,,,,,,,,,,,
null,,color_black,851753,,black_plus_sign,,,,null,,,,,,,,,,,,,,,,,,,,,,,,,,,
null,,learn_phase(without_color),854757,,black_plus_sign,,,,null,GW/gatlinburg.png,GW/carmel.png,,,,,,,,,,,,,,,,,,,,,,,,,
null,,black_cross(without_color),855306,,yellow,,,,null,GW/gatlinburg.png,GW/carmel.png,,,,,,,,,,,,,,,,,,,,,,,,,
null,,rt_plussign_withcolor,855808,,yellow,,,,null,GW/gatlinburg.png,GW/carmel.png,,,,,,,,,,,,,,,,,,,,,,,,,
899.1000000238419,,rt_thecrossant_black,857264,,black_plus_sign,,,,50,,,1,0.9819819819819819,,,,,,,,,,,,,,,,,,,,,,,
null,,color_black,857367,,black_plus_sign,,,,null,,,,,,,,,,,,,,,,,,,,,,,,,,,
null,,learn_phase(without_color),860371,,black_plus_sign,,,,null,GW/peoria.png,GW/hotsprings.png,,,,,,,,,,,,,,,,,,,,,,,,,
null,,black_cross(without_color),861348,,yellow,,,,null,GW/peoria.png,GW/hotsprings.png,,,,,,,,,,,,,,,,,,,,,,,,,
null,,rt_plussign_withcolor,861850,,yellow,,,,null,GW/peoria.png,GW/hotsprings.png,,,,,,,,,,,,,,,,,,,,,,,,,
1295.7000000476837,,rt_thecrossant_black,862878,,black_plus_sign,,,,50,,,1,0.9821428571428571,,,,,,,,,,,,,,,,,,,,,,,
null,,color_black,862981,,black_plus_sign,,,,null,,,,,,,,,,,,,,,,,,,,,,,,,,,
null,,learn_phase(without_color),865985,,black_plus_sign,,,,null,GW/cornwall.png,GW/hanover.png,,,,,,,,,,,,,,,,,,,,,,,,,
null,,black_cross(without_color),866942,,blue,,,,null,GW/cornwall.png,GW/hanover.png,,,,,,,,,,,,,,,,,,,,,,,,,
498.90000009536743,,rt_plussign_withcolor,867444,,blue,,,,49,GW/cornwall.png,GW/hanover.png,,,,,,,,,,,,,,,,,,,,,,,,,
null,,rt_thecrossant_black,868493,,black_plus_sign,,,,null,,,1,0.9823008849557522,,,,,,,,,,,,,,,,,,,,,,,
null,,color_black,868596,,black_plus_sign,,,,null,,,,,,,,,,,,,,,,,,,,,,,,,,,
null,,learn_phase(without_color),871601,,black_plus_sign,,,,null,GW/hotsprings.png,GW/peoria.png,,,,,,,,,,,,,,,,,,,,,,,,,
null,,black_cross(without_color),872658,,yellow,,,,null,GW/hotsprings.png,GW/peoria.png,,,,,,,,,,,,,,,,,,,,,,,,,
null,,rt_plussign_withcolor,873161,,yellow,,,,null,GW/hotsprings.png,GW/peoria.png,,,,,,,,,,,,,,,,,,,,,,,,,
1158.7999999523163,,rt_thecrossant_black,874110,,black_plus_sign,,,,50,,,1,0.9824561403508771,,,,,,,,,,,,,,,,,,,,,,,
null,,color_black,874213,,black_plus_sign,,,,null,,,,,,,,,,,,,,,,,,,,,,,,,,,
null,,learn_phase(without_color),877219,,black_plus_sign,,,,null,GW/westpalmbeach.png,GW/newhope.png,,,,,,,,,,,,,,,,,,,,,,,,,
null,,black_cross(without_color),878192,,blue,,,,null,GW/westpalmbeach.png,GW/newhope.png,,,,,,,,,,,,,,,,,,,,,,,,,
null,,rt_plussign_withcolor,878695,,blue,,,,null,GW/westpalmbeach.png,GW/newhope.png,,,,,,,,,,,,,,,,,,,,,,,,,
1333.6000000238419,,rt_thecrossant_black,879729,,black_plus_sign,,,,49,,,1,0.9826086956521739,,,,,,,,,,,,,,,,,,,,,,,
null,,color_black,879832,,black_plus_sign,,,,null,,,,,,,,,,,,,,,,,,,,,,,,,,,
null,,learn_phase(without_color),882836,,black_plus_sign,,,,null,GW/cornwall.png,GW/hanover.png,,,,,,,,,,,,,,,,,,,,,,,,,
null,,black_cross(without_color),883723,,blue,,,,null,GW/cornwall.png,GW/hanover.png,,,,,,,,,,,,,,,,,,,,,,,,,
null,,rt_plussign_withcolor,884225,,blue,,,,null,GW/cornwall.png,GW/hanover.png,,,,,,,,,,,,,,,,,,,,,,,,,
1197.0999999046326,,rt_thecrossant_black,885344,,black_plus_sign,,,,49,,,1,0.9827586206896551,,,,,,,,,,,,,,,,,,,,,,,
null,,color_black,885449,,black_plus_sign,,,,null,,,,,,,,,,,,,,,,,,,,,,,,,,,
null,,learn_phase(without_color),888453,,black_plus_sign,,,,null,GW/hotsprings.png,GW/peoria.png,,,,,,,,,,,,,,,,,,,,,,,,,
null,,black_cross(without_color),888879,,blue,,,,null,GW/hotsprings.png,GW/peoria.png,,,,,,,,,,,,,,,,,,,,,,,,,
null,,rt_plussign_withcolor,889381,,blue,,,,null,GW/hotsprings.png,GW/peoria.png,,,,,,,,,,,,,,,,,,,,,,,,,
1072.3999999761581,,rt_thecrossant_black,890962,,black_plus_sign,,,,49,,,1,0.9829059829059829,,,,,,,,,,,,,,,,,,,,,,,
null,,color_black,891065,,black_plus_sign,,,,null,,,,,,,,,,,,,,,,,,,,,,,,,,,
null,,learn_phase(without_color),894070,,black_plus_sign,,,,null,GW/hanover.png,GW/cornwall.png,,,,,,,,,,,,,,,,,,,,,,,,,
null,,black_cross(without_color),894914,,blue,,,,null,GW/hanover.png,GW/cornwall.png,,,,,,,,,,,,,,,,,,,,,,,,,
null,,rt_plussign_withcolor,895416,,blue,,,,null,GW/hanover.png,GW/cornwall.png,,,,,,,,,,,,,,,,,,,,,,,,,
721.3000000715256,,rt_thecrossant_black,896578,,black_plus_sign,,,,49,,,1,0.9830508474576272,,,,,,,,,,,,,,,,,,,,,,,
null,,color_black,896681,,black_plus_sign,,,,null,,,,,,,,,,,,,,,,,,,,,,,,,,,
null,,learn_phase(without_color),899686,,black_plus_sign,,,,null,GW/hotsprings.png,GW/peoria.png,,,,,,,,,,,,,,,,,,,,,,,,,
null,,black_cross(without_color),900749,,blue,,,,null,GW/hotsprings.png,GW/peoria.png,,,,,,,,,,,,,,,,,,,,,,,,,
null,,rt_plussign_withcolor,901251,,blue,,,,null,GW/hotsprings.png,GW/peoria.png,,,,,,,,,,,,,,,,,,,,,,,,,
1056,,rt_thecrossant_black,902195,,black_plus_sign,,,,49,,,1,0.9831932773109243,,,,,,,,,,,,,,,,,,,,,,,
null,,color_black,902297,,black_plus_sign,,,,null,,,,,,,,,,,,,,,,,,,,,,,,,,,
null,,learn_phase(without_color),905299,,black_plus_sign,,,,null,GW/hanover.png,GW/cornwall.png,,,,,,,,,,,,,,,,,,,,,,,,,
null,,black_cross(without_color),906220,,yellow,,,,null,GW/hanover.png,GW/cornwall.png,,,,,,,,,,,,,,,,,,,,,,,,,
null,,rt_plussign_withcolor,906723,,yellow,,,,null,GW/hanover.png,GW/cornwall.png,,,,,,,,,,,,,,,,,,,,,,,,,
1570.8000000715256,,rt_thecrossant_black,907809,,black_plus_sign,,,,50,,,1,0.9833333333333333,,,,,,,,,,,,,,,,,,,,,,,
null,,color_black,907912,,black_plus_sign,,,,null,,,,,,,,,,,,,,,,,,,,,,,,,,,
null,,learn_phase(without_color),910917,,black_plus_sign,,,,null,GW/westpalmbeach.png,GW/newhope.png,,,,,,,,,,,,,,,,,,,,,,,,,
null,,black_cross(without_color),911483,,yellow,,,,null,GW/westpalmbeach.png,GW/newhope.png,,,,,,,,,,,,,,,,,,,,,,,,,
null,,rt_plussign_withcolor,911988,,yellow,,,,null,GW/westpalmbeach.png,GW/newhope.png,,,,,,,,,,,,,,,,,,,,,,,,,
1194.8999999761581,,rt_thecrossant_black,913428,,black_plus_sign,,,,50,,,1,0.9834710743801653,,,,,,,,,,,,,,,,,,,,,,,
null,,color_black,913531,,black_plus_sign,,,,null,,,,,,,,,,,,,,,,,,,,,,,,,,,
null,,learn_phase(without_color),916535,,black_plus_sign,,,,null,GW/hotsprings.png,GW/peoria.png,,,,,,,,,,,,,,,,,,,,,,,,,
null,,black_cross(without_color),916944,,yellow,,,,null,GW/hotsprings.png,GW/peoria.png,,,,,,,,,,,,,,,,,,,,,,,,,
null,,rt_plussign_withcolor,917447,,yellow,,,,null,GW/hotsprings.png,GW/peoria.png,,,,,,,,,,,,,,,,,,,,,,,,,
829.1999999284744,,rt_thecrossant_black,919044,,black_plus_sign,,,,50,,,1,0.9836065573770492,,,,,,,,,,,,,,,,,,,,,,,
null,,color_black,919148,,black_plus_sign,,,,null,,,,,,,,,,,,,,,,,,,,,,,,,,,
null,,learn_phase(without_color),922153,,black_plus_sign,,,,null,GW/westpalmbeach.png,GW/newhope.png,,,,,,,,,,,,,,,,,,,,,,,,,
null,,black_cross(without_color),922793,,blue,,,,null,GW/westpalmbeach.png,GW/newhope.png,,,,,,,,,,,,,,,,,,,,,,,,,
null,,rt_plussign_withcolor,923295,,blue,,,,null,GW/westpalmbeach.png,GW/newhope.png,,,,,,,,,,,,,,,,,,,,,,,,,
575.2999999523163,,rt_thecrossant_black,924660,,black_plus_sign,,,,49,,,1,0.983739837398374,,,,,,,,,,,,,,,,,,,,,,,
null,,color_black,924761,,black_plus_sign,,,,null,,,,,,,,,,,,,,,,,,,,,,,,,,,
null,,learn_phase(without_color),927764,,black_plus_sign,,,,null,GW/carmel.png,GW/gatlinburg.png,,,,,,,,,,,,,,,,,,,,,,,,,
null,,black_cross(without_color),928288,,yellow,,,,null,GW/carmel.png,GW/gatlinburg.png,,,,,,,,,,,,,,,,,,,,,,,,,
null,,rt_plussign_withcolor,928790,,yellow,,,,null,GW/carmel.png,GW/gatlinburg.png,,,,,,,,,,,,,,,,,,,,,,,,,
1265.2999999523163,,rt_thecrossant_black,930273,,black_plus_sign,,,,50,,,1,0.9838709677419355,,,,,,,,,,,,,,,,,,,,,,,
null,,color_black,930378,,black_plus_sign,,,,null,,,,,,,,,,,,,,,,,,,,,,,,,,,
null,,learn_phase(without_color),933381,,black_plus_sign,,,,null,GW/westpalmbeach.png,GW/newhope.png,,,,,,,,,,,,,,,,,,,,,,,,,
null,,black_cross(without_color),934380,,yellow,,,,null,GW/westpalmbeach.png,GW/newhope.png,,,,,,,,,,,,,,,,,,,,,,,,,
null,,rt_plussign_withcolor,934884,,yellow,,,,null,GW/westpalmbeach.png,GW/newhope.png,,,,,,,,,,,,,,,,,,,,,,,,,
887.5,,rt_thecrossant_black,935890,,black_plus_sign,,,,50,,,1,0.984,,,,,,,,,,,,,,,,,,,,,,,
null,,color_black,935994,,black_plus_sign,,,,null,,,,,,,,,,,,,,,,,,,,,,,,,,,
null,,learn_phase(without_color),938999,,black_plus_sign,,,,null,GW/gatlinburg.png,GW/carmel.png,,,,,,,,,,,,,,,,,,,,,,,,,
null,,black_cross(without_color),939959,,blue,,,,null,GW/gatlinburg.png,GW/carmel.png,,,,,,,,,,,,,,,,,,,,,,,,,
null,,rt_plussign_withcolor,940461,,blue,,,,null,GW/gatlinburg.png,GW/carmel.png,,,,,,,,,,,,,,,,,,,,,,,,,
1257.1999999284744,,rt_thecrossant_black,941508,,black_plus_sign,,,,49,,,1,0.9841269841269841,,,,,,,,,,,,,,,,,,,,,,,
null,,color_black,941611,,black_plus_sign,,,,null,,,,,,,,,,,,,,,,,,,,,,,,,,,
9887.5,,learn_break,951502,,learn_break,,,,32,,,,,,,,,,,,,,,,,,,,,,,,,,,
15511.100000023842,,intro_1,967015,,instruct,,0,Start,,,,,,,,,,,,,,,,,,,,,,,,,,,,
3463.600000023842,,directmemory_phase,970481,,GW/newhope.png,,,,49,,,1,1,GW/cornwall.png,GW/huntsville.png,GW/hotsprings.png,GW/cornwall.png,GW/hotsprings.png,GW/huntsville.png,1,,,,,,,,,,,,,,,,
null,,html-keyboard-response,971487,,<p></p>,,,,null,,,,,,,,,,,,,,,,,,,,,,,,,,,
6105.399999976158,,directmemory_phase,977594,,GW/boulder.png,,,,51,,,1,1,GW/gatlinburg.png,GW/leesburg.png,GW/hanover.png,GW/hanover.png,GW/leesburg.png,GW/gatlinburg.png,1,,,,,,,,,,,,,,,,
null,,html-keyboard-response,978598,,<p></p>,,,,null,,,,,,,,,,,,,,,,,,,,,,,,,,,
4584.799999952316,,directmemory_phase,983185,,GW/cornwall.png,,,,50,,,1,1,GW/westpalmbeach.png,GW/newhope.png,GW/carmel.png,GW/newhope.png,GW/westpalmbeach.png,GW/carmel.png,1,,,,,,,,,,,,,,,,
null,,html-keyboard-response,984190,,<p></p>,,,,null,,,,,,,,,,,,,,,,,,,,,,,,,,,
2105.100000023842,,directmemory_phase,986301,,GW/gatlinburg.png,,,,51,,,1,1,GW/huntsville.png,GW/peoria.png,GW/racine.png,GW/racine.png,GW/peoria.png,GW/huntsville.png,1,,,,,,,,,,,,,,,,
null,,html-keyboard-response,987304,,<p></p>,,,,null,,,,,,,,,,,,,,,,,,,,,,,,,,,
2388.7000000476837,,directmemory_phase,989696,,GW/newhope.png,,,,50,,,1,1,GW/carmel.png,GW/westpalmbeach.png,GW/huntsville.png,GW/westpalmbeach.png,GW/carmel.png,GW/huntsville.png,1,,,,,,,,,,,,,,,,
null,,html-keyboard-response,990700,,<p></p>,,,,null,,,,,,,,,,,,,,,,,,,,,,,,,,,
1498.6000000238419,,directmemory_phase,992201,,GW/leesburg.png,,,,49,,,1,1,GW/hanover.png,GW/westpalmbeach.png,GW/cornwall.png,GW/hanover.png,GW/cornwall.png,GW/westpalmbeach.png,1,,,,,,,,,,,,,,,,
null,,html-keyboard-response,993205,,<p></p>,,,,null,,,,,,,,,,,,,,,,,,,,,,,,,,,
1644.2000000476837,,directmemory_phase,994852,,GW/carmel.png,,,,51,,,1,1,GW/boulder.png,GW/newhope.png,GW/gatlinburg.png,GW/gatlinburg.png,GW/newhope.png,GW/boulder.png,1,,,,,,,,,,,,,,,,
null,,html-keyboard-response,995855,,<p></p>,,,,null,,,,,,,,,,,,,,,,,,,,,,,,,,,
4617.5,,directmemory_phase,1000475,,GW/westpalmbeach.png,,,,51,,,1,1,GW/leesburg.png,GW/hanover.png,GW/newhope.png,GW/newhope.png,GW/hanover.png,GW/leesburg.png,1,,,,,,,,,,,,,,,,
null,,html-keyboard-response,1001479,,<p></p>,,,,null,,,,,,,,,,,,,,,,,,,,,,,,,,,
2387.5,,directmemory_phase,1003870,,GW/boulder.png,,,,49,,,1,1,GW/huntsville.png,GW/racine.png,GW/cornwall.png,GW/huntsville.png,GW/cornwall.png,GW/racine.png,1,,,,,,,,,,,,,,,,
null,,html-keyboard-response,1004874,,<p></p>,,,,null,,,,,,,,,,,,,,,,,,,,,,,,,,,
2790.5,,directmemory_phase,1007667,,GW/gatlinburg.png,,,,51,,,1,1,GW/huntsville.png,GW/shreveport.png,GW/carmel.png,GW/carmel.png,GW/shreveport.png,GW/huntsville.png,1,,,,,,,,,,,,,,,,
null,,html-keyboard-response,1008671,,<p></p>,,,,null,,,,,,,,,,,,,,,,,,,,,,,,,,,
3942.600000023842,,directmemory_phase,1012616,,GW/racine.png,,,,50,,,1,1,GW/carmel.png,GW/hotsprings.png,GW/huntsville.png,GW/hotsprings.png,GW/carmel.png,GW/huntsville.png,1,,,,,,,,,,,,,,,,
null,,html-keyboard-response,1013620,,<p></p>,,,,null,,,,,,,,,,,,,,,,,,,,,,,,,,,
4800.400000095367,,directmemory_phase,1018423,,GW/newhope.png,,,,51,,,0,0.9166666666666666,GW/gatlinburg.png,GW/huntsville.png,GW/racine.png,GW/gatlinburg.png,GW/racine.png,GW/huntsville.png,0.5,closer,,,,,,,,,,,,,,,
null,,html-keyboard-response,1019428,,<p></p>,,,,null,,,,,,,,,,,,,,,,,,,,,,,,,,,
2819.5999999046326,,directmemory_phase,1022251,,GW/carmel.png,,,,51,,,1,0.9230769230769231,GW/cornwall.png,GW/newhope.png,GW/hotsprings.png,GW/hotsprings.png,GW/newhope.png,GW/cornwall.png,1,,,,,,,,,,,,,,,,
null,,html-keyboard-response,1023254,,<p></p>,,,,null,,,,,,,,,,,,,,,,,,,,,,,,,,,
5570.199999928474,,directmemory_phase,1028827,,GW/hanover.png,,,,51,,,1,0.9285714285714286,GW/peoria.png,GW/newhope.png,GW/boulder.png,GW/boulder.png,GW/newhope.png,GW/peoria.png,1,,,,,,,,,,,,,,,,
null,,html-keyboard-response,1029831,,<p></p>,,,,null,,,,,,,,,,,,,,,,,,,,,,,,,,,
2755.399999976158,,directmemory_phase,1032588,,GW/hotsprings.png,,,,49,,,1,0.9333333333333333,GW/gatlinburg.png,GW/leesburg.png,GW/newhope.png,GW/gatlinburg.png,GW/newhope.png,GW/leesburg.png,1,,,,,,,,,,,,,,,,
null,,html-keyboard-response,1033591,,<p></p>,,,,null,,,,,,,,,,,,,,,,,,,,,,,,,,,
1903.8999999761581,,directmemory_phase,1035497,,GW/westpalmbeach.png,,,,51,,,1,0.9375,GW/leesburg.png,GW/gatlinburg.png,GW/boulder.png,GW/boulder.png,GW/gatlinburg.png,GW/leesburg.png,1,,,,,,,,,,,,,,,,
null,,html-keyboard-response,1036501,,<p></p>,,,,null,,,,,,,,,,,,,,,,,,,,,,,,,,,
3438.100000023842,,directmemory_phase,1039941,,GW/hotsprings.png,,,,49,,,1,0.9411764705882353,GW/racine.png,GW/boulder.png,GW/cornwall.png,GW/racine.png,GW/cornwall.png,GW/boulder.png,1,,,,,,,,,,,,,,,,
null,,html-keyboard-response,1040946,,<p></p>,,,,null,,,,,,,,,,,,,,,,,,,,,,,,,,,
2380.600000023842,,directmemory_phase,1043329,,GW/carmel.png,,,,49,,,1,0.9444444444444444,GW/shreveport.png,GW/westpalmbeach.png,GW/racine.png,GW/shreveport.png,GW/racine.png,GW/westpalmbeach.png,1,,,,,,,,,,,,,,,,
null,,html-keyboard-response,1044333,,<p></p>,,,,null,,,,,,,,,,,,,,,,,,,,,,,,,,,
2830.899999976158,,directmemory_phase,1047167,,GW/hotsprings.png,,,,51,,,1,0.9473684210526315,GW/leesburg.png,GW/shreveport.png,GW/peoria.png,GW/peoria.png,GW/shreveport.png,GW/leesburg.png,1,,,,,,,,,,,,,,,,
null,,html-keyboard-response,1048171,,<p></p>,,,,null,,,,,,,,,,,,,,,,,,,,,,,,,,,
3367,,directmemory_phase,1051540,,GW/cornwall.png,,,,51,,,1,0.95,GW/shreveport.png,GW/boulder.png,GW/racine.png,GW/racine.png,GW/boulder.png,GW/shreveport.png,1,,,,,,,,,,,,,,,,
null,,html-keyboard-response,1052544,,<p></p>,,,,null,,,,,,,,,,,,,,,,,,,,,,,,,,,
1860,,directmemory_phase,1054407,,GW/hotsprings.png,,,,51,,,1,0.9523809523809523,GW/hanover.png,GW/cornwall.png,GW/carmel.png,GW/carmel.png,GW/cornwall.png,GW/hanover.png,1,,,,,,,,,,,,,,,,
null,,html-keyboard-response,1055411,,<p></p>,,,,null,,,,,,,,,,,,,,,,,,,,,,,,,,,
2790.1999999284744,,directmemory_phase,1058203,,GW/hanover.png,,,,51,,,1,0.9545454545454546,GW/carmel.png,GW/newhope.png,GW/leesburg.png,GW/leesburg.png,GW/newhope.png,GW/carmel.png,1,,,,,,,,,,,,,,,,
null,,html-keyboard-response,1059206,,<p></p>,,,,null,,,,,,,,,,,,,,,,,,,,,,,,,,,
1971,,directmemory_phase,1061180,,GW/peoria.png,,,,50,,,1,0.9565217391304348,GW/gatlinburg.png,GW/hotsprings.png,GW/cornwall.png,GW/hotsprings.png,GW/gatlinburg.png,GW/cornwall.png,1,,,,,,,,,,,,,,,,
null,,html-keyboard-response,1062184,,<p></p>,,,,null,,,,,,,,,,,,,,,,,,,,,,,,,,,
2543.100000023842,,directmemory_phase,1064729,,GW/huntsville.png,,,,49,,,1,0.9583333333333334,GW/boulder.png,GW/cornwall.png,GW/hanover.png,GW/boulder.png,GW/hanover.png,GW/cornwall.png,1,,,,,,,,,,,,,,,,
null,,html-keyboard-response,1065733,,<p></p>,,,,null,,,,,,,,,,,,,,,,,,,,,,,,,,,
3287.100000023842,,directmemory_phase,1069022,,GW/racine.png,,,,51,,,1,0.96,GW/westpalmbeach.png,GW/newhope.png,GW/cornwall.png,GW/cornwall.png,GW/newhope.png,GW/westpalmbeach.png,1,,,,,,,,,,,,,,,,
null,,html-keyboard-response,1070025,,<p></p>,,,,null,,,,,,,,,,,,,,,,,,,,,,,,,,,
1814.3999999761581,,directmemory_phase,1071842,,GW/boulder.png,,,,51,,,0,0.9230769230769231,GW/westpalmbeach.png,GW/racine.png,GW/leesburg.png,GW/westpalmbeach.png,GW/leesburg.png,GW/racine.png,0.5,closer,,,,,,,,,,,,,,,
null,,html-keyboard-response,1072847,,<p></p>,,,,null,,,,,,,,,,,,,,,,,,,,,,,,,,,
2724.100000023842,,directmemory_phase,1075573,,GW/racine.png,,,,51,,,1,0.9259259259259259,GW/westpalmbeach.png,GW/peoria.png,GW/gatlinburg.png,GW/gatlinburg.png,GW/peoria.png,GW/westpalmbeach.png,1,,,,,,,,,,,,,,,,
null,,html-keyboard-response,1076575,,<p></p>,,,,null,,,,,,,,,,,,,,,,,,,,,,,,,,,
6325.799999952316,,directmemory_phase,1082904,,GW/cornwall.png,,,,50,,,0,0.8928571428571429,GW/carmel.png,GW/westpalmbeach.png,GW/hanover.png,GW/hanover.png,GW/westpalmbeach.png,GW/carmel.png,0.5,closer,,,,,,,,,,,,,,,
null,,html-keyboard-response,1083908,,<p></p>,,,,null,,,,,,,,,,,,,,,,,,,,,,,,,,,
3454.1999999284744,,directmemory_phase,1087365,,GW/gatlinburg.png,,,,49,,,1,0.896551724137931,GW/hotsprings.png,GW/leesburg.png,GW/peoria.png,GW/hotsprings.png,GW/peoria.png,GW/leesburg.png,1,,,,,,,,,,,,,,,,
null,,html-keyboard-response,1088369,,<p></p>,,,,null,,,,,,,,,,,,,,,,,,,,,,,,,,,
5080.399999976158,,directmemory_phase,1093452,,GW/hanover.png,,,,51,,,1,0.9,GW/peoria.png,GW/huntsville.png,GW/cornwall.png,GW/cornwall.png,GW/huntsville.png,GW/peoria.png,1,,,,,,,,,,,,,,,,
null,,html-keyboard-response,1094457,,<p></p>,,,,null,,,,,,,,,,,,,,,,,,,,,,,,,,,
1922.8999999761581,,directmemory_phase,1096382,,GW/gatlinburg.png,,,,49,,,1,0.9032258064516129,GW/newhope.png,GW/boulder.png,GW/westpalmbeach.png,GW/newhope.png,GW/westpalmbeach.png,GW/boulder.png,1,,,,,,,,,,,,,,,,
null,,html-keyboard-response,1097386,,<p></p>,,,,null,,,,,,,,,,,,,,,,,,,,,,,,,,,
1653.1000000238419,,directmemory_phase,1099042,,GW/shreveport.png,,,,51,,,1,0.90625,GW/newhope.png,GW/gatlinburg.png,GW/carmel.png,GW/carmel.png,GW/gatlinburg.png,GW/newhope.png,1,,,,,,,,,,,,,,,,
null,,html-keyboard-response,1100046,,<p></p>,,,,null,,,,,,,,,,,,,,,,,,,,,,,,,,,
30683,,intro_1,1130730,,instruct,,0,,,,,,,,,,,,,,,,,,,,,,,,,,,,,
11108,,intro_2,1141840,,instruct,,1,Next,,,,,,,,,,,,,,,,,,,,,,,,,,,,
8156.200000047684,,intro_3,1149998,,instruct,,0,Previous,,,,,,,,,,,,,,,,,,,,,,,,,,,,
4342.400000095367,,intro_2,1154342,,instruct,,1,Next,,,,,,,,,,,,,,,,,,,,,,,,,,,,
1904.3999999761581,,intro_3,1156248,,instruct,,1,Next,,,,,,,,,,,,,,,,,,,,,,,,,,,,
12960.400000095367,,intro_4,1169210,,instruct,,1,Next,,,,,,,,,,,,,,,,,,,,,,,,,,,,
12256.200000047684,,intro_5,1181468,,instruct,,0,Previous,,,,,,,,,,,,,,,,,,,,,,,,,,,,
6764.5,,intro_4,1188234,,instruct,,0,Previous,,,,,,,,,,,,,,,,,,,,,,,,,,,,
3148.1999999284744,,intro_3,1191384,,instruct,,0,Previous,,,,,,,,,,,,,,,,,,,,,,,,,,,,
147258,,intro_2,1338643,,instruct,,1,Next,,,,,,,,,,,,,,,,,,,,,,,,,,,,
2190.2999999523163,,intro_3,1340835,,instruct,,1,Next,,,,,,,,,,,,,,,,,,,,,,,,,,,,
4466.399999976158,,intro_4,1345303,,instruct,,1,Next,,,,,,,,,,,,,,,,,,,,,,,,,,,,
11978,,intro_5,1357283,,instruct,,1,Next,,,,,,,,,,,,,,,,,,,,,,,,,,,,
39892.60000002384,,intro_6,1397177,,instruct,,1,Next,,,,,,,,,,,,,,,,,,,,,,,,,,,,
12443.800000071526,,intro_7,1409623,,instruct,,1,Next,,,,,,,,,,,,,,,,,,,,,,,,,,,,
18133.700000047684,,intro_8,1427758,,instruct,,1,Next,,,,,,,,,,,,,,,,,,,,,,,,,,,,
3397.8000000715256,,shortestpath_phase,1431158,,GW/hotsprings.png,,,,49,GW/huntsville.png,GW/shreveport.png,0,0,,,,GW/shreveport.png,,,,,Three Edge Diff,Two Edge Five Edge,,,,,,,,,,,,,
null,,html-keyboard-response,1432164,,<p></p>,,,,null,,,,,,,,,,,,,,,,,,,,,,,,,,,
3684.2000000476837,,shortestpath_phase,1435850,,GW/gatlinburg.png,,,,49,GW/peoria.png,GW/leesburg.png,1,0.5,,,,GW/peoria.png,,,,,Two Edge Diff,Two Edge Four Edge,,,,,,,,,,,,,
null,,html-keyboard-response,1436854,,<p></p>,,,,null,,,,,,,,,,,,,,,,,,,,,,,,,,,
null,,shortestpath_phase,1444358,,GW/leesburg.png,,,,null,GW/newhope.png,GW/hotsprings.png,0,0.3333333333333333,,,,GW/newhope.png,,,,,One Edge Diff,Three Edge Four Edge,,,,,,,,,,,,,
null,,warning_page,1447363,,warning,,,,null,,,,,,,,,,,,,,,,,,,,,,,,,,,
null,,html-keyboard-response,1448365,,<p></p>,,,,null,,,,,,,,,,,,,,,,,,,,,,,,,,,
2855.100000023842,,shortestpath_phase,1451221,,GW/peoria.png,,,,49,GW/racine.png,GW/leesburg.png,1,0.5,,,,GW/racine.png,,,,,Three Edge Diff,Three Edge Six Edge,,,,,,,,,,,,,
null,,html-keyboard-response,1452225,,<p></p>,,,,null,,,,,,,,,,,,,,,,,,,,,,,,,,,
2060.100000023842,,shortestpath_phase,1454288,,GW/leesburg.png,,,,49,GW/boulder.png,GW/peoria.png,1,0.6,,,,GW/boulder.png,,,,,Three Edge Diff,Two Edge Five Edge,,,,,,,,,,,,,
null,,html-keyboard-response,1455290,,<p></p>,,,,null,,,,,,,,,,,,,,,,,,,,,,,,,,,
3819.3000000715256,,shortestpath_phase,1459111,,GW/peoria.png,,,,50,GW/huntsville.png,GW/hanover.png,1,0.6666666666666666,,,,GW/hanover.png,,,,,Two Edge Diff,Four Edge Six Edge,,,,,,,,,,,,,
null,,html-keyboard-response,1460115,,<p></p>,,,,null,,,,,,,,,,,,,,,,,,,,,,,,,,,
1731.2000000476837,,shortestpath_phase,1461848,,GW/carmel.png,,,,49,GW/cornwall.png,GW/hanover.png,1,0.7142857142857143,,,,GW/cornwall.png,,,,,One Edge Diff,Three Edge Four Edge,,,,,,,,,,,,,
null,,html-keyboard-response,1462852,,<p></p>,,,,null,,,,,,,,,,,,,,,,,,,,,,,,,,,
2797.399999976158,,shortestpath_phase,1465652,,GW/hanover.png,,,,49,GW/racine.png,GW/peoria.png,1,0.75,,,,GW/racine.png,,,,,Two Edge Diff,Two Edge Four Edge,,,,,,,,,,,,,
null,,html-keyboard-response,1466657,,<p></p>,,,,null,,,,,,,,,,,,,,,,,,,,,,,,,,,
3134.2999999523163,,shortestpath_phase,1469794,,GW/peoria.png,,,,49,GW/carmel.png,GW/boulder.png,1,0.7777777777777778,,,,GW/carmel.png,,,,,Three Edge Diff,Three Edge Six Edge,,,,,,,,,,,,,
null,,html-keyboard-response,1470798,,<p></p>,,,,null,,,,,,,,,,,,,,,,,,,,,,,,,,,
2235.2000000476837,,shortestpath_phase,1473036,,GW/huntsville.png,,,,49,GW/shreveport.png,GW/hanover.png,0,0.7,,,,GW/hanover.png,,,,,Four Edge Diff,Two Edge Six Edge,,,,,,,,,,,,,
null,,html-keyboard-response,1474041,,<p></p>,,,,null,,,,,,,,,,,,,,,,,,,,,,,,,,,
2603.4000000953674,,shortestpath_phase,1476647,,GW/cornwall.png,,,,49,GW/westpalmbeach.png,GW/shreveport.png,1,0.7272727272727273,,,,GW/westpalmbeach.png,,,,,Two Edge Diff,Two Edge Four Edge,,,,,,,,,,,,,
null,,html-keyboard-response,1477651,,<p></p>,,,,null,,,,,,,,,,,,,,,,,,,,,,,,,,,
3198.100000023842,,shortestpath_phase,1480852,,GW/racine.png,,,,50,GW/shreveport.png,GW/huntsville.png,0,0.6666666666666666,,,,GW/shreveport.png,,,,,One Edge Diff,Three Edge Four Edge,,,,,,,,,,,,,
null,,html-keyboard-response,1481856,,<p></p>,,,,null,,,,,,,,,,,,,,,,,,,,,,,,,,,
2268,,shortestpath_phase,1484127,,GW/leesburg.png,,,,50,GW/shreveport.png,GW/cornwall.png,1,0.6923076923076923,,,,GW/cornwall.png,,,,,Four Edge Diff,Two Edge Six Edge,,,,,,,,,,,,,
null,,html-keyboard-response,1485131,,<p></p>,,,,null,,,,,,,,,,,,,,,,,,,,,,,,,,,
2701,,shortestpath_phase,1487834,,GW/peoria.png,,,,50,GW/newhope.png,GW/racine.png,1,0.7142857142857143,,,,GW/racine.png,,,,,One Edge Diff,Two Edge Three Edge,,,,,,,,,,,,,
null,,html-keyboard-response,1488839,,<p></p>,,,,null,,,,,,,,,,,,,,,,,,,,,,,,,,,
2315.7000000476837,,shortestpath_phase,1491157,,GW/hanover.png,,,,49,GW/hotsprings.png,GW/peoria.png,1,0.7333333333333333,,,,GW/hotsprings.png,,,,,One Edge Diff,Three Edge Four Edge,,,,,,,,,,,,,
null,,html-keyboard-response,1492161,,<p></p>,,,,null,,,,,,,,,,,,,,,,,,,,,,,,,,,
2043.7000000476837,,shortestpath_phase,1494207,,GW/carmel.png,,,,49,GW/huntsville.png,GW/peoria.png,0,0.6875,,,,GW/peoria.png,,,,,Three Edge Diff,Three Edge Six Edge,,,,,,,,,,,,,
null,,html-keyboard-response,1495211,,<p></p>,,,,null,,,,,,,,,,,,,,,,,,,,,,,,,,,
3829.8000000715256,,shortestpath_phase,1499043,,GW/huntsville.png,,,,49,GW/racine.png,GW/peoria.png,1,0.7058823529411765,,,,GW/racine.png,,,,,Two Edge Diff,Four Edge Six Edge,,,,,,,,,,,,,
null,,html-keyboard-response,1500046,,<p></p>,,,,null,,,,,,,,,,,,,,,,,,,,,,,,,,,
3821.7000000476837,,shortestpath_phase,1503870,,GW/leesburg.png,,,,50,GW/gatlinburg.png,GW/cornwall.png,1,0.7222222222222222,,,,GW/cornwall.png,,,,,Two Edge Diff,Two Edge Four Edge,,,,,,,,,,,,,
null,,html-keyboard-response,1504874,,<p></p>,,,,null,,,,,,,,,,,,,,,,,,,,,,,,,,,
2765.7000000476837,,shortestpath_phase,1507642,,GW/shreveport.png,,,,49,GW/huntsville.png,GW/gatlinburg.png,0,0.6842105263157895,,,,GW/gatlinburg.png,,,,,Four Edge Diff,Two Edge Six Edge,,,,,,,,,,,,,
null,,html-keyboard-response,1508645,,<p></p>,,,,null,,,,,,,,,,,,,,,,,,,,,,,,,,,
2493,,shortestpath_phase,1511141,,GW/hotsprings.png,,,,49,GW/newhope.png,GW/westpalmbeach.png,1,0.7,,,,GW/newhope.png,,,,,One Edge Diff,Two Edge Three Edge,,,,,,,,,,,,,
null,,html-keyboard-response,1512148,,<p></p>,,,,null,,,,,,,,,,,,,,,,,,,,,,,,,,,
2737.100000023842,,shortestpath_phase,1514888,,GW/huntsville.png,,,,50,GW/carmel.png,GW/westpalmbeach.png,1,0.7142857142857143,,,,GW/westpalmbeach.png,,,,,Three Edge Diff,Three Edge Six Edge,,,,,,,,,,,,,
null,,html-keyboard-response,1515892,,<p></p>,,,,null,,,,,,,,,,,,,,,,,,,,,,,,,,,
2508.100000023842,,shortestpath_phase,1518403,,GW/hotsprings.png,,,,50,GW/huntsville.png,GW/leesburg.png,1,0.7272727272727273,,,,GW/leesburg.png,,,,,One Edge Diff,Four Edge Five Edge,,,,,,,,,,,,,
null,,html-keyboard-response,1519407,,<p></p>,,,,null,,,,,,,,,,,,,,,,,,,,,,,,,,,
3212.899999976158,,shortestpath_phase,1522622,,GW/hanover.png,,,,50,GW/racine.png,GW/shreveport.png,0,0.6956521739130435,,,,GW/racine.png,,,,,Three Edge Diff,Three Edge Six Edge,,,,,,,,,,,,,
null,,html-keyboard-response,1523626,,<p></p>,,,,null,,,,,,,,,,,,,,,,,,,,,,,,,,,
2405.3000000715256,,shortestpath_phase,1526034,,GW/westpalmbeach.png,,,,50,GW/huntsville.png,GW/shreveport.png,0,0.6666666666666666,,,,GW/huntsville.png,,,,,Two Edge Diff,Two Edge Four Edge,,,,,,,,,,,,,
null,,html-keyboard-response,1527039,,<p></p>,,,,null,,,,,,,,,,,,,,,,,,,,,,,,,,,
2410.3000000715256,,shortestpath_phase,1529452,,GW/leesburg.png,,,,49,GW/hotsprings.png,GW/shreveport.png,1,0.68,,,,GW/hotsprings.png,,,,,Two Edge Diff,Four Edge Six Edge,,,,,,,,,,,,,
null,,html-keyboard-response,1530458,,<p></p>,,,,null,,,,,,,,,,,,,,,,,,,,,,,,,,,
3242.2999999523163,,shortestpath_phase,1533704,,GW/racine.png,,,,49,GW/carmel.png,GW/huntsville.png,1,0.6923076923076923,,,,GW/carmel.png,,,,,Two Edge Diff,Two Edge Four Edge,,,,,,,,,,,,,
null,,html-keyboard-response,1534708,,<p></p>,,,,null,,,,,,,,,,,,,,,,,,,,,,,,,,,
3781.5,,shortestpath_phase,1538492,,GW/shreveport.png,,,,49,GW/cornwall.png,GW/newhope.png,0,0.6666666666666666,,,,GW/newhope.png,,,,,One Edge Diff,Three Edge Four Edge,,,,,,,,,,,,,
null,,html-keyboard-response,1539497,,<p></p>,,,,null,,,,,,,,,,,,,,,,,,,,,,,,,,,
2820.2000000476837,,shortestpath_phase,1542319,,GW/leesburg.png,,,,49,GW/racine.png,GW/peoria.png,1,0.6785714285714286,,,,GW/racine.png,,,,,Two Edge Diff,Three Edge Five Edge,,,,,,,,,,,,,
null,,html-keyboard-response,1543324,,<p></p>,,,,null,,,,,,,,,,,,,,,,,,,,,,,,,,,
3813.600000023842,,shortestpath_phase,1547140,,GW/huntsville.png,,,,50,GW/gatlinburg.png,GW/peoria.png,0,0.6551724137931034,,,,GW/gatlinburg.png,,,,,Two Edge Diff,Four Edge Six Edge,,,,,,,,,,,,,
null,,html-keyboard-response,1548144,,<p></p>,,,,null,,,,,,,,,,,,,,,,,,,,,,,,,,,
2603.2999999523163,,shortestpath_phase,1550751,,GW/leesburg.png,,,,50,GW/huntsville.png,GW/boulder.png,1,0.6666666666666666,,,,GW/boulder.png,,,,,One Edge Diff,Two Edge Three Edge,,,,,,,,,,,,,
null,,html-keyboard-response,1551755,,<p></p>,,,,null,,,,,,,,,,,,,,,,,,,,,,,,,,,
2115.3000000715256,,shortestpath_phase,1553873,,GW/shreveport.png,,,,49,GW/hotsprings.png,GW/leesburg.png,1,0.6774193548387096,,,,GW/hotsprings.png,,,,,Four Edge Diff,Two Edge Six Edge,,,,,,,,,,,,,
null,,html-keyboard-response,1554876,,<p></p>,,,,null,,,,,,,,,,,,,,,,,,,,,,,,,,,
4151.200000047684,,shortestpath_phase,1559029,,GW/gatlinburg.png,,,,49,GW/hanover.png,GW/westpalmbeach.png,0,0.65625,,,,GW/westpalmbeach.png,,,,,One Edge Diff,Two Edge Three Edge,,,,,,,,,,,,,
null,,html-keyboard-response,1560033,,<p></p>,,,,null,,,,,,,,,,,,,,,,,,,,,,,,,,,
2820.7999999523163,,shortestpath_phase,1562856,,GW/shreveport.png,,,,49,GW/boulder.png,GW/hotsprings.png,0,0.6363636363636364,,,,GW/hotsprings.png,,,,,Three Edge Diff,Three Edge Six Edge,,,,,,,,,,,,,
null,,html-keyboard-response,1563861,,<p></p>,,,,null,,,,,,,,,,,,,,,,,,,,,,,,,,,
2836.3000000715256,,shortestpath_phase,1566700,,GW/carmel.png,,,,50,GW/hanover.png,GW/leesburg.png,0,0.6176470588235294,,,,GW/hanover.png,,,,,One Edge Diff,Four Edge Five Edge,,,,,,,,,,,,,
null,,html-keyboard-response,1567707,,<p></p>,,,,null,,,,,,,,,,,,,,,,,,,,,,,,,,,
2777.100000023842,,shortestpath_phase,1570487,,GW/shreveport.png,,,,49,GW/hanover.png,GW/gatlinburg.png,0,0.6,,,,GW/gatlinburg.png,,,,,Three Edge Diff,Two Edge Five Edge,,,,,,,,,,,,,
null,,html-keyboard-response,1571491,,<p></p>,,,,null,,,,,,,,,,,,,,,,,,,,,,,,,,,
3166,,shortestpath_phase,1574660,,GW/hotsprings.png,,,,49,GW/cornwall.png,GW/huntsville.png,1,0.6111111111111112,,,,GW/cornwall.png,,,,,Three Edge Diff,Three Edge Six Edge,,,,,,,,,,,,,
null,,html-keyboard-response,1575664,,<p></p>,,,,null,,,,,,,,,,,,,,,,,,,,,,,,,,,
3797.0999999046326,,shortestpath_phase,1579464,,GW/peoria.png,,,,49,GW/huntsville.png,GW/westpalmbeach.png,0,0.5945945945945946,,,,GW/westpalmbeach.png,,,,,Two Edge Diff,Four Edge Six Edge,,,,,,,,,,,,,
null,,html-keyboard-response,1580469,,<p></p>,,,,null,,,,,,,,,,,,,,,,,,,,,,,,,,,
3441.7999999523163,,shortestpath_phase,1583916,,GW/boulder.png,,,,50,GW/peoria.png,GW/cornwall.png,1,0.6052631578947368,,,,GW/cornwall.png,,,,,Three Edge Diff,Two Edge Five Edge,,,,,,,,,,,,,
null,,html-keyboard-response,1584921,,<p></p>,,,,null,,,,,,,,,,,,,,,,,,,,,,,,,,,
4006.2999999523163,,shortestpath_phase,1588929,,GW/huntsville.png,,,,49,GW/leesburg.png,GW/hotsprings.png,1,0.6153846153846154,,,,GW/leesburg.png,,,,,Two Edge Diff,Three Edge Five Edge,,,,,,,,,,,,,
null,,html-keyboard-response,1589933,,<p></p>,,,,null,,,,,,,,,,,,,,,,,,,,,,,,,,,
4614.399999976158,,shortestpath_phase,1594550,,GW/boulder.png,,,,49,GW/shreveport.png,GW/cornwall.png,0,0.6,,,,GW/cornwall.png,,,,,Three Edge Diff,Two Edge Five Edge,,,,,,,,,,,,,
null,,html-keyboard-response,1595554,,<p></p>,,,,null,,,,,,,,,,,,,,,,,,,,,,,,,,,
3740.899999976158,,shortestpath_phase,1599298,,GW/huntsville.png,,,,49,GW/peoria.png,GW/westpalmbeach.png,0,0.5853658536585366,,,,GW/westpalmbeach.png,,,,,Four Edge Diff,Two Edge Six Edge,,,,,,,,,,,,,
null,,html-keyboard-response,1600303,,<p></p>,,,,null,,,,,,,,,,,,,,,,,,,,,,,,,,,
3677.100000023842,,shortestpath_phase,1603983,,GW/shreveport.png,,,,50,GW/huntsville.png,GW/cornwall.png,1,0.5952380952380952,,,,GW/cornwall.png,,,,,Two Edge Diff,Four Edge Six Edge,,,,,,,,,,,,,
null,,html-keyboard-response,1604988,,<p></p>,,,,null,,,,,,,,,,,,,,,,,,,,,,,,,,,
2489.1999999284744,,shortestpath_phase,1607480,,GW/leesburg.png,,,,49,GW/boulder.png,GW/peoria.png,1,0.6046511627906976,,,,GW/boulder.png,,,,,Three Edge Diff,Three Edge Six Edge,,,,,,,,,,,,,
null,,html-keyboard-response,1608484,,<p></p>,,,,null,,,,,,,,,,,,,,,,,,,,,,,,,,,
4903.299999952316,,shortestpath_phase,1613390,,GW/shreveport.png,,,,49,GW/leesburg.png,GW/westpalmbeach.png,0,0.5909090909090909,,,,GW/westpalmbeach.png,,,,,Two Edge Diff,Four Edge Six Edge,,,,,,,,,,,,,
null,,html-keyboard-response,1614394,,<p></p>,,,,null,,,,,,,,,,,,,,,,,,,,,,,,,,,
3966.2000000476837,,shortestpath_phase,1618363,,GW/cornwall.png,,,,49,GW/shreveport.png,GW/leesburg.png,0,0.5777777777777777,,,,GW/leesburg.png,,,,,Two Edge Diff,Two Edge Four Edge,,,,,,,,,,,,,
null,,html-keyboard-response,1619367,,<p></p>,,,,null,,,,,,,,,,,,,,,,,,,,,,,,,,,
3637.899999976158,,shortestpath_phase,1623007,,GW/shreveport.png,,,,50,GW/leesburg.png,GW/hanover.png,1,0.5869565217391305,,,,GW/hanover.png,,,,,One Edge Diff,Five Edge Six Edge,,,,,,,,,,,,,
null,,html-keyboard-response,1624011,,<p></p>,,,,null,,,,,,,,,,,,,,,,,,,,,,,,,,,
2893.5,,shortestpath_phase,1626907,,GW/leesburg.png,,,,50,GW/westpalmbeach.png,GW/carmel.png,0,0.574468085106383,,,,GW/westpalmbeach.png,,,,,Two Edge Diff,Three Edge Five Edge,,,,,,,,,,,,,
null,,html-keyboard-response,1627911,,<p></p>,,,,null,,,,,,,,,,,,,,,,,,,,,,,,,,,
2843.2999999523163,,shortestpath_phase,1630757,,GW/shreveport.png,,,,49,GW/peoria.png,GW/boulder.png,1,0.5833333333333334,,,,GW/peoria.png,,,,,Two Edge Diff,Three Edge Five Edge,,,,,,,,,,,,,
null,,html-keyboard-response,1631762,,<p></p>,,,,null,,,,,,,,,,,,,,,,,,,,,,,,,,,
3510.2999999523163,,shortestpath_phase,1635275,,GW/huntsville.png,,,,50,GW/peoria.png,GW/hanover.png,1,0.5918367346938775,,,,GW/hanover.png,,,,,Four Edge Diff,Two Edge Six Edge,,,,,,,,,,,,,
null,,html-keyboard-response,1636279,,<p></p>,,,,null,,,,,,,,,,,,,,,,,,,,,,,,,,,
4398.299999952316,,shortestpath_phase,1640680,,GW/peoria.png,,,,49,GW/huntsville.png,GW/carmel.png,0,0.58,,,,GW/carmel.png,,,,,Four Edge Diff,Two Edge Six Edge,,,,,,,,,,,,,
null,,html-keyboard-response,1641684,,<p></p>,,,,null,,,,,,,,,,,,,,,,,,,,,,,,,,,
3028.5,,shortestpath_phase,1644715,,GW/huntsville.png,,,,49,GW/leesburg.png,GW/gatlinburg.png,1,0.5882352941176471,,,,GW/leesburg.png,,,,,One Edge Diff,Three Edge Four Edge,,,,,,,,,,,,,
null,,html-keyboard-response,1645719,,<p></p>,,,,null,,,,,,,,,,,,,,,,,,,,,,,,,,,
2550.100000023842,,shortestpath_phase,1648272,,GW/hanover.png,,,,49,GW/westpalmbeach.png,GW/shreveport.png,1,0.5961538461538461,,,,GW/westpalmbeach.png,,,,,Three Edge Diff,Two Edge Five Edge,,,,,,,,,,,,,
null,,html-keyboard-response,1649277,,<p></p>,,,,null,,,,,,,,,,,,,,,,,,,,,,,,,,,
2091.899999976158,,shortestpath_phase,1651371,,GW/racine.png,,,,50,GW/shreveport.png,GW/carmel.png,1,0.6037735849056604,,,,GW/carmel.png,,,,,One Edge Diff,Two Edge Three Edge,,,,,,,,,,,,,
null,,html-keyboard-response,1652376,,<p></p>,,,,null,,,,,,,,,,,,,,,,,,,,,,,,,,,
3165.100000023842,,shortestpath_phase,1655544,,GW/leesburg.png,,,,50,GW/shreveport.png,GW/gatlinburg.png,1,0.6111111111111112,,,,GW/gatlinburg.png,,,,,Two Edge Diff,Four Edge Six Edge,,,,,,,,,,,,,
null,,html-keyboard-response,1656548,,<p></p>,,,,null,,,,,,,,,,,,,,,,,,,,,,,,,,,
1571.5,,shortestpath_phase,1658122,,GW/hanover.png,,,,50,GW/peoria.png,GW/shreveport.png,0,0.6,,,,GW/peoria.png,,,,,One Edge Diff,Four Edge Five Edge,,,,,,,,,,,,,
null,,html-keyboard-response,1659126,,<p></p>,,,,null,,,,,,,,,,,,,,,,,,,,,,,,,,,
3206,,shortestpath_phase,1662334,,GW/boulder.png,,,,49,GW/shreveport.png,GW/carmel.png,0,0.5892857142857143,,,,GW/carmel.png,,,,,One Edge Diff,Four Edge Five Edge,,,,,,,,,,,,,
null,,html-keyboard-response,1663339,,<p></p>,,,,null,,,,,,,,,,,,,,,,,,,,,,,,,,,
2915.899999976158,,shortestpath_phase,1666258,,GW/peoria.png,,,,49,GW/gatlinburg.png,GW/huntsville.png,1,0.5964912280701754,,,,GW/gatlinburg.png,,,,,Four Edge Diff,Two Edge Six Edge,,,,,,,,,,,,,
null,,html-keyboard-response,1667267,,<p></p>,,,,null,,,,,,,,,,,,,,,,,,,,,,,,,,,
4659.600000023842,,shortestpath_phase,1671930,,GW/shreveport.png,,,,50,GW/hotsprings.png,GW/huntsville.png,0,0.5862068965517241,,,,GW/hotsprings.png,,,,,Four Edge Diff,Two Edge Six Edge,,,,,,,,,,,,,
null,,html-keyboard-response,1672935,,<p></p>,,,,null,,,,,,,,,,,,,,,,,,,,,,,,,,,
6779.100000023842,,shortestpath_phase,1679716,,GW/peoria.png,,,,50,GW/huntsville.png,GW/racine.png,1,0.5932203389830508,,,,GW/racine.png,,,,,Four Edge Diff,Two Edge Six Edge,,,,,,,,,,,,,
null,,html-keyboard-response,1680721,,<p></p>,,,,null,,,,,,,,,,,,,,,,,,,,,,,,,,,
5521.5,,shortestpath_phase,1686245,,GW/shreveport.png,,,,50,GW/boulder.png,GW/hotsprings.png,1,0.6,,,,GW/hotsprings.png,,,,,Three Edge Diff,Two Edge Five Edge,,,,,,,,,,,,,
