rt,responses,trial_type,time_elapsed,sequence,stimulus,graphorder,button_pressed,response,key_press,stimulus_left,stimulus_right,accuracy,cumulative_accuracy,stimulus_down_left,stimulus_down_mid,stimulus_down_right,stimulus_correct,stimulus_short,stimulus_far,weighted_accuracy,missedtrial,condition,specific_pairs,imgL_ID,imgR_ID,linedress,linedressed,detour_trial,linedressed_detor,problems,smooth,distraction,strategies,easier,similar,comments
12249.39999999106,{worker_id:661045b87d3e3a9bda51b367},id_enter,12250,interleaved,replication,GW/peoria.png; GW/newhope.png; GW/cornwall.png; GW/huntsville.png; GW/boulder.png; GW/westpalmbeach.png; GW/carmel.png; GW/hotsprings.png; GW/hanover.png; GW/gatlinburg.png; GW/racine.png; GW/leesburg.png; GW/shreveport.png,,,,,,,,,,,,,,,,,,,,,,,,,,,,,,
13164,,fullscreen,25417,,fullscreen,,0,,,,,,,,,,,,,,,,,,,,,,,,,,,,,
36573.5,,intro_1,61995,,instruct,,0,,,,,,,,,,,,,,,,,,,,,,,,,,,,,
16551.79999999702,,intro_2,78550,,instruct,,1,Next,,,,,,,,,,,,,,,,,,,,,,,,,,,,
12177.90000000596,,intro_3,90731,,instruct,,1,Next,,,,,,,,,,,,,,,,,,,,,,,,,,,,
null,,learn_prac_1,93735,,lean_prac_1,,,,null,,,,,,,,,,,,,,,,,,,,,,,,,,,
null,,html-keyboard-response,94739,,<p></p>,,,,null,,,,,,,,,,,,,,,,,,,,,,,,,,,
15403.09999999404,,intro_1,110145,,instruct,,0,,,,,,,,,,,,,,,,,,,,,,,,,,,,,
9013.39999999106,,intro_2,119161,,instruct,,1,Next,,,,,,,,,,,,,,,,,,,,,,,,,,,,
null,,learn_prac_2,122165,,lean_prac_2,,,,null,,,,,,,,,,,,,,,,,,,,,,,,,,,
null,,html-keyboard-response,123169,,<p></p>,,,,null,,,,,,,,,,,,,,,,,,,,,,,,,,,
18061.29999999702,,intro_1,141233,,instruct,,0,,,,,,,,,,,,,,,,,,,,,,,,,,,,,
5856.399999991059,,intro_2,147092,,instruct,,1,Next,,,,,,,,,,,,,,,,,,,,,,,,,,,,
44793.5,,intro_3,191889,,instruct,,1,Next,,,,,,,,,,,,,,,,,,,,,,,,,,,,
null,,prac_atten_color_black,192651,,black_plus_sign,,,,null,,,,,,,,,,,,,,,,,,,,,,,,,,,
null,,prac_atten_color,193296,,prac_stop_color,,,,null,,,,,,,,,,,,,,,,,,,,,,,,,,,
652.2000000029802,,prac_atten_color_black,195301,,black_plus_sign,,,,49,,,,,,,,,,,,,,,,,,,,,,,,,,,
null,,prac_atten_color_black,196064,,black_plus_sign,,,,null,,,,,,,,,,,,,,,,,,,,,,,,,,,
null,,prac_atten_color,196778,,prac_stop_color,,,,null,,,,,,,,,,,,,,,,,,,,,,,,,,,
155.5,,prac_atten_color_black,198782,,black_plus_sign,,,,50,,,,,,,,,,,,,,,,,,,,,,,,,,,
null,,prac_atten_color_black,199475,,black_plus_sign,,,,null,,,,,,,,,,,,,,,,,,,,,,,,,,,
656.2999999970198,,prac_atten_color,200363,,prac_stop_color,,,,50,,,,,,,,,,,,,,,,,,,,,,,,,,,
null,,prac_atten_color_black,202367,,black_plus_sign,,,,null,,,,,,,,,,,,,,,,,,,,,,,,,,,
null,,prac_atten_color_black,202886,,black_plus_sign,,,,null,,,,,,,,,,,,,,,,,,,,,,,,,,,
null,,prac_atten_color,203303,,prac_stop_color,,,,null,,,,,,,,,,,,,,,,,,,,,,,,,,,
448.40000000596046,,prac_atten_color_black,205307,,black_plus_sign,,,,49,,,,,,,,,,,,,,,,,,,,,,,,,,,
null,,prac_atten_color_black,206298,,black_plus_sign,,,,null,,,,,,,,,,,,,,,,,,,,,,,,,,,
null,,prac_atten_color,206715,,prac_stop_color,,,,null,,,,,,,,,,,,,,,,,,,,,,,,,,,
158.20000000298023,,prac_atten_color_black,208718,,black_plus_sign,,,,50,,,,,,,,,,,,,,,,,,,,,,,,,,,
null,,prac_atten_color_black,209708,,black_plus_sign,,,,null,,,,,,,,,,,,,,,,,,,,,,,,,,,
777.6000000089407,,prac_atten_color,210631,,prac_stop_color,,,,50,,,,,,,,,,,,,,,,,,,,,,,,,,,
null,,prac_atten_color_black,212635,,black_plus_sign,,,,null,,,,,,,,,,,,,,,,,,,,,,,,,,,
null,,prac_atten_color_black,213120,,black_plus_sign,,,,null,,,,,,,,,,,,,,,,,,,,,,,,,,,
null,,prac_atten_color,213650,,prac_stop_color,,,,null,,,,,,,,,,,,,,,,,,,,,,,,,,,
460.29999999701977,,prac_atten_color_black,215653,,black_plus_sign,,,,49,,,,,,,,,,,,,,,,,,,,,,,,,,,
null,,prac_atten_color_black,216531,,black_plus_sign,,,,null,,,,,,,,,,,,,,,,,,,,,,,,,,,
null,,prac_atten_color,217055,,prac_stop_color,,,,null,,,,,,,,,,,,,,,,,,,,,,,,,,,
1.7999999970197678,,prac_atten_color_black,219059,,black_plus_sign,,,,50,,,,,,,,,,,,,,,,,,,,,,,,,,,
null,,prac_atten_color_black,219943,,black_plus_sign,,,,null,,,,,,,,,,,,,,,,,,,,,,,,,,,
null,,prac_atten_color,220684,,prac_stop_color,,,,null,,,,,,,,,,,,,,,,,,,,,,,,,,,
3.5999999940395355,,prac_atten_color_black,222688,,black_plus_sign,,,,49,,,,,,,,,,,,,,,,,,,,,,,,,,,
null,,prac_atten_color_black,223355,,black_plus_sign,,,,null,,,,,,,,,,,,,,,,,,,,,,,,,,,
null,,prac_atten_color,223871,,prac_stop_color,,,,null,,,,,,,,,,,,,,,,,,,,,,,,,,,
36.400000005960464,,prac_atten_color_black,225875,,black_plus_sign,,,,49,,,,,,,,,,,,,,,,,,,,,,,,,,,
8900.79999999702,,attentioncheck_feedback,234779,,cross_check_feedback,,0,,,,,,,,,,,,,,,,,,,,,,,,,,,,,
22667.30000001192,,last_instruct,257448,,instruct,,,,32,,,,,,,,,,,,,,,,,,,,,,,,,,,
null,,learn_phase(without_color),260451,,black_plus_sign,,,,null,GW/newhope.png,GW/cornwall.png,,,,,,,,,,,,,,,,,,,,,,,,,
null,,black_cross(without_color),261426,,yellow,,,,null,GW/newhope.png,GW/cornwall.png,,,,,,,,,,,,,,,,,,,,,,,,,
null,,rt_plussign_withcolor,261929,,yellow,,,,null,GW/newhope.png,GW/cornwall.png,,,,,,,,,,,,,,,,,,,,,,,,,
1416.1000000089407,,rt_thecrossant_black,262963,,black_plus_sign,,,,50,,,1,1,,,,,,,,,,,,,,,,,,,,,,,
null,,color_black,263067,,black_plus_sign,,,,null,,,,,,,,,,,,,,,,,,,,,,,,,,,
null,,learn_phase(without_color),266072,,black_plus_sign,,,,null,GW/leesburg.png,GW/huntsville.png,,,,,,,,,,,,,,,,,,,,,,,,,
null,,black_cross(without_color),266813,,blue,,,,null,GW/leesburg.png,GW/huntsville.png,,,,,,,,,,,,,,,,,,,,,,,,,
null,,rt_plussign_withcolor,267316,,blue,,,,null,GW/leesburg.png,GW/huntsville.png,,,,,,,,,,,,,,,,,,,,,,,,,
1419,,rt_thecrossant_black,268583,,black_plus_sign,,,,49,,,1,1,,,,,,,,,,,,,,,,,,,,,,,
null,,color_black,268686,,black_plus_sign,,,,null,,,,,,,,,,,,,,,,,,,,,,,,,,,
null,,learn_phase(without_color),271690,,black_plus_sign,,,,null,GW/hanover.png,GW/westpalmbeach.png,,,,,,,,,,,,,,,,,,,,,,,,,
null,,black_cross(without_color),272127,,blue,,,,null,GW/hanover.png,GW/westpalmbeach.png,,,,,,,,,,,,,,,,,,,,,,,,,
null,,rt_plussign_withcolor,272630,,blue,,,,null,GW/hanover.png,GW/westpalmbeach.png,,,,,,,,,,,,,,,,,,,,,,,,,
1779.6000000089407,,rt_thecrossant_black,274201,,black_plus_sign,,,,49,,,1,1,,,,,,,,,,,,,,,,,,,,,,,
null,,color_black,274305,,black_plus_sign,,,,null,,,,,,,,,,,,,,,,,,,,,,,,,,,
null,,learn_phase(without_color),277308,,black_plus_sign,,,,null,GW/cornwall.png,GW/westpalmbeach.png,,,,,,,,,,,,,,,,,,,,,,,,,
null,,black_cross(without_color),278369,,blue,,,,null,GW/cornwall.png,GW/westpalmbeach.png,,,,,,,,,,,,,,,,,,,,,,,,,
null,,rt_plussign_withcolor,278871,,blue,,,,null,GW/cornwall.png,GW/westpalmbeach.png,,,,,,,,,,,,,,,,,,,,,,,,,
783.0999999940395,,rt_thecrossant_black,279819,,black_plus_sign,,,,49,,,1,1,,,,,,,,,,,,,,,,,,,,,,,
null,,color_black,279923,,black_plus_sign,,,,null,,,,,,,,,,,,,,,,,,,,,,,,,,,
null,,learn_phase(without_color),282927,,black_plus_sign,,,,null,GW/leesburg.png,GW/huntsville.png,,,,,,,,,,,,,,,,,,,,,,,,,
null,,black_cross(without_color),283883,,blue,,,,null,GW/leesburg.png,GW/huntsville.png,,,,,,,,,,,,,,,,,,,,,,,,,
null,,rt_plussign_withcolor,284386,,blue,,,,null,GW/leesburg.png,GW/huntsville.png,,,,,,,,,,,,,,,,,,,,,,,,,
1822.300000011921,,rt_thecrossant_black,285437,,black_plus_sign,,,,49,,,1,1,,,,,,,,,,,,,,,,,,,,,,,
null,,color_black,285541,,black_plus_sign,,,,null,,,,,,,,,,,,,,,,,,,,,,,,,,,
null,,learn_phase(without_color),288545,,black_plus_sign,,,,null,GW/peoria.png,GW/newhope.png,,,,,,,,,,,,,,,,,,,,,,,,,
null,,black_cross(without_color),289598,,blue,,,,null,GW/peoria.png,GW/newhope.png,,,,,,,,,,,,,,,,,,,,,,,,,
null,,rt_plussign_withcolor,290101,,blue,,,,null,GW/peoria.png,GW/newhope.png,,,,,,,,,,,,,,,,,,,,,,,,,
1474.5,,rt_thecrossant_black,291055,,black_plus_sign,,,,49,,,1,1,,,,,,,,,,,,,,,,,,,,,,,
null,,color_black,291158,,black_plus_sign,,,,null,,,,,,,,,,,,,,,,,,,,,,,,,,,
null,,learn_phase(without_color),294162,,black_plus_sign,,,,null,GW/carmel.png,GW/westpalmbeach.png,,,,,,,,,,,,,,,,,,,,,,,,,
null,,black_cross(without_color),294634,,blue,,,,null,GW/carmel.png,GW/westpalmbeach.png,,,,,,,,,,,,,,,,,,,,,,,,,
null,,rt_plussign_withcolor,295136,,blue,,,,null,GW/carmel.png,GW/westpalmbeach.png,,,,,,,,,,,,,,,,,,,,,,,,,
1903.5,,rt_thecrossant_black,296672,,black_plus_sign,,,,49,,,1,1,,,,,,,,,,,,,,,,,,,,,,,
null,,color_black,296776,,black_plus_sign,,,,null,,,,,,,,,,,,,,,,,,,,,,,,,,,
null,,learn_phase(without_color),299780,,black_plus_sign,,,,null,GW/huntsville.png,GW/newhope.png,,,,,,,,,,,,,,,,,,,,,,,,,
null,,black_cross(without_color),300494,,blue,,,,null,GW/huntsville.png,GW/newhope.png,,,,,,,,,,,,,,,,,,,,,,,,,
null,,rt_plussign_withcolor,300998,,blue,,,,null,GW/huntsville.png,GW/newhope.png,,,,,,,,,,,,,,,,,,,,,,,,,
988.0999999940395,,rt_thecrossant_black,302292,,black_plus_sign,,,,49,,,1,1,,,,,,,,,,,,,,,,,,,,,,,
null,,color_black,302396,,black_plus_sign,,,,null,,,,,,,,,,,,,,,,,,,,,,,,,,,
null,,learn_phase(without_color),305400,,black_plus_sign,,,,null,GW/westpalmbeach.png,GW/cornwall.png,,,,,,,,,,,,,,,,,,,,,,,,,
null,,black_cross(without_color),306071,,blue,,,,null,GW/westpalmbeach.png,GW/cornwall.png,,,,,,,,,,,,,,,,,,,,,,,,,
null,,rt_plussign_withcolor,306573,,blue,,,,null,GW/westpalmbeach.png,GW/cornwall.png,,,,,,,,,,,,,,,,,,,,,,,,,
1220.5999999940395,,rt_thecrossant_black,307911,,black_plus_sign,,,,49,,,1,1,,,,,,,,,,,,,,,,,,,,,,,
null,,color_black,308015,,black_plus_sign,,,,null,,,,,,,,,,,,,,,,,,,,,,,,,,,
null,,learn_phase(without_color),311019,,black_plus_sign,,,,null,GW/gatlinburg.png,GW/hotsprings.png,,,,,,,,,,,,,,,,,,,,,,,,,
null,,black_cross(without_color),311981,,yellow,,,,null,GW/gatlinburg.png,GW/hotsprings.png,,,,,,,,,,,,,,,,,,,,,,,,,
null,,rt_plussign_withcolor,312485,,yellow,,,,null,GW/gatlinburg.png,GW/hotsprings.png,,,,,,,,,,,,,,,,,,,,,,,,,
1108.1000000089407,,rt_thecrossant_black,313530,,black_plus_sign,,,,50,,,1,1,,,,,,,,,,,,,,,,,,,,,,,
null,,color_black,313634,,black_plus_sign,,,,null,,,,,,,,,,,,,,,,,,,,,,,,,,,
null,,learn_phase(without_color),316639,,black_plus_sign,,,,null,GW/huntsville.png,GW/newhope.png,,,,,,,,,,,,,,,,,,,,,,,,,
null,,black_cross(without_color),317529,,yellow,,,,null,GW/huntsville.png,GW/newhope.png,,,,,,,,,,,,,,,,,,,,,,,,,
null,,rt_plussign_withcolor,318032,,yellow,,,,null,GW/huntsville.png,GW/newhope.png,,,,,,,,,,,,,,,,,,,,,,,,,
1784,,rt_thecrossant_black,319150,,black_plus_sign,,,,50,,,1,1,,,,,,,,,,,,,,,,,,,,,,,
null,,color_black,319254,,black_plus_sign,,,,null,,,,,,,,,,,,,,,,,,,,,,,,,,,
null,,learn_phase(without_color),322258,,black_plus_sign,,,,null,GW/cornwall.png,GW/westpalmbeach.png,,,,,,,,,,,,,,,,,,,,,,,,,
null,,black_cross(without_color),322702,,yellow,,,,null,GW/cornwall.png,GW/westpalmbeach.png,,,,,,,,,,,,,,,,,,,,,,,,,
null,,rt_plussign_withcolor,323205,,yellow,,,,null,GW/cornwall.png,GW/westpalmbeach.png,,,,,,,,,,,,,,,,,,,,,,,,,
null,,rt_thecrossant_black,324769,,black_plus_sign,,,,null,,,,1,,,,,,,,,,,,,,,,,,,,,,,
null,,color_black,324873,,black_plus_sign,,,,null,,,,,,,,,,,,,,,,,,,,,,,,,,,
null,,learn_phase(without_color),327877,,black_plus_sign,,,,null,GW/cornwall.png,GW/racine.png,,,,,,,,,,,,,,,,,,,,,,,,,
null,,black_cross(without_color),328717,,blue,,,,null,GW/cornwall.png,GW/racine.png,,,,,,,,,,,,,,,,,,,,,,,,,
null,,rt_plussign_withcolor,329220,,blue,,,,null,GW/cornwall.png,GW/racine.png,,,,,,,,,,,,,,,,,,,,,,,,,
null,,rt_thecrossant_black,330389,,black_plus_sign,,,,null,,,,1,,,,,,,,,,,,,,,,,,,,,,,
null,,warning_page,333392,,warning,,,,null,,,,,,,,,,,,,,,,,,,,,,,,,,,
null,,color_black,333496,,black_plus_sign,,,,null,,,,,,,,,,,,,,,,,,,,,,,,,,,
null,,learn_phase(without_color),336500,,black_plus_sign,,,,null,GW/hotsprings.png,GW/hanover.png,,,,,,,,,,,,,,,,,,,,,,,,,
null,,black_cross(without_color),337016,,yellow,,,,null,GW/hotsprings.png,GW/hanover.png,,,,,,,,,,,,,,,,,,,,,,,,,
null,,rt_plussign_withcolor,337518,,yellow,,,,null,GW/hotsprings.png,GW/hanover.png,,,,,,,,,,,,,,,,,,,,,,,,,
1247.800000011921,,rt_thecrossant_black,339009,,black_plus_sign,,,,50,,,1,1,,,,,,,,,,,,,,,,,,,,,,,
null,,color_black,339112,,black_plus_sign,,,,null,,,,,,,,,,,,,,,,,,,,,,,,,,,
null,,learn_phase(without_color),342116,,black_plus_sign,,,,null,GW/hanover.png,GW/hotsprings.png,,,,,,,,,,,,,,,,,,,,,,,,,
null,,black_cross(without_color),342793,,yellow,,,,null,GW/hanover.png,GW/hotsprings.png,,,,,,,,,,,,,,,,,,,,,,,,,
null,,rt_plussign_withcolor,343296,,yellow,,,,null,GW/hanover.png,GW/hotsprings.png,,,,,,,,,,,,,,,,,,,,,,,,,
752.1999999880791,,rt_thecrossant_black,344626,,black_plus_sign,,,,50,,,1,1,,,,,,,,,,,,,,,,,,,,,,,
null,,color_black,344730,,black_plus_sign,,,,null,,,,,,,,,,,,,,,,,,,,,,,,,,,
null,,learn_phase(without_color),347735,,black_plus_sign,,,,null,GW/newhope.png,GW/cornwall.png,,,,,,,,,,,,,,,,,,,,,,,,,
null,,black_cross(without_color),348141,,yellow,,,,null,GW/newhope.png,GW/cornwall.png,,,,,,,,,,,,,,,,,,,,,,,,,
null,,rt_plussign_withcolor,348644,,yellow,,,,null,GW/newhope.png,GW/cornwall.png,,,,,,,,,,,,,,,,,,,,,,,,,
938.1000000089407,,rt_thecrossant_black,350246,,black_plus_sign,,,,50,,,1,1,,,,,,,,,,,,,,,,,,,,,,,
null,,color_black,350350,,black_plus_sign,,,,null,,,,,,,,,,,,,,,,,,,,,,,,,,,
null,,learn_phase(without_color),353354,,black_plus_sign,,,,null,GW/cornwall.png,GW/racine.png,,,,,,,,,,,,,,,,,,,,,,,,,
null,,black_cross(without_color),353816,,blue,,,,null,GW/cornwall.png,GW/racine.png,,,,,,,,,,,,,,,,,,,,,,,,,
null,,rt_plussign_withcolor,354319,,blue,,,,null,GW/cornwall.png,GW/racine.png,,,,,,,,,,,,,,,,,,,,,,,,,
899.6000000089407,,rt_thecrossant_black,355863,,black_plus_sign,,,,49,,,1,1,,,,,,,,,,,,,,,,,,,,,,,
null,,color_black,355968,,black_plus_sign,,,,null,,,,,,,,,,,,,,,,,,,,,,,,,,,
null,,learn_phase(without_color),358972,,black_plus_sign,,,,null,GW/hanover.png,GW/hotsprings.png,,,,,,,,,,,,,,,,,,,,,,,,,
null,,black_cross(without_color),360060,,yellow,,,,null,GW/hanover.png,GW/hotsprings.png,,,,,,,,,,,,,,,,,,,,,,,,,
null,,rt_plussign_withcolor,360564,,yellow,,,,null,GW/hanover.png,GW/hotsprings.png,,,,,,,,,,,,,,,,,,,,,,,,,
866.8000000119209,,rt_thecrossant_black,361483,,black_plus_sign,,,,50,,,1,1,,,,,,,,,,,,,,,,,,,,,,,
null,,color_black,361587,,black_plus_sign,,,,null,,,,,,,,,,,,,,,,,,,,,,,,,,,
null,,learn_phase(without_color),364592,,black_plus_sign,,,,null,GW/carmel.png,GW/westpalmbeach.png,,,,,,,,,,,,,,,,,,,,,,,,,
null,,black_cross(without_color),365536,,blue,,,,null,GW/carmel.png,GW/westpalmbeach.png,,,,,,,,,,,,,,,,,,,,,,,,,
null,,rt_plussign_withcolor,366039,,blue,,,,null,GW/carmel.png,GW/westpalmbeach.png,,,,,,,,,,,,,,,,,,,,,,,,,
2047,,rt_thecrossant_black,367102,,black_plus_sign,,,,49,,,1,1,,,,,,,,,,,,,,,,,,,,,,,
null,,color_black,367206,,black_plus_sign,,,,null,,,,,,,,,,,,,,,,,,,,,,,,,,,
null,,learn_phase(without_color),370210,,black_plus_sign,,,,null,GW/carmel.png,GW/hotsprings.png,,,,,,,,,,,,,,,,,,,,,,,,,
null,,black_cross(without_color),370886,,blue,,,,null,GW/carmel.png,GW/hotsprings.png,,,,,,,,,,,,,,,,,,,,,,,,,
null,,rt_plussign_withcolor,371389,,blue,,,,null,GW/carmel.png,GW/hotsprings.png,,,,,,,,,,,,,,,,,,,,,,,,,
1523.5,,rt_thecrossant_black,372721,,black_plus_sign,,,,49,,,1,1,,,,,,,,,,,,,,,,,,,,,,,
null,,color_black,372824,,black_plus_sign,,,,null,,,,,,,,,,,,,,,,,,,,,,,,,,,
null,,learn_phase(without_color),375828,,black_plus_sign,,,,null,GW/racine.png,GW/leesburg.png,,,,,,,,,,,,,,,,,,,,,,,,,
null,,black_cross(without_color),376410,,blue,,,,null,GW/racine.png,GW/leesburg.png,,,,,,,,,,,,,,,,,,,,,,,,,
null,,rt_plussign_withcolor,376912,,blue,,,,null,GW/racine.png,GW/leesburg.png,,,,,,,,,,,,,,,,,,,,,,,,,
1269.5,,rt_thecrossant_black,378339,,black_plus_sign,,,,49,,,1,1,,,,,,,,,,,,,,,,,,,,,,,
null,,color_black,378443,,black_plus_sign,,,,null,,,,,,,,,,,,,,,,,,,,,,,,,,,
null,,learn_phase(without_color),381447,,black_plus_sign,,,,null,GW/leesburg.png,GW/racine.png,,,,,,,,,,,,,,,,,,,,,,,,,
null,,black_cross(without_color),382114,,yellow,,,,null,GW/leesburg.png,GW/racine.png,,,,,,,,,,,,,,,,,,,,,,,,,
null,,rt_plussign_withcolor,382617,,yellow,,,,null,GW/leesburg.png,GW/racine.png,,,,,,,,,,,,,,,,,,,,,,,,,
1190.9000000059605,,rt_thecrossant_black,383958,,black_plus_sign,,,,50,,,1,1,,,,,,,,,,,,,,,,,,,,,,,
null,,color_black,384061,,black_plus_sign,,,,null,,,,,,,,,,,,,,,,,,,,,,,,,,,
null,,learn_phase(without_color),387065,,black_plus_sign,,,,null,GW/hotsprings.png,GW/hanover.png,,,,,,,,,,,,,,,,,,,,,,,,,
null,,black_cross(without_color),387656,,yellow,,,,null,GW/hotsprings.png,GW/hanover.png,,,,,,,,,,,,,,,,,,,,,,,,,
null,,rt_plussign_withcolor,388159,,yellow,,,,null,GW/hotsprings.png,GW/hanover.png,,,,,,,,,,,,,,,,,,,,,,,,,
1918,,rt_thecrossant_black,389577,,black_plus_sign,,,,50,,,1,1,,,,,,,,,,,,,,,,,,,,,,,
null,,color_black,389680,,black_plus_sign,,,,null,,,,,,,,,,,,,,,,,,,,,,,,,,,
null,,learn_phase(without_color),392685,,black_plus_sign,,,,null,GW/newhope.png,GW/peoria.png,,,,,,,,,,,,,,,,,,,,,,,,,
null,,black_cross(without_color),393303,,blue,,,,null,GW/newhope.png,GW/peoria.png,,,,,,,,,,,,,,,,,,,,,,,,,
null,,rt_plussign_withcolor,393806,,blue,,,,null,GW/newhope.png,GW/peoria.png,,,,,,,,,,,,,,,,,,,,,,,,,
1134.7000000029802,,rt_thecrossant_black,395196,,black_plus_sign,,,,49,,,1,1,,,,,,,,,,,,,,,,,,,,,,,
null,,color_black,395300,,black_plus_sign,,,,null,,,,,,,,,,,,,,,,,,,,,,,,,,,
null,,learn_phase(without_color),398304,,black_plus_sign,,,,null,GW/racine.png,GW/cornwall.png,,,,,,,,,,,,,,,,,,,,,,,,,
null,,black_cross(without_color),398718,,yellow,,,,null,GW/racine.png,GW/cornwall.png,,,,,,,,,,,,,,,,,,,,,,,,,
null,,rt_plussign_withcolor,399221,,yellow,,,,null,GW/racine.png,GW/cornwall.png,,,,,,,,,,,,,,,,,,,,,,,,,
1109,,rt_thecrossant_black,400814,,black_plus_sign,,,,50,,,1,1,,,,,,,,,,,,,,,,,,,,,,,
null,,color_black,400918,,black_plus_sign,,,,null,,,,,,,,,,,,,,,,,,,,,,,,,,,
null,,learn_phase(without_color),403922,,black_plus_sign,,,,null,GW/hanover.png,GW/westpalmbeach.png,,,,,,,,,,,,,,,,,,,,,,,,,
null,,black_cross(without_color),404419,,yellow,,,,null,GW/hanover.png,GW/westpalmbeach.png,,,,,,,,,,,,,,,,,,,,,,,,,
null,,rt_plussign_withcolor,404921,,yellow,,,,null,GW/hanover.png,GW/westpalmbeach.png,,,,,,,,,,,,,,,,,,,,,,,,,
1195.3999999910593,,rt_thecrossant_black,406432,,black_plus_sign,,,,50,,,1,1,,,,,,,,,,,,,,,,,,,,,,,
null,,color_black,406536,,black_plus_sign,,,,null,,,,,,,,,,,,,,,,,,,,,,,,,,,
null,,learn_phase(without_color),409541,,black_plus_sign,,,,null,GW/cornwall.png,GW/westpalmbeach.png,,,,,,,,,,,,,,,,,,,,,,,,,
null,,black_cross(without_color),410176,,yellow,,,,null,GW/cornwall.png,GW/westpalmbeach.png,,,,,,,,,,,,,,,,,,,,,,,,,
null,,rt_plussign_withcolor,410679,,yellow,,,,null,GW/cornwall.png,GW/westpalmbeach.png,,,,,,,,,,,,,,,,,,,,,,,,,
936.2999999970198,,rt_thecrossant_black,412051,,black_plus_sign,,,,50,,,1,1,,,,,,,,,,,,,,,,,,,,,,,
null,,color_black,412155,,black_plus_sign,,,,null,,,,,,,,,,,,,,,,,,,,,,,,,,,
null,,learn_phase(without_color),415159,,black_plus_sign,,,,null,GW/westpalmbeach.png,GW/cornwall.png,,,,,,,,,,,,,,,,,,,,,,,,,
null,,black_cross(without_color),415670,,yellow,,,,null,GW/westpalmbeach.png,GW/cornwall.png,,,,,,,,,,,,,,,,,,,,,,,,,
null,,rt_plussign_withcolor,416174,,yellow,,,,null,GW/westpalmbeach.png,GW/cornwall.png,,,,,,,,,,,,,,,,,,,,,,,,,
946.2999999970198,,rt_thecrossant_black,417670,,black_plus_sign,,,,50,,,1,1,,,,,,,,,,,,,,,,,,,,,,,
null,,color_black,417774,,black_plus_sign,,,,null,,,,,,,,,,,,,,,,,,,,,,,,,,,
null,,learn_phase(without_color),420778,,black_plus_sign,,,,null,GW/racine.png,GW/hanover.png,,,,,,,,,,,,,,,,,,,,,,,,,
null,,black_cross(without_color),421413,,blue,,,,null,GW/racine.png,GW/hanover.png,,,,,,,,,,,,,,,,,,,,,,,,,
null,,rt_plussign_withcolor,421915,,blue,,,,null,GW/racine.png,GW/hanover.png,,,,,,,,,,,,,,,,,,,,,,,,,
1174,,rt_thecrossant_black,423289,,black_plus_sign,,,,49,,,1,1,,,,,,,,,,,,,,,,,,,,,,,
null,,color_black,423392,,black_plus_sign,,,,null,,,,,,,,,,,,,,,,,,,,,,,,,,,
null,,learn_phase(without_color),426397,,black_plus_sign,,,,null,GW/huntsville.png,GW/boulder.png,,,,,,,,,,,,,,,,,,,,,,,,,
null,,black_cross(without_color),427167,,yellow,,,,null,GW/huntsville.png,GW/boulder.png,,,,,,,,,,,,,,,,,,,,,,,,,
null,,rt_plussign_withcolor,427670,,yellow,,,,null,GW/huntsville.png,GW/boulder.png,,,,,,,,,,,,,,,,,,,,,,,,,
817.8000000119209,,rt_thecrossant_black,428908,,black_plus_sign,,,,50,,,1,1,,,,,,,,,,,,,,,,,,,,,,,
null,,color_black,429012,,black_plus_sign,,,,null,,,,,,,,,,,,,,,,,,,,,,,,,,,
null,,learn_phase(without_color),432017,,black_plus_sign,,,,null,GW/carmel.png,GW/westpalmbeach.png,,,,,,,,,,,,,,,,,,,,,,,,,
null,,black_cross(without_color),432761,,yellow,,,,null,GW/carmel.png,GW/westpalmbeach.png,,,,,,,,,,,,,,,,,,,,,,,,,
null,,rt_plussign_withcolor,433264,,yellow,,,,null,GW/carmel.png,GW/westpalmbeach.png,,,,,,,,,,,,,,,,,,,,,,,,,
893.5,,rt_thecrossant_black,434528,,black_plus_sign,,,,50,,,1,1,,,,,,,,,,,,,,,,,,,,,,,
null,,color_black,434632,,black_plus_sign,,,,null,,,,,,,,,,,,,,,,,,,,,,,,,,,
null,,learn_phase(without_color),437637,,black_plus_sign,,,,null,GW/carmel.png,GW/shreveport.png,,,,,,,,,,,,,,,,,,,,,,,,,
null,,black_cross(without_color),438071,,blue,,,,null,GW/carmel.png,GW/shreveport.png,,,,,,,,,,,,,,,,,,,,,,,,,
null,,rt_plussign_withcolor,438575,,blue,,,,null,GW/carmel.png,GW/shreveport.png,,,,,,,,,,,,,,,,,,,,,,,,,
1633.5,,rt_thecrossant_black,440148,,black_plus_sign,,,,49,,,1,1,,,,,,,,,,,,,,,,,,,,,,,
null,,color_black,440252,,black_plus_sign,,,,null,,,,,,,,,,,,,,,,,,,,,,,,,,,
null,,learn_phase(without_color),443257,,black_plus_sign,,,,null,GW/carmel.png,GW/hanover.png,,,,,,,,,,,,,,,,,,,,,,,,,
null,,black_cross(without_color),444184,,blue,,,,null,GW/carmel.png,GW/hanover.png,,,,,,,,,,,,,,,,,,,,,,,,,
null,,rt_plussign_withcolor,444688,,blue,,,,null,GW/carmel.png,GW/hanover.png,,,,,,,,,,,,,,,,,,,,,,,,,
1113.6000000089407,,rt_thecrossant_black,445768,,black_plus_sign,,,,50,,,0,0.967741935483871,,,,,,,,,,,,,,,,,,,,,,,
null,,color_black,445871,,black_plus_sign,,,,null,,,,,,,,,,,,,,,,,,,,,,,,,,,
null,,learn_phase(without_color),448876,,black_plus_sign,,,,null,GW/huntsville.png,GW/leesburg.png,,,,,,,,,,,,,,,,,,,,,,,,,
null,,black_cross(without_color),449905,,blue,,,,null,GW/huntsville.png,GW/leesburg.png,,,,,,,,,,,,,,,,,,,,,,,,,
null,,rt_plussign_withcolor,450408,,blue,,,,null,GW/huntsville.png,GW/leesburg.png,,,,,,,,,,,,,,,,,,,,,,,,,
1387.9000000059605,,rt_thecrossant_black,451387,,black_plus_sign,,,,49,,,1,0.96875,,,,,,,,,,,,,,,,,,,,,,,
null,,color_black,451491,,black_plus_sign,,,,null,,,,,,,,,,,,,,,,,,,,,,,,,,,
null,,learn_phase(without_color),454495,,black_plus_sign,,,,null,GW/gatlinburg.png,GW/hotsprings.png,,,,,,,,,,,,,,,,,,,,,,,,,
null,,black_cross(without_color),455114,,yellow,,,,null,GW/gatlinburg.png,GW/hotsprings.png,,,,,,,,,,,,,,,,,,,,,,,,,
null,,rt_plussign_withcolor,455617,,yellow,,,,null,GW/gatlinburg.png,GW/hotsprings.png,,,,,,,,,,,,,,,,,,,,,,,,,
1418.4000000059605,,rt_thecrossant_black,457006,,black_plus_sign,,,,50,,,1,0.9696969696969697,,,,,,,,,,,,,,,,,,,,,,,
null,,color_black,457110,,black_plus_sign,,,,null,,,,,,,,,,,,,,,,,,,,,,,,,,,
null,,learn_phase(without_color),460115,,black_plus_sign,,,,null,GW/cornwall.png,GW/newhope.png,,,,,,,,,,,,,,,,,,,,,,,,,
null,,black_cross(without_color),460977,,blue,,,,null,GW/cornwall.png,GW/newhope.png,,,,,,,,,,,,,,,,,,,,,,,,,
null,,rt_plussign_withcolor,461480,,blue,,,,null,GW/cornwall.png,GW/newhope.png,,,,,,,,,,,,,,,,,,,,,,,,,
959.2000000029802,,rt_thecrossant_black,462626,,black_plus_sign,,,,49,,,1,0.9705882352941176,,,,,,,,,,,,,,,,,,,,,,,
null,,color_black,462729,,black_plus_sign,,,,null,,,,,,,,,,,,,,,,,,,,,,,,,,,
null,,learn_phase(without_color),465733,,black_plus_sign,,,,null,GW/cornwall.png,GW/newhope.png,,,,,,,,,,,,,,,,,,,,,,,,,
null,,black_cross(without_color),466412,,blue,,,,null,GW/cornwall.png,GW/newhope.png,,,,,,,,,,,,,,,,,,,,,,,,,
null,,rt_plussign_withcolor,466915,,blue,,,,null,GW/cornwall.png,GW/newhope.png,,,,,,,,,,,,,,,,,,,,,,,,,
1838.2000000029802,,rt_thecrossant_black,468244,,black_plus_sign,,,,49,,,1,0.9714285714285714,,,,,,,,,,,,,,,,,,,,,,,
null,,color_black,468348,,black_plus_sign,,,,null,,,,,,,,,,,,,,,,,,,,,,,,,,,
null,,learn_phase(without_color),471353,,black_plus_sign,,,,null,GW/gatlinburg.png,GW/hotsprings.png,,,,,,,,,,,,,,,,,,,,,,,,,
null,,black_cross(without_color),471861,,blue,,,,null,GW/gatlinburg.png,GW/hotsprings.png,,,,,,,,,,,,,,,,,,,,,,,,,
null,,rt_plussign_withcolor,472363,,blue,,,,null,GW/gatlinburg.png,GW/hotsprings.png,,,,,,,,,,,,,,,,,,,,,,,,,
1516.300000011921,,rt_thecrossant_black,473864,,black_plus_sign,,,,49,,,1,0.9722222222222222,,,,,,,,,,,,,,,,,,,,,,,
null,,color_black,473968,,black_plus_sign,,,,null,,,,,,,,,,,,,,,,,,,,,,,,,,,
null,,learn_phase(without_color),476973,,black_plus_sign,,,,null,GW/hanover.png,GW/racine.png,,,,,,,,,,,,,,,,,,,,,,,,,
null,,black_cross(without_color),478060,,yellow,,,,null,GW/hanover.png,GW/racine.png,,,,,,,,,,,,,,,,,,,,,,,,,
null,,rt_plussign_withcolor,478564,,yellow,,,,null,GW/hanover.png,GW/racine.png,,,,,,,,,,,,,,,,,,,,,,,,,
1066.7999999970198,,rt_thecrossant_black,479484,,black_plus_sign,,,,50,,,1,0.972972972972973,,,,,,,,,,,,,,,,,,,,,,,
null,,color_black,479589,,black_plus_sign,,,,null,,,,,,,,,,,,,,,,,,,,,,,,,,,
null,,learn_phase(without_color),482593,,black_plus_sign,,,,null,GW/carmel.png,GW/hotsprings.png,,,,,,,,,,,,,,,,,,,,,,,,,
null,,black_cross(without_color),483088,,yellow,,,,null,GW/carmel.png,GW/hotsprings.png,,,,,,,,,,,,,,,,,,,,,,,,,
null,,rt_plussign_withcolor,483590,,yellow,,,,null,GW/carmel.png,GW/hotsprings.png,,,,,,,,,,,,,,,,,,,,,,,,,
2380,,rt_thecrossant_black,485103,,black_plus_sign,,,,50,,,1,0.9736842105263158,,,,,,,,,,,,,,,,,,,,,,,
null,,color_black,485208,,black_plus_sign,,,,null,,,,,,,,,,,,,,,,,,,,,,,,,,,
null,,learn_phase(without_color),488212,,black_plus_sign,,,,null,GW/carmel.png,GW/westpalmbeach.png,,,,,,,,,,,,,,,,,,,,,,,,,
null,,black_cross(without_color),488827,,yellow,,,,null,GW/carmel.png,GW/westpalmbeach.png,,,,,,,,,,,,,,,,,,,,,,,,,
null,,rt_plussign_withcolor,489330,,yellow,,,,null,GW/carmel.png,GW/westpalmbeach.png,,,,,,,,,,,,,,,,,,,,,,,,,
1070.7000000029802,,rt_thecrossant_black,490723,,black_plus_sign,,,,50,,,1,0.9743589743589743,,,,,,,,,,,,,,,,,,,,,,,
null,,color_black,490828,,black_plus_sign,,,,null,,,,,,,,,,,,,,,,,,,,,,,,,,,
null,,learn_phase(without_color),493831,,black_plus_sign,,,,null,GW/hanover.png,GW/carmel.png,,,,,,,,,,,,,,,,,,,,,,,,,
null,,black_cross(without_color),494805,,blue,,,,null,GW/hanover.png,GW/carmel.png,,,,,,,,,,,,,,,,,,,,,,,,,
null,,rt_plussign_withcolor,495308,,blue,,,,null,GW/hanover.png,GW/carmel.png,,,,,,,,,,,,,,,,,,,,,,,,,
1700,,rt_thecrossant_black,496343,,black_plus_sign,,,,49,,,1,0.975,,,,,,,,,,,,,,,,,,,,,,,
null,,color_black,496446,,black_plus_sign,,,,null,,,,,,,,,,,,,,,,,,,,,,,,,,,
null,,learn_phase(without_color),499451,,black_plus_sign,,,,null,GW/hotsprings.png,GW/hanover.png,,,,,,,,,,,,,,,,,,,,,,,,,
null,,black_cross(without_color),500510,,blue,,,,null,GW/hotsprings.png,GW/hanover.png,,,,,,,,,,,,,,,,,,,,,,,,,
null,,rt_plussign_withcolor,501013,,blue,,,,null,GW/hotsprings.png,GW/hanover.png,,,,,,,,,,,,,,,,,,,,,,,,,
null,,rt_thecrossant_black,501962,,black_plus_sign,,,,null,,,,0.975,,,,,,,,,,,,,,,,,,,,,,,
null,,color_black,502065,,black_plus_sign,,,,null,,,,,,,,,,,,,,,,,,,,,,,,,,,
null,,learn_phase(without_color),505069,,black_plus_sign,,,,null,GW/newhope.png,GW/cornwall.png,,,,,,,,,,,,,,,,,,,,,,,,,
null,,black_cross(without_color),505543,,yellow,,,,null,GW/newhope.png,GW/cornwall.png,,,,,,,,,,,,,,,,,,,,,,,,,
null,,rt_plussign_withcolor,506047,,yellow,,,,null,GW/newhope.png,GW/cornwall.png,,,,,,,,,,,,,,,,,,,,,,,,,
1831.300000011921,,rt_thecrossant_black,507581,,black_plus_sign,,,,50,,,1,0.975609756097561,,,,,,,,,,,,,,,,,,,,,,,
null,,color_black,507684,,black_plus_sign,,,,null,,,,,,,,,,,,,,,,,,,,,,,,,,,
null,,learn_phase(without_color),510688,,black_plus_sign,,,,null,GW/leesburg.png,GW/racine.png,,,,,,,,,,,,,,,,,,,,,,,,,
null,,black_cross(without_color),511202,,blue,,,,null,GW/leesburg.png,GW/racine.png,,,,,,,,,,,,,,,,,,,,,,,,,
null,,rt_plussign_withcolor,511705,,blue,,,,null,GW/leesburg.png,GW/racine.png,,,,,,,,,,,,,,,,,,,,,,,,,
972.7999999970198,,rt_thecrossant_black,513199,,black_plus_sign,,,,49,,,1,0.9761904761904762,,,,,,,,,,,,,,,,,,,,,,,
null,,color_black,513303,,black_plus_sign,,,,null,,,,,,,,,,,,,,,,,,,,,,,,,,,
null,,learn_phase(without_color),516307,,black_plus_sign,,,,null,GW/newhope.png,GW/peoria.png,,,,,,,,,,,,,,,,,,,,,,,,,
null,,black_cross(without_color),517391,,yellow,,,,null,GW/newhope.png,GW/peoria.png,,,,,,,,,,,,,,,,,,,,,,,,,
null,,rt_plussign_withcolor,517894,,yellow,,,,null,GW/newhope.png,GW/peoria.png,,,,,,,,,,,,,,,,,,,,,,,,,
1388.5999999940395,,rt_thecrossant_black,518819,,black_plus_sign,,,,50,,,1,0.9767441860465116,,,,,,,,,,,,,,,,,,,,,,,
null,,color_black,518923,,black_plus_sign,,,,null,,,,,,,,,,,,,,,,,,,,,,,,,,,
null,,learn_phase(without_color),521927,,black_plus_sign,,,,null,GW/carmel.png,GW/shreveport.png,,,,,,,,,,,,,,,,,,,,,,,,,
null,,black_cross(without_color),522516,,blue,,,,null,GW/carmel.png,GW/shreveport.png,,,,,,,,,,,,,,,,,,,,,,,,,
null,,rt_plussign_withcolor,523018,,blue,,,,null,GW/carmel.png,GW/shreveport.png,,,,,,,,,,,,,,,,,,,,,,,,,
1731.1000000089407,,rt_thecrossant_black,524438,,black_plus_sign,,,,49,,,1,0.9772727272727273,,,,,,,,,,,,,,,,,,,,,,,
null,,color_black,524542,,black_plus_sign,,,,null,,,,,,,,,,,,,,,,,,,,,,,,,,,
null,,learn_phase(without_color),527547,,black_plus_sign,,,,null,GW/huntsville.png,GW/newhope.png,,,,,,,,,,,,,,,,,,,,,,,,,
null,,black_cross(without_color),528368,,yellow,,,,null,GW/huntsville.png,GW/newhope.png,,,,,,,,,,,,,,,,,,,,,,,,,
null,,rt_plussign_withcolor,528871,,yellow,,,,null,GW/huntsville.png,GW/newhope.png,,,,,,,,,,,,,,,,,,,,,,,,,
1110.699999988079,,rt_thecrossant_black,530058,,black_plus_sign,,,,50,,,1,0.9777777777777777,,,,,,,,,,,,,,,,,,,,,,,
null,,color_black,530162,,black_plus_sign,,,,null,,,,,,,,,,,,,,,,,,,,,,,,,,,
null,,learn_phase(without_color),533166,,black_plus_sign,,,,null,GW/carmel.png,GW/hanover.png,,,,,,,,,,,,,,,,,,,,,,,,,
null,,black_cross(without_color),533872,,blue,,,,null,GW/carmel.png,GW/hanover.png,,,,,,,,,,,,,,,,,,,,,,,,,
null,,rt_plussign_withcolor,534374,,blue,,,,null,GW/carmel.png,GW/hanover.png,,,,,,,,,,,,,,,,,,,,,,,,,
null,,rt_thecrossant_black,535676,,black_plus_sign,,,,null,,,,0.9777777777777777,,,,,,,,,,,,,,,,,,,,,,,
null,,color_black,535780,,black_plus_sign,,,,null,,,,,,,,,,,,,,,,,,,,,,,,,,,
null,,learn_phase(without_color),538785,,black_plus_sign,,,,null,GW/boulder.png,GW/huntsville.png,,,,,,,,,,,,,,,,,,,,,,,,,
null,,black_cross(without_color),539873,,yellow,,,,null,GW/boulder.png,GW/huntsville.png,,,,,,,,,,,,,,,,,,,,,,,,,
null,,rt_plussign_withcolor,540376,,yellow,,,,null,GW/boulder.png,GW/huntsville.png,,,,,,,,,,,,,,,,,,,,,,,,,
1515.7000000029802,,rt_thecrossant_black,541296,,black_plus_sign,,,,50,,,1,0.9782608695652174,,,,,,,,,,,,,,,,,,,,,,,
null,,color_black,541400,,black_plus_sign,,,,null,,,,,,,,,,,,,,,,,,,,,,,,,,,
null,,learn_phase(without_color),544405,,black_plus_sign,,,,null,GW/hotsprings.png,GW/gatlinburg.png,,,,,,,,,,,,,,,,,,,,,,,,,
null,,black_cross(without_color),544968,,blue,,,,null,GW/hotsprings.png,GW/gatlinburg.png,,,,,,,,,,,,,,,,,,,,,,,,,
null,,rt_plussign_withcolor,545471,,blue,,,,null,GW/hotsprings.png,GW/gatlinburg.png,,,,,,,,,,,,,,,,,,,,,,,,,
2093.2999999970198,,rt_thecrossant_black,546916,,black_plus_sign,,,,49,,,1,0.9787234042553191,,,,,,,,,,,,,,,,,,,,,,,
null,,color_black,547019,,black_plus_sign,,,,null,,,,,,,,,,,,,,,,,,,,,,,,,,,
null,,learn_phase(without_color),550024,,black_plus_sign,,,,null,GW/carmel.png,GW/shreveport.png,,,,,,,,,,,,,,,,,,,,,,,,,
null,,black_cross(without_color),550571,,yellow,,,,null,GW/carmel.png,GW/shreveport.png,,,,,,,,,,,,,,,,,,,,,,,,,
null,,rt_plussign_withcolor,551073,,yellow,,,,null,GW/carmel.png,GW/shreveport.png,,,,,,,,,,,,,,,,,,,,,,,,,
1304.9000000059605,,rt_thecrossant_black,552535,,black_plus_sign,,,,50,,,1,0.9791666666666666,,,,,,,,,,,,,,,,,,,,,,,
null,,color_black,552639,,black_plus_sign,,,,null,,,,,,,,,,,,,,,,,,,,,,,,,,,
null,,learn_phase(without_color),555644,,black_plus_sign,,,,null,GW/racine.png,GW/leesburg.png,,,,,,,,,,,,,,,,,,,,,,,,,
null,,black_cross(without_color),556158,,blue,,,,null,GW/racine.png,GW/leesburg.png,,,,,,,,,,,,,,,,,,,,,,,,,
null,,rt_plussign_withcolor,556661,,blue,,,,null,GW/racine.png,GW/leesburg.png,,,,,,,,,,,,,,,,,,,,,,,,,
1461.0999999940395,,rt_thecrossant_black,558156,,black_plus_sign,,,,49,,,1,0.9795918367346939,,,,,,,,,,,,,,,,,,,,,,,
null,,color_black,558260,,black_plus_sign,,,,null,,,,,,,,,,,,,,,,,,,,,,,,,,,
null,,learn_phase(without_color),561265,,black_plus_sign,,,,null,GW/hanover.png,GW/hotsprings.png,,,,,,,,,,,,,,,,,,,,,,,,,
null,,black_cross(without_color),562098,,blue,,,,null,GW/hanover.png,GW/hotsprings.png,,,,,,,,,,,,,,,,,,,,,,,,,
null,,rt_plussign_withcolor,562601,,blue,,,,null,GW/hanover.png,GW/hotsprings.png,,,,,,,,,,,,,,,,,,,,,,,,,
1017.5999999940395,,rt_thecrossant_black,563775,,black_plus_sign,,,,49,,,1,0.98,,,,,,,,,,,,,,,,,,,,,,,
null,,color_black,563880,,black_plus_sign,,,,null,,,,,,,,,,,,,,,,,,,,,,,,,,,
null,,learn_phase(without_color),566884,,black_plus_sign,,,,null,GW/hanover.png,GW/racine.png,,,,,,,,,,,,,,,,,,,,,,,,,
null,,black_cross(without_color),567686,,yellow,,,,null,GW/hanover.png,GW/racine.png,,,,,,,,,,,,,,,,,,,,,,,,,
null,,rt_plussign_withcolor,568189,,yellow,,,,null,GW/hanover.png,GW/racine.png,,,,,,,,,,,,,,,,,,,,,,,,,
1414.7999999970198,,rt_thecrossant_black,569395,,black_plus_sign,,,,50,,,1,0.9803921568627451,,,,,,,,,,,,,,,,,,,,,,,
null,,color_black,569499,,black_plus_sign,,,,null,,,,,,,,,,,,,,,,,,,,,,,,,,,
null,,learn_phase(without_color),572503,,black_plus_sign,,,,null,GW/huntsville.png,GW/boulder.png,,,,,,,,,,,,,,,,,,,,,,,,,
null,,black_cross(without_color),573034,,yellow,,,,null,GW/huntsville.png,GW/boulder.png,,,,,,,,,,,,,,,,,,,,,,,,,
null,,rt_plussign_withcolor,573537,,yellow,,,,null,GW/huntsville.png,GW/boulder.png,,,,,,,,,,,,,,,,,,,,,,,,,
1431.0999999940395,,rt_thecrossant_black,575015,,black_plus_sign,,,,50,,,1,0.9807692307692307,,,,,,,,,,,,,,,,,,,,,,,
null,,color_black,575119,,black_plus_sign,,,,null,,,,,,,,,,,,,,,,,,,,,,,,,,,
null,,learn_phase(without_color),578124,,black_plus_sign,,,,null,GW/westpalmbeach.png,GW/cornwall.png,,,,,,,,,,,,,,,,,,,,,,,,,
null,,black_cross(without_color),579108,,blue,,,,null,GW/westpalmbeach.png,GW/cornwall.png,,,,,,,,,,,,,,,,,,,,,,,,,
null,,rt_plussign_withcolor,579611,,blue,,,,null,GW/westpalmbeach.png,GW/cornwall.png,,,,,,,,,,,,,,,,,,,,,,,,,
1216.3999999910593,,rt_thecrossant_black,580635,,black_plus_sign,,,,49,,,1,0.9811320754716981,,,,,,,,,,,,,,,,,,,,,,,
null,,color_black,580739,,black_plus_sign,,,,null,,,,,,,,,,,,,,,,,,,,,,,,,,,
null,,learn_phase(without_color),583745,,black_plus_sign,,,,null,GW/westpalmbeach.png,GW/carmel.png,,,,,,,,,,,,,,,,,,,,,,,,,
null,,black_cross(without_color),584408,,blue,,,,null,GW/westpalmbeach.png,GW/carmel.png,,,,,,,,,,,,,,,,,,,,,,,,,
null,,rt_plussign_withcolor,584911,,blue,,,,null,GW/westpalmbeach.png,GW/carmel.png,,,,,,,,,,,,,,,,,,,,,,,,,
2030.0999999940395,,rt_thecrossant_black,586256,,black_plus_sign,,,,49,,,1,0.9814814814814815,,,,,,,,,,,,,,,,,,,,,,,
null,,color_black,586359,,black_plus_sign,,,,null,,,,,,,,,,,,,,,,,,,,,,,,,,,
null,,learn_phase(without_color),589364,,black_plus_sign,,,,null,GW/racine.png,GW/cornwall.png,,,,,,,,,,,,,,,,,,,,,,,,,
null,,black_cross(without_color),590283,,blue,,,,null,GW/racine.png,GW/cornwall.png,,,,,,,,,,,,,,,,,,,,,,,,,
null,,rt_plussign_withcolor,590786,,blue,,,,null,GW/racine.png,GW/cornwall.png,,,,,,,,,,,,,,,,,,,,,,,,,
1086.7000000029802,,rt_thecrossant_black,591875,,black_plus_sign,,,,49,,,1,0.9818181818181818,,,,,,,,,,,,,,,,,,,,,,,
null,,color_black,591980,,black_plus_sign,,,,null,,,,,,,,,,,,,,,,,,,,,,,,,,,
null,,learn_phase(without_color),594984,,black_plus_sign,,,,null,GW/hotsprings.png,GW/hanover.png,,,,,,,,,,,,,,,,,,,,,,,,,
null,,black_cross(without_color),595583,,yellow,,,,null,GW/hotsprings.png,GW/hanover.png,,,,,,,,,,,,,,,,,,,,,,,,,
null,,rt_plussign_withcolor,596086,,yellow,,,,null,GW/hotsprings.png,GW/hanover.png,,,,,,,,,,,,,,,,,,,,,,,,,
1561.9000000059605,,rt_thecrossant_black,597496,,black_plus_sign,,,,50,,,1,0.9821428571428571,,,,,,,,,,,,,,,,,,,,,,,
null,,color_black,597600,,black_plus_sign,,,,null,,,,,,,,,,,,,,,,,,,,,,,,,,,
null,,learn_phase(without_color),600606,,black_plus_sign,,,,null,GW/westpalmbeach.png,GW/hanover.png,,,,,,,,,,,,,,,,,,,,,,,,,
null,,black_cross(without_color),601641,,yellow,,,,null,GW/westpalmbeach.png,GW/hanover.png,,,,,,,,,,,,,,,,,,,,,,,,,
null,,rt_plussign_withcolor,602145,,yellow,,,,null,GW/westpalmbeach.png,GW/hanover.png,,,,,,,,,,,,,,,,,,,,,,,,,
null,,rt_thecrossant_black,603117,,black_plus_sign,,,,null,,,,0.9821428571428571,,,,,,,,,,,,,,,,,,,,,,,
null,,color_black,603221,,black_plus_sign,,,,null,,,,,,,,,,,,,,,,,,,,,,,,,,,
null,,learn_phase(without_color),606226,,black_plus_sign,,,,null,GW/newhope.png,GW/huntsville.png,,,,,,,,,,,,,,,,,,,,,,,,,
null,,black_cross(without_color),606953,,yellow,,,,null,GW/newhope.png,GW/huntsville.png,,,,,,,,,,,,,,,,,,,,,,,,,
null,,rt_plussign_withcolor,607456,,yellow,,,,null,GW/newhope.png,GW/huntsville.png,,,,,,,,,,,,,,,,,,,,,,,,,
2203.2999999970198,,rt_thecrossant_black,608738,,black_plus_sign,,,,50,,,1,0.9824561403508771,,,,,,,,,,,,,,,,,,,,,,,
null,,color_black,608842,,black_plus_sign,,,,null,,,,,,,,,,,,,,,,,,,,,,,,,,,
null,,learn_phase(without_color),611847,,black_plus_sign,,,,null,GW/boulder.png,GW/huntsville.png,,,,,,,,,,,,,,,,,,,,,,,,,
null,,black_cross(without_color),612376,,blue,,,,null,GW/boulder.png,GW/huntsville.png,,,,,,,,,,,,,,,,,,,,,,,,,
null,,rt_plussign_withcolor,612879,,blue,,,,null,GW/boulder.png,GW/huntsville.png,,,,,,,,,,,,,,,,,,,,,,,,,
1273.5999999940395,,rt_thecrossant_black,614359,,black_plus_sign,,,,49,,,1,0.9827586206896551,,,,,,,,,,,,,,,,,,,,,,,
null,,color_black,614463,,black_plus_sign,,,,null,,,,,,,,,,,,,,,,,,,,,,,,,,,
null,,learn_phase(without_color),617469,,black_plus_sign,,,,null,GW/huntsville.png,GW/leesburg.png,,,,,,,,,,,,,,,,,,,,,,,,,
null,,black_cross(without_color),618403,,yellow,,,,null,GW/huntsville.png,GW/leesburg.png,,,,,,,,,,,,,,,,,,,,,,,,,
null,,rt_plussign_withcolor,618907,,yellow,,,,null,GW/huntsville.png,GW/leesburg.png,,,,,,,,,,,,,,,,,,,,,,,,,
891.1999999880791,,rt_thecrossant_black,619980,,black_plus_sign,,,,50,,,1,0.9830508474576272,,,,,,,,,,,,,,,,,,,,,,,
null,,color_black,620084,,black_plus_sign,,,,null,,,,,,,,,,,,,,,,,,,,,,,,,,,
null,,learn_break,680089,,learn_break,,,,null,,,,,,,,,,,,,,,,,,,,,,,,,,,
null,,html-keyboard-response,681092,,<p></p>,,,,null,,,,,,,,,,,,,,,,,,,,,,,,,,,
null,,learn_phase(without_color),684096,,black_plus_sign,,,,null,GW/hanover.png,GW/carmel.png,,,,,,,,,,,,,,,,,,,,,,,,,
null,,black_cross(without_color),684713,,yellow,,,,null,GW/hanover.png,GW/carmel.png,,,,,,,,,,,,,,,,,,,,,,,,,
null,,rt_plussign_withcolor,685217,,yellow,,,,null,GW/hanover.png,GW/carmel.png,,,,,,,,,,,,,,,,,,,,,,,,,
1543.9000000059605,,rt_thecrossant_black,686607,,black_plus_sign,,,,50,,,1,0.9833333333333333,,,,,,,,,,,,,,,,,,,,,,,
null,,color_black,686711,,black_plus_sign,,,,null,,,,,,,,,,,,,,,,,,,,,,,,,,,
null,,learn_phase(without_color),689715,,black_plus_sign,,,,null,GW/huntsville.png,GW/leesburg.png,,,,,,,,,,,,,,,,,,,,,,,,,
null,,black_cross(without_color),690733,,yellow,,,,null,GW/huntsville.png,GW/leesburg.png,,,,,,,,,,,,,,,,,,,,,,,,,
null,,rt_plussign_withcolor,691237,,yellow,,,,null,GW/huntsville.png,GW/leesburg.png,,,,,,,,,,,,,,,,,,,,,,,,,
1100.7000000029802,,rt_thecrossant_black,692227,,black_plus_sign,,,,50,,,1,0.9836065573770492,,,,,,,,,,,,,,,,,,,,,,,
null,,color_black,692331,,black_plus_sign,,,,null,,,,,,,,,,,,,,,,,,,,,,,,,,,
null,,learn_phase(without_color),695336,,black_plus_sign,,,,null,GW/peoria.png,GW/newhope.png,,,,,,,,,,,,,,,,,,,,,,,,,
null,,black_cross(without_color),696166,,yellow,,,,null,GW/peoria.png,GW/newhope.png,,,,,,,,,,,,,,,,,,,,,,,,,
null,,rt_plussign_withcolor,696670,,yellow,,,,null,GW/peoria.png,GW/newhope.png,,,,,,,,,,,,,,,,,,,,,,,,,
1258.7000000029802,,rt_thecrossant_black,697849,,black_plus_sign,,,,50,,,1,0.9838709677419355,,,,,,,,,,,,,,,,,,,,,,,
null,,color_black,697953,,black_plus_sign,,,,null,,,,,,,,,,,,,,,,,,,,,,,,,,,
null,,learn_phase(without_color),700959,,black_plus_sign,,,,null,GW/hanover.png,GW/carmel.png,,,,,,,,,,,,,,,,,,,,,,,,,
null,,black_cross(without_color),701692,,blue,,,,null,GW/hanover.png,GW/carmel.png,,,,,,,,,,,,,,,,,,,,,,,,,
null,,rt_plussign_withcolor,702195,,blue,,,,null,GW/hanover.png,GW/carmel.png,,,,,,,,,,,,,,,,,,,,,,,,,
1506.300000011921,,rt_thecrossant_black,703470,,black_plus_sign,,,,49,,,1,0.9841269841269841,,,,,,,,,,,,,,,,,,,,,,,
null,,color_black,703574,,black_plus_sign,,,,null,,,,,,,,,,,,,,,,,,,,,,,,,,,
null,,learn_phase(without_color),706579,,black_plus_sign,,,,null,GW/hotsprings.png,GW/carmel.png,,,,,,,,,,,,,,,,,,,,,,,,,
null,,black_cross(without_color),707231,,blue,,,,null,GW/hotsprings.png,GW/carmel.png,,,,,,,,,,,,,,,,,,,,,,,,,
null,,rt_plussign_withcolor,707734,,blue,,,,null,GW/hotsprings.png,GW/carmel.png,,,,,,,,,,,,,,,,,,,,,,,,,
1569.5,,rt_thecrossant_black,709091,,black_plus_sign,,,,49,,,1,0.984375,,,,,,,,,,,,,,,,,,,,,,,
null,,color_black,709195,,black_plus_sign,,,,null,,,,,,,,,,,,,,,,,,,,,,,,,,,
null,,learn_phase(without_color),712200,,black_plus_sign,,,,null,GW/hanover.png,GW/westpalmbeach.png,,,,,,,,,,,,,,,,,,,,,,,,,
null,,black_cross(without_color),713258,,blue,,,,null,GW/hanover.png,GW/westpalmbeach.png,,,,,,,,,,,,,,,,,,,,,,,,,
null,,rt_plussign_withcolor,713761,,blue,,,,null,GW/hanover.png,GW/westpalmbeach.png,,,,,,,,,,,,,,,,,,,,,,,,,
1172.2999999970198,,rt_thecrossant_black,714713,,black_plus_sign,,,,49,,,1,0.9846153846153847,,,,,,,,,,,,,,,,,,,,,,,
null,,color_black,714817,,black_plus_sign,,,,null,,,,,,,,,,,,,,,,,,,,,,,,,,,
null,,learn_phase(without_color),717823,,black_plus_sign,,,,null,GW/carmel.png,GW/shreveport.png,,,,,,,,,,,,,,,,,,,,,,,,,
null,,black_cross(without_color),718604,,yellow,,,,null,GW/carmel.png,GW/shreveport.png,,,,,,,,,,,,,,,,,,,,,,,,,
null,,rt_plussign_withcolor,719107,,yellow,,,,null,GW/carmel.png,GW/shreveport.png,,,,,,,,,,,,,,,,,,,,,,,,,
1861.7999999970198,,rt_thecrossant_black,720335,,black_plus_sign,,,,50,,,1,0.9848484848484849,,,,,,,,,,,,,,,,,,,,,,,
null,,color_black,720439,,black_plus_sign,,,,null,,,,,,,,,,,,,,,,,,,,,,,,,,,
null,,learn_phase(without_color),723444,,black_plus_sign,,,,null,GW/hotsprings.png,GW/carmel.png,,,,,,,,,,,,,,,,,,,,,,,,,
null,,black_cross(without_color),724148,,blue,,,,null,GW/hotsprings.png,GW/carmel.png,,,,,,,,,,,,,,,,,,,,,,,,,
null,,rt_plussign_withcolor,724652,,blue,,,,null,GW/hotsprings.png,GW/carmel.png,,,,,,,,,,,,,,,,,,,,,,,,,
1604.7999999970198,,rt_thecrossant_black,725957,,black_plus_sign,,,,49,,,1,0.9850746268656716,,,,,,,,,,,,,,,,,,,,,,,
null,,color_black,726060,,black_plus_sign,,,,null,,,,,,,,,,,,,,,,,,,,,,,,,,,
null,,learn_phase(without_color),729065,,black_plus_sign,,,,null,GW/carmel.png,GW/shreveport.png,,,,,,,,,,,,,,,,,,,,,,,,,
null,,black_cross(without_color),730136,,yellow,,,,null,GW/carmel.png,GW/shreveport.png,,,,,,,,,,,,,,,,,,,,,,,,,
null,,rt_plussign_withcolor,730640,,yellow,,,,null,GW/carmel.png,GW/shreveport.png,,,,,,,,,,,,,,,,,,,,,,,,,
null,,rt_thecrossant_black,731577,,black_plus_sign,,,,null,,,,0.9850746268656716,,,,,,,,,,,,,,,,,,,,,,,
null,,color_black,731681,,black_plus_sign,,,,null,,,,,,,,,,,,,,,,,,,,,,,,,,,
null,,learn_phase(without_color),734686,,black_plus_sign,,,,null,GW/huntsville.png,GW/leesburg.png,,,,,,,,,,,,,,,,,,,,,,,,,
null,,black_cross(without_color),735430,,yellow,,,,null,GW/huntsville.png,GW/leesburg.png,,,,,,,,,,,,,,,,,,,,,,,,,
null,,rt_plussign_withcolor,735933,,yellow,,,,null,GW/huntsville.png,GW/leesburg.png,,,,,,,,,,,,,,,,,,,,,,,,,
1995.5,,rt_thecrossant_black,737197,,black_plus_sign,,,,50,,,1,0.9852941176470589,,,,,,,,,,,,,,,,,,,,,,,
null,,color_black,737301,,black_plus_sign,,,,null,,,,,,,,,,,,,,,,,,,,,,,,,,,
null,,learn_phase(without_color),740306,,black_plus_sign,,,,null,GW/cornwall.png,GW/racine.png,,,,,,,,,,,,,,,,,,,,,,,,,
null,,black_cross(without_color),741318,,yellow,,,,null,GW/cornwall.png,GW/racine.png,,,,,,,,,,,,,,,,,,,,,,,,,
null,,rt_plussign_withcolor,741821,,yellow,,,,null,GW/cornwall.png,GW/racine.png,,,,,,,,,,,,,,,,,,,,,,,,,
1713.0999999940395,,rt_thecrossant_black,742818,,black_plus_sign,,,,50,,,1,0.9855072463768116,,,,,,,,,,,,,,,,,,,,,,,
null,,color_black,742921,,black_plus_sign,,,,null,,,,,,,,,,,,,,,,,,,,,,,,,,,
null,,learn_phase(without_color),745926,,black_plus_sign,,,,null,GW/hotsprings.png,GW/gatlinburg.png,,,,,,,,,,,,,,,,,,,,,,,,,
null,,black_cross(without_color),747009,,yellow,,,,null,GW/hotsprings.png,GW/gatlinburg.png,,,,,,,,,,,,,,,,,,,,,,,,,
null,,rt_plussign_withcolor,747512,,yellow,,,,null,GW/hotsprings.png,GW/gatlinburg.png,,,,,,,,,,,,,,,,,,,,,,,,,
1496.7000000029802,,rt_thecrossant_black,748438,,black_plus_sign,,,,50,,,1,0.9857142857142858,,,,,,,,,,,,,,,,,,,,,,,
null,,color_black,748543,,black_plus_sign,,,,null,,,,,,,,,,,,,,,,,,,,,,,,,,,
null,,learn_phase(without_color),751547,,black_plus_sign,,,,null,GW/newhope.png,GW/huntsville.png,,,,,,,,,,,,,,,,,,,,,,,,,
null,,black_cross(without_color),752153,,yellow,,,,null,GW/newhope.png,GW/huntsville.png,,,,,,,,,,,,,,,,,,,,,,,,,
null,,rt_plussign_withcolor,752657,,yellow,,,,null,GW/newhope.png,GW/huntsville.png,,,,,,,,,,,,,,,,,,,,,,,,,
1465.5999999940395,,rt_thecrossant_black,754059,,black_plus_sign,,,,50,,,1,0.9859154929577465,,,,,,,,,,,,,,,,,,,,,,,
null,,color_black,754164,,black_plus_sign,,,,null,,,,,,,,,,,,,,,,,,,,,,,,,,,
null,,learn_phase(without_color),757168,,black_plus_sign,,,,null,GW/boulder.png,GW/huntsville.png,,,,,,,,,,,,,,,,,,,,,,,,,
null,,black_cross(without_color),757628,,yellow,,,,null,GW/boulder.png,GW/huntsville.png,,,,,,,,,,,,,,,,,,,,,,,,,
null,,rt_plussign_withcolor,758131,,yellow,,,,null,GW/boulder.png,GW/huntsville.png,,,,,,,,,,,,,,,,,,,,,,,,,
735.7000000029802,,rt_thecrossant_black,759681,,black_plus_sign,,,,50,,,1,0.9861111111111112,,,,,,,,,,,,,,,,,,,,,,,
null,,color_black,759785,,black_plus_sign,,,,null,,,,,,,,,,,,,,,,,,,,,,,,,,,
null,,learn_phase(without_color),762791,,black_plus_sign,,,,null,GW/newhope.png,GW/huntsville.png,,,,,,,,,,,,,,,,,,,,,,,,,
null,,black_cross(without_color),763342,,blue,,,,null,GW/newhope.png,GW/huntsville.png,,,,,,,,,,,,,,,,,,,,,,,,,
null,,rt_plussign_withcolor,763846,,blue,,,,null,GW/newhope.png,GW/huntsville.png,,,,,,,,,,,,,,,,,,,,,,,,,
792.3999999910593,,rt_thecrossant_black,765303,,black_plus_sign,,,,49,,,1,0.9863013698630136,,,,,,,,,,,,,,,,,,,,,,,
null,,color_black,765407,,black_plus_sign,,,,null,,,,,,,,,,,,,,,,,,,,,,,,,,,
null,,learn_phase(without_color),768412,,black_plus_sign,,,,null,GW/boulder.png,GW/huntsville.png,,,,,,,,,,,,,,,,,,,,,,,,,
null,,black_cross(without_color),769501,,blue,,,,null,GW/boulder.png,GW/huntsville.png,,,,,,,,,,,,,,,,,,,,,,,,,
null,,rt_plussign_withcolor,770005,,blue,,,,null,GW/boulder.png,GW/huntsville.png,,,,,,,,,,,,,,,,,,,,,,,,,
1217.7000000029802,,rt_thecrossant_black,770923,,black_plus_sign,,,,49,,,1,0.9864864864864865,,,,,,,,,,,,,,,,,,,,,,,
null,,color_black,771027,,black_plus_sign,,,,null,,,,,,,,,,,,,,,,,,,,,,,,,,,
null,,learn_phase(without_color),774032,,black_plus_sign,,,,null,GW/newhope.png,GW/peoria.png,,,,,,,,,,,,,,,,,,,,,,,,,
null,,black_cross(without_color),774564,,blue,,,,null,GW/newhope.png,GW/peoria.png,,,,,,,,,,,,,,,,,,,,,,,,,
null,,rt_plussign_withcolor,775067,,blue,,,,null,GW/newhope.png,GW/peoria.png,,,,,,,,,,,,,,,,,,,,,,,,,
2408.7000000029802,,rt_thecrossant_black,776543,,black_plus_sign,,,,49,,,1,0.9866666666666667,,,,,,,,,,,,,,,,,,,,,,,
null,,color_black,776646,,black_plus_sign,,,,null,,,,,,,,,,,,,,,,,,,,,,,,,,,
null,,learn_phase(without_color),779651,,black_plus_sign,,,,null,GW/cornwall.png,GW/racine.png,,,,,,,,,,,,,,,,,,,,,,,,,
null,,black_cross(without_color),780743,,yellow,,,,null,GW/cornwall.png,GW/racine.png,,,,,,,,,,,,,,,,,,,,,,,,,
null,,rt_plussign_withcolor,781247,,yellow,,,,null,GW/cornwall.png,GW/racine.png,,,,,,,,,,,,,,,,,,,,,,,,,
828.3000000119209,,rt_thecrossant_black,782165,,black_plus_sign,,,,50,,,1,0.9868421052631579,,,,,,,,,,,,,,,,,,,,,,,
null,,color_black,782269,,black_plus_sign,,,,null,,,,,,,,,,,,,,,,,,,,,,,,,,,
null,,learn_phase(without_color),785273,,black_plus_sign,,,,null,GW/boulder.png,GW/huntsville.png,,,,,,,,,,,,,,,,,,,,,,,,,
null,,black_cross(without_color),786225,,blue,,,,null,GW/boulder.png,GW/huntsville.png,,,,,,,,,,,,,,,,,,,,,,,,,
null,,rt_plussign_withcolor,786728,,blue,,,,null,GW/boulder.png,GW/huntsville.png,,,,,,,,,,,,,,,,,,,,,,,,,
2220.0999999940395,,rt_thecrossant_black,787786,,black_plus_sign,,,,49,,,1,0.987012987012987,,,,,,,,,,,,,,,,,,,,,,,
null,,color_black,787889,,black_plus_sign,,,,null,,,,,,,,,,,,,,,,,,,,,,,,,,,
null,,learn_phase(without_color),790894,,black_plus_sign,,,,null,GW/hotsprings.png,GW/gatlinburg.png,,,,,,,,,,,,,,,,,,,,,,,,,
null,,black_cross(without_color),791421,,yellow,,,,null,GW/hotsprings.png,GW/gatlinburg.png,,,,,,,,,,,,,,,,,,,,,,,,,
null,,rt_plussign_withcolor,791925,,yellow,,,,null,GW/hotsprings.png,GW/gatlinburg.png,,,,,,,,,,,,,,,,,,,,,,,,,
1929.2000000029802,,rt_thecrossant_black,793407,,black_plus_sign,,,,50,,,1,0.9871794871794872,,,,,,,,,,,,,,,,,,,,,,,
null,,color_black,793511,,black_plus_sign,,,,null,,,,,,,,,,,,,,,,,,,,,,,,,,,
null,,learn_phase(without_color),796516,,black_plus_sign,,,,null,GW/hotsprings.png,GW/hanover.png,,,,,,,,,,,,,,,,,,,,,,,,,
null,,black_cross(without_color),797143,,blue,,,,null,GW/hotsprings.png,GW/hanover.png,,,,,,,,,,,,,,,,,,,,,,,,,
null,,rt_plussign_withcolor,797646,,blue,,,,null,GW/hotsprings.png,GW/hanover.png,,,,,,,,,,,,,,,,,,,,,,,,,
891,,rt_thecrossant_black,799028,,black_plus_sign,,,,49,,,1,0.9873417721518988,,,,,,,,,,,,,,,,,,,,,,,
null,,color_black,799132,,black_plus_sign,,,,null,,,,,,,,,,,,,,,,,,,,,,,,,,,
null,,learn_phase(without_color),802137,,black_plus_sign,,,,null,GW/newhope.png,GW/peoria.png,,,,,,,,,,,,,,,,,,,,,,,,,
null,,black_cross(without_color),802936,,yellow,,,,null,GW/newhope.png,GW/peoria.png,,,,,,,,,,,,,,,,,,,,,,,,,
null,,rt_plussign_withcolor,803440,,yellow,,,,null,GW/newhope.png,GW/peoria.png,,,,,,,,,,,,,,,,,,,,,,,,,
1151.2999999970198,,rt_thecrossant_black,804650,,black_plus_sign,,,,50,,,1,0.9875,,,,,,,,,,,,,,,,,,,,,,,
null,,color_black,804754,,black_plus_sign,,,,null,,,,,,,,,,,,,,,,,,,,,,,,,,,
null,,learn_phase(without_color),807759,,black_plus_sign,,,,null,GW/carmel.png,GW/shreveport.png,,,,,,,,,,,,,,,,,,,,,,,,,
null,,black_cross(without_color),808482,,blue,,,,null,GW/carmel.png,GW/shreveport.png,,,,,,,,,,,,,,,,,,,,,,,,,
null,,rt_plussign_withcolor,808986,,blue,,,,null,GW/carmel.png,GW/shreveport.png,,,,,,,,,,,,,,,,,,,,,,,,,
1601.300000011921,,rt_thecrossant_black,810273,,black_plus_sign,,,,49,,,1,0.9876543209876543,,,,,,,,,,,,,,,,,,,,,,,
null,,color_black,810378,,black_plus_sign,,,,null,,,,,,,,,,,,,,,,,,,,,,,,,,,
null,,learn_phase(without_color),813383,,black_plus_sign,,,,null,GW/gatlinburg.png,GW/hotsprings.png,,,,,,,,,,,,,,,,,,,,,,,,,
null,,black_cross(without_color),813937,,blue,,,,null,GW/gatlinburg.png,GW/hotsprings.png,,,,,,,,,,,,,,,,,,,,,,,,,
null,,rt_plussign_withcolor,814441,,blue,,,,null,GW/gatlinburg.png,GW/hotsprings.png,,,,,,,,,,,,,,,,,,,,,,,,,
1246,,rt_thecrossant_black,815895,,black_plus_sign,,,,49,,,1,0.9878048780487805,,,,,,,,,,,,,,,,,,,,,,,
null,,color_black,816000,,black_plus_sign,,,,null,,,,,,,,,,,,,,,,,,,,,,,,,,,
null,,learn_phase(without_color),819005,,black_plus_sign,,,,null,GW/westpalmbeach.png,GW/hanover.png,,,,,,,,,,,,,,,,,,,,,,,,,
null,,black_cross(without_color),820096,,blue,,,,null,GW/westpalmbeach.png,GW/hanover.png,,,,,,,,,,,,,,,,,,,,,,,,,
null,,rt_plussign_withcolor,820600,,blue,,,,null,GW/westpalmbeach.png,GW/hanover.png,,,,,,,,,,,,,,,,,,,,,,,,,
917,,rt_thecrossant_black,821519,,black_plus_sign,,,,49,,,1,0.9879518072289156,,,,,,,,,,,,,,,,,,,,,,,
null,,color_black,821623,,black_plus_sign,,,,null,,,,,,,,,,,,,,,,,,,,,,,,,,,
null,,learn_phase(without_color),824628,,black_plus_sign,,,,null,GW/newhope.png,GW/huntsville.png,,,,,,,,,,,,,,,,,,,,,,,,,
null,,black_cross(without_color),825509,,yellow,,,,null,GW/newhope.png,GW/huntsville.png,,,,,,,,,,,,,,,,,,,,,,,,,
null,,rt_plussign_withcolor,826012,,yellow,,,,null,GW/newhope.png,GW/huntsville.png,,,,,,,,,,,,,,,,,,,,,,,,,
1503.7999999970198,,rt_thecrossant_black,827140,,black_plus_sign,,,,50,,,1,0.9880952380952381,,,,,,,,,,,,,,,,,,,,,,,
null,,color_black,827244,,black_plus_sign,,,,null,,,,,,,,,,,,,,,,,,,,,,,,,,,
null,,learn_phase(without_color),830250,,black_plus_sign,,,,null,GW/carmel.png,GW/hanover.png,,,,,,,,,,,,,,,,,,,,,,,,,
null,,black_cross(without_color),830922,,blue,,,,null,GW/carmel.png,GW/hanover.png,,,,,,,,,,,,,,,,,,,,,,,,,
null,,rt_plussign_withcolor,831426,,blue,,,,null,GW/carmel.png,GW/hanover.png,,,,,,,,,,,,,,,,,,,,,,,,,
1394.8999999910593,,rt_thecrossant_black,832761,,black_plus_sign,,,,49,,,1,0.9882352941176471,,,,,,,,,,,,,,,,,,,,,,,
null,,color_black,832865,,black_plus_sign,,,,null,,,,,,,,,,,,,,,,,,,,,,,,,,,
null,,learn_phase(without_color),835870,,black_plus_sign,,,,null,GW/hanover.png,GW/racine.png,,,,,,,,,,,,,,,,,,,,,,,,,
null,,black_cross(without_color),836511,,yellow,,,,null,GW/hanover.png,GW/racine.png,,,,,,,,,,,,,,,,,,,,,,,,,
null,,rt_plussign_withcolor,837015,,yellow,,,,null,GW/hanover.png,GW/racine.png,,,,,,,,,,,,,,,,,,,,,,,,,
1179.9000000059605,,rt_thecrossant_black,838384,,black_plus_sign,,,,50,,,1,0.9883720930232558,,,,,,,,,,,,,,,,,,,,,,,
null,,color_black,838489,,black_plus_sign,,,,null,,,,,,,,,,,,,,,,,,,,,,,,,,,
null,,learn_phase(without_color),841494,,black_plus_sign,,,,null,GW/racine.png,GW/leesburg.png,,,,,,,,,,,,,,,,,,,,,,,,,
null,,black_cross(without_color),842180,,blue,,,,null,GW/racine.png,GW/leesburg.png,,,,,,,,,,,,,,,,,,,,,,,,,
null,,rt_plussign_withcolor,842684,,blue,,,,null,GW/racine.png,GW/leesburg.png,,,,,,,,,,,,,,,,,,,,,,,,,
1132.7999999970198,,rt_thecrossant_black,844008,,black_plus_sign,,,,49,,,1,0.9885057471264368,,,,,,,,,,,,,,,,,,,,,,,
null,,color_black,844112,,black_plus_sign,,,,null,,,,,,,,,,,,,,,,,,,,,,,,,,,
null,,learn_phase(without_color),847118,,black_plus_sign,,,,null,GW/carmel.png,GW/hotsprings.png,,,,,,,,,,,,,,,,,,,,,,,,,
null,,black_cross(without_color),848076,,yellow,,,,null,GW/carmel.png,GW/hotsprings.png,,,,,,,,,,,,,,,,,,,,,,,,,
null,,rt_plussign_withcolor,848579,,yellow,,,,null,GW/carmel.png,GW/hotsprings.png,,,,,,,,,,,,,,,,,,,,,,,,,
null,,rt_thecrossant_black,849630,,black_plus_sign,,,,null,,,,0.9885057471264368,,,,,,,,,,,,,,,,,,,,,,,
null,,color_black,849735,,black_plus_sign,,,,null,,,,,,,,,,,,,,,,,,,,,,,,,,,
null,,learn_phase(without_color),852741,,black_plus_sign,,,,null,GW/carmel.png,GW/hanover.png,,,,,,,,,,,,,,,,,,,,,,,,,
null,,black_cross(without_color),853366,,blue,,,,null,GW/carmel.png,GW/hanover.png,,,,,,,,,,,,,,,,,,,,,,,,,
null,,rt_plussign_withcolor,853868,,blue,,,,null,GW/carmel.png,GW/hanover.png,,,,,,,,,,,,,,,,,,,,,,,,,
1544.2999999970198,,rt_thecrossant_black,855251,,black_plus_sign,,,,49,,,1,0.9886363636363636,,,,,,,,,,,,,,,,,,,,,,,
null,,color_black,855355,,black_plus_sign,,,,null,,,,,,,,,,,,,,,,,,,,,,,,,,,
null,,learn_phase(without_color),858361,,black_plus_sign,,,,null,GW/newhope.png,GW/peoria.png,,,,,,,,,,,,,,,,,,,,,,,,,
null,,black_cross(without_color),858874,,blue,,,,null,GW/newhope.png,GW/peoria.png,,,,,,,,,,,,,,,,,,,,,,,,,
null,,rt_plussign_withcolor,859378,,blue,,,,null,GW/newhope.png,GW/peoria.png,,,,,,,,,,,,,,,,,,,,,,,,,
1011.6000000089407,,rt_thecrossant_black,860873,,black_plus_sign,,,,49,,,1,0.9887640449438202,,,,,,,,,,,,,,,,,,,,,,,
null,,color_black,860978,,black_plus_sign,,,,null,,,,,,,,,,,,,,,,,,,,,,,,,,,
null,,learn_phase(without_color),863983,,black_plus_sign,,,,null,GW/carmel.png,GW/shreveport.png,,,,,,,,,,,,,,,,,,,,,,,,,
null,,black_cross(without_color),864674,,blue,,,,null,GW/carmel.png,GW/shreveport.png,,,,,,,,,,,,,,,,,,,,,,,,,
null,,rt_plussign_withcolor,865177,,blue,,,,null,GW/carmel.png,GW/shreveport.png,,,,,,,,,,,,,,,,,,,,,,,,,
924.7000000029802,,rt_thecrossant_black,866496,,black_plus_sign,,,,49,,,1,0.9888888888888889,,,,,,,,,,,,,,,,,,,,,,,
null,,color_black,866601,,black_plus_sign,,,,null,,,,,,,,,,,,,,,,,,,,,,,,,,,
null,,learn_phase(without_color),869605,,black_plus_sign,,,,null,GW/huntsville.png,GW/leesburg.png,,,,,,,,,,,,,,,,,,,,,,,,,
null,,black_cross(without_color),870545,,blue,,,,null,GW/huntsville.png,GW/leesburg.png,,,,,,,,,,,,,,,,,,,,,,,,,
null,,rt_plussign_withcolor,871049,,blue,,,,null,GW/huntsville.png,GW/leesburg.png,,,,,,,,,,,,,,,,,,,,,,,,,
1073.3999999910593,,rt_thecrossant_black,872117,,black_plus_sign,,,,49,,,1,0.989010989010989,,,,,,,,,,,,,,,,,,,,,,,
null,,color_black,872220,,black_plus_sign,,,,null,,,,,,,,,,,,,,,,,,,,,,,,,,,
null,,learn_phase(without_color),875226,,black_plus_sign,,,,null,GW/racine.png,GW/hanover.png,,,,,,,,,,,,,,,,,,,,,,,,,
null,,black_cross(without_color),875723,,blue,,,,null,GW/racine.png,GW/hanover.png,,,,,,,,,,,,,,,,,,,,,,,,,
null,,rt_plussign_withcolor,876227,,blue,,,,null,GW/racine.png,GW/hanover.png,,,,,,,,,,,,,,,,,,,,,,,,,
1568.699999988079,,rt_thecrossant_black,877739,,black_plus_sign,,,,49,,,1,0.9891304347826086,,,,,,,,,,,,,,,,,,,,,,,
null,,color_black,877844,,black_plus_sign,,,,null,,,,,,,,,,,,,,,,,,,,,,,,,,,
null,,learn_phase(without_color),880849,,black_plus_sign,,,,null,GW/hanover.png,GW/racine.png,,,,,,,,,,,,,,,,,,,,,,,,,
null,,black_cross(without_color),881770,,blue,,,,null,GW/hanover.png,GW/racine.png,,,,,,,,,,,,,,,,,,,,,,,,,
null,,rt_plussign_withcolor,882273,,blue,,,,null,GW/hanover.png,GW/racine.png,,,,,,,,,,,,,,,,,,,,,,,,,
699.2999999970198,,rt_thecrossant_black,883360,,black_plus_sign,,,,49,,,1,0.989247311827957,,,,,,,,,,,,,,,,,,,,,,,
null,,color_black,883462,,black_plus_sign,,,,null,,,,,,,,,,,,,,,,,,,,,,,,,,,
null,,learn_phase(without_color),886466,,black_plus_sign,,,,null,GW/huntsville.png,GW/boulder.png,,,,,,,,,,,,,,,,,,,,,,,,,
null,,black_cross(without_color),887183,,yellow,,,,null,GW/huntsville.png,GW/boulder.png,,,,,,,,,,,,,,,,,,,,,,,,,
null,,rt_plussign_withcolor,887686,,yellow,,,,null,GW/huntsville.png,GW/boulder.png,,,,,,,,,,,,,,,,,,,,,,,,,
1275.7000000029802,,rt_thecrossant_black,888978,,black_plus_sign,,,,50,,,1,0.9893617021276596,,,,,,,,,,,,,,,,,,,,,,,
null,,color_black,889081,,black_plus_sign,,,,null,,,,,,,,,,,,,,,,,,,,,,,,,,,
null,,learn_phase(without_color),892086,,black_plus_sign,,,,null,GW/peoria.png,GW/newhope.png,,,,,,,,,,,,,,,,,,,,,,,,,
null,,black_cross(without_color),892583,,blue,,,,null,GW/peoria.png,GW/newhope.png,,,,,,,,,,,,,,,,,,,,,,,,,
null,,rt_plussign_withcolor,893086,,blue,,,,null,GW/peoria.png,GW/newhope.png,,,,,,,,,,,,,,,,,,,,,,,,,
1191.2000000029802,,rt_thecrossant_black,894597,,black_plus_sign,,,,49,,,1,0.9894736842105263,,,,,,,,,,,,,,,,,,,,,,,
null,,color_black,894701,,black_plus_sign,,,,null,,,,,,,,,,,,,,,,,,,,,,,,,,,
null,,learn_phase(without_color),897707,,black_plus_sign,,,,null,GW/racine.png,GW/cornwall.png,,,,,,,,,,,,,,,,,,,,,,,,,
null,,black_cross(without_color),898532,,yellow,,,,null,GW/racine.png,GW/cornwall.png,,,,,,,,,,,,,,,,,,,,,,,,,
null,,rt_plussign_withcolor,899035,,yellow,,,,null,GW/racine.png,GW/cornwall.png,,,,,,,,,,,,,,,,,,,,,,,,,
1319.5,,rt_thecrossant_black,900219,,black_plus_sign,,,,50,,,1,0.9895833333333334,,,,,,,,,,,,,,,,,,,,,,,
null,,color_black,900324,,black_plus_sign,,,,null,,,,,,,,,,,,,,,,,,,,,,,,,,,
null,,learn_phase(without_color),903329,,black_plus_sign,,,,null,GW/cornwall.png,GW/racine.png,,,,,,,,,,,,,,,,,,,,,,,,,
null,,black_cross(without_color),904410,,blue,,,,null,GW/cornwall.png,GW/racine.png,,,,,,,,,,,,,,,,,,,,,,,,,
null,,rt_plussign_withcolor,904914,,blue,,,,null,GW/cornwall.png,GW/racine.png,,,,,,,,,,,,,,,,,,,,,,,,,
1335.4000000059605,,rt_thecrossant_black,905841,,black_plus_sign,,,,49,,,1,0.9896907216494846,,,,,,,,,,,,,,,,,,,,,,,
null,,color_black,905945,,black_plus_sign,,,,null,,,,,,,,,,,,,,,,,,,,,,,,,,,
null,,learn_phase(without_color),908950,,black_plus_sign,,,,null,GW/racine.png,GW/hanover.png,,,,,,,,,,,,,,,,,,,,,,,,,
null,,black_cross(without_color),909493,,blue,,,,null,GW/racine.png,GW/hanover.png,,,,,,,,,,,,,,,,,,,,,,,,,
null,,rt_plussign_withcolor,909997,,blue,,,,null,GW/racine.png,GW/hanover.png,,,,,,,,,,,,,,,,,,,,,,,,,
2434.4000000059605,,rt_thecrossant_black,911461,,black_plus_sign,,,,49,,,1,0.9897959183673469,,,,,,,,,,,,,,,,,,,,,,,
null,,color_black,911566,,black_plus_sign,,,,null,,,,,,,,,,,,,,,,,,,,,,,,,,,
null,,learn_phase(without_color),914571,,black_plus_sign,,,,null,GW/westpalmbeach.png,GW/carmel.png,,,,,,,,,,,,,,,,,,,,,,,,,
null,,black_cross(without_color),915102,,blue,,,,null,GW/westpalmbeach.png,GW/carmel.png,,,,,,,,,,,,,,,,,,,,,,,,,
null,,rt_plussign_withcolor,915606,,blue,,,,null,GW/westpalmbeach.png,GW/carmel.png,,,,,,,,,,,,,,,,,,,,,,,,,
978.2999999970198,,rt_thecrossant_black,917084,,black_plus_sign,,,,49,,,1,0.98989898989899,,,,,,,,,,,,,,,,,,,,,,,
null,,color_black,917188,,black_plus_sign,,,,null,,,,,,,,,,,,,,,,,,,,,,,,,,,
null,,learn_phase(without_color),920193,,black_plus_sign,,,,null,GW/leesburg.png,GW/huntsville.png,,,,,,,,,,,,,,,,,,,,,,,,,
null,,black_cross(without_color),920678,,blue,,,,null,GW/leesburg.png,GW/huntsville.png,,,,,,,,,,,,,,,,,,,,,,,,,
null,,rt_plussign_withcolor,921182,,blue,,,,null,GW/leesburg.png,GW/huntsville.png,,,,,,,,,,,,,,,,,,,,,,,,,
1128.2999999970198,,rt_thecrossant_black,922705,,black_plus_sign,,,,49,,,1,0.99,,,,,,,,,,,,,,,,,,,,,,,
null,,color_black,922809,,black_plus_sign,,,,null,,,,,,,,,,,,,,,,,,,,,,,,,,,
null,,learn_phase(without_color),925814,,black_plus_sign,,,,null,GW/carmel.png,GW/shreveport.png,,,,,,,,,,,,,,,,,,,,,,,,,
null,,black_cross(without_color),926880,,yellow,,,,null,GW/carmel.png,GW/shreveport.png,,,,,,,,,,,,,,,,,,,,,,,,,
null,,rt_plussign_withcolor,927384,,yellow,,,,null,GW/carmel.png,GW/shreveport.png,,,,,,,,,,,,,,,,,,,,,,,,,
882.6000000089407,,rt_thecrossant_black,928327,,black_plus_sign,,,,50,,,1,0.9900990099009901,,,,,,,,,,,,,,,,,,,,,,,
null,,color_black,928432,,black_plus_sign,,,,null,,,,,,,,,,,,,,,,,,,,,,,,,,,
null,,learn_phase(without_color),931436,,black_plus_sign,,,,null,GW/westpalmbeach.png,GW/hanover.png,,,,,,,,,,,,,,,,,,,,,,,,,
null,,black_cross(without_color),932164,,blue,,,,null,GW/westpalmbeach.png,GW/hanover.png,,,,,,,,,,,,,,,,,,,,,,,,,
null,,rt_plussign_withcolor,932668,,blue,,,,null,GW/westpalmbeach.png,GW/hanover.png,,,,,,,,,,,,,,,,,,,,,,,,,
1557.8999999910593,,rt_thecrossant_black,933949,,black_plus_sign,,,,50,,,0,0.9803921568627451,,,,,,,,,,,,,,,,,,,,,,,
null,,color_black,934053,,black_plus_sign,,,,null,,,,,,,,,,,,,,,,,,,,,,,,,,,
null,,learn_phase(without_color),937058,,black_plus_sign,,,,null,GW/leesburg.png,GW/racine.png,,,,,,,,,,,,,,,,,,,,,,,,,
null,,black_cross(without_color),937626,,blue,,,,null,GW/leesburg.png,GW/racine.png,,,,,,,,,,,,,,,,,,,,,,,,,
null,,rt_plussign_withcolor,938130,,blue,,,,null,GW/leesburg.png,GW/racine.png,,,,,,,,,,,,,,,,,,,,,,,,,
1989.2000000029802,,rt_thecrossant_black,939571,,black_plus_sign,,,,49,,,1,0.9805825242718447,,,,,,,,,,,,,,,,,,,,,,,
null,,color_black,939676,,black_plus_sign,,,,null,,,,,,,,,,,,,,,,,,,,,,,,,,,
null,,learn_phase(without_color),942682,,black_plus_sign,,,,null,GW/gatlinburg.png,GW/hotsprings.png,,,,,,,,,,,,,,,,,,,,,,,,,
null,,black_cross(without_color),943743,,yellow,,,,null,GW/gatlinburg.png,GW/hotsprings.png,,,,,,,,,,,,,,,,,,,,,,,,,
null,,rt_plussign_withcolor,944247,,yellow,,,,null,GW/gatlinburg.png,GW/hotsprings.png,,,,,,,,,,,,,,,,,,,,,,,,,
1346.5999999940395,,rt_thecrossant_black,945195,,black_plus_sign,,,,50,,,1,0.9807692307692307,,,,,,,,,,,,,,,,,,,,,,,
null,,color_black,945299,,black_plus_sign,,,,null,,,,,,,,,,,,,,,,,,,,,,,,,,,
null,,learn_phase(without_color),948304,,black_plus_sign,,,,null,GW/racine.png,GW/leesburg.png,,,,,,,,,,,,,,,,,,,,,,,,,
null,,black_cross(without_color),948960,,blue,,,,null,GW/racine.png,GW/leesburg.png,,,,,,,,,,,,,,,,,,,,,,,,,
null,,rt_plussign_withcolor,949464,,blue,,,,null,GW/racine.png,GW/leesburg.png,,,,,,,,,,,,,,,,,,,,,,,,,
2159.0999999940395,,rt_thecrossant_black,950817,,black_plus_sign,,,,49,,,1,0.9809523809523809,,,,,,,,,,,,,,,,,,,,,,,
null,,color_black,950921,,black_plus_sign,,,,null,,,,,,,,,,,,,,,,,,,,,,,,,,,
null,,learn_phase(without_color),953926,,black_plus_sign,,,,null,GW/carmel.png,GW/westpalmbeach.png,,,,,,,,,,,,,,,,,,,,,,,,,
null,,black_cross(without_color),954794,,yellow,,,,null,GW/carmel.png,GW/westpalmbeach.png,,,,,,,,,,,,,,,,,,,,,,,,,
null,,rt_plussign_withcolor,955298,,yellow,,,,null,GW/carmel.png,GW/westpalmbeach.png,,,,,,,,,,,,,,,,,,,,,,,,,
1213.300000011921,,rt_thecrossant_black,956439,,black_plus_sign,,,,50,,,1,0.9811320754716981,,,,,,,,,,,,,,,,,,,,,,,
null,,color_black,956543,,black_plus_sign,,,,null,,,,,,,,,,,,,,,,,,,,,,,,,,,
null,,learn_phase(without_color),959548,,black_plus_sign,,,,null,GW/carmel.png,GW/westpalmbeach.png,,,,,,,,,,,,,,,,,,,,,,,,,
null,,black_cross(without_color),960101,,yellow,,,,null,GW/carmel.png,GW/westpalmbeach.png,,,,,,,,,,,,,,,,,,,,,,,,,
null,,rt_plussign_withcolor,960604,,yellow,,,,null,GW/carmel.png,GW/westpalmbeach.png,,,,,,,,,,,,,,,,,,,,,,,,,
1623.7000000029802,,rt_thecrossant_black,962062,,black_plus_sign,,,,50,,,1,0.9813084112149533,,,,,,,,,,,,,,,,,,,,,,,
null,,color_black,962165,,black_plus_sign,,,,null,,,,,,,,,,,,,,,,,,,,,,,,,,,
null,,learn_phase(without_color),965171,,black_plus_sign,,,,null,GW/hanover.png,GW/racine.png,,,,,,,,,,,,,,,,,,,,,,,,,
null,,black_cross(without_color),965958,,yellow,,,,null,GW/hanover.png,GW/racine.png,,,,,,,,,,,,,,,,,,,,,,,,,
null,,rt_plussign_withcolor,966462,,yellow,,,,null,GW/hanover.png,GW/racine.png,,,,,,,,,,,,,,,,,,,,,,,,,
1271.6000000089407,,rt_thecrossant_black,967685,,black_plus_sign,,,,50,,,1,0.9814814814814815,,,,,,,,,,,,,,,,,,,,,,,
null,,color_black,967788,,black_plus_sign,,,,null,,,,,,,,,,,,,,,,,,,,,,,,,,,
null,,learn_phase(without_color),970794,,black_plus_sign,,,,null,GW/cornwall.png,GW/westpalmbeach.png,,,,,,,,,,,,,,,,,,,,,,,,,
null,,black_cross(without_color),971634,,blue,,,,null,GW/cornwall.png,GW/westpalmbeach.png,,,,,,,,,,,,,,,,,,,,,,,,,
null,,rt_plussign_withcolor,972138,,blue,,,,null,GW/cornwall.png,GW/westpalmbeach.png,,,,,,,,,,,,,,,,,,,,,,,,,
1098.300000011921,,rt_thecrossant_black,973306,,black_plus_sign,,,,49,,,1,0.981651376146789,,,,,,,,,,,,,,,,,,,,,,,
null,,color_black,973411,,black_plus_sign,,,,null,,,,,,,,,,,,,,,,,,,,,,,,,,,
null,,learn_phase(without_color),976417,,black_plus_sign,,,,null,GW/carmel.png,GW/hotsprings.png,,,,,,,,,,,,,,,,,,,,,,,,,
null,,black_cross(without_color),977375,,blue,,,,null,GW/carmel.png,GW/hotsprings.png,,,,,,,,,,,,,,,,,,,,,,,,,
null,,rt_plussign_withcolor,977879,,blue,,,,null,GW/carmel.png,GW/hotsprings.png,,,,,,,,,,,,,,,,,,,,,,,,,
1196.6000000089407,,rt_thecrossant_black,978929,,black_plus_sign,,,,49,,,1,0.9818181818181818,,,,,,,,,,,,,,,,,,,,,,,
null,,color_black,979033,,black_plus_sign,,,,null,,,,,,,,,,,,,,,,,,,,,,,,,,,
null,,learn_phase(without_color),982038,,black_plus_sign,,,,null,GW/hanover.png,GW/carmel.png,,,,,,,,,,,,,,,,,,,,,,,,,
null,,black_cross(without_color),982687,,yellow,,,,null,GW/hanover.png,GW/carmel.png,,,,,,,,,,,,,,,,,,,,,,,,,
null,,rt_plussign_withcolor,983191,,yellow,,,,null,GW/hanover.png,GW/carmel.png,,,,,,,,,,,,,,,,,,,,,,,,,
1398.4000000059605,,rt_thecrossant_black,984550,,black_plus_sign,,,,50,,,1,0.9819819819819819,,,,,,,,,,,,,,,,,,,,,,,
null,,color_black,984654,,black_plus_sign,,,,null,,,,,,,,,,,,,,,,,,,,,,,,,,,
null,,learn_phase(without_color),987660,,black_plus_sign,,,,null,GW/hanover.png,GW/westpalmbeach.png,,,,,,,,,,,,,,,,,,,,,,,,,
null,,black_cross(without_color),988671,,blue,,,,null,GW/hanover.png,GW/westpalmbeach.png,,,,,,,,,,,,,,,,,,,,,,,,,
null,,rt_plussign_withcolor,989174,,blue,,,,null,GW/hanover.png,GW/westpalmbeach.png,,,,,,,,,,,,,,,,,,,,,,,,,
1148.7999999970198,,rt_thecrossant_black,990171,,black_plus_sign,,,,49,,,1,0.9821428571428571,,,,,,,,,,,,,,,,,,,,,,,
null,,color_black,990276,,black_plus_sign,,,,null,,,,,,,,,,,,,,,,,,,,,,,,,,,
null,,learn_phase(without_color),993281,,black_plus_sign,,,,null,GW/hotsprings.png,GW/carmel.png,,,,,,,,,,,,,,,,,,,,,,,,,
null,,black_cross(without_color),994272,,blue,,,,null,GW/hotsprings.png,GW/carmel.png,,,,,,,,,,,,,,,,,,,,,,,,,
null,,rt_plussign_withcolor,994776,,blue,,,,null,GW/hotsprings.png,GW/carmel.png,,,,,,,,,,,,,,,,,,,,,,,,,
1549.1000000089407,,rt_thecrossant_black,995794,,black_plus_sign,,,,49,,,1,0.9823008849557522,,,,,,,,,,,,,,,,,,,,,,,
null,,color_black,995899,,black_plus_sign,,,,null,,,,,,,,,,,,,,,,,,,,,,,,,,,
null,,learn_phase(without_color),998904,,black_plus_sign,,,,null,GW/newhope.png,GW/cornwall.png,,,,,,,,,,,,,,,,,,,,,,,,,
null,,black_cross(without_color),999413,,yellow,,,,null,GW/newhope.png,GW/cornwall.png,,,,,,,,,,,,,,,,,,,,,,,,,
null,,rt_plussign_withcolor,999916,,yellow,,,,null,GW/newhope.png,GW/cornwall.png,,,,,,,,,,,,,,,,,,,,,,,,,
1552.9000000059605,,rt_thecrossant_black,1001416,,black_plus_sign,,,,50,,,1,0.9824561403508771,,,,,,,,,,,,,,,,,,,,,,,
null,,color_black,1001520,,black_plus_sign,,,,null,,,,,,,,,,,,,,,,,,,,,,,,,,,
null,,learn_phase(without_color),1004526,,black_plus_sign,,,,null,GW/leesburg.png,GW/racine.png,,,,,,,,,,,,,,,,,,,,,,,,,
null,,black_cross(without_color),1004976,,blue,,,,null,GW/leesburg.png,GW/racine.png,,,,,,,,,,,,,,,,,,,,,,,,,
null,,rt_plussign_withcolor,1005480,,blue,,,,null,GW/leesburg.png,GW/racine.png,,,,,,,,,,,,,,,,,,,,,,,,,
1223.6000000089407,,rt_thecrossant_black,1007039,,black_plus_sign,,,,49,,,1,0.9826086956521739,,,,,,,,,,,,,,,,,,,,,,,
null,,color_black,1007144,,black_plus_sign,,,,null,,,,,,,,,,,,,,,,,,,,,,,,,,,
null,,learn_phase(without_color),1010150,,black_plus_sign,,,,null,GW/cornwall.png,GW/westpalmbeach.png,,,,,,,,,,,,,,,,,,,,,,,,,
null,,black_cross(without_color),1010693,,blue,,,,null,GW/cornwall.png,GW/westpalmbeach.png,,,,,,,,,,,,,,,,,,,,,,,,,
null,,rt_plussign_withcolor,1011196,,blue,,,,null,GW/cornwall.png,GW/westpalmbeach.png,,,,,,,,,,,,,,,,,,,,,,,,,
952.8999999910593,,rt_thecrossant_black,1012663,,black_plus_sign,,,,49,,,1,0.9827586206896551,,,,,,,,,,,,,,,,,,,,,,,
null,,color_black,1012767,,black_plus_sign,,,,null,,,,,,,,,,,,,,,,,,,,,,,,,,,
null,,learn_phase(without_color),1015774,,black_plus_sign,,,,null,GW/westpalmbeach.png,GW/hanover.png,,,,,,,,,,,,,,,,,,,,,,,,,
null,,black_cross(without_color),1016393,,blue,,,,null,GW/westpalmbeach.png,GW/hanover.png,,,,,,,,,,,,,,,,,,,,,,,,,
null,,rt_plussign_withcolor,1016897,,blue,,,,null,GW/westpalmbeach.png,GW/hanover.png,,,,,,,,,,,,,,,,,,,,,,,,,
1120.0999999940395,,rt_thecrossant_black,1018287,,black_plus_sign,,,,49,,,1,0.9829059829059829,,,,,,,,,,,,,,,,,,,,,,,
null,,color_black,1018392,,black_plus_sign,,,,null,,,,,,,,,,,,,,,,,,,,,,,,,,,
null,,learn_phase(without_color),1021398,,black_plus_sign,,,,null,GW/newhope.png,GW/cornwall.png,,,,,,,,,,,,,,,,,,,,,,,,,
null,,black_cross(without_color),1021852,,yellow,,,,null,GW/newhope.png,GW/cornwall.png,,,,,,,,,,,,,,,,,,,,,,,,,
null,,rt_plussign_withcolor,1022356,,yellow,,,,null,GW/newhope.png,GW/cornwall.png,,,,,,,,,,,,,,,,,,,,,,,,,
1897.5,,rt_thecrossant_black,1023911,,black_plus_sign,,,,50,,,1,0.9830508474576272,,,,,,,,,,,,,,,,,,,,,,,
null,,color_black,1024015,,black_plus_sign,,,,null,,,,,,,,,,,,,,,,,,,,,,,,,,,
null,,learn_phase(without_color),1027019,,black_plus_sign,,,,null,GW/cornwall.png,GW/newhope.png,,,,,,,,,,,,,,,,,,,,,,,,,
null,,black_cross(without_color),1027810,,yellow,,,,null,GW/cornwall.png,GW/newhope.png,,,,,,,,,,,,,,,,,,,,,,,,,
null,,rt_plussign_withcolor,1028314,,yellow,,,,null,GW/cornwall.png,GW/newhope.png,,,,,,,,,,,,,,,,,,,,,,,,,
709.6999999880791,,rt_thecrossant_black,1029532,,black_plus_sign,,,,50,,,1,0.9831932773109243,,,,,,,,,,,,,,,,,,,,,,,
null,,color_black,1029637,,black_plus_sign,,,,null,,,,,,,,,,,,,,,,,,,,,,,,,,,
null,,learn_phase(without_color),1032642,,black_plus_sign,,,,null,GW/newhope.png,GW/huntsville.png,,,,,,,,,,,,,,,,,,,,,,,,,
null,,black_cross(without_color),1033388,,yellow,,,,null,GW/newhope.png,GW/huntsville.png,,,,,,,,,,,,,,,,,,,,,,,,,
null,,rt_plussign_withcolor,1033892,,yellow,,,,null,GW/newhope.png,GW/huntsville.png,,,,,,,,,,,,,,,,,,,,,,,,,
1160.5,,rt_thecrossant_black,1035155,,black_plus_sign,,,,50,,,1,0.9833333333333333,,,,,,,,,,,,,,,,,,,,,,,
null,,color_black,1035259,,black_plus_sign,,,,null,,,,,,,,,,,,,,,,,,,,,,,,,,,
null,,learn_phase(without_color),1038265,,black_plus_sign,,,,null,GW/carmel.png,GW/hotsprings.png,,,,,,,,,,,,,,,,,,,,,,,,,
null,,black_cross(without_color),1039276,,blue,,,,null,GW/carmel.png,GW/hotsprings.png,,,,,,,,,,,,,,,,,,,,,,,,,
null,,rt_plussign_withcolor,1039779,,blue,,,,null,GW/carmel.png,GW/hotsprings.png,,,,,,,,,,,,,,,,,,,,,,,,,
1678.7000000029802,,rt_thecrossant_black,1040778,,black_plus_sign,,,,49,,,1,0.9834710743801653,,,,,,,,,,,,,,,,,,,,,,,
null,,color_black,1040883,,black_plus_sign,,,,null,,,,,,,,,,,,,,,,,,,,,,,,,,,
null,,learn_break,1100888,,learn_break,,,,null,,,,,,,,,,,,,,,,,,,,,,,,,,,
30726.10000000894,,intro_1,1131619,,instruct,,0,Start,,,,,,,,,,,,,,,,,,,,,,,,,,,,
4085.4000000059605,,directmemory_phase,1135708,,GW/westpalmbeach.png,,,,49,,,1,1,GW/hanover.png,GW/leesburg.png,GW/racine.png,GW/hanover.png,GW/racine.png,GW/leesburg.png,1,,,,,,,,,,,,,,,,
null,,html-keyboard-response,1136711,,<p></p>,,,,null,,,,,,,,,,,,,,,,,,,,,,,,,,,
3082.3999999910593,,directmemory_phase,1139797,,GW/newhope.png,,,,51,,,1,1,GW/shreveport.png,GW/racine.png,GW/cornwall.png,GW/cornwall.png,GW/racine.png,GW/shreveport.png,1,,,,,,,,,,,,,,,,
null,,html-keyboard-response,1140802,,<p></p>,,,,null,,,,,,,,,,,,,,,,,,,,,,,,,,,
2765.5,,directmemory_phase,1143571,,GW/hanover.png,,,,51,,,1,1,GW/newhope.png,GW/gatlinburg.png,GW/carmel.png,GW/carmel.png,GW/gatlinburg.png,GW/newhope.png,1,,,,,,,,,,,,,,,,
null,,html-keyboard-response,1144575,,<p></p>,,,,null,,,,,,,,,,,,,,,,,,,,,,,,,,,
2812.6000000089407,,directmemory_phase,1147391,,GW/racine.png,,,,51,,,1,1,GW/boulder.png,GW/newhope.png,GW/leesburg.png,GW/leesburg.png,GW/newhope.png,GW/boulder.png,1,,,,,,,,,,,,,,,,
null,,html-keyboard-response,1148395,,<p></p>,,,,null,,,,,,,,,,,,,,,,,,,,,,,,,,,
2379.9000000059605,,directmemory_phase,1150779,,GW/huntsville.png,,,,49,,,1,1,GW/newhope.png,GW/westpalmbeach.png,GW/cornwall.png,GW/newhope.png,GW/cornwall.png,GW/westpalmbeach.png,1,,,,,,,,,,,,,,,,
null,,html-keyboard-response,1151783,,<p></p>,,,,null,,,,,,,,,,,,,,,,,,,,,,,,,,,
2116,,directmemory_phase,1153902,,GW/gatlinburg.png,,,,50,,,1,1,GW/hanover.png,GW/hotsprings.png,GW/cornwall.png,GW/hotsprings.png,GW/hanover.png,GW/cornwall.png,1,,,,,,,,,,,,,,,,
null,,html-keyboard-response,1154906,,<p></p>,,,,null,,,,,,,,,,,,,,,,,,,,,,,,,,,
3318.5999999940395,,directmemory_phase,1158228,,GW/leesburg.png,,,,50,,,1,1,GW/newhope.png,GW/huntsville.png,GW/gatlinburg.png,GW/huntsville.png,GW/newhope.png,GW/gatlinburg.png,1,,,,,,,,,,,,,,,,
null,,html-keyboard-response,1159232,,<p></p>,,,,null,,,,,,,,,,,,,,,,,,,,,,,,,,,
3904.2999999970198,,directmemory_phase,1163140,,GW/westpalmbeach.png,,,,51,,,0,0.875,GW/cornwall.png,GW/boulder.png,GW/shreveport.png,GW/cornwall.png,GW/shreveport.png,GW/boulder.png,0.5,closer,,,,,,,,,,,,,,,
null,,html-keyboard-response,1164144,,<p></p>,,,,null,,,,,,,,,,,,,,,,,,,,,,,,,,,
2818,,directmemory_phase,1166966,,GW/hanover.png,,,,50,,,1,0.8888888888888888,GW/gatlinburg.png,GW/hotsprings.png,GW/boulder.png,GW/hotsprings.png,GW/gatlinburg.png,GW/boulder.png,1,,,,,,,,,,,,,,,,
null,,html-keyboard-response,1167970,,<p></p>,,,,null,,,,,,,,,,,,,,,,,,,,,,,,,,,
4137.70000000298,,directmemory_phase,1172112,,GW/cornwall.png,,,,51,,,1,0.9,GW/boulder.png,GW/leesburg.png,GW/newhope.png,GW/newhope.png,GW/leesburg.png,GW/boulder.png,1,,,,,,,,,,,,,,,,
null,,html-keyboard-response,1173116,,<p></p>,,,,null,,,,,,,,,,,,,,,,,,,,,,,,,,,
3418.7999999970198,,directmemory_phase,1176539,,GW/westpalmbeach.png,,,,51,,,1,0.9090909090909091,GW/leesburg.png,GW/hotsprings.png,GW/carmel.png,GW/carmel.png,GW/hotsprings.png,GW/leesburg.png,1,,,,,,,,,,,,,,,,
null,,html-keyboard-response,1177543,,<p></p>,,,,null,,,,,,,,,,,,,,,,,,,,,,,,,,,
3691.2999999970198,,directmemory_phase,1181238,,GW/hotsprings.png,,,,49,,,1,0.9166666666666666,GW/gatlinburg.png,GW/cornwall.png,GW/shreveport.png,GW/gatlinburg.png,GW/shreveport.png,GW/cornwall.png,1,,,,,,,,,,,,,,,,
null,,html-keyboard-response,1182242,,<p></p>,,,,null,,,,,,,,,,,,,,,,,,,,,,,,,,,
2253.4000000059605,,directmemory_phase,1184500,,GW/newhope.png,,,,49,,,1,0.9230769230769231,GW/peoria.png,GW/carmel.png,GW/racine.png,GW/peoria.png,GW/racine.png,GW/carmel.png,1,,,,,,,,,,,,,,,,
null,,html-keyboard-response,1185503,,<p></p>,,,,null,,,,,,,,,,,,,,,,,,,,,,,,,,,
2748.7000000029802,,directmemory_phase,1188256,,GW/hotsprings.png,,,,51,,,1,0.9285714285714286,GW/huntsville.png,GW/shreveport.png,GW/carmel.png,GW/carmel.png,GW/shreveport.png,GW/huntsville.png,1,,,,,,,,,,,,,,,,
null,,html-keyboard-response,1189260,,<p></p>,,,,null,,,,,,,,,,,,,,,,,,,,,,,,,,,
3223,,directmemory_phase,1192487,,GW/hanover.png,,,,51,,,1,0.9333333333333333,GW/boulder.png,GW/gatlinburg.png,GW/westpalmbeach.png,GW/westpalmbeach.png,GW/gatlinburg.png,GW/boulder.png,1,,,,,,,,,,,,,,,,
null,,html-keyboard-response,1193491,,<p></p>,,,,null,,,,,,,,,,,,,,,,,,,,,,,,,,,
4275.70000000298,,directmemory_phase,1197771,,GW/cornwall.png,,,,51,,,1,0.9375,GW/gatlinburg.png,GW/carmel.png,GW/racine.png,GW/racine.png,GW/carmel.png,GW/gatlinburg.png,1,,,,,,,,,,,,,,,,
null,,html-keyboard-response,1198775,,<p></p>,,,,null,,,,,,,,,,,,,,,,,,,,,,,,,,,
3989.4000000059605,,directmemory_phase,1202768,,GW/carmel.png,,,,51,,,1,0.9411764705882353,GW/peoria.png,GW/cornwall.png,GW/hotsprings.png,GW/hotsprings.png,GW/cornwall.png,GW/peoria.png,1,,,,,,,,,,,,,,,,
null,,html-keyboard-response,1203772,,<p></p>,,,,null,,,,,,,,,,,,,,,,,,,,,,,,,,,
4758.20000000298,,directmemory_phase,1208534,,GW/cornwall.png,,,,49,,,1,0.9444444444444444,GW/westpalmbeach.png,GW/boulder.png,GW/leesburg.png,GW/westpalmbeach.png,GW/leesburg.png,GW/boulder.png,1,,,,,,,,,,,,,,,,
null,,html-keyboard-response,1209538,,<p></p>,,,,null,,,,,,,,,,,,,,,,,,,,,,,,,,,
2448.0999999940395,,directmemory_phase,1211990,,GW/newhope.png,,,,51,,,1,0.9473684210526315,GW/carmel.png,GW/leesburg.png,GW/huntsville.png,GW/huntsville.png,GW/leesburg.png,GW/carmel.png,1,,,,,,,,,,,,,,,,
null,,html-keyboard-response,1212994,,<p></p>,,,,null,,,,,,,,,,,,,,,,,,,,,,,,,,,
3758.5999999940395,,directmemory_phase,1216756,,GW/racine.png,,,,51,,,0,0.9,GW/cornwall.png,GW/peoria.png,GW/carmel.png,GW/cornwall.png,GW/carmel.png,GW/peoria.png,0.5,closer,,,,,,,,,,,,,,,
null,,html-keyboard-response,1217760,,<p></p>,,,,null,,,,,,,,,,,,,,,,,,,,,,,,,,,
4068,,directmemory_phase,1221831,,GW/huntsville.png,,,,49,,,1,0.9047619047619048,GW/leesburg.png,GW/hotsprings.png,GW/cornwall.png,GW/leesburg.png,GW/cornwall.png,GW/hotsprings.png,1,,,,,,,,,,,,,,,,
null,,html-keyboard-response,1222833,,<p></p>,,,,null,,,,,,,,,,,,,,,,,,,,,,,,,,,
4177.20000000298,,directmemory_phase,1227014,,GW/carmel.png,,,,49,,,1,0.9090909090909091,GW/hanover.png,GW/newhope.png,GW/racine.png,GW/hanover.png,GW/racine.png,GW/newhope.png,1,,,,,,,,,,,,,,,,
null,,html-keyboard-response,1228017,,<p></p>,,,,null,,,,,,,,,,,,,,,,,,,,,,,,,,,
3822.8999999910593,,directmemory_phase,1231843,,GW/leesburg.png,,,,49,,,1,0.9130434782608695,GW/racine.png,GW/westpalmbeach.png,GW/newhope.png,GW/racine.png,GW/newhope.png,GW/westpalmbeach.png,1,,,,,,,,,,,,,,,,
null,,html-keyboard-response,1232847,,<p></p>,,,,null,,,,,,,,,,,,,,,,,,,,,,,,,,,
4156.0999999940395,,directmemory_phase,1237007,,GW/huntsville.png,,,,49,,,1,0.9166666666666666,GW/boulder.png,GW/hotsprings.png,GW/cornwall.png,GW/boulder.png,GW/cornwall.png,GW/hotsprings.png,1,,,,,,,,,,,,,,,,
null,,html-keyboard-response,1238011,,<p></p>,,,,null,,,,,,,,,,,,,,,,,,,,,,,,,,,
4604.5,,directmemory_phase,1242618,,GW/racine.png,,,,50,,,1,0.92,GW/huntsville.png,GW/hanover.png,GW/gatlinburg.png,GW/hanover.png,GW/huntsville.png,GW/gatlinburg.png,1,,,,,,,,,,,,,,,,
null,,html-keyboard-response,1243620,,<p></p>,,,,null,,,,,,,,,,,,,,,,,,,,,,,,,,,
4518.5,,directmemory_phase,1248142,,GW/carmel.png,,,,51,,,1,0.9230769230769231,GW/huntsville.png,GW/gatlinburg.png,GW/shreveport.png,GW/shreveport.png,GW/gatlinburg.png,GW/huntsville.png,1,,,,,,,,,,,,,,,,
null,,html-keyboard-response,1249146,,<p></p>,,,,null,,,,,,,,,,,,,,,,,,,,,,,,,,,
2893.5,,directmemory_phase,1252043,,GW/peoria.png,,,,49,,,0,0.8888888888888888,GW/huntsville.png,GW/newhope.png,GW/westpalmbeach.png,GW/newhope.png,GW/huntsville.png,GW/westpalmbeach.png,0.5,closer,,,,,,,,,,,,,,,
null,,html-keyboard-response,1253047,,<p></p>,,,,null,,,,,,,,,,,,,,,,,,,,,,,,,,,
3411.5,,directmemory_phase,1256461,,GW/carmel.png,,,,51,,,1,0.8928571428571429,GW/peoria.png,GW/cornwall.png,GW/westpalmbeach.png,GW/westpalmbeach.png,GW/cornwall.png,GW/peoria.png,1,,,,,,,,,,,,,,,,
null,,html-keyboard-response,1257463,,<p></p>,,,,null,,,,,,,,,,,,,,,,,,,,,,,,,,,
4193.300000011921,,directmemory_phase,1261660,,GW/hotsprings.png,,,,49,,,1,0.896551724137931,GW/hanover.png,GW/leesburg.png,GW/westpalmbeach.png,GW/hanover.png,GW/westpalmbeach.png,GW/leesburg.png,1,,,,,,,,,,,,,,,,
null,,html-keyboard-response,1262664,,<p></p>,,,,null,,,,,,,,,,,,,,,,,,,,,,,,,,,
2699.5999999940395,,directmemory_phase,1265367,,GW/boulder.png,,,,51,,,1,0.9,GW/racine.png,GW/leesburg.png,GW/huntsville.png,GW/huntsville.png,GW/leesburg.png,GW/racine.png,1,,,,,,,,,,,,,,,,
null,,html-keyboard-response,1266370,,<p></p>,,,,null,,,,,,,,,,,,,,,,,,,,,,,,,,,
2579.5,,directmemory_phase,1268953,,GW/shreveport.png,,,,50,,,1,0.9032258064516129,GW/hotsprings.png,GW/carmel.png,GW/racine.png,GW/carmel.png,GW/hotsprings.png,GW/racine.png,1,,,,,,,,,,,,,,,,
null,,html-keyboard-response,1269957,,<p></p>,,,,null,,,,,,,,,,,,,,,,,,,,,,,,,,,
3709.1000000089407,,directmemory_phase,1273670,,GW/hanover.png,,,,51,,,1,0.90625,GW/huntsville.png,GW/gatlinburg.png,GW/racine.png,GW/racine.png,GW/gatlinburg.png,GW/huntsville.png,1,,,,,,,,,,,,,,,,
null,,html-keyboard-response,1274673,,<p></p>,,,,null,,,,,,,,,,,,,,,,,,,,,,,,,,,
60012.59999999404,,intro_1,1334689,,instruct,,0,,,,,,,,,,,,,,,,,,,,,,,,,,,,,
20005.70000000298,,intro_2,1354697,,instruct,,1,Next,,,,,,,,,,,,,,,,,,,,,,,,,,,,
10851.300000011921,,intro_3,1365553,,instruct,,1,Next,,,,,,,,,,,,,,,,,,,,,,,,,,,,
21100.59999999404,,intro_4,1386658,,instruct,,1,Next,,,,,,,,,,,,,,,,,,,,,,,,,,,,
23432.79999999702,,intro_5,1410095,,instruct,,1,Next,,,,,,,,,,,,,,,,,,,,,,,,,,,,
52468,,intro_6,1462567,,instruct,,1,Next,,,,,,,,,,,,,,,,,,,,,,,,,,,,
18796.40000000596,,intro_7,1481368,,instruct,,1,Next,,,,,,,,,,,,,,,,,,,,,,,,,,,,
16097.90000000596,,intro_8,1497470,,instruct,,1,Next,,,,,,,,,,,,,,,,,,,,,,,,,,,,
4470.4000000059605,,shortestpath_phase,1501945,,GW/boulder.png,,,,50,GW/gatlinburg.png,GW/westpalmbeach.png,1,1,,,,GW/westpalmbeach.png,,,,,Two Edge Diff,Four Edge Six Edge,,,,,,,,,,,,,
null,,html-keyboard-response,1502950,,<p></p>,,,,null,,,,,,,,,,,,,,,,,,,,,,,,,,,
4384.5,,shortestpath_phase,1507340,,GW/cornwall.png,,,,49,GW/hanover.png,GW/boulder.png,1,1,,,,GW/hanover.png,,,,,One Edge Diff,Two Edge Three Edge,,,,,,,,,,,,,
null,,html-keyboard-response,1508344,,<p></p>,,,,null,,,,,,,,,,,,,,,,,,,,,,,,,,,
4663.399999991059,,shortestpath_phase,1513012,,GW/huntsville.png,,,,50,GW/shreveport.png,GW/westpalmbeach.png,1,1,,,,GW/westpalmbeach.png,,,,,Two Edge Diff,Three Edge Five Edge,,,,,,,,,,,,,
null,,html-keyboard-response,1514016,,<p></p>,,,,null,,,,,,,,,,,,,,,,,,,,,,,,,,,
4180.600000008941,,shortestpath_phase,1518201,,GW/boulder.png,,,,49,GW/shreveport.png,GW/hotsprings.png,0,0.75,,,,GW/hotsprings.png,,,,,One Edge Diff,Five Edge Six Edge,,,,,,,,,,,,,
null,,html-keyboard-response,1519205,,<p></p>,,,,null,,,,,,,,,,,,,,,,,,,,,,,,,,,
4229.9000000059605,,shortestpath_phase,1523439,,GW/newhope.png,,,,49,GW/westpalmbeach.png,GW/gatlinburg.png,1,0.8,,,,GW/westpalmbeach.png,,,,,Three Edge Diff,Two Edge Five Edge,,,,,,,,,,,,,
null,,html-keyboard-response,1524443,,<p></p>,,,,null,,,,,,,,,,,,,,,,,,,,,,,,,,,
3988,,shortestpath_phase,1528435,,GW/leesburg.png,,,,49,GW/boulder.png,GW/shreveport.png,1,0.8333333333333334,,,,GW/boulder.png,,,,,Two Edge Diff,Two Edge Four Edge,,,,,,,,,,,,,
null,,html-keyboard-response,1529438,,<p></p>,,,,null,,,,,,,,,,,,,,,,,,,,,,,,,,,
3629.9000000059605,,shortestpath_phase,1533072,,GW/gatlinburg.png,,,,50,GW/huntsville.png,GW/racine.png,1,0.8571428571428571,,,,GW/racine.png,,,,,Two Edge Diff,Three Edge Five Edge,,,,,,,,,,,,,
null,,html-keyboard-response,1534077,,<p></p>,,,,null,,,,,,,,,,,,,,,,,,,,,,,,,,,
3810.9000000059605,,shortestpath_phase,1537892,,GW/westpalmbeach.png,,,,50,GW/huntsville.png,GW/shreveport.png,1,0.875,,,,GW/shreveport.png,,,,,One Edge Diff,Two Edge Three Edge,,,,,,,,,,,,,
null,,html-keyboard-response,1538896,,<p></p>,,,,null,,,,,,,,,,,,,,,,,,,,,,,,,,,
3174.7999999970198,,shortestpath_phase,1542076,,GW/huntsville.png,,,,49,GW/cornwall.png,GW/gatlinburg.png,1,0.8888888888888888,,,,GW/cornwall.png,,,,,Three Edge Diff,Two Edge Five Edge,,,,,,,,,,,,,
null,,html-keyboard-response,1543081,,<p></p>,,,,null,,,,,,,,,,,,,,,,,,,,,,,,,,,
3217.9000000059605,,shortestpath_phase,1546303,,GW/peoria.png,,,,50,GW/carmel.png,GW/leesburg.png,1,0.9,,,,GW/leesburg.png,,,,,One Edge Diff,Three Edge Four Edge,,,,,,,,,,,,,
null,,html-keyboard-response,1547307,,<p></p>,,,,null,,,,,,,,,,,,,,,,,,,,,,,,,,,
5417,,shortestpath_phase,1552728,,GW/gatlinburg.png,,,,49,GW/leesburg.png,GW/shreveport.png,0,0.8181818181818182,,,,GW/shreveport.png,,,,,One Edge Diff,Three Edge Four Edge,,,,,,,,,,,,,
null,,html-keyboard-response,1553732,,<p></p>,,,,null,,,,,,,,,,,,,,,,,,,,,,,,,,,
3301.7999999970198,,shortestpath_phase,1557037,,GW/peoria.png,,,,49,GW/cornwall.png,GW/shreveport.png,1,0.8333333333333334,,,,GW/cornwall.png,,,,,Three Edge Diff,Two Edge Five Edge,,,,,,,,,,,,,
null,,html-keyboard-response,1558040,,<p></p>,,,,null,,,,,,,,,,,,,,,,,,,,,,,,,,,
4942.29999999702,,shortestpath_phase,1562986,,GW/hotsprings.png,,,,50,GW/cornwall.png,GW/racine.png,1,0.8461538461538461,,,,GW/racine.png,,,,,One Edge Diff,Two Edge Three Edge,,,,,,,,,,,,,
null,,html-keyboard-response,1563990,,<p></p>,,,,null,,,,,,,,,,,,,,,,,,,,,,,,,,,
3951.300000011921,,shortestpath_phase,1567945,,GW/peoria.png,,,,50,GW/gatlinburg.png,GW/cornwall.png,1,0.8571428571428571,,,,GW/cornwall.png,,,,,Four Edge Diff,Two Edge Six Edge,,,,,,,,,,,,,
null,,html-keyboard-response,1568948,,<p></p>,,,,null,,,,,,,,,,,,,,,,,,,,,,,,,,,
5033.29999999702,,shortestpath_phase,1573986,,GW/boulder.png,,,,49,GW/hotsprings.png,GW/racine.png,0,0.8,,,,GW/racine.png,,,,,Two Edge Diff,Three Edge Five Edge,,,,,,,,,,,,,
null,,html-keyboard-response,1574989,,<p></p>,,,,null,,,,,,,,,,,,,,,,,,,,,,,,,,,
2928.5999999940395,,shortestpath_phase,1577924,,GW/peoria.png,,,,49,GW/huntsville.png,GW/gatlinburg.png,1,0.8125,,,,GW/huntsville.png,,,,,Four Edge Diff,Two Edge Six Edge,,,,,,,,,,,,,
null,,html-keyboard-response,1578928,,<p></p>,,,,null,,,,,,,,,,,,,,,,,,,,,,,,,,,
3899.5,,shortestpath_phase,1582832,,GW/carmel.png,,,,50,GW/newhope.png,GW/racine.png,1,0.8235294117647058,,,,GW/racine.png,,,,,One Edge Diff,Two Edge Three Edge,,,,,,,,,,,,,
null,,html-keyboard-response,1583836,,<p></p>,,,,null,,,,,,,,,,,,,,,,,,,,,,,,,,,
4214.4000000059605,,shortestpath_phase,1588055,,GW/boulder.png,,,,50,GW/newhope.png,GW/hotsprings.png,0,0.7777777777777778,,,,GW/newhope.png,,,,,Three Edge Diff,Two Edge Five Edge,,,,,,,,,,,,,
null,,html-keyboard-response,1589059,,<p></p>,,,,null,,,,,,,,,,,,,,,,,,,,,,,,,,,
3715.1000000089407,,shortestpath_phase,1592778,,GW/huntsville.png,,,,50,GW/racine.png,GW/hotsprings.png,0,0.7368421052631579,,,,GW/racine.png,,,,,Two Edge Diff,Two Edge Four Edge,,,,,,,,,,,,,
null,,html-keyboard-response,1593782,,<p></p>,,,,null,,,,,,,,,,,,,,,,,,,,,,,,,,,
2798.5,,shortestpath_phase,1596585,,GW/shreveport.png,,,,49,GW/hanover.png,GW/boulder.png,1,0.75,,,,GW/hanover.png,,,,,Four Edge Diff,Two Edge Six Edge,,,,,,,,,,,,,
null,,html-keyboard-response,1597590,,<p></p>,,,,null,,,,,,,,,,,,,,,,,,,,,,,,,,,
2576.300000011921,,shortestpath_phase,1600170,,GW/gatlinburg.png,,,,49,GW/newhope.png,GW/peoria.png,1,0.7619047619047619,,,,GW/newhope.png,,,,,One Edge Diff,Five Edge Six Edge,,,,,,,,,,,,,
null,,html-keyboard-response,1601174,,<p></p>,,,,null,,,,,,,,,,,,,,,,,,,,,,,,,,,
4070.7000000029802,,shortestpath_phase,1605249,,GW/shreveport.png,,,,49,GW/leesburg.png,GW/huntsville.png,1,0.7727272727272727,,,,GW/leesburg.png,,,,,One Edge Diff,Four Edge Five Edge,,,,,,,,,,,,,
null,,html-keyboard-response,1606254,,<p></p>,,,,null,,,,,,,,,,,,,,,,,,,,,,,,,,,
5179,,shortestpath_phase,1611438,,GW/newhope.png,,,,49,GW/gatlinburg.png,GW/boulder.png,0,0.7391304347826086,,,,GW/boulder.png,,,,,Three Edge Diff,Three Edge Six Edge,,,,,,,,,,,,,
null,,html-keyboard-response,1612442,,<p></p>,,,,null,,,,,,,,,,,,,,,,,,,,,,,,,,,
2079.5,,shortestpath_phase,1614526,,GW/gatlinburg.png,,,,49,GW/hanover.png,GW/peoria.png,1,0.75,,,,GW/hanover.png,,,,,Four Edge Diff,Two Edge Six Edge,,,,,,,,,,,,,
null,,html-keyboard-response,1615530,,<p></p>,,,,null,,,,,,,,,,,,,,,,,,,,,,,,,,,
4137.0999999940395,,shortestpath_phase,1619670,,GW/boulder.png,,,,50,GW/hotsprings.png,GW/gatlinburg.png,0,0.72,,,,GW/hotsprings.png,,,,,One Edge Diff,Five Edge Six Edge,,,,,,,,,,,,,
null,,html-keyboard-response,1620675,,<p></p>,,,,null,,,,,,,,,,,,,,,,,,,,,,,,,,,
4093.0999999940395,,shortestpath_phase,1624773,,GW/newhope.png,,,,50,GW/gatlinburg.png,GW/racine.png,1,0.7307692307692307,,,,GW/racine.png,,,,,Three Edge Diff,Three Edge Six Edge,,,,,,,,,,,,,
null,,html-keyboard-response,1625777,,<p></p>,,,,null,,,,,,,,,,,,,,,,,,,,,,,,,,,
4737.29999999702,,shortestpath_phase,1630520,,GW/gatlinburg.png,,,,49,GW/westpalmbeach.png,GW/huntsville.png,1,0.7407407407407407,,,,GW/westpalmbeach.png,,,,,Two Edge Diff,Three Edge Five Edge,,,,,,,,,,,,,
null,,html-keyboard-response,1631523,,<p></p>,,,,null,,,,,,,,,,,,,,,,,,,,,,,,,,,
3117,,shortestpath_phase,1634645,,GW/shreveport.png,,,,50,GW/leesburg.png,GW/hanover.png,1,0.75,,,,GW/hanover.png,,,,,Two Edge Diff,Two Edge Four Edge,,,,,,,,,,,,,
null,,html-keyboard-response,1635649,,<p></p>,,,,null,,,,,,,,,,,,,,,,,,,,,,,,,,,
5331.5,,shortestpath_phase,1640986,,GW/leesburg.png,,,,50,GW/gatlinburg.png,GW/westpalmbeach.png,1,0.7586206896551724,,,,GW/westpalmbeach.png,,,,,One Edge Diff,Three Edge Four Edge,,,,,,,,,,,,,
null,,html-keyboard-response,1641990,,<p></p>,,,,null,,,,,,,,,,,,,,,,,,,,,,,,,,,
6319.79999999702,,shortestpath_phase,1648313,,GW/gatlinburg.png,,,,50,GW/boulder.png,GW/cornwall.png,1,0.7666666666666667,,,,GW/cornwall.png,,,,,Two Edge Diff,Four Edge Six Edge,,,,,,,,,,,,,
null,,html-keyboard-response,1649317,,<p></p>,,,,null,,,,,,,,,,,,,,,,,,,,,,,,,,,
4703.79999999702,,shortestpath_phase,1654026,,GW/huntsville.png,,,,50,GW/shreveport.png,GW/carmel.png,1,0.7741935483870968,,,,GW/carmel.png,,,,,One Edge Diff,Four Edge Five Edge,,,,,,,,,,,,,
null,,html-keyboard-response,1655030,,<p></p>,,,,null,,,,,,,,,,,,,,,,,,,,,,,,,,,
4659.4000000059605,,shortestpath_phase,1659693,,GW/gatlinburg.png,,,,49,GW/boulder.png,GW/newhope.png,0,0.75,,,,GW/newhope.png,,,,,One Edge Diff,Five Edge Six Edge,,,,,,,,,,,,,
null,,html-keyboard-response,1660697,,<p></p>,,,,null,,,,,,,,,,,,,,,,,,,,,,,,,,,
7300.5,,shortestpath_phase,1668001,,GW/boulder.png,,,,50,GW/carmel.png,GW/leesburg.png,1,0.7575757575757576,,,,GW/leesburg.png,,,,,Three Edge Diff,Two Edge Five Edge,,,,,,,,,,,,,
null,,html-keyboard-response,1669006,,<p></p>,,,,null,,,,,,,,,,,,,,,,,,,,,,,,,,,
4058.8999999910593,,shortestpath_phase,1673069,,GW/gatlinburg.png,,,,50,GW/carmel.png,GW/newhope.png,0,0.7352941176470589,,,,GW/carmel.png,,,,,Three Edge Diff,Three Edge Six Edge,,,,,,,,,,,,,
null,,html-keyboard-response,1674074,,<p></p>,,,,null,,,,,,,,,,,,,,,,,,,,,,,,,,,
2697.7999999970198,,shortestpath_phase,1676776,,GW/newhope.png,,,,50,GW/boulder.png,GW/gatlinburg.png,0,0.7142857142857143,,,,GW/boulder.png,,,,,Three Edge Diff,Two Edge Five Edge,,,,,,,,,,,,,
null,,html-keyboard-response,1677780,,<p></p>,,,,null,,,,,,,,,,,,,,,,,,,,,,,,,,,
3707.6000000089407,,shortestpath_phase,1681492,,GW/shreveport.png,,,,50,GW/boulder.png,GW/westpalmbeach.png,1,0.7222222222222222,,,,GW/westpalmbeach.png,,,,,Four Edge Diff,Two Edge Six Edge,,,,,,,,,,,,,
null,,html-keyboard-response,1682497,,<p></p>,,,,null,,,,,,,,,,,,,,,,,,,,,,,,,,,
2808.5,,shortestpath_phase,1685310,,GW/newhope.png,,,,50,GW/leesburg.png,GW/gatlinburg.png,0,0.7027027027027027,,,,GW/leesburg.png,,,,,Three Edge Diff,Two Edge Five Edge,,,,,,,,,,,,,
null,,html-keyboard-response,1686314,,<p></p>,,,,null,,,,,,,,,,,,,,,,,,,,,,,,,,,
4438.100000008941,,shortestpath_phase,1690757,,GW/hotsprings.png,,,,49,GW/boulder.png,GW/huntsville.png,0,0.6842105263157895,,,,GW/huntsville.png,,,,,One Edge Diff,Four Edge Five Edge,,,,,,,,,,,,,
null,,html-keyboard-response,1691762,,<p></p>,,,,null,,,,,,,,,,,,,,,,,,,,,,,,,,,
6282.5,,shortestpath_phase,1698049,,GW/boulder.png,,,,49,GW/newhope.png,GW/gatlinburg.png,1,0.6923076923076923,,,,GW/newhope.png,,,,,Four Edge Diff,Two Edge Six Edge,,,,,,,,,,,,,
null,,html-keyboard-response,1699054,,<p></p>,,,,null,,,,,,,,,,,,,,,,,,,,,,,,,,,
3868.8999999910593,,shortestpath_phase,1702928,,GW/gatlinburg.png,,,,50,GW/leesburg.png,GW/hanover.png,1,0.7,,,,GW/hanover.png,,,,,Two Edge Diff,Two Edge Four Edge,,,,,,,,,,,,,
null,,html-keyboard-response,1703932,,<p></p>,,,,null,,,,,,,,,,,,,,,,,,,,,,,,,,,
5375.20000000298,,shortestpath_phase,1709312,,GW/shreveport.png,,,,50,GW/newhope.png,GW/boulder.png,0,0.6829268292682927,,,,GW/newhope.png,,,,,Two Edge Diff,Four Edge Six Edge,,,,,,,,,,,,,
null,,html-keyboard-response,1710316,,<p></p>,,,,null,,,,,,,,,,,,,,,,,,,,,,,,,,,
4166.79999999702,,shortestpath_phase,1714487,,GW/boulder.png,,,,49,GW/hotsprings.png,GW/westpalmbeach.png,0,0.6666666666666666,,,,GW/westpalmbeach.png,,,,,One Edge Diff,Four Edge Five Edge,,,,,,,,,,,,,
null,,html-keyboard-response,1715491,,<p></p>,,,,null,,,,,,,,,,,,,,,,,,,,,,,,,,,
5051.5,,shortestpath_phase,1720547,,GW/gatlinburg.png,,,,49,GW/peoria.png,GW/carmel.png,0,0.6511627906976745,,,,GW/carmel.png,,,,,Four Edge Diff,Two Edge Six Edge,,,,,,,,,,,,,
null,,html-keyboard-response,1721551,,<p></p>,,,,null,,,,,,,,,,,,,,,,,,,,,,,,,,,
2361.4000000059605,,shortestpath_phase,1723917,,GW/shreveport.png,,,,50,GW/peoria.png,GW/hanover.png,1,0.6590909090909091,,,,GW/hanover.png,,,,,Three Edge Diff,Two Edge Five Edge,,,,,,,,,,,,,
null,,html-keyboard-response,1724921,,<p></p>,,,,null,,,,,,,,,,,,,,,,,,,,,,,,,,,
2246.2999999970198,,shortestpath_phase,1727171,,GW/hotsprings.png,,,,50,GW/peoria.png,GW/westpalmbeach.png,1,0.6666666666666666,,,,GW/westpalmbeach.png,,,,,Three Edge Diff,Two Edge Five Edge,,,,,,,,,,,,,
null,,html-keyboard-response,1728176,,<p></p>,,,,null,,,,,,,,,,,,,,,,,,,,,,,,,,,
4133.9000000059605,,shortestpath_phase,1732314,,GW/newhope.png,,,,49,GW/gatlinburg.png,GW/shreveport.png,0,0.6521739130434783,,,,GW/shreveport.png,,,,,One Edge Diff,Four Edge Five Edge,,,,,,,,,,,,,
null,,html-keyboard-response,1733318,,<p></p>,,,,null,,,,,,,,,,,,,,,,,,,,,,,,,,,
4130.0999999940395,,shortestpath_phase,1737453,,GW/cornwall.png,,,,50,GW/gatlinburg.png,GW/peoria.png,1,0.6595744680851063,,,,GW/peoria.png,,,,,Two Edge Diff,Two Edge Four Edge,,,,,,,,,,,,,
null,,html-keyboard-response,1738458,,<p></p>,,,,null,,,,,,,,,,,,,,,,,,,,,,,,,,,
3356.7999999970198,,shortestpath_phase,1741819,,GW/huntsville.png,,,,49,GW/hanover.png,GW/hotsprings.png,1,0.6666666666666666,,,,GW/hanover.png,,,,,One Edge Diff,Three Edge Four Edge,,,,,,,,,,,,,
null,,html-keyboard-response,1742824,,<p></p>,,,,null,,,,,,,,,,,,,,,,,,,,,,,,,,,
2914.6000000089407,,shortestpath_phase,1745742,,GW/newhope.png,,,,50,GW/hotsprings.png,GW/gatlinburg.png,0,0.6530612244897959,,,,GW/hotsprings.png,,,,,One Edge Diff,Four Edge Five Edge,,,,,,,,,,,,,
null,,html-keyboard-response,1746748,,<p></p>,,,,null,,,,,,,,,,,,,,,,,,,,,,,,,,,
2698,,shortestpath_phase,1749451,,GW/gatlinburg.png,,,,50,GW/boulder.png,GW/hanover.png,1,0.66,,,,GW/hanover.png,,,,,Four Edge Diff,Two Edge Six Edge,,,,,,,,,,,,,
null,,html-keyboard-response,1750455,,<p></p>,,,,null,,,,,,,,,,,,,,,,,,,,,,,,,,,
2499.7000000029802,,shortestpath_phase,1752959,,GW/huntsville.png,,,,50,GW/carmel.png,GW/racine.png,1,0.6666666666666666,,,,GW/racine.png,,,,,Two Edge Diff,Two Edge Four Edge,,,,,,,,,,,,,
null,,html-keyboard-response,1753964,,<p></p>,,,,null,,,,,,,,,,,,,,,,,,,,,,,,,,,
3144.3999999910593,,shortestpath_phase,1757113,,GW/hotsprings.png,,,,50,GW/peoria.png,GW/westpalmbeach.png,1,0.6730769230769231,,,,GW/westpalmbeach.png,,,,,Three Edge Diff,Three Edge Six Edge,,,,,,,,,,,,,
null,,html-keyboard-response,1758117,,<p></p>,,,,null,,,,,,,,,,,,,,,,,,,,,,,,,,,
4411.20000000298,,shortestpath_phase,1762533,,GW/peoria.png,,,,50,GW/shreveport.png,GW/huntsville.png,1,0.6792452830188679,,,,GW/huntsville.png,,,,,Three Edge Diff,Two Edge Five Edge,,,,,,,,,,,,,
null,,html-keyboard-response,1763537,,<p></p>,,,,null,,,,,,,,,,,,,,,,,,,,,,,,,,,
3108.5,,shortestpath_phase,1766650,,GW/gatlinburg.png,,,,49,GW/boulder.png,GW/carmel.png,0,0.6666666666666666,,,,GW/carmel.png,,,,,Four Edge Diff,Two Edge Six Edge,,,,,,,,,,,,,
null,,html-keyboard-response,1767654,,<p></p>,,,,null,,,,,,,,,,,,,,,,,,,,,,,,,,,
4486.5,,shortestpath_phase,1772145,,GW/shreveport.png,,,,50,GW/huntsville.png,GW/boulder.png,0,0.6545454545454545,,,,GW/huntsville.png,,,,,One Edge Diff,Five Edge Six Edge,,,,,,,,,,,,,
null,,html-keyboard-response,1773149,,<p></p>,,,,null,,,,,,,,,,,,,,,,,,,,,,,,,,,
5581.5,,shortestpath_phase,1778736,,GW/leesburg.png,,,,49,GW/hotsprings.png,GW/gatlinburg.png,1,0.6607142857142857,,,,GW/hotsprings.png,,,,,One Edge Diff,Three Edge Four Edge,,,,,,,,,,,,,
null,,html-keyboard-response,1779740,,<p></p>,,,,null,,,,,,,,,,,,,,,,,,,,,,,,,,,
3820.5999999940395,,shortestpath_phase,1783566,,GW/huntsville.png,,,,50,GW/shreveport.png,GW/racine.png,1,0.6666666666666666,,,,GW/racine.png,,,,,Three Edge Diff,Two Edge Five Edge,,,,,,,,,,,,,
null,,html-keyboard-response,1784569,,<p></p>,,,,null,,,,,,,,,,,,,,,,,,,,,,,,,,,
3404.7999999970198,,shortestpath_phase,1787978,,GW/shreveport.png,,,,50,GW/huntsville.png,GW/hanover.png,1,0.6724137931034483,,,,GW/hanover.png,,,,,Three Edge Diff,Three Edge Six Edge,,,,,,,,,,,,,
null,,html-keyboard-response,1788983,,<p></p>,,,,null,,,,,,,,,,,,,,,,,,,,,,,,,,,
2910.2999999970198,,shortestpath_phase,1791897,,GW/carmel.png,,,,50,GW/huntsville.png,GW/racine.png,1,0.6779661016949152,,,,GW/racine.png,,,,,Two Edge Diff,Two Edge Four Edge,,,,,,,,,,,,,
null,,html-keyboard-response,1792901,,<p></p>,,,,null,,,,,,,,,,,,,,,,,,,,,,,,,,,
4661.29999999702,,shortestpath_phase,1797566,,GW/gatlinburg.png,,,,50,GW/peoria.png,GW/cornwall.png,1,0.6833333333333333,,,,GW/cornwall.png,,,,,Two Edge Diff,Four Edge Six Edge,,,,,,,,,,,,,
null,,html-keyboard-response,1798570,,<p></p>,,,,null,,,,,,,,,,,,,,,,,,,,,,,,,,,
5315.4000000059605,,shortestpath_phase,1803890,,GW/peoria.png,,,,50,GW/gatlinburg.png,GW/hanover.png,1,0.6885245901639344,,,,GW/hanover.png,,,,,Two Edge Diff,Four Edge Six Edge,,,,,,,,,,,,,
null,,html-keyboard-response,1804894,,<p></p>,,,,null,,,,,,,,,,,,,,,,,,,,,,,,,,,
3547.7000000029802,,shortestpath_phase,1808446,,GW/huntsville.png,,,,49,GW/racine.png,GW/shreveport.png,1,0.6935483870967742,,,,GW/racine.png,,,,,Three Edge Diff,Three Edge Six Edge,,,,,,,,,,,,,
null,,html-keyboard-response,1809450,,<p></p>,,,,null,,,,,,,,,,,,,,,,,,,,,,,,,,,
3302.5,,shortestpath_phase,1812757,,GW/shreveport.png,,,,50,GW/newhope.png,GW/westpalmbeach.png,1,0.6984126984126984,,,,GW/westpalmbeach.png,,,,,Two Edge Diff,Two Edge Four Edge,,,,,,,,,,,,,
