rt,responses,trial_type,time_elapsed,stimulus,graphorder,button_pressed,response,key_press,stimulus_left,stimulus_right,accuracy,cumulative_accuracy,stimulus_down_left,stimulus_down_mid,stimulus_down_right,stimulus_correct,stimulus_short,stimulus_far,weighted_accuracy,missedtrial,condition,specific_pairs,linedress,linedressed,problems,smooth,distraction,strategies,easier,similar,comments
36056,{worker_id:56f59251736c79000c2241f7},id_enter,36060,id_enter,GW/teeth.jpg; GW/hat.jpg; GW/barrel.jpg; GW/globe.jpg; GW/dustpan.jpg; GW/jukebox.jpg; GW/camera.jpg; GW/gong.jpg; GW/basket.jpg; GW/paint.jpg; GW/wheelchair.jpg; GW/soldier.jpg; GW/snail.jpg,,,,,,,,,,,,,,,,,,,,,,,,,,
4275,,fullscreen,40337,fullscreen,,0,,,,,,,,,,,,,,,,,,,,,,,,,
5737,,intro_1,46076,instruct,,0,,,,,,,,,,,,,,,,,,,,,,,,,
4779,,intro_2,50857,instruct,,1,Next,,,,,,,,,,,,,,,,,,,,,,,,
4510,,intro_3,55367,instruct,,1,Next,,,,,,,,,,,,,,,,,,,,,,,,
null,,learn_prac_1,57374,lean_prac_1,,,,null,,,,,,,,,,,,,,,,,,,,,,,
null,,html-keyboard-response,58378,<p></p>,,,,null,,,,,,,,,,,,,,,,,,,,,,,
2012,,intro_1,60389,instruct,,0,,,,,,,,,,,,,,,,,,,,,,,,,
2720,,intro_2,63108,instruct,,1,Next,,,,,,,,,,,,,,,,,,,,,,,,
null,,learn_prac_2,65119,lean_prac_2,,,,null,,,,,,,,,,,,,,,,,,,,,,,
null,,html-keyboard-response,66125,<p></p>,,,,null,,,,,,,,,,,,,,,,,,,,,,,
1129,,intro_1,67255,instruct,,0,,,,,,,,,,,,,,,,,,,,,,,,,
1550,,intro_2,68804,instruct,,1,Next,,,,,,,,,,,,,,,,,,,,,,,,
11716,,intro_3,80522,instruct,,1,Next,,,,,,,,,,,,,,,,,,,,,,,,
null,,prac_atten_color_black,81396,black_plus_sign,,,,null,,,,,,,,,,,,,,,,,,,,,,,
null,,prac_atten_color,81938,prac_stop_color,,,,null,,,,,,,,,,,,,,,,,,,,,,,
null,,prac_atten_color_black,83951,black_plus_sign,,,,null,,,,,,,,,,,,,,,,,,,,,,,
3015,,attentioncheck_help,86969,instruct,,,,32,,,,,,,,,,,,,,,,,,,,,,,
null,,prac_atten_color_black,87843,black_plus_sign,,,,null,,,,,,,,,,,,,,,,,,,,,,,
null,,prac_atten_color,88493,prac_stop_color,,,,null,,,,,,,,,,,,,,,,,,,,,,,
123,,prac_atten_color_black,90503,black_plus_sign,,,,50,,,,,,,,,,,,,,,,,,,,,,,
null,,prac_atten_color_black,91278,black_plus_sign,,,,null,,,,,,,,,,,,,,,,,,,,,,,
null,,prac_atten_color,92016,prac_stop_color,,,,null,,,,,,,,,,,,,,,,,,,,,,,
544,,prac_atten_color_black,94028,black_plus_sign,,,,50,,,,,,,,,,,,,,,,,,,,,,,
null,,prac_atten_color_black,94709,black_plus_sign,,,,null,,,,,,,,,,,,,,,,,,,,,,,
null,,prac_atten_color,95422,prac_stop_color,,,,null,,,,,,,,,,,,,,,,,,,,,,,
201,,prac_atten_color_black,97437,black_plus_sign,,,,49,,,,,,,,,,,,,,,,,,,,,,,
null,,prac_atten_color_black,98134,black_plus_sign,,,,null,,,,,,,,,,,,,,,,,,,,,,,
null,,prac_atten_color,98612,prac_stop_color,,,,null,,,,,,,,,,,,,,,,,,,,,,,
null,,prac_atten_color_black,100613,black_plus_sign,,,,null,,,,,,,,,,,,,,,,,,,,,,,
1482,,attentioncheck_help,102097,instruct,,,,32,,,,,,,,,,,,,,,,,,,,,,,
null,,prac_atten_color_black,103029,black_plus_sign,,,,null,,,,,,,,,,,,,,,,,,,,,,,
null,,prac_atten_color,103461,prac_stop_color,,,,null,,,,,,,,,,,,,,,,,,,,,,,
563,,prac_atten_color_black,105476,black_plus_sign,,,,50,,,,,,,,,,,,,,,,,,,,,,,
null,,prac_atten_color_black,106452,black_plus_sign,,,,null,,,,,,,,,,,,,,,,,,,,,,,
null,,prac_atten_color,107226,prac_stop_color,,,,null,,,,,,,,,,,,,,,,,,,,,,,
318,,prac_atten_color_black,109234,black_plus_sign,,,,49,,,,,,,,,,,,,,,,,,,,,,,
null,,prac_atten_color_black,109867,black_plus_sign,,,,null,,,,,,,,,,,,,,,,,,,,,,,
null,,prac_atten_color,110940,prac_stop_color,,,,null,,,,,,,,,,,,,,,,,,,,,,,
69,,prac_atten_color_black,112955,black_plus_sign,,,,50,,,,,,,,,,,,,,,,,,,,,,,
null,,prac_atten_color_black,113293,black_plus_sign,,,,null,,,,,,,,,,,,,,,,,,,,,,,
530,,prac_atten_color,113988,prac_stop_color,,,,49,,,,,,,,,,,,,,,,,,,,,,,
null,,prac_atten_color_black,115997,black_plus_sign,,,,null,,,,,,,,,,,,,,,,,,,,,,,
null,,prac_atten_color_black,116728,black_plus_sign,,,,null,,,,,,,,,,,,,,,,,,,,,,,
599,,prac_atten_color,117705,prac_stop_color,,,,49,,,,,,,,,,,,,,,,,,,,,,,
null,,prac_atten_color_black,119718,black_plus_sign,,,,null,,,,,,,,,,,,,,,,,,,,,,,
2706,,attentioncheck_feedback,122427,cross_check_feedback,,0,,,,,,,,,,,,,,,,,,,,,,,,,
7525,,last_instruct,129953,instruct,,,,32,,,,,,,,,,,,,,,,,,,,,,,
null,,learn_phase(without_color),131964,black_plus_sign,,,,null,GW/jukebox.jpg,GW/camera.jpg,,,,,,,,,,,,,,,,,,,,,
null,,black_cross(without_color),132414,blue,,,,null,GW/jukebox.jpg,GW/camera.jpg,,,,,,,,,,,,,,,,,,,,,
null,,rt_plussign_withcolor,132927,blue,,,,null,GW/jukebox.jpg,GW/camera.jpg,,,,,,,,,,,,,,,,,,,,,
775,,rt_thecrossant_black,134494,black_plus_sign,,,,49,,,1,1,,,,,,,,,,,,,,,,,,,
null,,color_black,134602,black_plus_sign,,,,null,,,,,,,,,,,,,,,,,,,,,,,
null,,learn_phase(without_color),136617,black_plus_sign,,,,null,GW/camera.jpg,GW/snail.jpg,,,,,,,,,,,,,,,,,,,,,
null,,black_cross(without_color),137037,blue,,,,null,GW/camera.jpg,GW/snail.jpg,,,,,,,,,,,,,,,,,,,,,
null,,rt_plussign_withcolor,137549,blue,,,,null,GW/camera.jpg,GW/snail.jpg,,,,,,,,,,,,,,,,,,,,,
909,,rt_thecrossant_black,139157,black_plus_sign,,,,49,,,1,1,,,,,,,,,,,,,,,,,,,
null,,color_black,139266,black_plus_sign,,,,null,,,,,,,,,,,,,,,,,,,,,,,
null,,learn_phase(without_color),141272,black_plus_sign,,,,null,GW/globe.jpg,GW/soldier.jpg,,,,,,,,,,,,,,,,,,,,,
null,,black_cross(without_color),141861,green,,,,null,GW/globe.jpg,GW/soldier.jpg,,,,,,,,,,,,,,,,,,,,,
null,,rt_plussign_withcolor,142372,green,,,,null,GW/globe.jpg,GW/soldier.jpg,,,,,,,,,,,,,,,,,,,,,
543,,rt_thecrossant_black,143800,black_plus_sign,,,,50,,,1,1,,,,,,,,,,,,,,,,,,,
null,,color_black,143908,black_plus_sign,,,,null,,,,,,,,,,,,,,,,,,,,,,,
null,,learn_phase(without_color),145924,black_plus_sign,,,,null,GW/jukebox.jpg,GW/camera.jpg,,,,,,,,,,,,,,,,,,,,,
null,,black_cross(without_color),146433,green,,,,null,GW/jukebox.jpg,GW/camera.jpg,,,,,,,,,,,,,,,,,,,,,
null,,rt_plussign_withcolor,146942,green,,,,null,GW/jukebox.jpg,GW/camera.jpg,,,,,,,,,,,,,,,,,,,,,
705,,rt_thecrossant_black,148478,black_plus_sign,,,,50,,,1,1,,,,,,,,,,,,,,,,,,,
null,,color_black,148587,black_plus_sign,,,,null,,,,,,,,,,,,,,,,,,,,,,,
null,,learn_phase(without_color),150596,black_plus_sign,,,,null,GW/camera.jpg,GW/basket.jpg,,,,,,,,,,,,,,,,,,,,,
null,,black_cross(without_color),151136,green,,,,null,GW/camera.jpg,GW/basket.jpg,,,,,,,,,,,,,,,,,,,,,
497,,rt_plussign_withcolor,151646,green,,,,50,GW/camera.jpg,GW/basket.jpg,,,,,,,,,,,,,,,,,,,,,
null,,rt_thecrossant_black,153113,black_plus_sign,,,,null,,,1,1,,,,,,,,,,,,,,,,,,,
null,,color_black,153221,black_plus_sign,,,,null,,,,,,,,,,,,,,,,,,,,,,,
null,,learn_phase(without_color),155232,black_plus_sign,,,,null,GW/barrel.jpg,GW/wheelchair.jpg,,,,,,,,,,,,,,,,,,,,,
null,,black_cross(without_color),155903,green,,,,null,GW/barrel.jpg,GW/wheelchair.jpg,,,,,,,,,,,,,,,,,,,,,
null,,rt_plussign_withcolor,156413,green,,,,null,GW/barrel.jpg,GW/wheelchair.jpg,,,,,,,,,,,,,,,,,,,,,
720,,rt_thecrossant_black,157759,black_plus_sign,,,,50,,,1,1,,,,,,,,,,,,,,,,,,,
null,,color_black,157868,black_plus_sign,,,,null,,,,,,,,,,,,,,,,,,,,,,,
null,,learn_phase(without_color),159876,black_plus_sign,,,,null,GW/camera.jpg,GW/gong.jpg,,,,,,,,,,,,,,,,,,,,,
null,,black_cross(without_color),160433,blue,,,,null,GW/camera.jpg,GW/gong.jpg,,,,,,,,,,,,,,,,,,,,,
null,,rt_plussign_withcolor,160945,blue,,,,null,GW/camera.jpg,GW/gong.jpg,,,,,,,,,,,,,,,,,,,,,
861,,rt_thecrossant_black,162419,black_plus_sign,,,,49,,,1,1,,,,,,,,,,,,,,,,,,,
null,,color_black,162528,black_plus_sign,,,,null,,,,,,,,,,,,,,,,,,,,,,,
null,,learn_phase(without_color),164538,black_plus_sign,,,,null,GW/hat.jpg,GW/globe.jpg,,,,,,,,,,,,,,,,,,,,,
null,,black_cross(without_color),165421,green,,,,null,GW/hat.jpg,GW/globe.jpg,,,,,,,,,,,,,,,,,,,,,
null,,rt_plussign_withcolor,165934,green,,,,null,GW/hat.jpg,GW/globe.jpg,,,,,,,,,,,,,,,,,,,,,
658,,rt_thecrossant_black,167067,black_plus_sign,,,,50,,,1,1,,,,,,,,,,,,,,,,,,,
null,,color_black,167176,black_plus_sign,,,,null,,,,,,,,,,,,,,,,,,,,,,,
null,,learn_phase(without_color),169190,black_plus_sign,,,,null,GW/jukebox.jpg,GW/camera.jpg,,,,,,,,,,,,,,,,,,,,,
null,,black_cross(without_color),169747,green,,,,null,GW/jukebox.jpg,GW/camera.jpg,,,,,,,,,,,,,,,,,,,,,
420,,rt_plussign_withcolor,170256,green,,,,50,GW/jukebox.jpg,GW/camera.jpg,,,,,,,,,,,,,,,,,,,,,
null,,rt_thecrossant_black,171713,black_plus_sign,,,,null,,,1,1,,,,,,,,,,,,,,,,,,,
null,,color_black,171822,black_plus_sign,,,,null,,,,,,,,,,,,,,,,,,,,,,,
null,,learn_phase(without_color),173832,black_plus_sign,,,,null,GW/camera.jpg,GW/gong.jpg,,,,,,,,,,,,,,,,,,,,,
null,,black_cross(without_color),174746,blue,,,,null,GW/camera.jpg,GW/gong.jpg,,,,,,,,,,,,,,,,,,,,,
469,,rt_plussign_withcolor,175261,blue,,,,49,GW/camera.jpg,GW/gong.jpg,,,,,,,,,,,,,,,,,,,,,
null,,rt_thecrossant_black,176359,black_plus_sign,,,,null,,,1,1,,,,,,,,,,,,,,,,,,,
null,,color_black,176468,black_plus_sign,,,,null,,,,,,,,,,,,,,,,,,,,,,,
null,,learn_phase(without_color),178471,black_plus_sign,,,,null,GW/jukebox.jpg,GW/camera.jpg,,,,,,,,,,,,,,,,,,,,,
null,,black_cross(without_color),179104,green,,,,null,GW/jukebox.jpg,GW/camera.jpg,,,,,,,,,,,,,,,,,,,,,
null,,rt_plussign_withcolor,179615,green,,,,null,GW/jukebox.jpg,GW/camera.jpg,,,,,,,,,,,,,,,,,,,,,
1034,,rt_thecrossant_black,181010,black_plus_sign,,,,50,,,1,1,,,,,,,,,,,,,,,,,,,
null,,color_black,181119,black_plus_sign,,,,null,,,,,,,,,,,,,,,,,,,,,,,
null,,learn_phase(without_color),183130,black_plus_sign,,,,null,GW/hat.jpg,GW/barrel.jpg,,,,,,,,,,,,,,,,,,,,,
null,,black_cross(without_color),183579,blue,,,,null,GW/hat.jpg,GW/barrel.jpg,,,,,,,,,,,,,,,,,,,,,
484,,rt_plussign_withcolor,184092,blue,,,,49,GW/hat.jpg,GW/barrel.jpg,,,,,,,,,,,,,,,,,,,,,
null,,rt_thecrossant_black,185658,black_plus_sign,,,,null,,,1,1,,,,,,,,,,,,,,,,,,,
null,,color_black,185766,black_plus_sign,,,,null,,,,,,,,,,,,,,,,,,,,,,,
null,,learn_phase(without_color),187770,black_plus_sign,,,,null,GW/wheelchair.jpg,GW/soldier.jpg,,,,,,,,,,,,,,,,,,,,,
null,,black_cross(without_color),188250,blue,,,,null,GW/wheelchair.jpg,GW/soldier.jpg,,,,,,,,,,,,,,,,,,,,,
null,,rt_plussign_withcolor,188764,blue,,,,null,GW/wheelchair.jpg,GW/soldier.jpg,,,,,,,,,,,,,,,,,,,,,
583,,rt_thecrossant_black,190302,black_plus_sign,,,,49,,,1,1,,,,,,,,,,,,,,,,,,,
null,,color_black,190410,black_plus_sign,,,,null,,,,,,,,,,,,,,,,,,,,,,,
null,,learn_phase(without_color),192425,black_plus_sign,,,,null,GW/globe.jpg,GW/soldier.jpg,,,,,,,,,,,,,,,,,,,,,
null,,black_cross(without_color),192872,blue,,,,null,GW/globe.jpg,GW/soldier.jpg,,,,,,,,,,,,,,,,,,,,,
null,,rt_plussign_withcolor,193384,blue,,,,null,GW/globe.jpg,GW/soldier.jpg,,,,,,,,,,,,,,,,,,,,,
629,,rt_thecrossant_black,194954,black_plus_sign,,,,49,,,1,1,,,,,,,,,,,,,,,,,,,
null,,color_black,195062,black_plus_sign,,,,null,,,,,,,,,,,,,,,,,,,,,,,
null,,learn_phase(without_color),197079,black_plus_sign,,,,null,GW/camera.jpg,GW/gong.jpg,,,,,,,,,,,,,,,,,,,,,
null,,black_cross(without_color),197948,blue,,,,null,GW/camera.jpg,GW/gong.jpg,,,,,,,,,,,,,,,,,,,,,
null,,rt_plussign_withcolor,198459,blue,,,,null,GW/camera.jpg,GW/gong.jpg,,,,,,,,,,,,,,,,,,,,,
583,,rt_thecrossant_black,199621,black_plus_sign,,,,49,,,1,1,,,,,,,,,,,,,,,,,,,
null,,color_black,199728,black_plus_sign,,,,null,,,,,,,,,,,,,,,,,,,,,,,
null,,learn_phase(without_color),201741,black_plus_sign,,,,null,GW/wheelchair.jpg,GW/soldier.jpg,,,,,,,,,,,,,,,,,,,,,
null,,black_cross(without_color),202659,green,,,,null,GW/wheelchair.jpg,GW/soldier.jpg,,,,,,,,,,,,,,,,,,,,,
null,,rt_plussign_withcolor,203171,green,,,,null,GW/wheelchair.jpg,GW/soldier.jpg,,,,,,,,,,,,,,,,,,,,,
1208,,rt_thecrossant_black,204268,black_plus_sign,,,,50,,,1,1,,,,,,,,,,,,,,,,,,,
null,,color_black,204377,black_plus_sign,,,,null,,,,,,,,,,,,,,,,,,,,,,,
null,,learn_phase(without_color),206391,black_plus_sign,,,,null,GW/basket.jpg,GW/wheelchair.jpg,,,,,,,,,,,,,,,,,,,,,
null,,black_cross(without_color),207133,blue,,,,null,GW/basket.jpg,GW/wheelchair.jpg,,,,,,,,,,,,,,,,,,,,,
null,,rt_plussign_withcolor,207646,blue,,,,null,GW/basket.jpg,GW/wheelchair.jpg,,,,,,,,,,,,,,,,,,,,,
1143,,rt_thecrossant_black,208936,black_plus_sign,,,,49,,,1,1,,,,,,,,,,,,,,,,,,,
null,,color_black,209044,black_plus_sign,,,,null,,,,,,,,,,,,,,,,,,,,,,,
null,,learn_phase(without_color),211051,black_plus_sign,,,,null,GW/camera.jpg,GW/gong.jpg,,,,,,,,,,,,,,,,,,,,,
null,,black_cross(without_color),212090,blue,,,,null,GW/camera.jpg,GW/gong.jpg,,,,,,,,,,,,,,,,,,,,,
null,,rt_plussign_withcolor,212600,blue,,,,null,GW/camera.jpg,GW/gong.jpg,,,,,,,,,,,,,,,,,,,,,
946,,rt_thecrossant_black,213575,black_plus_sign,,,,49,,,1,1,,,,,,,,,,,,,,,,,,,
null,,color_black,213683,black_plus_sign,,,,null,,,,,,,,,,,,,,,,,,,,,,,
null,,learn_phase(without_color),215695,black_plus_sign,,,,null,GW/globe.jpg,GW/soldier.jpg,,,,,,,,,,,,,,,,,,,,,
null,,black_cross(without_color),216221,green,,,,null,GW/globe.jpg,GW/soldier.jpg,,,,,,,,,,,,,,,,,,,,,
483,,rt_plussign_withcolor,216731,green,,,,50,GW/globe.jpg,GW/soldier.jpg,,,,,,,,,,,,,,,,,,,,,
null,,rt_thecrossant_black,218228,black_plus_sign,,,,null,,,1,1,,,,,,,,,,,,,,,,,,,
null,,color_black,218336,black_plus_sign,,,,null,,,,,,,,,,,,,,,,,,,,,,,
null,,learn_phase(without_color),220348,black_plus_sign,,,,null,GW/globe.jpg,GW/dustpan.jpg,,,,,,,,,,,,,,,,,,,,,
null,,black_cross(without_color),221245,green,,,,null,GW/globe.jpg,GW/dustpan.jpg,,,,,,,,,,,,,,,,,,,,,
null,,rt_plussign_withcolor,221756,green,,,,null,GW/globe.jpg,GW/dustpan.jpg,,,,,,,,,,,,,,,,,,,,,
702,,rt_thecrossant_black,222877,black_plus_sign,,,,50,,,1,1,,,,,,,,,,,,,,,,,,,
null,,color_black,222986,black_plus_sign,,,,null,,,,,,,,,,,,,,,,,,,,,,,
null,,learn_phase(without_color),225002,black_plus_sign,,,,null,GW/wheelchair.jpg,GW/soldier.jpg,,,,,,,,,,,,,,,,,,,,,
null,,black_cross(without_color),225792,blue,,,,null,GW/wheelchair.jpg,GW/soldier.jpg,,,,,,,,,,,,,,,,,,,,,
null,,rt_plussign_withcolor,226302,blue,,,,null,GW/wheelchair.jpg,GW/soldier.jpg,,,,,,,,,,,,,,,,,,,,,
1025,,rt_thecrossant_black,227541,black_plus_sign,,,,49,,,1,1,,,,,,,,,,,,,,,,,,,
null,,color_black,227649,black_plus_sign,,,,null,,,,,,,,,,,,,,,,,,,,,,,
null,,learn_phase(without_color),229665,black_plus_sign,,,,null,GW/globe.jpg,GW/dustpan.jpg,,,,,,,,,,,,,,,,,,,,,
null,,black_cross(without_color),230425,blue,,,,null,GW/globe.jpg,GW/dustpan.jpg,,,,,,,,,,,,,,,,,,,,,
407,,rt_plussign_withcolor,230936,blue,,,,49,GW/globe.jpg,GW/dustpan.jpg,,,,,,,,,,,,,,,,,,,,,
null,,rt_thecrossant_black,232189,black_plus_sign,,,,null,,,1,1,,,,,,,,,,,,,,,,,,,
null,,color_black,232297,black_plus_sign,,,,null,,,,,,,,,,,,,,,,,,,,,,,
null,,learn_phase(without_color),234310,black_plus_sign,,,,null,GW/hat.jpg,GW/globe.jpg,,,,,,,,,,,,,,,,,,,,,
null,,black_cross(without_color),235130,blue,,,,null,GW/hat.jpg,GW/globe.jpg,,,,,,,,,,,,,,,,,,,,,
null,,rt_plussign_withcolor,235641,blue,,,,null,GW/hat.jpg,GW/globe.jpg,,,,,,,,,,,,,,,,,,,,,
911,,rt_thecrossant_black,236867,black_plus_sign,,,,49,,,1,1,,,,,,,,,,,,,,,,,,,
null,,color_black,236975,black_plus_sign,,,,null,,,,,,,,,,,,,,,,,,,,,,,
null,,learn_phase(without_color),238981,black_plus_sign,,,,null,GW/jukebox.jpg,GW/camera.jpg,,,,,,,,,,,,,,,,,,,,,
null,,black_cross(without_color),239804,blue,,,,null,GW/jukebox.jpg,GW/camera.jpg,,,,,,,,,,,,,,,,,,,,,
483,,rt_plussign_withcolor,240314,blue,,,,49,GW/jukebox.jpg,GW/camera.jpg,,,,,,,,,,,,,,,,,,,,,
null,,rt_thecrossant_black,241520,black_plus_sign,,,,null,,,1,1,,,,,,,,,,,,,,,,,,,
null,,color_black,241627,black_plus_sign,,,,null,,,,,,,,,,,,,,,,,,,,,,,
null,,learn_phase(without_color),243661,black_plus_sign,,,,null,GW/gong.jpg,GW/paint.jpg,,,,,,,,,,,,,,,,,,,,,
null,,black_cross(without_color),244221,green,,,,null,GW/gong.jpg,GW/paint.jpg,,,,,,,,,,,,,,,,,,,,,
null,,rt_plussign_withcolor,244733,green,,,,null,GW/gong.jpg,GW/paint.jpg,,,,,,,,,,,,,,,,,,,,,
971,,rt_thecrossant_black,246192,black_plus_sign,,,,50,,,1,1,,,,,,,,,,,,,,,,,,,
null,,color_black,246299,black_plus_sign,,,,null,,,,,,,,,,,,,,,,,,,,,,,
null,,learn_phase(without_color),248301,black_plus_sign,,,,null,GW/hat.jpg,GW/globe.jpg,,,,,,,,,,,,,,,,,,,,,
null,,black_cross(without_color),248905,green,,,,null,GW/hat.jpg,GW/globe.jpg,,,,,,,,,,,,,,,,,,,,,
null,,rt_plussign_withcolor,249414,green,,,,null,GW/hat.jpg,GW/globe.jpg,,,,,,,,,,,,,,,,,,,,,
818,,rt_thecrossant_black,250835,black_plus_sign,,,,50,,,1,1,,,,,,,,,,,,,,,,,,,
null,,color_black,250943,black_plus_sign,,,,null,,,,,,,,,,,,,,,,,,,,,,,
null,,learn_phase(without_color),252958,black_plus_sign,,,,null,GW/gong.jpg,GW/paint.jpg,,,,,,,,,,,,,,,,,,,,,
null,,black_cross(without_color),253499,green,,,,null,GW/gong.jpg,GW/paint.jpg,,,,,,,,,,,,,,,,,,,,,
507,,rt_plussign_withcolor,254009,green,,,,50,GW/gong.jpg,GW/paint.jpg,,,,,,,,,,,,,,,,,,,,,
null,,rt_thecrossant_black,255482,black_plus_sign,,,,null,,,1,1,,,,,,,,,,,,,,,,,,,
null,,color_black,255590,black_plus_sign,,,,null,,,,,,,,,,,,,,,,,,,,,,,
null,,learn_phase(without_color),257601,black_plus_sign,,,,null,GW/teeth.jpg,GW/hat.jpg,,,,,,,,,,,,,,,,,,,,,
null,,black_cross(without_color),258510,green,,,,null,GW/teeth.jpg,GW/hat.jpg,,,,,,,,,,,,,,,,,,,,,
null,,rt_plussign_withcolor,259023,green,,,,null,GW/teeth.jpg,GW/hat.jpg,,,,,,,,,,,,,,,,,,,,,
687,,rt_thecrossant_black,260124,black_plus_sign,,,,50,,,1,1,,,,,,,,,,,,,,,,,,,
null,,color_black,260234,black_plus_sign,,,,null,,,,,,,,,,,,,,,,,,,,,,,
null,,learn_phase(without_color),262249,black_plus_sign,,,,null,GW/gong.jpg,GW/paint.jpg,,,,,,,,,,,,,,,,,,,,,
null,,black_cross(without_color),262990,blue,,,,null,GW/gong.jpg,GW/paint.jpg,,,,,,,,,,,,,,,,,,,,,
513,,rt_plussign_withcolor,263504,blue,,,,49,GW/gong.jpg,GW/paint.jpg,,,,,,,,,,,,,,,,,,,,,
null,,rt_thecrossant_black,264788,black_plus_sign,,,,null,,,1,1,,,,,,,,,,,,,,,,,,,
null,,color_black,264895,black_plus_sign,,,,null,,,,,,,,,,,,,,,,,,,,,,,
null,,learn_phase(without_color),266906,black_plus_sign,,,,null,GW/hat.jpg,GW/globe.jpg,,,,,,,,,,,,,,,,,,,,,
null,,black_cross(without_color),267757,green,,,,null,GW/hat.jpg,GW/globe.jpg,,,,,,,,,,,,,,,,,,,,,
442,,rt_plussign_withcolor,268265,green,,,,50,GW/hat.jpg,GW/globe.jpg,,,,,,,,,,,,,,,,,,,,,
null,,rt_thecrossant_black,269425,black_plus_sign,,,,null,,,1,1,,,,,,,,,,,,,,,,,,,
null,,color_black,269533,black_plus_sign,,,,null,,,,,,,,,,,,,,,,,,,,,,,
null,,learn_phase(without_color),271549,black_plus_sign,,,,null,GW/teeth.jpg,GW/hat.jpg,,,,,,,,,,,,,,,,,,,,,
null,,black_cross(without_color),272324,blue,,,,null,GW/teeth.jpg,GW/hat.jpg,,,,,,,,,,,,,,,,,,,,,
null,,rt_plussign_withcolor,272836,blue,,,,null,GW/teeth.jpg,GW/hat.jpg,,,,,,,,,,,,,,,,,,,,,
null,,rt_thecrossant_black,274089,black_plus_sign,,,,null,,,,1,,,,,,,,,,,,,,,,,,,
null,,color_black,274196,black_plus_sign,,,,null,,,,,,,,,,,,,,,,,,,,,,,
null,,learn_phase(without_color),276210,black_plus_sign,,,,null,GW/globe.jpg,GW/dustpan.jpg,,,,,,,,,,,,,,,,,,,,,
null,,black_cross(without_color),277075,blue,,,,null,GW/globe.jpg,GW/dustpan.jpg,,,,,,,,,,,,,,,,,,,,,
null,,rt_plussign_withcolor,277587,blue,,,,null,GW/globe.jpg,GW/dustpan.jpg,,,,,,,,,,,,,,,,,,,,,
888,,rt_thecrossant_black,278748,black_plus_sign,,,,49,,,1,1,,,,,,,,,,,,,,,,,,,
null,,color_black,278857,black_plus_sign,,,,null,,,,,,,,,,,,,,,,,,,,,,,
null,,learn_phase(without_color),280869,black_plus_sign,,,,null,GW/hat.jpg,GW/globe.jpg,,,,,,,,,,,,,,,,,,,,,
null,,black_cross(without_color),281383,blue,,,,null,GW/hat.jpg,GW/globe.jpg,,,,,,,,,,,,,,,,,,,,,
497,,rt_plussign_withcolor,281895,blue,,,,49,GW/hat.jpg,GW/globe.jpg,,,,,,,,,,,,,,,,,,,,,
null,,rt_thecrossant_black,283397,black_plus_sign,,,,null,,,1,1,,,,,,,,,,,,,,,,,,,
null,,color_black,283506,black_plus_sign,,,,null,,,,,,,,,,,,,,,,,,,,,,,
null,,learn_phase(without_color),285520,black_plus_sign,,,,null,GW/camera.jpg,GW/snail.jpg,,,,,,,,,,,,,,,,,,,,,
null,,black_cross(without_color),286434,green,,,,null,GW/camera.jpg,GW/snail.jpg,,,,,,,,,,,,,,,,,,,,,
null,,rt_plussign_withcolor,286945,green,,,,null,GW/camera.jpg,GW/snail.jpg,,,,,,,,,,,,,,,,,,,,,
703,,rt_thecrossant_black,288046,black_plus_sign,,,,50,,,1,1,,,,,,,,,,,,,,,,,,,
null,,color_black,288156,black_plus_sign,,,,null,,,,,,,,,,,,,,,,,,,,,,,
null,,learn_phase(without_color),290169,black_plus_sign,,,,null,GW/gong.jpg,GW/basket.jpg,,,,,,,,,,,,,,,,,,,,,
null,,black_cross(without_color),291164,green,,,,null,GW/gong.jpg,GW/basket.jpg,,,,,,,,,,,,,,,,,,,,,
442,,rt_plussign_withcolor,291676,green,,,,50,GW/gong.jpg,GW/basket.jpg,,,,,,,,,,,,,,,,,,,,,
null,,rt_thecrossant_black,292699,black_plus_sign,,,,null,,,1,1,,,,,,,,,,,,,,,,,,,
null,,color_black,292808,black_plus_sign,,,,null,,,,,,,,,,,,,,,,,,,,,,,
null,,learn_phase(without_color),294818,black_plus_sign,,,,null,GW/teeth.jpg,GW/hat.jpg,,,,,,,,,,,,,,,,,,,,,
null,,black_cross(without_color),295594,blue,,,,null,GW/teeth.jpg,GW/hat.jpg,,,,,,,,,,,,,,,,,,,,,
null,,rt_plussign_withcolor,296103,blue,,,,null,GW/teeth.jpg,GW/hat.jpg,,,,,,,,,,,,,,,,,,,,,
1276,,rt_thecrossant_black,297341,black_plus_sign,,,,49,,,1,1,,,,,,,,,,,,,,,,,,,
null,,color_black,297446,black_plus_sign,,,,null,,,,,,,,,,,,,,,,,,,,,,,
null,,learn_phase(without_color),299462,black_plus_sign,,,,null,GW/barrel.jpg,GW/jukebox.jpg,,,,,,,,,,,,,,,,,,,,,
null,,black_cross(without_color),300048,green,,,,null,GW/barrel.jpg,GW/jukebox.jpg,,,,,,,,,,,,,,,,,,,,,
null,,rt_plussign_withcolor,300563,green,,,,null,GW/barrel.jpg,GW/jukebox.jpg,,,,,,,,,,,,,,,,,,,,,
934,,rt_thecrossant_black,301989,black_plus_sign,,,,50,,,1,1,,,,,,,,,,,,,,,,,,,
null,,color_black,302096,black_plus_sign,,,,null,,,,,,,,,,,,,,,,,,,,,,,
null,,learn_phase(without_color),304100,black_plus_sign,,,,null,GW/gong.jpg,GW/basket.jpg,,,,,,,,,,,,,,,,,,,,,
null,,black_cross(without_color),304812,blue,,,,null,GW/gong.jpg,GW/basket.jpg,,,,,,,,,,,,,,,,,,,,,
null,,rt_plussign_withcolor,305326,blue,,,,null,GW/gong.jpg,GW/basket.jpg,,,,,,,,,,,,,,,,,,,,,
845,,rt_thecrossant_black,306624,black_plus_sign,,,,49,,,1,1,,,,,,,,,,,,,,,,,,,
null,,color_black,306730,black_plus_sign,,,,null,,,,,,,,,,,,,,,,,,,,,,,
null,,learn_phase(without_color),308746,black_plus_sign,,,,null,GW/basket.jpg,GW/wheelchair.jpg,,,,,,,,,,,,,,,,,,,,,
null,,black_cross(without_color),309211,green,,,,null,GW/basket.jpg,GW/wheelchair.jpg,,,,,,,,,,,,,,,,,,,,,
null,,rt_plussign_withcolor,309717,green,,,,null,GW/basket.jpg,GW/wheelchair.jpg,,,,,,,,,,,,,,,,,,,,,
817,,rt_thecrossant_black,311265,black_plus_sign,,,,49,,,0,0.9736842105263158,,,,,,,,,,,,,,,,,,,
null,,color_black,311373,black_plus_sign,,,,null,,,,,,,,,,,,,,,,,,,,,,,
null,,learn_phase(without_color),313378,black_plus_sign,,,,null,GW/teeth.jpg,GW/hat.jpg,,,,,,,,,,,,,,,,,,,,,
null,,black_cross(without_color),313858,green,,,,null,GW/teeth.jpg,GW/hat.jpg,,,,,,,,,,,,,,,,,,,,,
509,,rt_plussign_withcolor,314367,green,,,,49,GW/teeth.jpg,GW/hat.jpg,,,,,,,,,,,,,,,,,,,,,
null,,rt_thecrossant_black,315921,black_plus_sign,,,,null,,,0,0.9487179487179487,,,,,,,,,,,,,,,,,,,
null,,warning_page,318924,warning,,,,null,,,,,,,,,,,,,,,,,,,,,,,
null,,color_black,319032,black_plus_sign,,,,null,,,,,,,,,,,,,,,,,,,,,,,
null,,learn_phase(without_color),321044,black_plus_sign,,,,null,GW/gong.jpg,GW/paint.jpg,,,,,,,,,,,,,,,,,,,,,
null,,black_cross(without_color),321958,blue,,,,null,GW/gong.jpg,GW/paint.jpg,,,,,,,,,,,,,,,,,,,,,
472,,rt_plussign_withcolor,322469,blue,,,,49,GW/gong.jpg,GW/paint.jpg,,,,,,,,,,,,,,,,,,,,,
null,,rt_thecrossant_black,323568,black_plus_sign,,,,null,,,1,0.95,,,,,,,,,,,,,,,,,,,
null,,color_black,323677,black_plus_sign,,,,null,,,,,,,,,,,,,,,,,,,,,,,
null,,learn_phase(without_color),325685,black_plus_sign,,,,null,GW/camera.jpg,GW/snail.jpg,,,,,,,,,,,,,,,,,,,,,
null,,black_cross(without_color),326706,green,,,,null,GW/camera.jpg,GW/snail.jpg,,,,,,,,,,,,,,,,,,,,,
416,,rt_plussign_withcolor,327216,green,,,,50,GW/camera.jpg,GW/snail.jpg,,,,,,,,,,,,,,,,,,,,,
null,,rt_thecrossant_black,328207,black_plus_sign,,,,null,,,1,0.9512195121951219,,,,,,,,,,,,,,,,,,,
null,,color_black,328316,black_plus_sign,,,,null,,,,,,,,,,,,,,,,,,,,,,,
null,,learn_phase(without_color),330329,black_plus_sign,,,,null,GW/jukebox.jpg,GW/basket.jpg,,,,,,,,,,,,,,,,,,,,,
null,,black_cross(without_color),330746,blue,,,,null,GW/jukebox.jpg,GW/basket.jpg,,,,,,,,,,,,,,,,,,,,,
null,,rt_plussign_withcolor,331258,blue,,,,null,GW/jukebox.jpg,GW/basket.jpg,,,,,,,,,,,,,,,,,,,,,
1114,,rt_thecrossant_black,332863,black_plus_sign,,,,49,,,1,0.9523809523809523,,,,,,,,,,,,,,,,,,,
null,,color_black,332971,black_plus_sign,,,,null,,,,,,,,,,,,,,,,,,,,,,,
null,,learn_phase(without_color),334987,black_plus_sign,,,,null,GW/gong.jpg,GW/basket.jpg,,,,,,,,,,,,,,,,,,,,,
null,,black_cross(without_color),335563,blue,,,,null,GW/gong.jpg,GW/basket.jpg,,,,,,,,,,,,,,,,,,,,,
500,,rt_plussign_withcolor,336073,blue,,,,49,GW/gong.jpg,GW/basket.jpg,,,,,,,,,,,,,,,,,,,,,
null,,rt_thecrossant_black,337504,black_plus_sign,,,,null,,,1,0.9534883720930233,,,,,,,,,,,,,,,,,,,
null,,color_black,337612,black_plus_sign,,,,null,,,,,,,,,,,,,,,,,,,,,,,
null,,learn_phase(without_color),339616,black_plus_sign,,,,null,GW/camera.jpg,GW/basket.jpg,,,,,,,,,,,,,,,,,,,,,
null,,black_cross(without_color),340293,green,,,,null,GW/camera.jpg,GW/basket.jpg,,,,,,,,,,,,,,,,,,,,,
411,,rt_plussign_withcolor,340800,green,,,,50,GW/camera.jpg,GW/basket.jpg,,,,,,,,,,,,,,,,,,,,,
null,,rt_thecrossant_black,342145,black_plus_sign,,,,null,,,1,0.9545454545454546,,,,,,,,,,,,,,,,,,,
null,,color_black,342253,black_plus_sign,,,,null,,,,,,,,,,,,,,,,,,,,,,,
null,,learn_phase(without_color),344260,black_plus_sign,,,,null,GW/jukebox.jpg,GW/basket.jpg,,,,,,,,,,,,,,,,,,,,,
null,,black_cross(without_color),345153,green,,,,null,GW/jukebox.jpg,GW/basket.jpg,,,,,,,,,,,,,,,,,,,,,
null,,rt_plussign_withcolor,345660,green,,,,null,GW/jukebox.jpg,GW/basket.jpg,,,,,,,,,,,,,,,,,,,,,
865,,rt_thecrossant_black,346785,black_plus_sign,,,,50,,,1,0.9555555555555556,,,,,,,,,,,,,,,,,,,
null,,color_black,346893,black_plus_sign,,,,null,,,,,,,,,,,,,,,,,,,,,,,
null,,learn_phase(without_color),348907,black_plus_sign,,,,null,GW/globe.jpg,GW/soldier.jpg,,,,,,,,,,,,,,,,,,,,,
null,,black_cross(without_color),349814,blue,,,,null,GW/globe.jpg,GW/soldier.jpg,,,,,,,,,,,,,,,,,,,,,
null,,rt_plussign_withcolor,350320,blue,,,,null,GW/globe.jpg,GW/soldier.jpg,,,,,,,,,,,,,,,,,,,,,
1016,,rt_thecrossant_black,351427,black_plus_sign,,,,49,,,1,0.9565217391304348,,,,,,,,,,,,,,,,,,,
null,,color_black,351536,black_plus_sign,,,,null,,,,,,,,,,,,,,,,,,,,,,,
null,,learn_phase(without_color),353545,black_plus_sign,,,,null,GW/jukebox.jpg,GW/basket.jpg,,,,,,,,,,,,,,,,,,,,,
null,,black_cross(without_color),354039,green,,,,null,GW/jukebox.jpg,GW/basket.jpg,,,,,,,,,,,,,,,,,,,,,
497,,rt_plussign_withcolor,354563,green,,,,50,GW/jukebox.jpg,GW/basket.jpg,,,,,,,,,,,,,,,,,,,,,
null,,rt_thecrossant_black,356093,black_plus_sign,,,,null,,,1,0.9574468085106383,,,,,,,,,,,,,,,,,,,
null,,color_black,356202,black_plus_sign,,,,null,,,,,,,,,,,,,,,,,,,,,,,
null,,learn_phase(without_color),358220,black_plus_sign,,,,null,GW/camera.jpg,GW/snail.jpg,,,,,,,,,,,,,,,,,,,,,
null,,black_cross(without_color),358878,green,,,,null,GW/camera.jpg,GW/snail.jpg,,,,,,,,,,,,,,,,,,,,,
458,,rt_plussign_withcolor,359391,green,,,,50,GW/camera.jpg,GW/snail.jpg,,,,,,,,,,,,,,,,,,,,,
null,,rt_thecrossant_black,360753,black_plus_sign,,,,null,,,1,0.9583333333333334,,,,,,,,,,,,,,,,,,,
null,,color_black,360861,black_plus_sign,,,,null,,,,,,,,,,,,,,,,,,,,,,,
null,,learn_phase(without_color),362879,black_plus_sign,,,,null,GW/jukebox.jpg,GW/basket.jpg,,,,,,,,,,,,,,,,,,,,,
null,,black_cross(without_color),363405,blue,,,,null,GW/jukebox.jpg,GW/basket.jpg,,,,,,,,,,,,,,,,,,,,,
null,,rt_plussign_withcolor,363917,blue,,,,null,GW/jukebox.jpg,GW/basket.jpg,,,,,,,,,,,,,,,,,,,,,
801,,rt_thecrossant_black,365401,black_plus_sign,,,,49,,,1,0.9591836734693877,,,,,,,,,,,,,,,,,,,
null,,color_black,365510,black_plus_sign,,,,null,,,,,,,,,,,,,,,,,,,,,,,
null,,learn_phase(without_color),367524,black_plus_sign,,,,null,GW/barrel.jpg,GW/wheelchair.jpg,,,,,,,,,,,,,,,,,,,,,
null,,black_cross(without_color),368302,blue,,,,null,GW/barrel.jpg,GW/wheelchair.jpg,,,,,,,,,,,,,,,,,,,,,
null,,rt_plussign_withcolor,368812,blue,,,,null,GW/barrel.jpg,GW/wheelchair.jpg,,,,,,,,,,,,,,,,,,,,,
662,,rt_thecrossant_black,370126,black_plus_sign,,,,49,,,1,0.96,,,,,,,,,,,,,,,,,,,
null,,color_black,370238,black_plus_sign,,,,null,,,,,,,,,,,,,,,,,,,,,,,
null,,learn_phase(without_color),372249,black_plus_sign,,,,null,GW/hat.jpg,GW/barrel.jpg,,,,,,,,,,,,,,,,,,,,,
null,,black_cross(without_color),373024,green,,,,null,GW/hat.jpg,GW/barrel.jpg,,,,,,,,,,,,,,,,,,,,,
496,,rt_plussign_withcolor,373535,green,,,,50,GW/hat.jpg,GW/barrel.jpg,,,,,,,,,,,,,,,,,,,,,
null,,rt_thecrossant_black,374784,black_plus_sign,,,,null,,,1,0.9607843137254902,,,,,,,,,,,,,,,,,,,
null,,color_black,374894,black_plus_sign,,,,null,,,,,,,,,,,,,,,,,,,,,,,
null,,learn_phase(without_color),376907,black_plus_sign,,,,null,GW/jukebox.jpg,GW/basket.jpg,,,,,,,,,,,,,,,,,,,,,
null,,black_cross(without_color),377477,green,,,,null,GW/jukebox.jpg,GW/basket.jpg,,,,,,,,,,,,,,,,,,,,,
null,,rt_plussign_withcolor,377987,green,,,,null,GW/jukebox.jpg,GW/basket.jpg,,,,,,,,,,,,,,,,,,,,,
943,,rt_thecrossant_black,379444,black_plus_sign,,,,50,,,1,0.9615384615384616,,,,,,,,,,,,,,,,,,,
null,,color_black,379553,black_plus_sign,,,,null,,,,,,,,,,,,,,,,,,,,,,,
null,,learn_phase(without_color),381564,black_plus_sign,,,,null,GW/gong.jpg,GW/paint.jpg,,,,,,,,,,,,,,,,,,,,,
null,,black_cross(without_color),382290,blue,,,,null,GW/gong.jpg,GW/paint.jpg,,,,,,,,,,,,,,,,,,,,,
null,,rt_plussign_withcolor,382799,blue,,,,null,GW/gong.jpg,GW/paint.jpg,,,,,,,,,,,,,,,,,,,,,
662,,rt_thecrossant_black,384085,black_plus_sign,,,,49,,,1,0.9622641509433962,,,,,,,,,,,,,,,,,,,
null,,color_black,384191,black_plus_sign,,,,null,,,,,,,,,,,,,,,,,,,,,,,
null,,learn_phase(without_color),386199,black_plus_sign,,,,null,GW/gong.jpg,GW/basket.jpg,,,,,,,,,,,,,,,,,,,,,
null,,black_cross(without_color),387114,green,,,,null,GW/gong.jpg,GW/basket.jpg,,,,,,,,,,,,,,,,,,,,,
422,,rt_plussign_withcolor,387622,green,,,,50,GW/gong.jpg,GW/basket.jpg,,,,,,,,,,,,,,,,,,,,,
null,,rt_thecrossant_black,388723,black_plus_sign,,,,null,,,1,0.9629629629629629,,,,,,,,,,,,,,,,,,,
null,,color_black,388833,black_plus_sign,,,,null,,,,,,,,,,,,,,,,,,,,,,,
null,,learn_phase(without_color),390844,black_plus_sign,,,,null,GW/camera.jpg,GW/snail.jpg,,,,,,,,,,,,,,,,,,,,,
null,,black_cross(without_color),391899,green,,,,null,GW/camera.jpg,GW/snail.jpg,,,,,,,,,,,,,,,,,,,,,
null,,rt_plussign_withcolor,392411,green,,,,null,GW/camera.jpg,GW/snail.jpg,,,,,,,,,,,,,,,,,,,,,
1070,,rt_thecrossant_black,393369,black_plus_sign,,,,50,,,1,0.9636363636363636,,,,,,,,,,,,,,,,,,,
null,,color_black,393475,black_plus_sign,,,,null,,,,,,,,,,,,,,,,,,,,,,,
null,,learn_phase(without_color),395484,black_plus_sign,,,,null,GW/barrel.jpg,GW/wheelchair.jpg,,,,,,,,,,,,,,,,,,,,,
null,,black_cross(without_color),396057,blue,,,,null,GW/barrel.jpg,GW/wheelchair.jpg,,,,,,,,,,,,,,,,,,,,,
null,,rt_plussign_withcolor,396569,blue,,,,null,GW/barrel.jpg,GW/wheelchair.jpg,,,,,,,,,,,,,,,,,,,,,
1392,,rt_thecrossant_black,398001,black_plus_sign,,,,49,,,1,0.9642857142857143,,,,,,,,,,,,,,,,,,,
null,,color_black,398111,black_plus_sign,,,,null,,,,,,,,,,,,,,,,,,,,,,,
null,,learn_phase(without_color),400118,black_plus_sign,,,,null,GW/camera.jpg,GW/basket.jpg,,,,,,,,,,,,,,,,,,,,,
null,,black_cross(without_color),401030,green,,,,null,GW/camera.jpg,GW/basket.jpg,,,,,,,,,,,,,,,,,,,,,
null,,rt_plussign_withcolor,401542,green,,,,null,GW/camera.jpg,GW/basket.jpg,,,,,,,,,,,,,,,,,,,,,
709,,rt_thecrossant_black,402642,black_plus_sign,,,,50,,,1,0.9649122807017544,,,,,,,,,,,,,,,,,,,
null,,color_black,402750,black_plus_sign,,,,null,,,,,,,,,,,,,,,,,,,,,,,
null,,learn_phase(without_color),404763,black_plus_sign,,,,null,GW/wheelchair.jpg,GW/soldier.jpg,,,,,,,,,,,,,,,,,,,,,
null,,black_cross(without_color),405352,blue,,,,null,GW/wheelchair.jpg,GW/soldier.jpg,,,,,,,,,,,,,,,,,,,,,
null,,rt_plussign_withcolor,405866,blue,,,,null,GW/wheelchair.jpg,GW/soldier.jpg,,,,,,,,,,,,,,,,,,,,,
1085,,rt_thecrossant_black,407286,black_plus_sign,,,,49,,,1,0.9655172413793104,,,,,,,,,,,,,,,,,,,
null,,color_black,407396,black_plus_sign,,,,null,,,,,,,,,,,,,,,,,,,,,,,
null,,learn_phase(without_color),409406,black_plus_sign,,,,null,GW/gong.jpg,GW/basket.jpg,,,,,,,,,,,,,,,,,,,,,
null,,black_cross(without_color),410410,blue,,,,null,GW/gong.jpg,GW/basket.jpg,,,,,,,,,,,,,,,,,,,,,
486,,rt_plussign_withcolor,410925,blue,,,,49,GW/gong.jpg,GW/basket.jpg,,,,,,,,,,,,,,,,,,,,,
null,,rt_thecrossant_black,411935,black_plus_sign,,,,null,,,1,0.9661016949152542,,,,,,,,,,,,,,,,,,,
null,,color_black,412043,black_plus_sign,,,,null,,,,,,,,,,,,,,,,,,,,,,,
null,,learn_phase(without_color),414052,black_plus_sign,,,,null,GW/globe.jpg,GW/soldier.jpg,,,,,,,,,,,,,,,,,,,,,
null,,black_cross(without_color),415132,green,,,,null,GW/globe.jpg,GW/soldier.jpg,,,,,,,,,,,,,,,,,,,,,
371,,rt_plussign_withcolor,415641,green,,,,50,GW/globe.jpg,GW/soldier.jpg,,,,,,,,,,,,,,,,,,,,,
null,,rt_thecrossant_black,416567,black_plus_sign,,,,null,,,1,0.9666666666666667,,,,,,,,,,,,,,,,,,,
null,,color_black,416674,black_plus_sign,,,,null,,,,,,,,,,,,,,,,,,,,,,,
null,,learn_phase(without_color),418683,black_plus_sign,,,,null,GW/globe.jpg,GW/dustpan.jpg,,,,,,,,,,,,,,,,,,,,,
null,,black_cross(without_color),419782,blue,,,,null,GW/globe.jpg,GW/dustpan.jpg,,,,,,,,,,,,,,,,,,,,,
506,,rt_plussign_withcolor,420296,blue,,,,49,GW/globe.jpg,GW/dustpan.jpg,,,,,,,,,,,,,,,,,,,,,
null,,rt_thecrossant_black,421211,black_plus_sign,,,,null,,,1,0.9672131147540983,,,,,,,,,,,,,,,,,,,
null,,color_black,421320,black_plus_sign,,,,null,,,,,,,,,,,,,,,,,,,,,,,
null,,learn_phase(without_color),423330,black_plus_sign,,,,null,GW/jukebox.jpg,GW/basket.jpg,,,,,,,,,,,,,,,,,,,,,
null,,black_cross(without_color),423842,blue,,,,null,GW/jukebox.jpg,GW/basket.jpg,,,,,,,,,,,,,,,,,,,,,
null,,rt_plussign_withcolor,424350,blue,,,,null,GW/jukebox.jpg,GW/basket.jpg,,,,,,,,,,,,,,,,,,,,,
1229,,rt_thecrossant_black,425851,black_plus_sign,,,,49,,,1,0.967741935483871,,,,,,,,,,,,,,,,,,,
null,,color_black,425957,black_plus_sign,,,,null,,,,,,,,,,,,,,,,,,,,,,,
null,,learn_phase(without_color),427967,black_plus_sign,,,,null,GW/barrel.jpg,GW/wheelchair.jpg,,,,,,,,,,,,,,,,,,,,,
null,,black_cross(without_color),429068,blue,,,,null,GW/barrel.jpg,GW/wheelchair.jpg,,,,,,,,,,,,,,,,,,,,,
468,,rt_plussign_withcolor,429576,blue,,,,49,GW/barrel.jpg,GW/wheelchair.jpg,,,,,,,,,,,,,,,,,,,,,
null,,rt_thecrossant_black,430503,black_plus_sign,,,,null,,,1,0.9682539682539683,,,,,,,,,,,,,,,,,,,
null,,color_black,430610,black_plus_sign,,,,null,,,,,,,,,,,,,,,,,,,,,,,
null,,learn_phase(without_color),432618,black_plus_sign,,,,null,GW/globe.jpg,GW/dustpan.jpg,,,,,,,,,,,,,,,,,,,,,
null,,black_cross(without_color),433068,blue,,,,null,GW/globe.jpg,GW/dustpan.jpg,,,,,,,,,,,,,,,,,,,,,
null,,rt_plussign_withcolor,433581,blue,,,,null,GW/globe.jpg,GW/dustpan.jpg,,,,,,,,,,,,,,,,,,,,,
1389,,rt_thecrossant_black,435160,black_plus_sign,,,,49,,,1,0.96875,,,,,,,,,,,,,,,,,,,
null,,color_black,435269,black_plus_sign,,,,null,,,,,,,,,,,,,,,,,,,,,,,
null,,learn_phase(without_color),437285,black_plus_sign,,,,null,GW/barrel.jpg,GW/jukebox.jpg,,,,,,,,,,,,,,,,,,,,,
null,,black_cross(without_color),437919,green,,,,null,GW/barrel.jpg,GW/jukebox.jpg,,,,,,,,,,,,,,,,,,,,,
473,,rt_plussign_withcolor,438426,green,,,,50,GW/barrel.jpg,GW/jukebox.jpg,,,,,,,,,,,,,,,,,,,,,
null,,rt_thecrossant_black,439805,black_plus_sign,,,,null,,,1,0.9692307692307692,,,,,,,,,,,,,,,,,,,
null,,color_black,439912,black_plus_sign,,,,null,,,,,,,,,,,,,,,,,,,,,,,
null,,learn_phase(without_color),441925,black_plus_sign,,,,null,GW/basket.jpg,GW/wheelchair.jpg,,,,,,,,,,,,,,,,,,,,,
null,,black_cross(without_color),442947,blue,,,,null,GW/basket.jpg,GW/wheelchair.jpg,,,,,,,,,,,,,,,,,,,,,
508,,rt_plussign_withcolor,443459,blue,,,,49,GW/basket.jpg,GW/wheelchair.jpg,,,,,,,,,,,,,,,,,,,,,
null,,rt_thecrossant_black,444451,black_plus_sign,,,,null,,,1,0.9696969696969697,,,,,,,,,,,,,,,,,,,
null,,color_black,444561,black_plus_sign,,,,null,,,,,,,,,,,,,,,,,,,,,,,
null,,learn_phase(without_color),446572,black_plus_sign,,,,null,GW/jukebox.jpg,GW/basket.jpg,,,,,,,,,,,,,,,,,,,,,
null,,black_cross(without_color),447083,blue,,,,null,GW/jukebox.jpg,GW/basket.jpg,,,,,,,,,,,,,,,,,,,,,
null,,rt_plussign_withcolor,447594,blue,,,,null,GW/jukebox.jpg,GW/basket.jpg,,,,,,,,,,,,,,,,,,,,,
1125,,rt_thecrossant_black,449096,black_plus_sign,,,,49,,,1,0.9701492537313433,,,,,,,,,,,,,,,,,,,
null,,color_black,449203,black_plus_sign,,,,null,,,,,,,,,,,,,,,,,,,,,,,
null,,learn_phase(without_color),451217,black_plus_sign,,,,null,GW/barrel.jpg,GW/wheelchair.jpg,,,,,,,,,,,,,,,,,,,,,
null,,black_cross(without_color),451772,green,,,,null,GW/barrel.jpg,GW/wheelchair.jpg,,,,,,,,,,,,,,,,,,,,,
null,,rt_plussign_withcolor,452284,green,,,,null,GW/barrel.jpg,GW/wheelchair.jpg,,,,,,,,,,,,,,,,,,,,,
764,,rt_thecrossant_black,453753,black_plus_sign,,,,50,,,1,0.9705882352941176,,,,,,,,,,,,,,,,,,,
null,,color_black,453859,black_plus_sign,,,,null,,,,,,,,,,,,,,,,,,,,,,,
null,,learn_phase(without_color),455869,black_plus_sign,,,,null,GW/basket.jpg,GW/wheelchair.jpg,,,,,,,,,,,,,,,,,,,,,
null,,black_cross(without_color),456798,blue,,,,null,GW/basket.jpg,GW/wheelchair.jpg,,,,,,,,,,,,,,,,,,,,,
null,,rt_plussign_withcolor,457309,blue,,,,null,GW/basket.jpg,GW/wheelchair.jpg,,,,,,,,,,,,,,,,,,,,,
648,,rt_thecrossant_black,458394,black_plus_sign,,,,49,,,1,0.9710144927536232,,,,,,,,,,,,,,,,,,,
null,,color_black,458503,black_plus_sign,,,,null,,,,,,,,,,,,,,,,,,,,,,,
null,,learn_phase(without_color),460516,black_plus_sign,,,,null,GW/barrel.jpg,GW/wheelchair.jpg,,,,,,,,,,,,,,,,,,,,,
null,,black_cross(without_color),461458,green,,,,null,GW/barrel.jpg,GW/wheelchair.jpg,,,,,,,,,,,,,,,,,,,,,
389,,rt_plussign_withcolor,461969,green,,,,50,GW/barrel.jpg,GW/wheelchair.jpg,,,,,,,,,,,,,,,,,,,,,
null,,rt_thecrossant_black,463042,black_plus_sign,,,,null,,,1,0.9714285714285714,,,,,,,,,,,,,,,,,,,
null,,color_black,463150,black_plus_sign,,,,null,,,,,,,,,,,,,,,,,,,,,,,
null,,learn_phase(without_color),465152,black_plus_sign,,,,null,GW/gong.jpg,GW/paint.jpg,,,,,,,,,,,,,,,,,,,,,
null,,black_cross(without_color),466234,green,,,,null,GW/gong.jpg,GW/paint.jpg,,,,,,,,,,,,,,,,,,,,,
461,,rt_plussign_withcolor,466748,green,,,,50,GW/gong.jpg,GW/paint.jpg,,,,,,,,,,,,,,,,,,,,,
null,,rt_thecrossant_black,467678,black_plus_sign,,,,null,,,1,0.971830985915493,,,,,,,,,,,,,,,,,,,
null,,color_black,467788,black_plus_sign,,,,null,,,,,,,,,,,,,,,,,,,,,,,
null,,learn_phase(without_color),469799,black_plus_sign,,,,null,GW/jukebox.jpg,GW/camera.jpg,,,,,,,,,,,,,,,,,,,,,
null,,black_cross(without_color),470540,blue,,,,null,GW/jukebox.jpg,GW/camera.jpg,,,,,,,,,,,,,,,,,,,,,
null,,rt_plussign_withcolor,471052,blue,,,,null,GW/jukebox.jpg,GW/camera.jpg,,,,,,,,,,,,,,,,,,,,,
1203,,rt_thecrossant_black,472335,black_plus_sign,,,,49,,,1,0.9722222222222222,,,,,,,,,,,,,,,,,,,
null,,color_black,472444,black_plus_sign,,,,null,,,,,,,,,,,,,,,,,,,,,,,
null,,learn_phase(without_color),474453,black_plus_sign,,,,null,GW/camera.jpg,GW/snail.jpg,,,,,,,,,,,,,,,,,,,,,
null,,black_cross(without_color),475412,green,,,,null,GW/camera.jpg,GW/snail.jpg,,,,,,,,,,,,,,,,,,,,,
null,,rt_plussign_withcolor,475926,green,,,,null,GW/camera.jpg,GW/snail.jpg,,,,,,,,,,,,,,,,,,,,,
885,,rt_thecrossant_black,476980,black_plus_sign,,,,50,,,1,0.9726027397260274,,,,,,,,,,,,,,,,,,,
null,,color_black,477088,black_plus_sign,,,,null,,,,,,,,,,,,,,,,,,,,,,,
null,,learn_phase(without_color),479100,black_plus_sign,,,,null,GW/hat.jpg,GW/globe.jpg,,,,,,,,,,,,,,,,,,,,,
null,,black_cross(without_color),479736,green,,,,null,GW/hat.jpg,GW/globe.jpg,,,,,,,,,,,,,,,,,,,,,
472,,rt_plussign_withcolor,480247,green,,,,50,GW/hat.jpg,GW/globe.jpg,,,,,,,,,,,,,,,,,,,,,
null,,rt_thecrossant_black,481626,black_plus_sign,,,,null,,,1,0.972972972972973,,,,,,,,,,,,,,,,,,,
null,,color_black,481734,black_plus_sign,,,,null,,,,,,,,,,,,,,,,,,,,,,,
null,,learn_phase(without_color),483747,black_plus_sign,,,,null,GW/barrel.jpg,GW/jukebox.jpg,,,,,,,,,,,,,,,,,,,,,
null,,black_cross(without_color),484781,green,,,,null,GW/barrel.jpg,GW/jukebox.jpg,,,,,,,,,,,,,,,,,,,,,
459,,rt_plussign_withcolor,485293,green,,,,50,GW/barrel.jpg,GW/jukebox.jpg,,,,,,,,,,,,,,,,,,,,,
null,,rt_thecrossant_black,486280,black_plus_sign,,,,null,,,1,0.9733333333333334,,,,,,,,,,,,,,,,,,,
null,,color_black,486390,black_plus_sign,,,,null,,,,,,,,,,,,,,,,,,,,,,,
null,,learn_phase(without_color),488398,black_plus_sign,,,,null,GW/hat.jpg,GW/barrel.jpg,,,,,,,,,,,,,,,,,,,,,
null,,black_cross(without_color),489295,blue,,,,null,GW/hat.jpg,GW/barrel.jpg,,,,,,,,,,,,,,,,,,,,,
456,,rt_plussign_withcolor,489808,blue,,,,49,GW/hat.jpg,GW/barrel.jpg,,,,,,,,,,,,,,,,,,,,,
null,,rt_thecrossant_black,490938,black_plus_sign,,,,null,,,1,0.9736842105263158,,,,,,,,,,,,,,,,,,,
null,,color_black,491046,black_plus_sign,,,,null,,,,,,,,,,,,,,,,,,,,,,,
null,,learn_phase(without_color),493063,black_plus_sign,,,,null,GW/camera.jpg,GW/basket.jpg,,,,,,,,,,,,,,,,,,,,,
null,,black_cross(without_color),493696,blue,,,,null,GW/camera.jpg,GW/basket.jpg,,,,,,,,,,,,,,,,,,,,,
424,,rt_plussign_withcolor,494208,blue,,,,49,GW/camera.jpg,GW/basket.jpg,,,,,,,,,,,,,,,,,,,,,
null,,rt_thecrossant_black,495586,black_plus_sign,,,,null,,,1,0.974025974025974,,,,,,,,,,,,,,,,,,,
null,,color_black,495693,black_plus_sign,,,,null,,,,,,,,,,,,,,,,,,,,,,,
null,,learn_phase(without_color),497710,black_plus_sign,,,,null,GW/globe.jpg,GW/soldier.jpg,,,,,,,,,,,,,,,,,,,,,
null,,black_cross(without_color),498405,blue,,,,null,GW/globe.jpg,GW/soldier.jpg,,,,,,,,,,,,,,,,,,,,,
490,,rt_plussign_withcolor,498918,blue,,,,49,GW/globe.jpg,GW/soldier.jpg,,,,,,,,,,,,,,,,,,,,,
null,,rt_thecrossant_black,500253,black_plus_sign,,,,null,,,1,0.9743589743589743,,,,,,,,,,,,,,,,,,,
null,,color_black,500361,black_plus_sign,,,,null,,,,,,,,,,,,,,,,,,,,,,,
null,,learn_phase(without_color),502372,black_plus_sign,,,,null,GW/hat.jpg,GW/barrel.jpg,,,,,,,,,,,,,,,,,,,,,
null,,black_cross(without_color),503208,blue,,,,null,GW/hat.jpg,GW/barrel.jpg,,,,,,,,,,,,,,,,,,,,,
473,,rt_plussign_withcolor,503720,blue,,,,49,GW/hat.jpg,GW/barrel.jpg,,,,,,,,,,,,,,,,,,,,,
null,,rt_thecrossant_black,504908,black_plus_sign,,,,null,,,1,0.9746835443037974,,,,,,,,,,,,,,,,,,,
null,,color_black,505017,black_plus_sign,,,,null,,,,,,,,,,,,,,,,,,,,,,,
null,,learn_phase(without_color),507039,black_plus_sign,,,,null,GW/camera.jpg,GW/gong.jpg,,,,,,,,,,,,,,,,,,,,,
null,,black_cross(without_color),508048,green,,,,null,GW/camera.jpg,GW/gong.jpg,,,,,,,,,,,,,,,,,,,,,
464,,rt_plussign_withcolor,508558,green,,,,50,GW/camera.jpg,GW/gong.jpg,,,,,,,,,,,,,,,,,,,,,
null,,rt_thecrossant_black,509565,black_plus_sign,,,,null,,,1,0.975,,,,,,,,,,,,,,,,,,,
null,,color_black,509673,black_plus_sign,,,,null,,,,,,,,,,,,,,,,,,,,,,,
null,,learn_phase(without_color),511675,black_plus_sign,,,,null,GW/camera.jpg,GW/snail.jpg,,,,,,,,,,,,,,,,,,,,,
null,,black_cross(without_color),512496,blue,,,,null,GW/camera.jpg,GW/snail.jpg,,,,,,,,,,,,,,,,,,,,,
null,,rt_plussign_withcolor,513007,blue,,,,null,GW/camera.jpg,GW/snail.jpg,,,,,,,,,,,,,,,,,,,,,
1158,,rt_thecrossant_black,514200,black_plus_sign,,,,49,,,1,0.9753086419753086,,,,,,,,,,,,,,,,,,,
null,,color_black,514308,black_plus_sign,,,,null,,,,,,,,,,,,,,,,,,,,,,,
null,,learn_phase(without_color),516326,black_plus_sign,,,,null,GW/barrel.jpg,GW/wheelchair.jpg,,,,,,,,,,,,,,,,,,,,,
null,,black_cross(without_color),517268,blue,,,,null,GW/barrel.jpg,GW/wheelchair.jpg,,,,,,,,,,,,,,,,,,,,,
419,,rt_plussign_withcolor,517780,blue,,,,49,GW/barrel.jpg,GW/wheelchair.jpg,,,,,,,,,,,,,,,,,,,,,
null,,rt_thecrossant_black,518851,black_plus_sign,,,,null,,,1,0.975609756097561,,,,,,,,,,,,,,,,,,,
null,,color_black,518960,black_plus_sign,,,,null,,,,,,,,,,,,,,,,,,,,,,,
null,,learn_phase(without_color),520963,black_plus_sign,,,,null,GW/camera.jpg,GW/gong.jpg,,,,,,,,,,,,,,,,,,,,,
null,,black_cross(without_color),521677,blue,,,,null,GW/camera.jpg,GW/gong.jpg,,,,,,,,,,,,,,,,,,,,,
436,,rt_plussign_withcolor,522189,blue,,,,49,GW/camera.jpg,GW/gong.jpg,,,,,,,,,,,,,,,,,,,,,
null,,rt_thecrossant_black,523492,black_plus_sign,,,,null,,,1,0.9759036144578314,,,,,,,,,,,,,,,,,,,
null,,color_black,523601,black_plus_sign,,,,null,,,,,,,,,,,,,,,,,,,,,,,
null,,learn_phase(without_color),525616,black_plus_sign,,,,null,GW/camera.jpg,GW/basket.jpg,,,,,,,,,,,,,,,,,,,,,
null,,black_cross(without_color),526190,green,,,,null,GW/camera.jpg,GW/basket.jpg,,,,,,,,,,,,,,,,,,,,,
null,,rt_plussign_withcolor,526702,green,,,,null,GW/camera.jpg,GW/basket.jpg,,,,,,,,,,,,,,,,,,,,,
1254,,rt_thecrossant_black,528145,black_plus_sign,,,,50,,,1,0.9761904761904762,,,,,,,,,,,,,,,,,,,
null,,color_black,528253,black_plus_sign,,,,null,,,,,,,,,,,,,,,,,,,,,,,
null,,learn_phase(without_color),530266,black_plus_sign,,,,null,GW/hat.jpg,GW/barrel.jpg,,,,,,,,,,,,,,,,,,,,,
null,,black_cross(without_color),530902,green,,,,null,GW/hat.jpg,GW/barrel.jpg,,,,,,,,,,,,,,,,,,,,,
null,,rt_plussign_withcolor,531415,green,,,,null,GW/hat.jpg,GW/barrel.jpg,,,,,,,,,,,,,,,,,,,,,
679,,rt_thecrossant_black,532808,black_plus_sign,,,,50,,,1,0.9764705882352941,,,,,,,,,,,,,,,,,,,
null,,color_black,532916,black_plus_sign,,,,null,,,,,,,,,,,,,,,,,,,,,,,
null,,learn_phase(without_color),534929,black_plus_sign,,,,null,GW/basket.jpg,GW/wheelchair.jpg,,,,,,,,,,,,,,,,,,,,,
null,,black_cross(without_color),535500,green,,,,null,GW/basket.jpg,GW/wheelchair.jpg,,,,,,,,,,,,,,,,,,,,,
null,,rt_plussign_withcolor,536007,green,,,,null,GW/basket.jpg,GW/wheelchair.jpg,,,,,,,,,,,,,,,,,,,,,
728,,rt_thecrossant_black,537456,black_plus_sign,,,,50,,,1,0.9767441860465116,,,,,,,,,,,,,,,,,,,
null,,color_black,537565,black_plus_sign,,,,null,,,,,,,,,,,,,,,,,,,,,,,
null,,learn_phase(without_color),539578,black_plus_sign,,,,null,GW/wheelchair.jpg,GW/soldier.jpg,,,,,,,,,,,,,,,,,,,,,
null,,black_cross(without_color),540447,green,,,,null,GW/wheelchair.jpg,GW/soldier.jpg,,,,,,,,,,,,,,,,,,,,,
466,,rt_plussign_withcolor,540958,green,,,,50,GW/wheelchair.jpg,GW/soldier.jpg,,,,,,,,,,,,,,,,,,,,,
null,,rt_thecrossant_black,542100,black_plus_sign,,,,null,,,1,0.9770114942528736,,,,,,,,,,,,,,,,,,,
null,,color_black,542209,black_plus_sign,,,,null,,,,,,,,,,,,,,,,,,,,,,,
null,,learn_phase(without_color),544221,black_plus_sign,,,,null,GW/basket.jpg,GW/wheelchair.jpg,,,,,,,,,,,,,,,,,,,,,
null,,black_cross(without_color),545026,blue,,,,null,GW/basket.jpg,GW/wheelchair.jpg,,,,,,,,,,,,,,,,,,,,,
461,,rt_plussign_withcolor,545538,blue,,,,49,GW/basket.jpg,GW/wheelchair.jpg,,,,,,,,,,,,,,,,,,,,,
null,,rt_thecrossant_black,546747,black_plus_sign,,,,null,,,1,0.9772727272727273,,,,,,,,,,,,,,,,,,,
null,,color_black,546856,black_plus_sign,,,,null,,,,,,,,,,,,,,,,,,,,,,,
null,,learn_phase(without_color),548869,black_plus_sign,,,,null,GW/camera.jpg,GW/snail.jpg,,,,,,,,,,,,,,,,,,,,,
null,,black_cross(without_color),549409,green,,,,null,GW/camera.jpg,GW/snail.jpg,,,,,,,,,,,,,,,,,,,,,
null,,rt_plussign_withcolor,549921,green,,,,null,GW/camera.jpg,GW/snail.jpg,,,,,,,,,,,,,,,,,,,,,
1901,,rt_thecrossant_black,551410,black_plus_sign,,,,50,,,1,0.9775280898876404,,,,,,,,,,,,,,,,,,,
null,,color_black,551517,black_plus_sign,,,,null,,,,,,,,,,,,,,,,,,,,,,,
null,,learn_phase(without_color),553533,black_plus_sign,,,,null,GW/barrel.jpg,GW/wheelchair.jpg,,,,,,,,,,,,,,,,,,,,,
null,,black_cross(without_color),553967,blue,,,,null,GW/barrel.jpg,GW/wheelchair.jpg,,,,,,,,,,,,,,,,,,,,,
null,,rt_plussign_withcolor,554478,blue,,,,null,GW/barrel.jpg,GW/wheelchair.jpg,,,,,,,,,,,,,,,,,,,,,
684,,rt_thecrossant_black,556072,black_plus_sign,,,,49,,,1,0.9777777777777777,,,,,,,,,,,,,,,,,,,
null,,color_black,556180,black_plus_sign,,,,null,,,,,,,,,,,,,,,,,,,,,,,
null,,learn_phase(without_color),558191,black_plus_sign,,,,null,GW/basket.jpg,GW/wheelchair.jpg,,,,,,,,,,,,,,,,,,,,,
null,,black_cross(without_color),559091,green,,,,null,GW/basket.jpg,GW/wheelchair.jpg,,,,,,,,,,,,,,,,,,,,,
468,,rt_plussign_withcolor,559602,green,,,,50,GW/basket.jpg,GW/wheelchair.jpg,,,,,,,,,,,,,,,,,,,,,
null,,rt_thecrossant_black,560716,black_plus_sign,,,,null,,,1,0.978021978021978,,,,,,,,,,,,,,,,,,,
null,,color_black,560825,black_plus_sign,,,,null,,,,,,,,,,,,,,,,,,,,,,,
null,,learn_phase(without_color),562841,black_plus_sign,,,,null,GW/teeth.jpg,GW/hat.jpg,,,,,,,,,,,,,,,,,,,,,
null,,black_cross(without_color),563738,blue,,,,null,GW/teeth.jpg,GW/hat.jpg,,,,,,,,,,,,,,,,,,,,,
null,,rt_plussign_withcolor,564249,blue,,,,null,GW/teeth.jpg,GW/hat.jpg,,,,,,,,,,,,,,,,,,,,,
1019,,rt_thecrossant_black,565363,black_plus_sign,,,,49,,,1,0.9782608695652174,,,,,,,,,,,,,,,,,,,
null,,color_black,565472,black_plus_sign,,,,null,,,,,,,,,,,,,,,,,,,,,,,
null,,learn_phase(without_color),567477,black_plus_sign,,,,null,GW/globe.jpg,GW/dustpan.jpg,,,,,,,,,,,,,,,,,,,,,
null,,black_cross(without_color),568426,green,,,,null,GW/globe.jpg,GW/dustpan.jpg,,,,,,,,,,,,,,,,,,,,,
null,,rt_plussign_withcolor,568938,green,,,,null,GW/globe.jpg,GW/dustpan.jpg,,,,,,,,,,,,,,,,,,,,,
1174,,rt_thecrossant_black,570020,black_plus_sign,,,,50,,,1,0.978494623655914,,,,,,,,,,,,,,,,,,,
null,,color_black,570129,black_plus_sign,,,,null,,,,,,,,,,,,,,,,,,,,,,,
null,,learn_phase(without_color),572131,black_plus_sign,,,,null,GW/jukebox.jpg,GW/camera.jpg,,,,,,,,,,,,,,,,,,,,,
null,,black_cross(without_color),572825,green,,,,null,GW/jukebox.jpg,GW/camera.jpg,,,,,,,,,,,,,,,,,,,,,
null,,rt_plussign_withcolor,573335,green,,,,null,GW/jukebox.jpg,GW/camera.jpg,,,,,,,,,,,,,,,,,,,,,
1038,,rt_thecrossant_black,574663,black_plus_sign,,,,50,,,1,0.9787234042553191,,,,,,,,,,,,,,,,,,,
null,,color_black,574772,black_plus_sign,,,,null,,,,,,,,,,,,,,,,,,,,,,,
null,,learn_phase(without_color),576797,black_plus_sign,,,,null,GW/globe.jpg,GW/soldier.jpg,,,,,,,,,,,,,,,,,,,,,
null,,black_cross(without_color),577739,green,,,,null,GW/globe.jpg,GW/soldier.jpg,,,,,,,,,,,,,,,,,,,,,
null,,rt_plussign_withcolor,578253,green,,,,null,GW/globe.jpg,GW/soldier.jpg,,,,,,,,,,,,,,,,,,,,,
815,,rt_thecrossant_black,579327,black_plus_sign,,,,50,,,1,0.9789473684210527,,,,,,,,,,,,,,,,,,,
null,,color_black,579434,black_plus_sign,,,,null,,,,,,,,,,,,,,,,,,,,,,,
null,,learn_phase(without_color),581438,black_plus_sign,,,,null,GW/basket.jpg,GW/wheelchair.jpg,,,,,,,,,,,,,,,,,,,,,
null,,black_cross(without_color),582197,blue,,,,null,GW/basket.jpg,GW/wheelchair.jpg,,,,,,,,,,,,,,,,,,,,,
null,,rt_plussign_withcolor,582708,blue,,,,null,GW/basket.jpg,GW/wheelchair.jpg,,,,,,,,,,,,,,,,,,,,,
1049,,rt_thecrossant_black,583965,black_plus_sign,,,,49,,,1,0.9791666666666666,,,,,,,,,,,,,,,,,,,
null,,color_black,584073,black_plus_sign,,,,null,,,,,,,,,,,,,,,,,,,,,,,
null,,learn_phase(without_color),586081,black_plus_sign,,,,null,GW/barrel.jpg,GW/jukebox.jpg,,,,,,,,,,,,,,,,,,,,,
null,,black_cross(without_color),586718,blue,,,,null,GW/barrel.jpg,GW/jukebox.jpg,,,,,,,,,,,,,,,,,,,,,
null,,rt_plussign_withcolor,587230,blue,,,,null,GW/barrel.jpg,GW/jukebox.jpg,,,,,,,,,,,,,,,,,,,,,
956,,rt_thecrossant_black,588608,black_plus_sign,,,,49,,,1,0.979381443298969,,,,,,,,,,,,,,,,,,,
null,,color_black,588715,black_plus_sign,,,,null,,,,,,,,,,,,,,,,,,,,,,,
null,,learn_phase(without_color),590728,black_plus_sign,,,,null,GW/teeth.jpg,GW/hat.jpg,,,,,,,,,,,,,,,,,,,,,
null,,black_cross(without_color),591547,green,,,,null,GW/teeth.jpg,GW/hat.jpg,,,,,,,,,,,,,,,,,,,,,
null,,rt_plussign_withcolor,592059,green,,,,null,GW/teeth.jpg,GW/hat.jpg,,,,,,,,,,,,,,,,,,,,,
806,,rt_thecrossant_black,593265,black_plus_sign,,,,50,,,1,0.9795918367346939,,,,,,,,,,,,,,,,,,,
null,,color_black,593373,black_plus_sign,,,,null,,,,,,,,,,,,,,,,,,,,,,,
null,,learn_phase(without_color),595391,black_plus_sign,,,,null,GW/wheelchair.jpg,GW/soldier.jpg,,,,,,,,,,,,,,,,,,,,,
null,,black_cross(without_color),595933,blue,,,,null,GW/wheelchair.jpg,GW/soldier.jpg,,,,,,,,,,,,,,,,,,,,,
null,,rt_plussign_withcolor,596442,blue,,,,null,GW/wheelchair.jpg,GW/soldier.jpg,,,,,,,,,,,,,,,,,,,,,
961,,rt_thecrossant_black,597924,black_plus_sign,,,,49,,,1,0.9797979797979798,,,,,,,,,,,,,,,,,,,
null,,color_black,598031,black_plus_sign,,,,null,,,,,,,,,,,,,,,,,,,,,,,
null,,learn_phase(without_color),600042,black_plus_sign,,,,null,GW/globe.jpg,GW/dustpan.jpg,,,,,,,,,,,,,,,,,,,,,
null,,black_cross(without_color),600504,blue,,,,null,GW/globe.jpg,GW/dustpan.jpg,,,,,,,,,,,,,,,,,,,,,
null,,rt_plussign_withcolor,601018,blue,,,,null,GW/globe.jpg,GW/dustpan.jpg,,,,,,,,,,,,,,,,,,,,,
927,,rt_thecrossant_black,602577,black_plus_sign,,,,49,,,1,0.98,,,,,,,,,,,,,,,,,,,
null,,color_black,602686,black_plus_sign,,,,null,,,,,,,,,,,,,,,,,,,,,,,
null,,learn_phase(without_color),604699,black_plus_sign,,,,null,GW/gong.jpg,GW/basket.jpg,,,,,,,,,,,,,,,,,,,,,
null,,black_cross(without_color),605783,green,,,,null,GW/gong.jpg,GW/basket.jpg,,,,,,,,,,,,,,,,,,,,,
null,,rt_plussign_withcolor,606295,green,,,,null,GW/gong.jpg,GW/basket.jpg,,,,,,,,,,,,,,,,,,,,,
636,,rt_thecrossant_black,607224,black_plus_sign,,,,50,,,1,0.9801980198019802,,,,,,,,,,,,,,,,,,,
null,,color_black,607331,black_plus_sign,,,,null,,,,,,,,,,,,,,,,,,,,,,,
null,,learn_phase(without_color),609347,black_plus_sign,,,,null,GW/jukebox.jpg,GW/camera.jpg,,,,,,,,,,,,,,,,,,,,,
null,,black_cross(without_color),609765,blue,,,,null,GW/jukebox.jpg,GW/camera.jpg,,,,,,,,,,,,,,,,,,,,,
null,,rt_plussign_withcolor,610279,blue,,,,null,GW/jukebox.jpg,GW/camera.jpg,,,,,,,,,,,,,,,,,,,,,
1238,,rt_thecrossant_black,611884,black_plus_sign,,,,49,,,1,0.9803921568627451,,,,,,,,,,,,,,,,,,,
null,,color_black,611992,black_plus_sign,,,,null,,,,,,,,,,,,,,,,,,,,,,,
null,,learn_phase(without_color),614002,black_plus_sign,,,,null,GW/globe.jpg,GW/dustpan.jpg,,,,,,,,,,,,,,,,,,,,,
null,,black_cross(without_color),614604,green,,,,null,GW/globe.jpg,GW/dustpan.jpg,,,,,,,,,,,,,,,,,,,,,
null,,rt_plussign_withcolor,615111,green,,,,null,GW/globe.jpg,GW/dustpan.jpg,,,,,,,,,,,,,,,,,,,,,
542,,rt_thecrossant_black,616520,black_plus_sign,,,,50,,,1,0.9805825242718447,,,,,,,,,,,,,,,,,,,
null,,color_black,616629,black_plus_sign,,,,null,,,,,,,,,,,,,,,,,,,,,,,
null,,learn_phase(without_color),618639,black_plus_sign,,,,null,GW/wheelchair.jpg,GW/soldier.jpg,,,,,,,,,,,,,,,,,,,,,
null,,black_cross(without_color),619693,blue,,,,null,GW/wheelchair.jpg,GW/soldier.jpg,,,,,,,,,,,,,,,,,,,,,
466,,rt_plussign_withcolor,620204,blue,,,,49,GW/wheelchair.jpg,GW/soldier.jpg,,,,,,,,,,,,,,,,,,,,,
null,,rt_thecrossant_black,621179,black_plus_sign,,,,null,,,1,0.9807692307692307,,,,,,,,,,,,,,,,,,,
null,,color_black,621287,black_plus_sign,,,,null,,,,,,,,,,,,,,,,,,,,,,,
null,,learn_phase(without_color),623293,black_plus_sign,,,,null,GW/teeth.jpg,GW/hat.jpg,,,,,,,,,,,,,,,,,,,,,
null,,black_cross(without_color),624300,green,,,,null,GW/teeth.jpg,GW/hat.jpg,,,,,,,,,,,,,,,,,,,,,
null,,rt_plussign_withcolor,624805,green,,,,null,GW/teeth.jpg,GW/hat.jpg,,,,,,,,,,,,,,,,,,,,,
1152,,rt_thecrossant_black,625821,black_plus_sign,,,,50,,,1,0.9809523809523809,,,,,,,,,,,,,,,,,,,
null,,color_black,625935,black_plus_sign,,,,null,,,,,,,,,,,,,,,,,,,,,,,
null,,learn_phase(without_color),627947,black_plus_sign,,,,null,GW/barrel.jpg,GW/jukebox.jpg,,,,,,,,,,,,,,,,,,,,,
null,,black_cross(without_color),628554,blue,,,,null,GW/barrel.jpg,GW/jukebox.jpg,,,,,,,,,,,,,,,,,,,,,
495,,rt_plussign_withcolor,629069,blue,,,,49,GW/barrel.jpg,GW/jukebox.jpg,,,,,,,,,,,,,,,,,,,,,
null,,rt_thecrossant_black,630483,black_plus_sign,,,,null,,,1,0.9811320754716981,,,,,,,,,,,,,,,,,,,
null,,color_black,630591,black_plus_sign,,,,null,,,,,,,,,,,,,,,,,,,,,,,
null,,learn_phase(without_color),632604,black_plus_sign,,,,null,GW/gong.jpg,GW/paint.jpg,,,,,,,,,,,,,,,,,,,,,
null,,black_cross(without_color),633053,green,,,,null,GW/gong.jpg,GW/paint.jpg,,,,,,,,,,,,,,,,,,,,,
null,,rt_plussign_withcolor,633563,green,,,,null,GW/gong.jpg,GW/paint.jpg,,,,,,,,,,,,,,,,,,,,,
1153,,rt_thecrossant_black,635142,black_plus_sign,,,,50,,,1,0.9813084112149533,,,,,,,,,,,,,,,,,,,
null,,color_black,635249,black_plus_sign,,,,null,,,,,,,,,,,,,,,,,,,,,,,
null,,learn_phase(without_color),637258,black_plus_sign,,,,null,GW/camera.jpg,GW/gong.jpg,,,,,,,,,,,,,,,,,,,,,
null,,black_cross(without_color),637861,blue,,,,null,GW/camera.jpg,GW/gong.jpg,,,,,,,,,,,,,,,,,,,,,
468,,rt_plussign_withcolor,638372,blue,,,,49,GW/camera.jpg,GW/gong.jpg,,,,,,,,,,,,,,,,,,,,,
null,,rt_thecrossant_black,639784,black_plus_sign,,,,null,,,1,0.9814814814814815,,,,,,,,,,,,,,,,,,,
null,,color_black,639891,black_plus_sign,,,,null,,,,,,,,,,,,,,,,,,,,,,,
null,,learn_phase(without_color),641906,black_plus_sign,,,,null,GW/globe.jpg,GW/soldier.jpg,,,,,,,,,,,,,,,,,,,,,
null,,black_cross(without_color),642945,blue,,,,null,GW/globe.jpg,GW/soldier.jpg,,,,,,,,,,,,,,,,,,,,,
510,,rt_plussign_withcolor,643457,blue,,,,49,GW/globe.jpg,GW/soldier.jpg,,,,,,,,,,,,,,,,,,,,,
null,,rt_thecrossant_black,644432,black_plus_sign,,,,null,,,1,0.981651376146789,,,,,,,,,,,,,,,,,,,
null,,color_black,644542,black_plus_sign,,,,null,,,,,,,,,,,,,,,,,,,,,,,
null,,learn_phase(without_color),646558,black_plus_sign,,,,null,GW/camera.jpg,GW/basket.jpg,,,,,,,,,,,,,,,,,,,,,
null,,black_cross(without_color),647183,blue,,,,null,GW/camera.jpg,GW/basket.jpg,,,,,,,,,,,,,,,,,,,,,
null,,rt_plussign_withcolor,647687,blue,,,,null,GW/camera.jpg,GW/basket.jpg,,,,,,,,,,,,,,,,,,,,,
1200,,rt_thecrossant_black,649082,black_plus_sign,,,,49,,,1,0.9818181818181818,,,,,,,,,,,,,,,,,,,
null,,color_black,649190,black_plus_sign,,,,null,,,,,,,,,,,,,,,,,,,,,,,
null,,learn_phase(without_color),651200,black_plus_sign,,,,null,GW/hat.jpg,GW/globe.jpg,,,,,,,,,,,,,,,,,,,,,
null,,black_cross(without_color),651959,green,,,,null,GW/hat.jpg,GW/globe.jpg,,,,,,,,,,,,,,,,,,,,,
488,,rt_plussign_withcolor,652471,green,,,,50,GW/hat.jpg,GW/globe.jpg,,,,,,,,,,,,,,,,,,,,,
null,,rt_thecrossant_black,653723,black_plus_sign,,,,null,,,1,0.9819819819819819,,,,,,,,,,,,,,,,,,,
null,,color_black,653829,black_plus_sign,,,,null,,,,,,,,,,,,,,,,,,,,,,,
null,,learn_phase(without_color),655841,black_plus_sign,,,,null,GW/barrel.jpg,GW/jukebox.jpg,,,,,,,,,,,,,,,,,,,,,
null,,black_cross(without_color),656369,blue,,,,null,GW/barrel.jpg,GW/jukebox.jpg,,,,,,,,,,,,,,,,,,,,,
null,,rt_plussign_withcolor,656879,blue,,,,null,GW/barrel.jpg,GW/jukebox.jpg,,,,,,,,,,,,,,,,,,,,,
887,,rt_thecrossant_black,658366,black_plus_sign,,,,49,,,1,0.9821428571428571,,,,,,,,,,,,,,,,,,,
null,,color_black,658473,black_plus_sign,,,,null,,,,,,,,,,,,,,,,,,,,,,,
null,,learn_phase(without_color),660476,black_plus_sign,,,,null,GW/camera.jpg,GW/basket.jpg,,,,,,,,,,,,,,,,,,,,,
null,,black_cross(without_color),660971,blue,,,,null,GW/camera.jpg,GW/basket.jpg,,,,,,,,,,,,,,,,,,,,,
null,,rt_plussign_withcolor,661484,blue,,,,null,GW/camera.jpg,GW/basket.jpg,,,,,,,,,,,,,,,,,,,,,
657,,rt_thecrossant_black,663016,black_plus_sign,,,,49,,,1,0.9823008849557522,,,,,,,,,,,,,,,,,,,
null,,color_black,663125,black_plus_sign,,,,null,,,,,,,,,,,,,,,,,,,,,,,
null,,learn_phase(without_color),665141,black_plus_sign,,,,null,GW/hat.jpg,GW/globe.jpg,,,,,,,,,,,,,,,,,,,,,
null,,black_cross(without_color),665593,green,,,,null,GW/hat.jpg,GW/globe.jpg,,,,,,,,,,,,,,,,,,,,,
null,,rt_plussign_withcolor,666105,green,,,,null,GW/hat.jpg,GW/globe.jpg,,,,,,,,,,,,,,,,,,,,,
705,,rt_thecrossant_black,667673,black_plus_sign,,,,50,,,1,0.9824561403508771,,,,,,,,,,,,,,,,,,,
null,,color_black,667783,black_plus_sign,,,,null,,,,,,,,,,,,,,,,,,,,,,,
null,,learn_phase(without_color),669797,black_plus_sign,,,,null,GW/jukebox.jpg,GW/basket.jpg,,,,,,,,,,,,,,,,,,,,,
null,,black_cross(without_color),670496,green,,,,null,GW/jukebox.jpg,GW/basket.jpg,,,,,,,,,,,,,,,,,,,,,
424,,rt_plussign_withcolor,671009,green,,,,50,GW/jukebox.jpg,GW/basket.jpg,,,,,,,,,,,,,,,,,,,,,
null,,rt_thecrossant_black,672323,black_plus_sign,,,,null,,,1,0.9826086956521739,,,,,,,,,,,,,,,,,,,
null,,color_black,672431,black_plus_sign,,,,null,,,,,,,,,,,,,,,,,,,,,,,
null,,learn_phase(without_color),674449,black_plus_sign,,,,null,GW/camera.jpg,GW/gong.jpg,,,,,,,,,,,,,,,,,,,,,
null,,black_cross(without_color),675311,green,,,,null,GW/camera.jpg,GW/gong.jpg,,,,,,,,,,,,,,,,,,,,,
null,,rt_plussign_withcolor,675822,green,,,,null,GW/camera.jpg,GW/gong.jpg,,,,,,,,,,,,,,,,,,,,,
829,,rt_thecrossant_black,676970,black_plus_sign,,,,50,,,1,0.9827586206896551,,,,,,,,,,,,,,,,,,,
null,,color_black,677078,black_plus_sign,,,,null,,,,,,,,,,,,,,,,,,,,,,,
null,,learn_phase(without_color),679094,black_plus_sign,,,,null,GW/gong.jpg,GW/basket.jpg,,,,,,,,,,,,,,,,,,,,,
null,,black_cross(without_color),679837,green,,,,null,GW/gong.jpg,GW/basket.jpg,,,,,,,,,,,,,,,,,,,,,
458,,rt_plussign_withcolor,680350,green,,,,50,GW/gong.jpg,GW/basket.jpg,,,,,,,,,,,,,,,,,,,,,
null,,rt_thecrossant_black,681622,black_plus_sign,,,,null,,,1,0.9829059829059829,,,,,,,,,,,,,,,,,,,
null,,color_black,681729,black_plus_sign,,,,null,,,,,,,,,,,,,,,,,,,,,,,
null,,learn_phase(without_color),683739,black_plus_sign,,,,null,GW/hat.jpg,GW/barrel.jpg,,,,,,,,,,,,,,,,,,,,,
null,,black_cross(without_color),684235,blue,,,,null,GW/hat.jpg,GW/barrel.jpg,,,,,,,,,,,,,,,,,,,,,
508,,rt_plussign_withcolor,684744,blue,,,,49,GW/hat.jpg,GW/barrel.jpg,,,,,,,,,,,,,,,,,,,,,
null,,rt_thecrossant_black,686261,black_plus_sign,,,,null,,,1,0.9830508474576272,,,,,,,,,,,,,,,,,,,
null,,color_black,686369,black_plus_sign,,,,null,,,,,,,,,,,,,,,,,,,,,,,
null,,learn_phase(without_color),688385,black_plus_sign,,,,null,GW/gong.jpg,GW/paint.jpg,,,,,,,,,,,,,,,,,,,,,
null,,black_cross(without_color),688849,blue,,,,null,GW/gong.jpg,GW/paint.jpg,,,,,,,,,,,,,,,,,,,,,
null,,rt_plussign_withcolor,689360,blue,,,,null,GW/gong.jpg,GW/paint.jpg,,,,,,,,,,,,,,,,,,,,,
672,,rt_thecrossant_black,690914,black_plus_sign,,,,49,,,1,0.9831932773109243,,,,,,,,,,,,,,,,,,,
null,,color_black,691024,black_plus_sign,,,,null,,,,,,,,,,,,,,,,,,,,,,,
null,,learn_phase(without_color),693040,black_plus_sign,,,,null,GW/gong.jpg,GW/basket.jpg,,,,,,,,,,,,,,,,,,,,,
null,,black_cross(without_color),693800,blue,,,,null,GW/gong.jpg,GW/basket.jpg,,,,,,,,,,,,,,,,,,,,,
null,,rt_plussign_withcolor,694312,blue,,,,null,GW/gong.jpg,GW/basket.jpg,,,,,,,,,,,,,,,,,,,,,
675,,rt_thecrossant_black,695580,black_plus_sign,,,,49,,,1,0.9833333333333333,,,,,,,,,,,,,,,,,,,
null,,color_black,695689,black_plus_sign,,,,null,,,,,,,,,,,,,,,,,,,,,,,
null,,learn_phase(without_color),697703,black_plus_sign,,,,null,GW/teeth.jpg,GW/hat.jpg,,,,,,,,,,,,,,,,,,,,,
null,,black_cross(without_color),698586,blue,,,,null,GW/teeth.jpg,GW/hat.jpg,,,,,,,,,,,,,,,,,,,,,
389,,rt_plussign_withcolor,699098,blue,,,,50,GW/teeth.jpg,GW/hat.jpg,,,,,,,,,,,,,,,,,,,,,
null,,rt_thecrossant_black,700228,black_plus_sign,,,,49,,,0,0.9752066115702479,,,,,,,,,,,,,,,,,,,
null,,color_black,700338,black_plus_sign,,,,null,,,,,,,,,,,,,,,,,,,,,,,
null,,learn_phase(without_color),702349,black_plus_sign,,,,null,GW/hat.jpg,GW/barrel.jpg,,,,,,,,,,,,,,,,,,,,,
null,,black_cross(without_color),703208,blue,,,,null,GW/hat.jpg,GW/barrel.jpg,,,,,,,,,,,,,,,,,,,,,
null,,rt_plussign_withcolor,703711,blue,,,,null,GW/hat.jpg,GW/barrel.jpg,,,,,,,,,,,,,,,,,,,,,
1186,,rt_thecrossant_black,704886,black_plus_sign,,,,49,,,1,0.9754098360655737,,,,,,,,,,,,,,,,,,,
null,,color_black,704994,black_plus_sign,,,,null,,,,,,,,,,,,,,,,,,,,,,,
null,,learn_phase(without_color),707006,black_plus_sign,,,,null,GW/wheelchair.jpg,GW/soldier.jpg,,,,,,,,,,,,,,,,,,,,,
null,,black_cross(without_color),707749,green,,,,null,GW/wheelchair.jpg,GW/soldier.jpg,,,,,,,,,,,,,,,,,,,,,
506,,rt_plussign_withcolor,708259,green,,,,49,GW/wheelchair.jpg,GW/soldier.jpg,,,,,,,,,,,,,,,,,,,,,
null,,rt_thecrossant_black,709531,black_plus_sign,,,,50,,,0,0.967479674796748,,,,,,,,,,,,,,,,,,,
null,,color_black,709639,black_plus_sign,,,,null,,,,,,,,,,,,,,,,,,,,,,,
null,,learn_phase(without_color),711642,black_plus_sign,,,,null,GW/camera.jpg,GW/basket.jpg,,,,,,,,,,,,,,,,,,,,,
null,,black_cross(without_color),712522,green,,,,null,GW/camera.jpg,GW/basket.jpg,,,,,,,,,,,,,,,,,,,,,
null,,rt_plussign_withcolor,713034,green,,,,null,GW/camera.jpg,GW/basket.jpg,,,,,,,,,,,,,,,,,,,,,
1210,,rt_thecrossant_black,714179,black_plus_sign,,,,50,,,1,0.967741935483871,,,,,,,,,,,,,,,,,,,
null,,color_black,714288,black_plus_sign,,,,null,,,,,,,,,,,,,,,,,,,,,,,
null,,learn_phase(without_color),716300,black_plus_sign,,,,null,GW/barrel.jpg,GW/jukebox.jpg,,,,,,,,,,,,,,,,,,,,,
null,,black_cross(without_color),717202,blue,,,,null,GW/barrel.jpg,GW/jukebox.jpg,,,,,,,,,,,,,,,,,,,,,
null,,rt_plussign_withcolor,717714,blue,,,,null,GW/barrel.jpg,GW/jukebox.jpg,,,,,,,,,,,,,,,,,,,,,
1083,,rt_thecrossant_black,718826,black_plus_sign,,,,49,,,1,0.968,,,,,,,,,,,,,,,,,,,
null,,color_black,718934,black_plus_sign,,,,null,,,,,,,,,,,,,,,,,,,,,,,
null,,learn_phase(without_color),720951,black_plus_sign,,,,null,GW/barrel.jpg,GW/jukebox.jpg,,,,,,,,,,,,,,,,,,,,,
null,,black_cross(without_color),721461,green,,,,null,GW/barrel.jpg,GW/jukebox.jpg,,,,,,,,,,,,,,,,,,,,,
451,,rt_plussign_withcolor,721972,green,,,,50,GW/barrel.jpg,GW/jukebox.jpg,,,,,,,,,,,,,,,,,,,,,
null,,rt_thecrossant_black,723490,black_plus_sign,,,,null,,,1,0.9682539682539683,,,,,,,,,,,,,,,,,,,
null,,color_black,723596,black_plus_sign,,,,null,,,,,,,,,,,,,,,,,,,,,,,
null,,learn_phase(without_color),725606,black_plus_sign,,,,null,GW/hat.jpg,GW/barrel.jpg,,,,,,,,,,,,,,,,,,,,,
null,,black_cross(without_color),726197,green,,,,null,GW/hat.jpg,GW/barrel.jpg,,,,,,,,,,,,,,,,,,,,,
459,,rt_plussign_withcolor,726707,green,,,,50,GW/hat.jpg,GW/barrel.jpg,,,,,,,,,,,,,,,,,,,,,
null,,rt_thecrossant_black,728139,black_plus_sign,,,,null,,,1,0.968503937007874,,,,,,,,,,,,,,,,,,,
null,,color_black,728247,black_plus_sign,,,,null,,,,,,,,,,,,,,,,,,,,,,,
56772,,intro_1,785022,instruct,,0,Start,,,,,,,,,,,,,,,,,,,,,,,,
3147,,directmemory_phase,788170,GW/globe.jpg,,,,51,,,1,1,GW/camera.jpg,GW/barrel.jpg,GW/hat.jpg,GW/hat.jpg,GW/barrel.jpg,GW/camera.jpg,1,,,,,,,,,,,,
null,,html-keyboard-response,789183,<p></p>,,,,null,,,,,,,,,,,,,,,,,,,,,,,
2241,,directmemory_phase,791424,GW/gong.jpg,,,,51,,,0,0.5,GW/snail.jpg,GW/camera.jpg,GW/soldier.jpg,GW/camera.jpg,GW/snail.jpg,GW/soldier.jpg,0.5,closer,,,,,,,,,,,
null,,html-keyboard-response,792429,<p></p>,,,,null,,,,,,,,,,,,,,,,,,,,,,,
5683,,directmemory_phase,798112,GW/barrel.jpg,,,,49,,,1,0.6666666666666666,GW/jukebox.jpg,GW/paint.jpg,GW/camera.jpg,GW/jukebox.jpg,GW/camera.jpg,GW/paint.jpg,1,,,,,,,,,,,,
null,,html-keyboard-response,799128,<p></p>,,,,null,,,,,,,,,,,,,,,,,,,,,,,
null,,directmemory_phase,805629,GW/basket.jpg,,,,null,,,0,0.5,GW/camera.jpg,GW/dustpan.jpg,GW/soldier.jpg,GW/camera.jpg,GW/soldier.jpg,GW/dustpan.jpg,0,,,,,,,,,,,,
null,,html-keyboard-response,806640,<p></p>,,,,null,,,,,,,,,,,,,,,,,,,,,,,
3432,,directmemory_phase,810072,GW/barrel.jpg,,,,51,,,1,0.6,GW/dustpan.jpg,GW/globe.jpg,GW/hat.jpg,GW/hat.jpg,GW/globe.jpg,GW/dustpan.jpg,1,,,,,,,,,,,,
null,,html-keyboard-response,811086,<p></p>,,,,null,,,,,,,,,,,,,,,,,,,,,,,
3841,,directmemory_phase,814928,GW/snail.jpg,,,,50,,,0,0.5,GW/paint.jpg,GW/jukebox.jpg,GW/camera.jpg,GW/camera.jpg,GW/jukebox.jpg,GW/paint.jpg,0.5,closer,,,,,,,,,,,
null,,html-keyboard-response,815933,<p></p>,,,,null,,,,,,,,,,,,,,,,,,,,,,,
4961,,directmemory_phase,820896,GW/jukebox.jpg,,,,49,,,0,0.42857142857142855,GW/dustpan.jpg,GW/hat.jpg,GW/basket.jpg,GW/basket.jpg,GW/hat.jpg,GW/dustpan.jpg,0.5,closer,,,,,,,,,,,
null,,html-keyboard-response,821906,<p></p>,,,,null,,,,,,,,,,,,,,,,,,,,,,,
4772,,directmemory_phase,826679,GW/wheelchair.jpg,,,,50,,,1,0.5,GW/camera.jpg,GW/soldier.jpg,GW/dustpan.jpg,GW/soldier.jpg,GW/camera.jpg,GW/dustpan.jpg,1,,,,,,,,,,,,
null,,html-keyboard-response,827689,<p></p>,,,,null,,,,,,,,,,,,,,,,,,,,,,,
5582,,directmemory_phase,833272,GW/basket.jpg,,,,51,,,0,0.4444444444444444,GW/gong.jpg,GW/dustpan.jpg,GW/paint.jpg,GW/gong.jpg,GW/paint.jpg,GW/dustpan.jpg,0.5,closer,,,,,,,,,,,
null,,html-keyboard-response,834288,<p></p>,,,,null,,,,,,,,,,,,,,,,,,,,,,,
3607,,directmemory_phase,837894,GW/jukebox.jpg,,,,51,,,0,0.4,GW/barrel.jpg,GW/dustpan.jpg,GW/gong.jpg,GW/barrel.jpg,GW/gong.jpg,GW/dustpan.jpg,0.5,closer,,,,,,,,,,,
null,,html-keyboard-response,838912,<p></p>,,,,null,,,,,,,,,,,,,,,,,,,,,,,
3496,,directmemory_phase,842408,GW/gong.jpg,,,,49,,,0,0.36363636363636365,GW/wheelchair.jpg,GW/paint.jpg,GW/hat.jpg,GW/paint.jpg,GW/wheelchair.jpg,GW/hat.jpg,0.5,closer,,,,,,,,,,,
null,,html-keyboard-response,843413,<p></p>,,,,null,,,,,,,,,,,,,,,,,,,,,,,
2161,,directmemory_phase,845575,GW/jukebox.jpg,,,,49,,,1,0.4166666666666667,GW/camera.jpg,GW/paint.jpg,GW/gong.jpg,GW/camera.jpg,GW/gong.jpg,GW/paint.jpg,1,,,,,,,,,,,,
null,,html-keyboard-response,846583,<p></p>,,,,null,,,,,,,,,,,,,,,,,,,,,,,
2616,,directmemory_phase,849200,GW/wheelchair.jpg,,,,50,,,0,0.38461538461538464,GW/snail.jpg,GW/globe.jpg,GW/barrel.jpg,GW/barrel.jpg,GW/globe.jpg,GW/snail.jpg,0.5,closer,,,,,,,,,,,
null,,html-keyboard-response,850217,<p></p>,,,,null,,,,,,,,,,,,,,,,,,,,,,,
2223,,directmemory_phase,852439,GW/basket.jpg,,,,50,,,0,0.35714285714285715,GW/hat.jpg,GW/snail.jpg,GW/jukebox.jpg,GW/jukebox.jpg,GW/snail.jpg,GW/hat.jpg,0.5,closer,,,,,,,,,,,
null,,html-keyboard-response,853444,<p></p>,,,,null,,,,,,,,,,,,,,,,,,,,,,,
1940,,directmemory_phase,855383,GW/globe.jpg,,,,51,,,1,0.4,GW/camera.jpg,GW/barrel.jpg,GW/soldier.jpg,GW/soldier.jpg,GW/barrel.jpg,GW/camera.jpg,1,,,,,,,,,,,,
null,,html-keyboard-response,856393,<p></p>,,,,null,,,,,,,,,,,,,,,,,,,,,,,
2359,,directmemory_phase,858752,GW/wheelchair.jpg,,,,51,,,1,0.4375,GW/dustpan.jpg,GW/gong.jpg,GW/basket.jpg,GW/basket.jpg,GW/gong.jpg,GW/dustpan.jpg,1,,,,,,,,,,,,
null,,html-keyboard-response,859766,<p></p>,,,,null,,,,,,,,,,,,,,,,,,,,,,,
2001,,directmemory_phase,861767,GW/camera.jpg,,,,49,,,1,0.47058823529411764,GW/jukebox.jpg,GW/globe.jpg,GW/wheelchair.jpg,GW/jukebox.jpg,GW/wheelchair.jpg,GW/globe.jpg,1,,,,,,,,,,,,
null,,html-keyboard-response,862774,<p></p>,,,,null,,,,,,,,,,,,,,,,,,,,,,,
2433,,directmemory_phase,865207,GW/hat.jpg,,,,50,,,1,0.5,GW/dustpan.jpg,GW/teeth.jpg,GW/snail.jpg,GW/teeth.jpg,GW/dustpan.jpg,GW/snail.jpg,1,,,,,,,,,,,,
null,,html-keyboard-response,866211,<p></p>,,,,null,,,,,,,,,,,,,,,,,,,,,,,
2477,,directmemory_phase,868688,GW/basket.jpg,,,,51,,,1,0.5263157894736842,GW/globe.jpg,GW/barrel.jpg,GW/wheelchair.jpg,GW/wheelchair.jpg,GW/barrel.jpg,GW/globe.jpg,1,,,,,,,,,,,,
null,,html-keyboard-response,869699,<p></p>,,,,null,,,,,,,,,,,,,,,,,,,,,,,
1260,,directmemory_phase,870960,GW/hat.jpg,,,,50,,,1,0.55,GW/soldier.jpg,GW/globe.jpg,GW/gong.jpg,GW/globe.jpg,GW/soldier.jpg,GW/gong.jpg,1,,,,,,,,,,,,
null,,html-keyboard-response,871964,<p></p>,,,,null,,,,,,,,,,,,,,,,,,,,,,,
3491,,directmemory_phase,875456,GW/soldier.jpg,,,,50,,,0,0.5238095238095238,GW/teeth.jpg,GW/barrel.jpg,GW/wheelchair.jpg,GW/wheelchair.jpg,GW/barrel.jpg,GW/teeth.jpg,0.5,closer,,,,,,,,,,,
null,,html-keyboard-response,876468,<p></p>,,,,null,,,,,,,,,,,,,,,,,,,,,,,
1747,,directmemory_phase,878216,GW/gong.jpg,,,,50,,,1,0.5454545454545454,GW/wheelchair.jpg,GW/basket.jpg,GW/soldier.jpg,GW/basket.jpg,GW/wheelchair.jpg,GW/soldier.jpg,1,,,,,,,,,,,,
null,,html-keyboard-response,879225,<p></p>,,,,null,,,,,,,,,,,,,,,,,,,,,,,
2333,,directmemory_phase,881560,GW/teeth.jpg,,,,51,,,1,0.5652173913043478,GW/soldier.jpg,GW/globe.jpg,GW/hat.jpg,GW/hat.jpg,GW/globe.jpg,GW/soldier.jpg,1,,,,,,,,,,,,
null,,html-keyboard-response,882575,<p></p>,,,,null,,,,,,,,,,,,,,,,,,,,,,,
1239,,directmemory_phase,883816,GW/paint.jpg,,,,51,,,1,0.5833333333333334,GW/wheelchair.jpg,GW/camera.jpg,GW/gong.jpg,GW/gong.jpg,GW/camera.jpg,GW/wheelchair.jpg,1,,,,,,,,,,,,
null,,html-keyboard-response,884827,<p></p>,,,,null,,,,,,,,,,,,,,,,,,,,,,,
3475,,directmemory_phase,888304,GW/dustpan.jpg,,,,51,,,1,0.6,GW/barrel.jpg,GW/hat.jpg,GW/globe.jpg,GW/globe.jpg,GW/hat.jpg,GW/barrel.jpg,1,,,,,,,,,,,,
null,,html-keyboard-response,889309,<p></p>,,,,null,,,,,,,,,,,,,,,,,,,,,,,
5009,,directmemory_phase,894320,GW/camera.jpg,,,,50,,,0,0.5769230769230769,GW/basket.jpg,GW/soldier.jpg,GW/barrel.jpg,GW/basket.jpg,GW/barrel.jpg,GW/soldier.jpg,0.5,closer,,,,,,,,,,,
null,,html-keyboard-response,895329,<p></p>,,,,null,,,,,,,,,,,,,,,,,,,,,,,
5446,,directmemory_phase,900776,GW/barrel.jpg,,,,50,,,0,0.5555555555555556,GW/wheelchair.jpg,GW/paint.jpg,GW/globe.jpg,GW/wheelchair.jpg,GW/globe.jpg,GW/paint.jpg,0.5,closer,,,,,,,,,,,
null,,html-keyboard-response,901777,<p></p>,,,,null,,,,,,,,,,,,,,,,,,,,,,,
4005,,directmemory_phase,905784,GW/camera.jpg,,,,51,,,1,0.5714285714285714,GW/hat.jpg,GW/wheelchair.jpg,GW/snail.jpg,GW/snail.jpg,GW/wheelchair.jpg,GW/hat.jpg,1,,,,,,,,,,,,
null,,html-keyboard-response,906794,<p></p>,,,,null,,,,,,,,,,,,,,,,,,,,,,,
1973,,directmemory_phase,908768,GW/soldier.jpg,,,,51,,,1,0.5862068965517241,GW/camera.jpg,GW/hat.jpg,GW/globe.jpg,GW/globe.jpg,GW/hat.jpg,GW/camera.jpg,1,,,,,,,,,,,,
null,,html-keyboard-response,909807,<p></p>,,,,null,,,,,,,,,,,,,,,,,,,,,,,
null,,directmemory_phase,916319,GW/hat.jpg,,,,null,,,0,0.5666666666666667,GW/barrel.jpg,GW/gong.jpg,GW/jukebox.jpg,GW/barrel.jpg,GW/jukebox.jpg,GW/gong.jpg,0,,,,,,,,,,,,
null,,html-keyboard-response,917325,<p></p>,,,,null,,,,,,,,,,,,,,,,,,,,,,,
2571,,directmemory_phase,919896,GW/camera.jpg,,,,51,,,0,0.5483870967741935,GW/gong.jpg,GW/hat.jpg,GW/paint.jpg,GW/gong.jpg,GW/paint.jpg,GW/hat.jpg,0.5,closer,,,,,,,,,,,
null,,html-keyboard-response,920900,<p></p>,,,,null,,,,,,,,,,,,,,,,,,,,,,,
1811,,directmemory_phase,922712,GW/globe.jpg,,,,51,,,1,0.5625,GW/camera.jpg,GW/wheelchair.jpg,GW/dustpan.jpg,GW/dustpan.jpg,GW/wheelchair.jpg,GW/camera.jpg,1,,,,,,,,,,,,
null,,html-keyboard-response,923714,<p></p>,,,,null,,,,,,,,,,,,,,,,,,,,,,,
132530,,intro_1,1056245,instruct,,0,,,,,,,,,,,,,,,,,,,,,,,,,
6395,,intro_2,1062642,instruct,,1,Next,,,,,,,,,,,,,,,,,,,,,,,,
2593,,intro_3,1065238,instruct,,1,Next,,,,,,,,,,,,,,,,,,,,,,,,
1934,,intro_4,1067173,instruct,,1,Next,,,,,,,,,,,,,,,,,,,,,,,,
10739,,intro_5,1077913,instruct,,1,Next,,,,,,,,,,,,,,,,,,,,,,,,
12983,,intro_6,1090898,instruct,,1,Next,,,,,,,,,,,,,,,,,,,,,,,,
3604,,intro_7,1094503,instruct,,1,Next,,,,,,,,,,,,,,,,,,,,,,,,
2415,,intro_8,1096919,instruct,,1,Next,,,,,,,,,,,,,,,,,,,,,,,,
3846,,shortestpath_phase,1100767,GW/soldier.jpg,,,,49,GW/barrel.jpg,GW/gong.jpg,1,1,,,,GW/barrel.jpg,,,,,One Edge Diff,Two Edge Three Edge,,,,,,,,,
null,,html-keyboard-response,1101772,<p></p>,,,,null,,,,,,,,,,,,,,,,,,,,,,,
1508,,shortestpath_phase,1103280,GW/dustpan.jpg,,,,50,GW/snail.jpg,GW/jukebox.jpg,1,1,,,,GW/jukebox.jpg,,,,,Two Edge Diff,Four Edge Six Edge,,,,,,,,,
null,,html-keyboard-response,1104295,<p></p>,,,,null,,,,,,,,,,,,,,,,,,,,,,,
1265,,shortestpath_phase,1105559,GW/snail.jpg,,,,50,GW/globe.jpg,GW/soldier.jpg,1,1,,,,GW/soldier.jpg,,,,,One Edge Diff,Four Edge Five Edge,,,,,,,,,
null,,html-keyboard-response,1106567,<p></p>,,,,null,,,,,,,,,,,,,,,,,,,,,,,
1519,,shortestpath_phase,1108087,GW/dustpan.jpg,,,,49,GW/hat.jpg,GW/paint.jpg,1,1,,,,GW/hat.jpg,,,,,Four Edge Diff,Two Edge Six Edge,,,,,,,,,
null,,html-keyboard-response,1109094,<p></p>,,,,null,,,,,,,,,,,,,,,,,,,,,,,
2065,,shortestpath_phase,1111160,GW/snail.jpg,,,,49,GW/gong.jpg,GW/hat.jpg,1,1,,,,GW/gong.jpg,,,,,Two Edge Diff,Two Edge Four Edge,,,,,,,,,
null,,html-keyboard-response,1112172,<p></p>,,,,null,,,,,,,,,,,,,,,,,,,,,,,
1137,,shortestpath_phase,1113311,GW/teeth.jpg,,,,50,GW/paint.jpg,GW/globe.jpg,1,1,,,,GW/globe.jpg,,,,,Four Edge Diff,Two Edge Six Edge,,,,,,,,,
null,,html-keyboard-response,1114326,<p></p>,,,,null,,,,,,,,,,,,,,,,,,,,,,,
2482,,shortestpath_phase,1116808,GW/barrel.jpg,,,,49,GW/camera.jpg,GW/gong.jpg,1,1,,,,GW/camera.jpg,,,,,One Edge Diff,Two Edge Three Edge,,,,,,,,,
null,,html-keyboard-response,1117822,<p></p>,,,,null,,,,,,,,,,,,,,,,,,,,,,,
1289,,shortestpath_phase,1119112,GW/paint.jpg,,,,49,GW/globe.jpg,GW/wheelchair.jpg,0,0.875,,,,GW/wheelchair.jpg,,,,,Two Edge Diff,Three Edge Five Edge,,,,,,,,,
null,,html-keyboard-response,1120121,<p></p>,,,,null,,,,,,,,,,,,,,,,,,,,,,,
1176,,shortestpath_phase,1121298,GW/teeth.jpg,,,,49,GW/paint.jpg,GW/camera.jpg,0,0.7777777777777778,,,,GW/camera.jpg,,,,,Two Edge Diff,Four Edge Six Edge,,,,,,,,,
null,,html-keyboard-response,1122660,<p></p>,,,,null,,,,,,,,,,,,,,,,,,,,,,,
1698,,shortestpath_phase,1124359,GW/barrel.jpg,,,,50,GW/basket.jpg,GW/gong.jpg,0,0.7,,,,GW/basket.jpg,,,,,One Edge Diff,Two Edge Three Edge,,,,,,,,,
null,,html-keyboard-response,1125370,<p></p>,,,,null,,,,,,,,,,,,,,,,,,,,,,,
1180,,shortestpath_phase,1126551,GW/teeth.jpg,,,,50,GW/camera.jpg,GW/gong.jpg,0,0.6363636363636364,,,,GW/camera.jpg,,,,,One Edge Diff,Four Edge Five Edge,,,,,,,,,
null,,html-keyboard-response,1127563,<p></p>,,,,null,,,,,,,,,,,,,,,,,,,,,,,
868,,shortestpath_phase,1128431,GW/snail.jpg,,,,50,GW/wheelchair.jpg,GW/teeth.jpg,0,0.5833333333333334,,,,GW/wheelchair.jpg,,,,,Two Edge Diff,Three Edge Five Edge,,,,,,,,,
null,,html-keyboard-response,1129449,<p></p>,,,,null,,,,,,,,,,,,,,,,,,,,,,,
1190,,shortestpath_phase,1130639,GW/hat.jpg,,,,50,GW/camera.jpg,GW/paint.jpg,0,0.5384615384615384,,,,GW/camera.jpg,,,,,Two Edge Diff,Three Edge Five Edge,,,,,,,,,
null,,html-keyboard-response,1131646,<p></p>,,,,null,,,,,,,,,,,,,,,,,,,,,,,
1585,,shortestpath_phase,1133232,GW/dustpan.jpg,,,,49,GW/soldier.jpg,GW/gong.jpg,1,0.5714285714285714,,,,GW/soldier.jpg,,,,,Three Edge Diff,Two Edge Five Edge,,,,,,,,,
null,,html-keyboard-response,1134248,<p></p>,,,,null,,,,,,,,,,,,,,,,,,,,,,,
982,,shortestpath_phase,1135231,GW/paint.jpg,,,,50,GW/dustpan.jpg,GW/basket.jpg,1,0.6,,,,GW/basket.jpg,,,,,Four Edge Diff,Two Edge Six Edge,,,,,,,,,
null,,html-keyboard-response,1136247,<p></p>,,,,null,,,,,,,,,,,,,,,,,,,,,,,
808,,shortestpath_phase,1137055,GW/teeth.jpg,,,,50,GW/snail.jpg,GW/soldier.jpg,1,0.625,,,,GW/soldier.jpg,,,,,Two Edge Diff,Three Edge Five Edge,,,,,,,,,
null,,html-keyboard-response,1138061,<p></p>,,,,null,,,,,,,,,,,,,,,,,,,,,,,
2051,,shortestpath_phase,1140112,GW/gong.jpg,,,,50,GW/jukebox.jpg,GW/barrel.jpg,0,0.5882352941176471,,,,GW/jukebox.jpg,,,,,One Edge Diff,Two Edge Three Edge,,,,,,,,,
null,,html-keyboard-response,1141124,<p></p>,,,,null,,,,,,,,,,,,,,,,,,,,,,,
1649,,shortestpath_phase,1142775,GW/teeth.jpg,,,,49,GW/camera.jpg,GW/snail.jpg,1,0.6111111111111112,,,,GW/camera.jpg,,,,,One Edge Diff,Four Edge Five Edge,,,,,,,,,
null,,html-keyboard-response,1143786,<p></p>,,,,null,,,,,,,,,,,,,,,,,,,,,,,
1573,,shortestpath_phase,1145359,GW/snail.jpg,,,,50,GW/teeth.jpg,GW/gong.jpg,1,0.631578947368421,,,,GW/gong.jpg,,,,,Three Edge Diff,Two Edge Five Edge,,,,,,,,,
null,,html-keyboard-response,1146369,<p></p>,,,,null,,,,,,,,,,,,,,,,,,,,,,,
1046,,shortestpath_phase,1147416,GW/paint.jpg,,,,50,GW/teeth.jpg,GW/hat.jpg,1,0.65,,,,GW/hat.jpg,,,,,One Edge Diff,Five Edge Six Edge,,,,,,,,,
null,,html-keyboard-response,1148425,<p></p>,,,,null,,,,,,,,,,,,,,,,,,,,,,,
1117,,shortestpath_phase,1149542,GW/snail.jpg,,,,49,GW/teeth.jpg,GW/basket.jpg,0,0.6190476190476191,,,,GW/basket.jpg,,,,,Three Edge Diff,Two Edge Five Edge,,,,,,,,,
null,,html-keyboard-response,1150547,<p></p>,,,,null,,,,,,,,,,,,,,,,,,,,,,,
2971,,shortestpath_phase,1153519,GW/soldier.jpg,,,,49,GW/dustpan.jpg,GW/snail.jpg,1,0.6363636363636364,,,,GW/dustpan.jpg,,,,,Two Edge Diff,Two Edge Four Edge,,,,,,,,,
null,,html-keyboard-response,1154522,<p></p>,,,,null,,,,,,,,,,,,,,,,,,,,,,,
1197,,shortestpath_phase,1155720,GW/paint.jpg,,,,50,GW/hat.jpg,GW/snail.jpg,1,0.6521739130434783,,,,GW/snail.jpg,,,,,Two Edge Diff,Three Edge Five Edge,,,,,,,,,
null,,html-keyboard-response,1156734,<p></p>,,,,null,,,,,,,,,,,,,,,,,,,,,,,
1105,,shortestpath_phase,1157840,GW/teeth.jpg,,,,50,GW/gong.jpg,GW/basket.jpg,1,0.6666666666666666,,,,GW/basket.jpg,,,,,One Edge Diff,Four Edge Five Edge,,,,,,,,,
null,,html-keyboard-response,1158847,<p></p>,,,,null,,,,,,,,,,,,,,,,,,,,,,,
840,,shortestpath_phase,1159688,GW/dustpan.jpg,,,,50,GW/soldier.jpg,GW/gong.jpg,0,0.64,,,,GW/soldier.jpg,,,,,Three Edge Diff,Three Edge Six Edge,,,,,,,,,
null,,html-keyboard-response,1160704,<p></p>,,,,null,,,,,,,,,,,,,,,,,,,,,,,
567,,shortestpath_phase,1161272,GW/teeth.jpg,,,,50,GW/basket.jpg,GW/globe.jpg,1,0.6538461538461539,,,,GW/globe.jpg,,,,,Two Edge Diff,Two Edge Four Edge,,,,,,,,,
null,,html-keyboard-response,1162282,<p></p>,,,,null,,,,,,,,,,,,,,,,,,,,,,,
667,,shortestpath_phase,1162951,GW/gong.jpg,,,,50,GW/snail.jpg,GW/teeth.jpg,0,0.6296296296296297,,,,GW/snail.jpg,,,,,Three Edge Diff,Two Edge Five Edge,,,,,,,,,
null,,html-keyboard-response,1163965,<p></p>,,,,null,,,,,,,,,,,,,,,,,,,,,,,
994,,shortestpath_phase,1164959,GW/paint.jpg,,,,50,GW/hat.jpg,GW/camera.jpg,1,0.6428571428571429,,,,GW/camera.jpg,,,,,Three Edge Diff,Three Edge Six Edge,,,,,,,,,
null,,html-keyboard-response,1165976,<p></p>,,,,null,,,,,,,,,,,,,,,,,,,,,,,
687,,shortestpath_phase,1166664,GW/teeth.jpg,,,,50,GW/paint.jpg,GW/basket.jpg,1,0.6551724137931034,,,,GW/basket.jpg,,,,,Two Edge Diff,Four Edge Six Edge,,,,,,,,,
null,,html-keyboard-response,1167675,<p></p>,,,,null,,,,,,,,,,,,,,,,,,,,,,,
595,,shortestpath_phase,1168271,GW/paint.jpg,,,,50,GW/globe.jpg,GW/jukebox.jpg,1,0.6666666666666666,,,,GW/jukebox.jpg,,,,,Two Edge Diff,Three Edge Five Edge,,,,,,,,,
null,,html-keyboard-response,1169274,<p></p>,,,,null,,,,,,,,,,,,,,,,,,,,,,,
93,,shortestpath_phase,1169367,GW/snail.jpg,,,,49,GW/dustpan.jpg,GW/basket.jpg,0,0.6451612903225806,,,,GW/basket.jpg,,,,,Four Edge Diff,Two Edge Six Edge,,,,,,,,,
null,,html-keyboard-response,1170376,<p></p>,,,,null,,,,,,,,,,,,,,,,,,,,,,,
694,,shortestpath_phase,1171071,GW/paint.jpg,,,,49,GW/soldier.jpg,GW/jukebox.jpg,0,0.625,,,,GW/jukebox.jpg,,,,,One Edge Diff,Three Edge Four Edge,,,,,,,,,
null,,html-keyboard-response,1172095,<p></p>,,,,null,,,,,,,,,,,,,,,,,,,,,,,
520,,shortestpath_phase,1172616,GW/snail.jpg,,,,49,GW/globe.jpg,GW/wheelchair.jpg,0,0.6060606060606061,,,,GW/wheelchair.jpg,,,,,Two Edge Diff,Three Edge Five Edge,,,,,,,,,
null,,html-keyboard-response,1173621,<p></p>,,,,null,,,,,,,,,,,,,,,,,,,,,,,
1024,,shortestpath_phase,1174646,GW/barrel.jpg,,,,49,GW/camera.jpg,GW/paint.jpg,1,0.6176470588235294,,,,GW/camera.jpg,,,,,Two Edge Diff,Two Edge Four Edge,,,,,,,,,
null,,html-keyboard-response,1175651,<p></p>,,,,null,,,,,,,,,,,,,,,,,,,,,,,
1108,,shortestpath_phase,1176759,GW/snail.jpg,,,,49,GW/jukebox.jpg,GW/hat.jpg,1,0.6285714285714286,,,,GW/jukebox.jpg,,,,,Two Edge Diff,Two Edge Four Edge,,,,,,,,,
null,,html-keyboard-response,1177767,<p></p>,,,,null,,,,,,,,,,,,,,,,,,,,,,,
1311,,shortestpath_phase,1179079,GW/gong.jpg,,,,49,GW/teeth.jpg,GW/hat.jpg,0,0.6111111111111112,,,,GW/hat.jpg,,,,,One Edge Diff,Four Edge Five Edge,,,,,,,,,
null,,html-keyboard-response,1180089,<p></p>,,,,null,,,,,,,,,,,,,,,,,,,,,,,
1118,,shortestpath_phase,1181208,GW/dustpan.jpg,,,,50,GW/paint.jpg,GW/soldier.jpg,1,0.6216216216216216,,,,GW/soldier.jpg,,,,,Four Edge Diff,Two Edge Six Edge,,,,,,,,,
null,,html-keyboard-response,1182223,<p></p>,,,,null,,,,,,,,,,,,,,,,,,,,,,,
905,,shortestpath_phase,1183128,GW/hat.jpg,,,,49,GW/snail.jpg,GW/wheelchair.jpg,0,0.6052631578947368,,,,GW/wheelchair.jpg,,,,,Two Edge Diff,Two Edge Four Edge,,,,,,,,,
null,,html-keyboard-response,1184144,<p></p>,,,,null,,,,,,,,,,,,,,,,,,,,,,,
838,,shortestpath_phase,1184983,GW/camera.jpg,,,,49,GW/soldier.jpg,GW/dustpan.jpg,1,0.6153846153846154,,,,GW/soldier.jpg,,,,,Two Edge Diff,Three Edge Five Edge,,,,,,,,,
null,,html-keyboard-response,1185985,<p></p>,,,,null,,,,,,,,,,,,,,,,,,,,,,,
1101,,shortestpath_phase,1187088,GW/hat.jpg,,,,49,GW/snail.jpg,GW/paint.jpg,1,0.625,,,,GW/snail.jpg,,,,,One Edge Diff,Four Edge Five Edge,,,,,,,,,
null,,html-keyboard-response,1188092,<p></p>,,,,null,,,,,,,,,,,,,,,,,,,,,,,
674,,shortestpath_phase,1188767,GW/jukebox.jpg,,,,50,GW/soldier.jpg,GW/wheelchair.jpg,1,0.6341463414634146,,,,GW/wheelchair.jpg,,,,,One Edge Diff,Two Edge Three Edge,,,,,,,,,
null,,html-keyboard-response,1189776,<p></p>,,,,null,,,,,,,,,,,,,,,,,,,,,,,
925,,shortestpath_phase,1190702,GW/gong.jpg,,,,49,GW/dustpan.jpg,GW/snail.jpg,0,0.6190476190476191,,,,GW/snail.jpg,,,,,Three Edge Diff,Two Edge Five Edge,,,,,,,,,
null,,html-keyboard-response,1191705,<p></p>,,,,null,,,,,,,,,,,,,,,,,,,,,,,
934,,shortestpath_phase,1192640,GW/dustpan.jpg,,,,49,GW/jukebox.jpg,GW/gong.jpg,1,0.627906976744186,,,,GW/jukebox.jpg,,,,,One Edge Diff,Four Edge Five Edge,,,,,,,,,
null,,html-keyboard-response,1193650,<p></p>,,,,null,,,,,,,,,,,,,,,,,,,,,,,
820,,shortestpath_phase,1194471,GW/paint.jpg,,,,50,GW/soldier.jpg,GW/dustpan.jpg,0,0.6136363636363636,,,,GW/soldier.jpg,,,,,Two Edge Diff,Four Edge Six Edge,,,,,,,,,
null,,html-keyboard-response,1195475,<p></p>,,,,null,,,,,,,,,,,,,,,,,,,,,,,
1179,,shortestpath_phase,1196655,GW/hat.jpg,,,,49,GW/paint.jpg,GW/jukebox.jpg,0,0.6,,,,GW/jukebox.jpg,,,,,Three Edge Diff,Two Edge Five Edge,,,,,,,,,
null,,html-keyboard-response,1197658,<p></p>,,,,null,,,,,,,,,,,,,,,,,,,,,,,
1261,,shortestpath_phase,1198920,GW/paint.jpg,,,,49,GW/basket.jpg,GW/hat.jpg,1,0.6086956521739131,,,,GW/basket.jpg,,,,,Three Edge Diff,Two Edge Five Edge,,,,,,,,,
null,,html-keyboard-response,1199931,<p></p>,,,,null,,,,,,,,,,,,,,,,,,,,,,,
2012,,shortestpath_phase,1201943,GW/dustpan.jpg,,,,50,GW/camera.jpg,GW/paint.jpg,0,0.5957446808510638,,,,GW/camera.jpg,,,,,One Edge Diff,Five Edge Six Edge,,,,,,,,,
null,,html-keyboard-response,1202960,<p></p>,,,,null,,,,,,,,,,,,,,,,,,,,,,,
1031,,shortestpath_phase,1203992,GW/paint.jpg,,,,49,GW/barrel.jpg,GW/teeth.jpg,1,0.6041666666666666,,,,GW/barrel.jpg,,,,,Two Edge Diff,Four Edge Six Edge,,,,,,,,,
null,,html-keyboard-response,1205004,<p></p>,,,,null,,,,,,,,,,,,,,,,,,,,,,,
890,,shortestpath_phase,1205896,GW/dustpan.jpg,,,,49,GW/basket.jpg,GW/paint.jpg,1,0.6122448979591837,,,,GW/basket.jpg,,,,,Two Edge Diff,Four Edge Six Edge,,,,,,,,,
null,,html-keyboard-response,1206910,<p></p>,,,,null,,,,,,,,,,,,,,,,,,,,,,,
1010,,shortestpath_phase,1207919,GW/teeth.jpg,,,,49,GW/snail.jpg,GW/globe.jpg,0,0.6,,,,GW/globe.jpg,,,,,Three Edge Diff,Two Edge Five Edge,,,,,,,,,
null,,html-keyboard-response,1208934,<p></p>,,,,null,,,,,,,,,,,,,,,,,,,,,,,
1089,,shortestpath_phase,1210023,GW/paint.jpg,,,,49,GW/basket.jpg,GW/hat.jpg,1,0.6078431372549019,,,,GW/basket.jpg,,,,,Three Edge Diff,Three Edge Six Edge,,,,,,,,,
null,,html-keyboard-response,1211032,<p></p>,,,,null,,,,,,,,,,,,,,,,,,,,,,,
1151,,shortestpath_phase,1212183,GW/dustpan.jpg,,,,50,GW/soldier.jpg,GW/snail.jpg,0,0.5961538461538461,,,,GW/soldier.jpg,,,,,Four Edge Diff,Two Edge Six Edge,,,,,,,,,
null,,html-keyboard-response,1213194,<p></p>,,,,null,,,,,,,,,,,,,,,,,,,,,,,
980,,shortestpath_phase,1214175,GW/jukebox.jpg,,,,50,GW/snail.jpg,GW/teeth.jpg,0,0.5849056603773585,,,,GW/snail.jpg,,,,,One Edge Diff,Two Edge Three Edge,,,,,,,,,
null,,html-keyboard-response,1215206,<p></p>,,,,null,,,,,,,,,,,,,,,,,,,,,,,
911,,shortestpath_phase,1216119,GW/soldier.jpg,,,,50,GW/gong.jpg,GW/paint.jpg,0,0.5740740740740741,,,,GW/gong.jpg,,,,,One Edge Diff,Three Edge Four Edge,,,,,,,,,
null,,html-keyboard-response,1217857,<p></p>,,,,null,,,,,,,,,,,,,,,,,,,,,,,
2261,,shortestpath_phase,1220119,GW/camera.jpg,,,,49,GW/barrel.jpg,GW/dustpan.jpg,1,0.5818181818181818,,,,GW/barrel.jpg,,,,,Three Edge Diff,Two Edge Five Edge,,,,,,,,,
null,,html-keyboard-response,1221720,<p></p>,,,,null,,,,,,,,,,,,,,,,,,,,,,,
1175,,shortestpath_phase,1222895,GW/teeth.jpg,,,,50,GW/snail.jpg,GW/basket.jpg,1,0.5892857142857143,,,,GW/basket.jpg,,,,,One Edge Diff,Four Edge Five Edge,,,,,,,,,
null,,html-keyboard-response,1224387,<p></p>,,,,null,,,,,,,,,,,,,,,,,,,,,,,
1763,,shortestpath_phase,1226151,GW/paint.jpg,,,,49,GW/barrel.jpg,GW/dustpan.jpg,1,0.5964912280701754,,,,GW/barrel.jpg,,,,,Two Edge Diff,Four Edge Six Edge,,,,,,,,,
null,,html-keyboard-response,1227158,<p></p>,,,,null,,,,,,,,,,,,,,,,,,,,,,,
912,,shortestpath_phase,1228071,GW/dustpan.jpg,,,,50,GW/snail.jpg,GW/basket.jpg,1,0.603448275862069,,,,GW/basket.jpg,,,,,Two Edge Diff,Four Edge Six Edge,,,,,,,,,
null,,html-keyboard-response,1229078,<p></p>,,,,null,,,,,,,,,,,,,,,,,,,,,,,
840,,shortestpath_phase,1229919,GW/snail.jpg,,,,49,GW/hat.jpg,GW/teeth.jpg,1,0.6101694915254238,,,,GW/hat.jpg,,,,,One Edge Diff,Four Edge Five Edge,,,,,,,,,
null,,html-keyboard-response,1230925,<p></p>,,,,null,,,,,,,,,,,,,,,,,,,,,,,
896,,shortestpath_phase,1231822,GW/teeth.jpg,,,,50,GW/dustpan.jpg,GW/camera.jpg,0,0.6,,,,GW/dustpan.jpg,,,,,One Edge Diff,Three Edge Four Edge,,,,,,,,,
null,,html-keyboard-response,1232827,<p></p>,,,,null,,,,,,,,,,,,,,,,,,,,,,,
892,,shortestpath_phase,1233719,GW/snail.jpg,,,,50,GW/dustpan.jpg,GW/soldier.jpg,1,0.6065573770491803,,,,GW/soldier.jpg,,,,,Two Edge Diff,Four Edge Six Edge,,,,,,,,,
null,,html-keyboard-response,1234726,<p></p>,,,,null,,,,,,,,,,,,,,,,,,,,,,,
737,,shortestpath_phase,1235463,GW/paint.jpg,,,,49,GW/globe.jpg,GW/dustpan.jpg,1,0.6129032258064516,,,,GW/globe.jpg,,,,,One Edge Diff,Five Edge Six Edge,,,,,,,,,
null,,html-keyboard-response,1236465,<p></p>,,,,null,,,,,,,,,,,,,,,,,,,,,,,
694,,shortestpath_phase,1237160,GW/teeth.jpg,,,,49,GW/gong.jpg,GW/jukebox.jpg,0,0.6031746031746031,,,,GW/jukebox.jpg,,,,,Two Edge Diff,Three Edge Five Edge,,,,,,,,,
null,,html-keyboard-response,1238170,<p></p>,,,,null,,,,,,,,,,,,,,,,,,,,,,,
1140,,shortestpath_phase,1239311,GW/camera.jpg,,,,49,GW/dustpan.jpg,GW/paint.jpg,0,0.59375,,,,GW/paint.jpg,,,,,Three Edge Diff,Three Edge Six Edge,,,,,,,,,
null,,html-keyboard-response,1240327,<p></p>,,,,null,,,,,,,,,,,,,,,,,,,,,,,
680,,shortestpath_phase,1241008,GW/teeth.jpg,,,,50,GW/paint.jpg,GW/gong.jpg,1,0.6,,,,GW/gong.jpg,,,,,One Edge Diff,Five Edge Six Edge,,,,,,,,,
null,,html-keyboard-response,1242017,<p></p>,,,,null,,,,,,,,,,,,,,,,,,,,,,,
734,,shortestpath_phase,1242751,GW/snail.jpg,,,,50,GW/hat.jpg,GW/barrel.jpg,1,0.6060606060606061,,,,GW/barrel.jpg,,,,,One Edge Diff,Three Edge Four Edge,,,,,,,,,
null,,html-keyboard-response,1243765,<p></p>,,,,null,,,,,,,,,,,,,,,,,,,,,,,
808,,shortestpath_phase,1244574,GW/paint.jpg,,,,49,GW/camera.jpg,GW/hat.jpg,1,0.6119402985074627,,,,GW/camera.jpg,,,,,Three Edge Diff,Two Edge Five Edge,,,,,,,,,
null,,html-keyboard-response,1245592,<p></p>,,,,null,,,,,,,,,,,,,,,,,,,,,,,
815,,shortestpath_phase,1246408,GW/snail.jpg,,,,50,GW/dustpan.jpg,GW/gong.jpg,1,0.6176470588235294,,,,GW/gong.jpg,,,,,Four Edge Diff,Two Edge Six Edge,,,,,,,,,
null,,html-keyboard-response,1247415,<p></p>,,,,null,,,,,,,,,,,,,,,,,,,,,,,
841,,shortestpath_phase,1248256,GW/paint.jpg,,,,49,GW/camera.jpg,GW/dustpan.jpg,1,0.6231884057971014,,,,GW/camera.jpg,,,,,Four Edge Diff,Two Edge Six Edge,,,,,,,,,
null,,html-keyboard-response,1249267,<p></p>,,,,null,,,,,,,,,,,,,,,,,,,,,,,
611,,shortestpath_phase,1249880,GW/gong.jpg,,,,50,GW/hat.jpg,GW/soldier.jpg,1,0.6285714285714286,,,,GW/soldier.jpg,,,,,One Edge Diff,Three Edge Four Edge,,,,,,,,,
null,,html-keyboard-response,1250890,<p></p>,,,,null,,,,,,,,,,,,,,,,,,,,,,,
556,,shortestpath_phase,1251448,GW/teeth.jpg,,,,50,GW/globe.jpg,GW/jukebox.jpg,0,0.6197183098591549,,,,GW/globe.jpg,,,,,One Edge Diff,Two Edge Three Edge,,,,,,,,,
null,,html-keyboard-response,1252456,<p></p>,,,,null,,,,,,,,,,,,,,,,,,,,,,,
1205,,shortestpath_phase,1253663,GW/basket.jpg,,,,49,GW/teeth.jpg,GW/soldier.jpg,0,0.6111111111111112,,,,GW/soldier.jpg,,,,,Two Edge Diff,Two Edge Four Edge,,,,,,,,,
null,,html-keyboard-response,1254673,<p></p>,,,,null,,,,,,,,,,,,,,,,,,,,,,,
1294,,shortestpath_phase,1255968,GW/snail.jpg,,,,50,GW/hat.jpg,GW/paint.jpg,1,0.6164383561643836,,,,GW/paint.jpg,,,,,One Edge Diff,Three Edge Four Edge,,,,,,,,,
null,,html-keyboard-response,1256976,<p></p>,,,,null,,,,,,,,,,,,,,,,,,,,,,,
1022,,shortestpath_phase,1257999,GW/globe.jpg,,,,49,GW/jukebox.jpg,GW/camera.jpg,1,0.6216216216216216,,,,GW/jukebox.jpg,,,,,One Edge Diff,Three Edge Four Edge,,,,,,,,,
null,,html-keyboard-response,1259005,<p></p>,,,,null,,,,,,,,,,,,,,,,,,,,,,,
738,,shortestpath_phase,1259744,GW/snail.jpg,,,,50,GW/basket.jpg,GW/globe.jpg,0,0.6133333333333333,,,,GW/basket.jpg,,,,,Three Edge Diff,Two Edge Five Edge,,,,,,,,,
null,,html-keyboard-response,1260754,<p></p>,,,,null,,,,,,,,,,,,,,,,,,,,,,,
860,,shortestpath_phase,1261615,GW/dustpan.jpg,,,,50,GW/hat.jpg,GW/gong.jpg,0,0.6052631578947368,,,,GW/hat.jpg,,,,,Three Edge Diff,Three Edge Six Edge,,,,,,,,,
null,,html-keyboard-response,1262630,<p></p>,,,,null,,,,,,,,,,,,,,,,,,,,,,,
944,,shortestpath_phase,1263575,GW/globe.jpg,,,,50,GW/paint.jpg,GW/basket.jpg,1,0.6103896103896104,,,,GW/basket.jpg,,,,,Two Edge Diff,Three Edge Five Edge,,,,,,,,,
null,,html-keyboard-response,1264591,<p></p>,,,,null,,,,,,,,,,,,,,,,,,,,,,,
992,,shortestpath_phase,1265584,GW/paint.jpg,,,,50,GW/camera.jpg,GW/teeth.jpg,0,0.6025641025641025,,,,GW/camera.jpg,,,,,Four Edge Diff,Two Edge Six Edge,,,,,,,,,
null,,html-keyboard-response,1266596,<p></p>,,,,null,,,,,,,,,,,,,,,,,,,,,,,
530,,shortestpath_phase,1267127,GW/globe.jpg,,,,49,GW/camera.jpg,GW/basket.jpg,0,0.5949367088607594,,,,GW/basket.jpg,,,,,One Edge Diff,Three Edge Four Edge,,,,,,,,,
null,,html-keyboard-response,1268732,<p></p>,,,,null,,,,,,,,,,,,,,,,,,,,,,,
1458,,shortestpath_phase,1270191,GW/teeth.jpg,,,,50,GW/snail.jpg,GW/dustpan.jpg,1,0.6,,,,GW/dustpan.jpg,,,,,Two Edge Diff,Three Edge Five Edge,,,,,,,,,
null,,html-keyboard-response,1271200,<p></p>,,,,null,,,,,,,,,,,,,,,,,,,,,,,
510,,shortestpath_phase,1271710,GW/basket.jpg,,,,49,GW/teeth.jpg,GW/snail.jpg,0,0.5925925925925926,,,,GW/snail.jpg,,,,,Two Edge Diff,Two Edge Four Edge,,,,,,,,,
null,,html-keyboard-response,1272715,<p></p>,,,,null,,,,,,,,,,,,,,,,,,,,,,,
692,,shortestpath_phase,1273408,GW/globe.jpg,,,,50,GW/barrel.jpg,GW/paint.jpg,0,0.5853658536585366,,,,GW/barrel.jpg,,,,,Three Edge Diff,Three Edge Six Edge,,,,,,,,,
null,,html-keyboard-response,1274417,<p></p>,,,,null,,,,,,,,,,,,,,,,,,,,,,,
790,,shortestpath_phase,1275208,GW/teeth.jpg,,,,49,GW/basket.jpg,GW/wheelchair.jpg,0,0.5783132530120482,,,,GW/wheelchair.jpg,,,,,One Edge Diff,Three Edge Four Edge,,,,,,,,,
null,,html-keyboard-response,1276218,<p></p>,,,,null,,,,,,,,,,,,,,,,,,,,,,,
1140,,shortestpath_phase,1277359,GW/dustpan.jpg,,,,50,GW/gong.jpg,GW/snail.jpg,0,0.5714285714285714,,,,GW/gong.jpg,,,,,One Edge Diff,Five Edge Six Edge,,,,,,,,,
null,,html-keyboard-response,1278375,<p></p>,,,,null,,,,,,,,,,,,,,,,,,,,,,,
1431,,shortestpath_phase,1279807,GW/globe.jpg,,,,49,GW/jukebox.jpg,GW/teeth.jpg,0,0.5647058823529412,,,,GW/teeth.jpg,,,,,One Edge Diff,Two Edge Three Edge,,,,,,,,,
null,,html-keyboard-response,1280819,<p></p>,,,,null,,,,,,,,,,,,,,,,,,,,,,,
1514,,shortestpath_phase,1282335,GW/snail.jpg,,,,49,GW/hat.jpg,GW/dustpan.jpg,1,0.5697674418604651,,,,GW/hat.jpg,,,,,Two Edge Diff,Four Edge Six Edge,,,,,,,,,
null,,html-keyboard-response,1283347,<p></p>,,,,null,,,,,,,,,,,,,,,,,,,,,,,
1236,,shortestpath_phase,1284583,GW/paint.jpg,,,,50,GW/basket.jpg,GW/teeth.jpg,0,0.5632183908045977,,,,GW/basket.jpg,,,,,Four Edge Diff,Two Edge Six Edge,,,,,,,,,
null,,html-keyboard-response,1285585,<p></p>,,,,null,,,,,,,,,,,,,,,,,,,,,,,
1021,,shortestpath_phase,1286608,GW/teeth.jpg,,,,50,GW/barrel.jpg,GW/paint.jpg,0,0.5568181818181818,,,,GW/barrel.jpg,,,,,Four Edge Diff,Two Edge Six Edge,,,,,,,,,
null,,html-keyboard-response,1287622,<p></p>,,,,null,,,,,,,,,,,,,,,,,,,,,,,
2329,,shortestpath_phase,1289951,GW/paint.jpg,,,,49,GW/teeth.jpg,GW/globe.jpg,0,0.550561797752809,,,,GW/globe.jpg,,,,,One Edge Diff,Five Edge Six Edge,,,,,,,,,
null,,html-keyboard-response,1290963,<p></p>,,,,null,,,,,,,,,,,,,,,,,,,,,,,
1124,,shortestpath_phase,1292087,GW/snail.jpg,,,,50,GW/globe.jpg,GW/basket.jpg,1,0.5555555555555556,,,,GW/basket.jpg,,,,,Three Edge Diff,Three Edge Six Edge,,,,,,,,,
null,,html-keyboard-response,1293095,<p></p>,,,,null,,,,,,,,,,,,,,,,,,,,,,,
935,,shortestpath_phase,1294031,GW/hat.jpg,,,,50,GW/wheelchair.jpg,GW/basket.jpg,0,0.5494505494505495,,,,GW/wheelchair.jpg,,,,,One Edge Diff,Two Edge Three Edge,,,,,,,,,
null,,html-keyboard-response,1295043,<p></p>,,,,null,,,,,,,,,,,,,,,,,,,,,,,
1419,,shortestpath_phase,1296463,GW/dustpan.jpg,,,,49,GW/basket.jpg,GW/camera.jpg,1,0.5543478260869565,,,,GW/basket.jpg,,,,,One Edge Diff,Four Edge Five Edge,,,,,,,,,
null,,html-keyboard-response,1297471,<p></p>,,,,null,,,,,,,,,,,,,,,,,,,,,,,
1240,,shortestpath_phase,1298711,GW/soldier.jpg,,,,49,GW/gong.jpg,GW/hat.jpg,0,0.5483870967741935,,,,GW/hat.jpg,,,,,One Edge Diff,Two Edge Three Edge,,,,,,,,,
null,,html-keyboard-response,1299718,<p></p>,,,,null,,,,,,,,,,,,,,,,,,,,,,,
624,,shortestpath_phase,1300343,GW/globe.jpg,,,,49,GW/snail.jpg,GW/teeth.jpg,0,0.5425531914893617,,,,GW/teeth.jpg,,,,,Three Edge Diff,Three Edge Six Edge,,,,,,,,,
null,,html-keyboard-response,1301358,<p></p>,,,,null,,,,,,,,,,,,,,,,,,,,,,,
593,,shortestpath_phase,1301950,GW/paint.jpg,,,,49,GW/dustpan.jpg,GW/hat.jpg,0,0.5368421052631579,,,,GW/hat.jpg,,,,,One Edge Diff,Five Edge Six Edge,,,,,,,,,
null,,html-keyboard-response,1302967,<p></p>,,,,null,,,,,,,,,,,,,,,,,,,,,,,
583,,shortestpath_phase,1303551,GW/snail.jpg,,,,49,GW/basket.jpg,GW/barrel.jpg,1,0.5416666666666666,,,,GW/basket.jpg,,,,,One Edge Diff,Two Edge Three Edge,,,,,,,,,
null,,html-keyboard-response,1304567,<p></p>,,,,null,,,,,,,,,,,,,,,,,,,,,,,
839,,shortestpath_phase,1305407,GW/gong.jpg,,,,50,GW/soldier.jpg,GW/teeth.jpg,0,0.5360824742268041,,,,GW/soldier.jpg,,,,,Two Edge Diff,Three Edge Five Edge,,,,,,,,,
null,,html-keyboard-response,1306413,<p></p>,,,,null,,,,,,,,,,,,,,,,,,,,,,,
930,,shortestpath_phase,1307343,GW/globe.jpg,,,,50,GW/basket.jpg,GW/gong.jpg,0,0.5306122448979592,,,,GW/basket.jpg,,,,,One Edge Diff,Three Edge Four Edge,,,,,,,,,
null,,html-keyboard-response,1308349,<p></p>,,,,null,,,,,,,,,,,,,,,,,,,,,,,
809,,shortestpath_phase,1309160,GW/paint.jpg,,,,50,GW/soldier.jpg,GW/teeth.jpg,0,0.5252525252525253,,,,GW/soldier.jpg,,,,,Two Edge Diff,Four Edge Six Edge,,,,,,,,,
null,,html-keyboard-response,1310171,<p></p>,,,,null,,,,,,,,,,,,,,,,,,,,,,,
725,,shortestpath_phase,1310895,GW/snail.jpg,,,,49,GW/globe.jpg,GW/gong.jpg,0,0.52,,,,GW/gong.jpg,,,,,Three Edge Diff,Three Edge Six Edge,,,,,,,,,
null,,html-keyboard-response,1311902,<p></p>,,,,null,,,,,,,,,,,,,,,,,,,,,,,
881,,shortestpath_phase,1312784,GW/paint.jpg,,,,49,GW/wheelchair.jpg,GW/barrel.jpg,1,0.5247524752475248,,,,GW/wheelchair.jpg,,,,,One Edge Diff,Three Edge Four Edge,,,,,,,,,
null,,html-keyboard-response,1313796,<p></p>,,,,null,,,,,,,,,,,,,,,,,,,,,,,
675,,shortestpath_phase,1314471,GW/snail.jpg,,,,50,GW/globe.jpg,GW/dustpan.jpg,0,0.5196078431372549,,,,GW/globe.jpg,,,,,One Edge Diff,Five Edge Six Edge,,,,,,,,,
null,,html-keyboard-response,1315483,<p></p>,,,,null,,,,,,,,,,,,,,,,,,,,,,,
787,,shortestpath_phase,1316271,GW/gong.jpg,,,,49,GW/wheelchair.jpg,GW/globe.jpg,1,0.5242718446601942,,,,GW/wheelchair.jpg,,,,,Two Edge Diff,Two Edge Four Edge,,,,,,,,,
null,,html-keyboard-response,1317277,<p></p>,,,,null,,,,,,,,,,,,,,,,,,,,,,,
665,,shortestpath_phase,1317943,GW/basket.jpg,,,,50,GW/hat.jpg,GW/soldier.jpg,1,0.5288461538461539,,,,GW/soldier.jpg,,,,,One Edge Diff,Two Edge Three Edge,,,,,,,,,
null,,html-keyboard-response,1318957,<p></p>,,,,null,,,,,,,,,,,,,,,,,,,,,,,
665,,shortestpath_phase,1319623,GW/snail.jpg,,,,50,GW/jukebox.jpg,GW/dustpan.jpg,0,0.5238095238095238,,,,GW/jukebox.jpg,,,,,Four Edge Diff,Two Edge Six Edge,,,,,,,,,
null,,html-keyboard-response,1320638,<p></p>,,,,null,,,,,,,,,,,,,,,,,,,,,,,
456,,shortestpath_phase,1321095,GW/teeth.jpg,,,,49,GW/globe.jpg,GW/snail.jpg,1,0.5283018867924528,,,,GW/globe.jpg,,,,,Three Edge Diff,Three Edge Six Edge,,,,,,,,,
null,,html-keyboard-response,1322111,<p></p>,,,,null,,,,,,,,,,,,,,,,,,,,,,,
816,,shortestpath_phase,1322928,GW/dustpan.jpg,,,,50,GW/jukebox.jpg,GW/paint.jpg,0,0.5233644859813084,,,,GW/jukebox.jpg,,,,,Two Edge Diff,Four Edge Six Edge,,,,,,,,,
null,,html-keyboard-response,1323939,<p></p>,,,,null,,,,,,,,,,,,,,,,,,,,,,,
