rt,responses,trial_type,time_elapsed,sequence,stimulus,graphorder,button_pressed,response,key_press,stimulus_left,stimulus_right,accuracy,cumulative_accuracy,stimulus_down_left,stimulus_down_mid,stimulus_down_right,stimulus_correct,stimulus_short,stimulus_far,weighted_accuracy,missedtrial,condition,specific_pairs,imgL_ID,imgR_ID,linedress,linedressed,linedressed_detor,detour_trial,problems,smooth,distraction,strategies,easier,similar,comments
18053.299999999814,{worker_id:6841f4329a9deda70eae9ed4},id_enter,18057,blocked,replication,GW/newhope.png; GW/cornwall.png; GW/gatlinburg.png; GW/leesburg.png; GW/hotsprings.png; GW/boulder.png; GW/carmel.png; GW/peoria.png; GW/hanover.png; GW/huntsville.png; GW/westpalmbeach.png; GW/shreveport.png; GW/racine.png,,,,,,,,,,,,,,,,,,,,,,,,,,,,,,
18074.30000000028,,fullscreen,36138,,fullscreen,,0,,,,,,,,,,,,,,,,,,,,,,,,,,,,,
18384.69999999972,,intro_1,54526,,instruct,,0,,,,,,,,,,,,,,,,,,,,,,,,,,,,,
37415.799999999814,,intro_2,91944,,instruct,,1,Next,,,,,,,,,,,,,,,,,,,,,,,,,,,,
27021.899999999907,,intro_3,118968,,instruct,,1,Next,,,,,,,,,,,,,,,,,,,,,,,,,,,,
null,,learn_prac_1,121972,,lean_prac_1,,,,null,,,,,,,,,,,,,,,,,,,,,,,,,,,
null,,html-keyboard-response,122977,,<p></p>,,,,null,,,,,,,,,,,,,,,,,,,,,,,,,,,
5397.299999999814,,intro_1,128377,,instruct,,0,,,,,,,,,,,,,,,,,,,,,,,,,,,,,
5718.399999999907,,intro_2,134097,,instruct,,1,Next,,,,,,,,,,,,,,,,,,,,,,,,,,,,
null,,learn_prac_2,137098,,lean_prac_2,,,,null,,,,,,,,,,,,,,,,,,,,,,,,,,,
null,,html-keyboard-response,138101,,<p></p>,,,,null,,,,,,,,,,,,,,,,,,,,,,,,,,,
4338.200000000186,,intro_1,142441,,instruct,,0,,,,,,,,,,,,,,,,,,,,,,,,,,,,,
3640.100000000093,,intro_2,146083,,instruct,,1,Next,,,,,,,,,,,,,,,,,,,,,,,,,,,,
23992.799999999814,,intro_3,170078,,instruct,,1,Next,,,,,,,,,,,,,,,,,,,,,,,,,,,,
null,,prac_atten_color_black,170534,,black_plus_sign,,,,null,,,,,,,,,,,,,,,,,,,,,,,,,,,
882.9000000003725,,prac_atten_color,171484,,prac_stop_color,,,,49,,,,,,,,,,,,,,,,,,,,,,,,,,,
null,,prac_atten_color_black,173487,,black_plus_sign,,,,null,,,,,,,,,,,,,,,,,,,,,,,,,,,
null,,prac_atten_color_black,173947,,black_plus_sign,,,,null,,,,,,,,,,,,,,,,,,,,,,,,,,,
null,,prac_atten_color,174473,,prac_stop_color,,,,null,,,,,,,,,,,,,,,,,,,,,,,,,,,
358.10000000009313,,prac_atten_color_black,176476,,black_plus_sign,,,,50,,,,,,,,,,,,,,,,,,,,,,,,,,,
null,,prac_atten_color_black,177356,,black_plus_sign,,,,null,,,,,,,,,,,,,,,,,,,,,,,,,,,
696.5,,prac_atten_color,178084,,prac_stop_color,,,,50,,,,,,,,,,,,,,,,,,,,,,,,,,,
null,,prac_atten_color_black,180087,,black_plus_sign,,,,null,,,,,,,,,,,,,,,,,,,,,,,,,,,
null,,prac_atten_color_black,180765,,black_plus_sign,,,,null,,,,,,,,,,,,,,,,,,,,,,,,,,,
null,,prac_atten_color,181270,,prac_stop_color,,,,null,,,,,,,,,,,,,,,,,,,,,,,,,,,
6.7999999998137355,,prac_atten_color_black,183274,,black_plus_sign,,,,49,,,,,,,,,,,,,,,,,,,,,,,,,,,
null,,prac_atten_color_black,184176,,black_plus_sign,,,,null,,,,,,,,,,,,,,,,,,,,,,,,,,,
531.7999999998137,,prac_atten_color,185180,,prac_stop_color,,,,50,,,,,,,,,,,,,,,,,,,,,,,,,,,
null,,prac_atten_color_black,187183,,black_plus_sign,,,,null,,,,,,,,,,,,,,,,,,,,,,,,,,,
null,,prac_atten_color_black,187586,,black_plus_sign,,,,null,,,,,,,,,,,,,,,,,,,,,,,,,,,
484.5,,prac_atten_color,188348,,prac_stop_color,,,,50,,,,,,,,,,,,,,,,,,,,,,,,,,,
null,,prac_atten_color_black,190350,,black_plus_sign,,,,null,,,,,,,,,,,,,,,,,,,,,,,,,,,
null,,prac_atten_color_black,190996,,black_plus_sign,,,,null,,,,,,,,,,,,,,,,,,,,,,,,,,,
null,,prac_atten_color,191457,,prac_stop_color,,,,null,,,,,,,,,,,,,,,,,,,,,,,,,,,
280.10000000009313,,prac_atten_color_black,193459,,black_plus_sign,,,,49,,,,,,,,,,,,,,,,,,,,,,,,,,,
null,,prac_atten_color_black,194406,,black_plus_sign,,,,null,,,,,,,,,,,,,,,,,,,,,,,,,,,
713,,prac_atten_color,195231,,prac_stop_color,,,,50,,,,,,,,,,,,,,,,,,,,,,,,,,,
null,,prac_atten_color_black,197233,,black_plus_sign,,,,null,,,,,,,,,,,,,,,,,,,,,,,,,,,
null,,prac_atten_color_black,197816,,black_plus_sign,,,,null,,,,,,,,,,,,,,,,,,,,,,,,,,,
null,,prac_atten_color,198613,,prac_stop_color,,,,null,,,,,,,,,,,,,,,,,,,,,,,,,,,
272.89999999990687,,prac_atten_color_black,200617,,black_plus_sign,,,,49,,,,,,,,,,,,,,,,,,,,,,,,,,,
null,,prac_atten_color_black,201226,,black_plus_sign,,,,null,,,,,,,,,,,,,,,,,,,,,,,,,,,
468.39999999990687,,prac_atten_color,202323,,prac_stop_color,,,,49,,,,,,,,,,,,,,,,,,,,,,,,,,,
null,,prac_atten_color_black,204325,,black_plus_sign,,,,null,,,,,,,,,,,,,,,,,,,,,,,,,,,
6105.5999999996275,,attentioncheck_feedback,210434,,cross_check_feedback,,0,,,,,,,,,,,,,,,,,,,,,,,,,,,,,
24546.19999999972,,last_instruct,234982,,instruct,,,,32,,,,,,,,,,,,,,,,,,,,,,,,,,,
null,,learn_phase(without_color),237986,,black_plus_sign,,,,null,GW/leesburg.png,GW/hotsprings.png,,,,,,,,,,,,,,,,,,,,,,,,,
null,,black_cross(without_color),238908,,yellow,,,,null,GW/leesburg.png,GW/hotsprings.png,,,,,,,,,,,,,,,,,,,,,,,,,
null,,rt_plussign_withcolor,239412,,yellow,,,,null,GW/leesburg.png,GW/hotsprings.png,,,,,,,,,,,,,,,,,,,,,,,,,
1246.5,,rt_thecrossant_black,240496,,black_plus_sign,,,,50,,,1,1,,,,,,,,,,,,,,,,,,,,,,,
null,,color_black,240599,,black_plus_sign,,,,null,,,,,,,,,,,,,,,,,,,,,,,,,,,
null,,learn_phase(without_color),243605,,black_plus_sign,,,,null,GW/newhope.png,GW/cornwall.png,,,,,,,,,,,,,,,,,,,,,,,,,
null,,black_cross(without_color),244052,,blue,,,,null,GW/newhope.png,GW/cornwall.png,,,,,,,,,,,,,,,,,,,,,,,,,
null,,rt_plussign_withcolor,244554,,blue,,,,null,GW/newhope.png,GW/cornwall.png,,,,,,,,,,,,,,,,,,,,,,,,,
1223.6000000000931,,rt_thecrossant_black,246114,,black_plus_sign,,,,49,,,1,1,,,,,,,,,,,,,,,,,,,,,,,
null,,color_black,246216,,black_plus_sign,,,,null,,,,,,,,,,,,,,,,,,,,,,,,,,,
null,,learn_phase(without_color),249220,,black_plus_sign,,,,null,GW/peoria.png,GW/hanover.png,,,,,,,,,,,,,,,,,,,,,,,,,
null,,black_cross(without_color),249909,,blue,,,,null,GW/peoria.png,GW/hanover.png,,,,,,,,,,,,,,,,,,,,,,,,,
null,,rt_plussign_withcolor,250412,,blue,,,,null,GW/peoria.png,GW/hanover.png,,,,,,,,,,,,,,,,,,,,,,,,,
617.8999999999069,,rt_thecrossant_black,251730,,black_plus_sign,,,,49,,,1,1,,,,,,,,,,,,,,,,,,,,,,,
null,,color_black,251833,,black_plus_sign,,,,null,,,,,,,,,,,,,,,,,,,,,,,,,,,
null,,learn_phase(without_color),254838,,black_plus_sign,,,,null,GW/boulder.png,GW/carmel.png,,,,,,,,,,,,,,,,,,,,,,,,,
null,,black_cross(without_color),255513,,yellow,,,,null,GW/boulder.png,GW/carmel.png,,,,,,,,,,,,,,,,,,,,,,,,,
null,,rt_plussign_withcolor,256016,,yellow,,,,null,GW/boulder.png,GW/carmel.png,,,,,,,,,,,,,,,,,,,,,,,,,
1017,,rt_thecrossant_black,257347,,black_plus_sign,,,,50,,,1,1,,,,,,,,,,,,,,,,,,,,,,,
null,,color_black,257450,,black_plus_sign,,,,null,,,,,,,,,,,,,,,,,,,,,,,,,,,
null,,learn_phase(without_color),260455,,black_plus_sign,,,,null,GW/cornwall.png,GW/newhope.png,,,,,,,,,,,,,,,,,,,,,,,,,
null,,black_cross(without_color),260882,,yellow,,,,null,GW/cornwall.png,GW/newhope.png,,,,,,,,,,,,,,,,,,,,,,,,,
null,,rt_plussign_withcolor,261384,,yellow,,,,null,GW/cornwall.png,GW/newhope.png,,,,,,,,,,,,,,,,,,,,,,,,,
1111.2999999998137,,rt_thecrossant_black,262964,,black_plus_sign,,,,50,,,1,1,,,,,,,,,,,,,,,,,,,,,,,
null,,color_black,263067,,black_plus_sign,,,,null,,,,,,,,,,,,,,,,,,,,,,,,,,,
null,,learn_phase(without_color),266072,,black_plus_sign,,,,null,GW/carmel.png,GW/boulder.png,,,,,,,,,,,,,,,,,,,,,,,,,
null,,black_cross(without_color),266953,,blue,,,,null,GW/carmel.png,GW/boulder.png,,,,,,,,,,,,,,,,,,,,,,,,,
null,,rt_plussign_withcolor,267454,,blue,,,,null,GW/carmel.png,GW/boulder.png,,,,,,,,,,,,,,,,,,,,,,,,,
744.2000000001863,,rt_thecrossant_black,268580,,black_plus_sign,,,,49,,,1,1,,,,,,,,,,,,,,,,,,,,,,,
null,,color_black,268683,,black_plus_sign,,,,null,,,,,,,,,,,,,,,,,,,,,,,,,,,
null,,learn_phase(without_color),271687,,black_plus_sign,,,,null,GW/leesburg.png,GW/hotsprings.png,,,,,,,,,,,,,,,,,,,,,,,,,
null,,black_cross(without_color),272554,,blue,,,,null,GW/leesburg.png,GW/hotsprings.png,,,,,,,,,,,,,,,,,,,,,,,,,
null,,rt_plussign_withcolor,273056,,blue,,,,null,GW/leesburg.png,GW/hotsprings.png,,,,,,,,,,,,,,,,,,,,,,,,,
1337.8000000002794,,rt_thecrossant_black,274195,,black_plus_sign,,,,49,,,1,1,,,,,,,,,,,,,,,,,,,,,,,
null,,color_black,274298,,black_plus_sign,,,,null,,,,,,,,,,,,,,,,,,,,,,,,,,,
null,,learn_phase(without_color),277303,,black_plus_sign,,,,null,GW/cornwall.png,GW/newhope.png,,,,,,,,,,,,,,,,,,,,,,,,,
null,,black_cross(without_color),278066,,yellow,,,,null,GW/cornwall.png,GW/newhope.png,,,,,,,,,,,,,,,,,,,,,,,,,
null,,rt_plussign_withcolor,278568,,yellow,,,,null,GW/cornwall.png,GW/newhope.png,,,,,,,,,,,,,,,,,,,,,,,,,
1180.2999999998137,,rt_thecrossant_black,279810,,black_plus_sign,,,,50,,,1,1,,,,,,,,,,,,,,,,,,,,,,,
null,,color_black,279913,,black_plus_sign,,,,null,,,,,,,,,,,,,,,,,,,,,,,,,,,
null,,learn_phase(without_color),282926,,black_plus_sign,,,,null,GW/carmel.png,GW/boulder.png,,,,,,,,,,,,,,,,,,,,,,,,,
null,,black_cross(without_color),283927,,yellow,,,,null,GW/carmel.png,GW/boulder.png,,,,,,,,,,,,,,,,,,,,,,,,,
null,,rt_plussign_withcolor,284430,,yellow,,,,null,GW/carmel.png,GW/boulder.png,,,,,,,,,,,,,,,,,,,,,,,,,
1118.1999999997206,,rt_thecrossant_black,285435,,black_plus_sign,,,,50,,,1,1,,,,,,,,,,,,,,,,,,,,,,,
null,,color_black,285537,,black_plus_sign,,,,null,,,,,,,,,,,,,,,,,,,,,,,,,,,
null,,learn_phase(without_color),288542,,black_plus_sign,,,,null,GW/hotsprings.png,GW/leesburg.png,,,,,,,,,,,,,,,,,,,,,,,,,
null,,black_cross(without_color),289429,,yellow,,,,null,GW/hotsprings.png,GW/leesburg.png,,,,,,,,,,,,,,,,,,,,,,,,,
null,,rt_plussign_withcolor,289931,,yellow,,,,null,GW/hotsprings.png,GW/leesburg.png,,,,,,,,,,,,,,,,,,,,,,,,,
1544.5,,rt_thecrossant_black,291052,,black_plus_sign,,,,50,,,1,1,,,,,,,,,,,,,,,,,,,,,,,
null,,color_black,291155,,black_plus_sign,,,,null,,,,,,,,,,,,,,,,,,,,,,,,,,,
null,,learn_phase(without_color),294160,,black_plus_sign,,,,null,GW/peoria.png,GW/hanover.png,,,,,,,,,,,,,,,,,,,,,,,,,
null,,black_cross(without_color),294687,,blue,,,,null,GW/peoria.png,GW/hanover.png,,,,,,,,,,,,,,,,,,,,,,,,,
null,,rt_plussign_withcolor,295189,,blue,,,,null,GW/peoria.png,GW/hanover.png,,,,,,,,,,,,,,,,,,,,,,,,,
1247.1000000000931,,rt_thecrossant_black,296670,,black_plus_sign,,,,49,,,1,1,,,,,,,,,,,,,,,,,,,,,,,
null,,color_black,296773,,black_plus_sign,,,,null,,,,,,,,,,,,,,,,,,,,,,,,,,,
null,,learn_phase(without_color),299775,,black_plus_sign,,,,null,GW/boulder.png,GW/carmel.png,,,,,,,,,,,,,,,,,,,,,,,,,
null,,black_cross(without_color),300812,,blue,,,,null,GW/boulder.png,GW/carmel.png,,,,,,,,,,,,,,,,,,,,,,,,,
null,,rt_plussign_withcolor,301314,,blue,,,,null,GW/boulder.png,GW/carmel.png,,,,,,,,,,,,,,,,,,,,,,,,,
966,,rt_thecrossant_black,302284,,black_plus_sign,,,,49,,,1,1,,,,,,,,,,,,,,,,,,,,,,,
null,,color_black,302387,,black_plus_sign,,,,null,,,,,,,,,,,,,,,,,,,,,,,,,,,
null,,learn_phase(without_color),305390,,black_plus_sign,,,,null,GW/hanover.png,GW/peoria.png,,,,,,,,,,,,,,,,,,,,,,,,,
null,,black_cross(without_color),306073,,blue,,,,null,GW/hanover.png,GW/peoria.png,,,,,,,,,,,,,,,,,,,,,,,,,
479.89999999990687,,rt_plussign_withcolor,306575,,blue,,,,49,GW/hanover.png,GW/peoria.png,,,,,,,,,,,,,,,,,,,,,,,,,
null,,rt_thecrossant_black,307898,,black_plus_sign,,,,null,,,1,1,,,,,,,,,,,,,,,,,,,,,,,
null,,color_black,308002,,black_plus_sign,,,,null,,,,,,,,,,,,,,,,,,,,,,,,,,,
null,,learn_phase(without_color),311006,,black_plus_sign,,,,null,GW/hotsprings.png,GW/leesburg.png,,,,,,,,,,,,,,,,,,,,,,,,,
null,,black_cross(without_color),311422,,yellow,,,,null,GW/hotsprings.png,GW/leesburg.png,,,,,,,,,,,,,,,,,,,,,,,,,
467.89999999990687,,rt_plussign_withcolor,311925,,yellow,,,,50,GW/hotsprings.png,GW/leesburg.png,,,,,,,,,,,,,,,,,,,,,,,,,
null,,rt_thecrossant_black,313514,,black_plus_sign,,,,null,,,1,1,,,,,,,,,,,,,,,,,,,,,,,
null,,color_black,313617,,black_plus_sign,,,,null,,,,,,,,,,,,,,,,,,,,,,,,,,,
null,,learn_phase(without_color),316620,,black_plus_sign,,,,null,GW/hanover.png,GW/peoria.png,,,,,,,,,,,,,,,,,,,,,,,,,
null,,black_cross(without_color),317449,,yellow,,,,null,GW/hanover.png,GW/peoria.png,,,,,,,,,,,,,,,,,,,,,,,,,
null,,rt_plussign_withcolor,317952,,yellow,,,,null,GW/hanover.png,GW/peoria.png,,,,,,,,,,,,,,,,,,,,,,,,,
727.1999999997206,,rt_thecrossant_black,319129,,black_plus_sign,,,,50,,,1,1,,,,,,,,,,,,,,,,,,,,,,,
null,,color_black,319233,,black_plus_sign,,,,null,,,,,,,,,,,,,,,,,,,,,,,,,,,
null,,learn_phase(without_color),322237,,black_plus_sign,,,,null,GW/cornwall.png,GW/newhope.png,,,,,,,,,,,,,,,,,,,,,,,,,
null,,black_cross(without_color),323313,,blue,,,,null,GW/cornwall.png,GW/newhope.png,,,,,,,,,,,,,,,,,,,,,,,,,
464.10000000009313,,rt_plussign_withcolor,323816,,blue,,,,49,GW/cornwall.png,GW/newhope.png,,,,,,,,,,,,,,,,,,,,,,,,,
null,,rt_thecrossant_black,324745,,black_plus_sign,,,,null,,,1,1,,,,,,,,,,,,,,,,,,,,,,,
null,,color_black,324848,,black_plus_sign,,,,null,,,,,,,,,,,,,,,,,,,,,,,,,,,
null,,learn_phase(without_color),327853,,black_plus_sign,,,,null,GW/hanover.png,GW/peoria.png,,,,,,,,,,,,,,,,,,,,,,,,,
null,,black_cross(without_color),328841,,blue,,,,null,GW/hanover.png,GW/peoria.png,,,,,,,,,,,,,,,,,,,,,,,,,
null,,rt_plussign_withcolor,329344,,blue,,,,null,GW/hanover.png,GW/peoria.png,,,,,,,,,,,,,,,,,,,,,,,,,
1235.9000000003725,,rt_thecrossant_black,330362,,black_plus_sign,,,,49,,,1,1,,,,,,,,,,,,,,,,,,,,,,,
null,,color_black,330466,,black_plus_sign,,,,null,,,,,,,,,,,,,,,,,,,,,,,,,,,
null,,learn_phase(without_color),333470,,black_plus_sign,,,,null,GW/hotsprings.png,GW/leesburg.png,,,,,,,,,,,,,,,,,,,,,,,,,
null,,black_cross(without_color),334269,,yellow,,,,null,GW/hotsprings.png,GW/leesburg.png,,,,,,,,,,,,,,,,,,,,,,,,,
null,,rt_plussign_withcolor,334773,,yellow,,,,null,GW/hotsprings.png,GW/leesburg.png,,,,,,,,,,,,,,,,,,,,,,,,,
1481,,rt_thecrossant_black,335983,,black_plus_sign,,,,50,,,1,1,,,,,,,,,,,,,,,,,,,,,,,
null,,color_black,336086,,black_plus_sign,,,,null,,,,,,,,,,,,,,,,,,,,,,,,,,,
null,,learn_phase(without_color),339091,,black_plus_sign,,,,null,GW/cornwall.png,GW/newhope.png,,,,,,,,,,,,,,,,,,,,,,,,,
null,,black_cross(without_color),340032,,blue,,,,null,GW/cornwall.png,GW/newhope.png,,,,,,,,,,,,,,,,,,,,,,,,,
null,,rt_plussign_withcolor,340534,,blue,,,,null,GW/cornwall.png,GW/newhope.png,,,,,,,,,,,,,,,,,,,,,,,,,
1151.6000000000931,,rt_thecrossant_black,341601,,black_plus_sign,,,,49,,,1,1,,,,,,,,,,,,,,,,,,,,,,,
null,,color_black,341704,,black_plus_sign,,,,null,,,,,,,,,,,,,,,,,,,,,,,,,,,
null,,learn_phase(without_color),344709,,black_plus_sign,,,,null,GW/leesburg.png,GW/hotsprings.png,,,,,,,,,,,,,,,,,,,,,,,,,
null,,black_cross(without_color),345741,,blue,,,,null,GW/leesburg.png,GW/hotsprings.png,,,,,,,,,,,,,,,,,,,,,,,,,
null,,rt_plussign_withcolor,346244,,blue,,,,null,GW/leesburg.png,GW/hotsprings.png,,,,,,,,,,,,,,,,,,,,,,,,,
1142.5,,rt_thecrossant_black,347217,,black_plus_sign,,,,49,,,1,1,,,,,,,,,,,,,,,,,,,,,,,
null,,color_black,347319,,black_plus_sign,,,,null,,,,,,,,,,,,,,,,,,,,,,,,,,,
null,,learn_phase(without_color),350324,,black_plus_sign,,,,null,GW/hanover.png,GW/peoria.png,,,,,,,,,,,,,,,,,,,,,,,,,
null,,black_cross(without_color),350965,,yellow,,,,null,GW/hanover.png,GW/peoria.png,,,,,,,,,,,,,,,,,,,,,,,,,
null,,rt_plussign_withcolor,351467,,yellow,,,,null,GW/hanover.png,GW/peoria.png,,,,,,,,,,,,,,,,,,,,,,,,,
1472.8000000002794,,rt_thecrossant_black,352832,,black_plus_sign,,,,50,,,1,1,,,,,,,,,,,,,,,,,,,,,,,
null,,color_black,352935,,black_plus_sign,,,,null,,,,,,,,,,,,,,,,,,,,,,,,,,,
null,,learn_phase(without_color),355939,,black_plus_sign,,,,null,GW/cornwall.png,GW/newhope.png,,,,,,,,,,,,,,,,,,,,,,,,,
null,,black_cross(without_color),356710,,yellow,,,,null,GW/cornwall.png,GW/newhope.png,,,,,,,,,,,,,,,,,,,,,,,,,
null,,rt_plussign_withcolor,357213,,yellow,,,,null,GW/cornwall.png,GW/newhope.png,,,,,,,,,,,,,,,,,,,,,,,,,
926.3999999999069,,rt_thecrossant_black,358447,,black_plus_sign,,,,50,,,1,1,,,,,,,,,,,,,,,,,,,,,,,
null,,color_black,358549,,black_plus_sign,,,,null,,,,,,,,,,,,,,,,,,,,,,,,,,,
null,,learn_phase(without_color),361554,,black_plus_sign,,,,null,GW/leesburg.png,GW/hotsprings.png,,,,,,,,,,,,,,,,,,,,,,,,,
null,,black_cross(without_color),362574,,blue,,,,null,GW/leesburg.png,GW/hotsprings.png,,,,,,,,,,,,,,,,,,,,,,,,,
450.10000000009313,,rt_plussign_withcolor,363077,,blue,,,,49,GW/leesburg.png,GW/hotsprings.png,,,,,,,,,,,,,,,,,,,,,,,,,
null,,rt_thecrossant_black,364073,,black_plus_sign,,,,null,,,1,1,,,,,,,,,,,,,,,,,,,,,,,
null,,color_black,364176,,black_plus_sign,,,,null,,,,,,,,,,,,,,,,,,,,,,,,,,,
null,,learn_phase(without_color),367181,,black_plus_sign,,,,null,GW/hanover.png,GW/peoria.png,,,,,,,,,,,,,,,,,,,,,,,,,
null,,black_cross(without_color),368082,,blue,,,,null,GW/hanover.png,GW/peoria.png,,,,,,,,,,,,,,,,,,,,,,,,,
null,,rt_plussign_withcolor,368585,,blue,,,,null,GW/hanover.png,GW/peoria.png,,,,,,,,,,,,,,,,,,,,,,,,,
1137.7000000001863,,rt_thecrossant_black,369691,,black_plus_sign,,,,49,,,1,1,,,,,,,,,,,,,,,,,,,,,,,
null,,color_black,369794,,black_plus_sign,,,,null,,,,,,,,,,,,,,,,,,,,,,,,,,,
null,,learn_phase(without_color),372799,,black_plus_sign,,,,null,GW/hotsprings.png,GW/leesburg.png,,,,,,,,,,,,,,,,,,,,,,,,,
null,,black_cross(without_color),373727,,blue,,,,null,GW/hotsprings.png,GW/leesburg.png,,,,,,,,,,,,,,,,,,,,,,,,,
null,,rt_plussign_withcolor,374229,,blue,,,,null,GW/hotsprings.png,GW/leesburg.png,,,,,,,,,,,,,,,,,,,,,,,,,
1024.2000000001863,,rt_thecrossant_black,375307,,black_plus_sign,,,,49,,,1,1,,,,,,,,,,,,,,,,,,,,,,,
null,,color_black,375411,,black_plus_sign,,,,null,,,,,,,,,,,,,,,,,,,,,,,,,,,
null,,learn_phase(without_color),378415,,black_plus_sign,,,,null,GW/carmel.png,GW/boulder.png,,,,,,,,,,,,,,,,,,,,,,,,,
null,,black_cross(without_color),379264,,blue,,,,null,GW/carmel.png,GW/boulder.png,,,,,,,,,,,,,,,,,,,,,,,,,
null,,rt_plussign_withcolor,379767,,blue,,,,null,GW/carmel.png,GW/boulder.png,,,,,,,,,,,,,,,,,,,,,,,,,
1216.2000000001863,,rt_thecrossant_black,380936,,black_plus_sign,,,,49,,,1,1,,,,,,,,,,,,,,,,,,,,,,,
null,,color_black,381041,,black_plus_sign,,,,null,,,,,,,,,,,,,,,,,,,,,,,,,,,
null,,learn_phase(without_color),384046,,black_plus_sign,,,,null,GW/peoria.png,GW/hanover.png,,,,,,,,,,,,,,,,,,,,,,,,,
null,,black_cross(without_color),384646,,yellow,,,,null,GW/peoria.png,GW/hanover.png,,,,,,,,,,,,,,,,,,,,,,,,,
null,,rt_plussign_withcolor,385149,,yellow,,,,null,GW/peoria.png,GW/hanover.png,,,,,,,,,,,,,,,,,,,,,,,,,
1227.8999999999069,,rt_thecrossant_black,386553,,black_plus_sign,,,,50,,,1,1,,,,,,,,,,,,,,,,,,,,,,,
null,,color_black,386656,,black_plus_sign,,,,null,,,,,,,,,,,,,,,,,,,,,,,,,,,
null,,learn_phase(without_color),389661,,black_plus_sign,,,,null,GW/cornwall.png,GW/newhope.png,,,,,,,,,,,,,,,,,,,,,,,,,
null,,black_cross(without_color),390542,,blue,,,,null,GW/cornwall.png,GW/newhope.png,,,,,,,,,,,,,,,,,,,,,,,,,
null,,rt_plussign_withcolor,391044,,blue,,,,null,GW/cornwall.png,GW/newhope.png,,,,,,,,,,,,,,,,,,,,,,,,,
886.1000000000931,,rt_thecrossant_black,392169,,black_plus_sign,,,,49,,,1,1,,,,,,,,,,,,,,,,,,,,,,,
null,,color_black,392273,,black_plus_sign,,,,null,,,,,,,,,,,,,,,,,,,,,,,,,,,
null,,learn_phase(without_color),395278,,black_plus_sign,,,,null,GW/carmel.png,GW/boulder.png,,,,,,,,,,,,,,,,,,,,,,,,,
null,,black_cross(without_color),396359,,blue,,,,null,GW/carmel.png,GW/boulder.png,,,,,,,,,,,,,,,,,,,,,,,,,
null,,rt_plussign_withcolor,396861,,blue,,,,null,GW/carmel.png,GW/boulder.png,,,,,,,,,,,,,,,,,,,,,,,,,
1153,,rt_thecrossant_black,397788,,black_plus_sign,,,,49,,,1,1,,,,,,,,,,,,,,,,,,,,,,,
null,,color_black,397890,,black_plus_sign,,,,null,,,,,,,,,,,,,,,,,,,,,,,,,,,
null,,learn_phase(without_color),400895,,black_plus_sign,,,,null,GW/boulder.png,GW/carmel.png,,,,,,,,,,,,,,,,,,,,,,,,,
null,,black_cross(without_color),401603,,yellow,,,,null,GW/boulder.png,GW/carmel.png,,,,,,,,,,,,,,,,,,,,,,,,,
null,,rt_plussign_withcolor,402105,,yellow,,,,null,GW/boulder.png,GW/carmel.png,,,,,,,,,,,,,,,,,,,,,,,,,
1398,,rt_thecrossant_black,403405,,black_plus_sign,,,,50,,,1,1,,,,,,,,,,,,,,,,,,,,,,,
null,,color_black,403508,,black_plus_sign,,,,null,,,,,,,,,,,,,,,,,,,,,,,,,,,
null,,learn_phase(without_color),406513,,black_plus_sign,,,,null,GW/cornwall.png,GW/newhope.png,,,,,,,,,,,,,,,,,,,,,,,,,
null,,black_cross(without_color),407545,,yellow,,,,null,GW/cornwall.png,GW/newhope.png,,,,,,,,,,,,,,,,,,,,,,,,,
null,,rt_plussign_withcolor,408048,,yellow,,,,null,GW/cornwall.png,GW/newhope.png,,,,,,,,,,,,,,,,,,,,,,,,,
1007.6999999997206,,rt_thecrossant_black,409023,,black_plus_sign,,,,50,,,1,1,,,,,,,,,,,,,,,,,,,,,,,
null,,color_black,409126,,black_plus_sign,,,,null,,,,,,,,,,,,,,,,,,,,,,,,,,,
null,,learn_phase(without_color),412130,,black_plus_sign,,,,null,GW/carmel.png,GW/boulder.png,,,,,,,,,,,,,,,,,,,,,,,,,
null,,black_cross(without_color),412985,,yellow,,,,null,GW/carmel.png,GW/boulder.png,,,,,,,,,,,,,,,,,,,,,,,,,
null,,rt_plussign_withcolor,413486,,yellow,,,,null,GW/carmel.png,GW/boulder.png,,,,,,,,,,,,,,,,,,,,,,,,,
1245.7000000001863,,rt_thecrossant_black,414638,,black_plus_sign,,,,50,,,1,1,,,,,,,,,,,,,,,,,,,,,,,
null,,color_black,414743,,black_plus_sign,,,,null,,,,,,,,,,,,,,,,,,,,,,,,,,,
null,,learn_phase(without_color),417753,,black_plus_sign,,,,null,GW/westpalmbeach.png,GW/hanover.png,,,,,,,,,,,,,,,,,,,,,,,,,
null,,black_cross(without_color),418368,,blue,,,,null,GW/westpalmbeach.png,GW/hanover.png,,,,,,,,,,,,,,,,,,,,,,,,,
null,,rt_plussign_withcolor,418871,,blue,,,,null,GW/westpalmbeach.png,GW/hanover.png,,,,,,,,,,,,,,,,,,,,,,,,,
1690.0999999996275,,rt_thecrossant_black,420261,,black_plus_sign,,,,49,,,1,1,,,,,,,,,,,,,,,,,,,,,,,
null,,color_black,420364,,black_plus_sign,,,,null,,,,,,,,,,,,,,,,,,,,,,,,,,,
null,,learn_phase(without_color),423367,,black_plus_sign,,,,null,GW/boulder.png,GW/gatlinburg.png,,,,,,,,,,,,,,,,,,,,,,,,,
null,,black_cross(without_color),424194,,yellow,,,,null,GW/boulder.png,GW/gatlinburg.png,,,,,,,,,,,,,,,,,,,,,,,,,
null,,rt_plussign_withcolor,424697,,yellow,,,,null,GW/boulder.png,GW/gatlinburg.png,,,,,,,,,,,,,,,,,,,,,,,,,
1163.8999999999069,,rt_thecrossant_black,425877,,black_plus_sign,,,,50,,,1,1,,,,,,,,,,,,,,,,,,,,,,,
null,,color_black,425979,,black_plus_sign,,,,null,,,,,,,,,,,,,,,,,,,,,,,,,,,
null,,learn_phase(without_color),428983,,black_plus_sign,,,,null,GW/westpalmbeach.png,GW/hanover.png,,,,,,,,,,,,,,,,,,,,,,,,,
null,,black_cross(without_color),429559,,yellow,,,,null,GW/westpalmbeach.png,GW/hanover.png,,,,,,,,,,,,,,,,,,,,,,,,,
null,,rt_plussign_withcolor,430062,,yellow,,,,null,GW/westpalmbeach.png,GW/hanover.png,,,,,,,,,,,,,,,,,,,,,,,,,
1147.5999999996275,,rt_thecrossant_black,431494,,black_plus_sign,,,,50,,,1,1,,,,,,,,,,,,,,,,,,,,,,,
null,,color_black,431597,,black_plus_sign,,,,null,,,,,,,,,,,,,,,,,,,,,,,,,,,
null,,learn_phase(without_color),434602,,black_plus_sign,,,,null,GW/boulder.png,GW/gatlinburg.png,,,,,,,,,,,,,,,,,,,,,,,,,
null,,black_cross(without_color),435117,,yellow,,,,null,GW/boulder.png,GW/gatlinburg.png,,,,,,,,,,,,,,,,,,,,,,,,,
null,,rt_plussign_withcolor,435623,,yellow,,,,null,GW/boulder.png,GW/gatlinburg.png,,,,,,,,,,,,,,,,,,,,,,,,,
686,,rt_thecrossant_black,437115,,black_plus_sign,,,,50,,,1,1,,,,,,,,,,,,,,,,,,,,,,,
null,,color_black,437219,,black_plus_sign,,,,null,,,,,,,,,,,,,,,,,,,,,,,,,,,
null,,learn_phase(without_color),440224,,black_plus_sign,,,,null,GW/cornwall.png,GW/leesburg.png,,,,,,,,,,,,,,,,,,,,,,,,,
null,,black_cross(without_color),440828,,yellow,,,,null,GW/cornwall.png,GW/leesburg.png,,,,,,,,,,,,,,,,,,,,,,,,,
null,,rt_plussign_withcolor,441331,,yellow,,,,null,GW/cornwall.png,GW/leesburg.png,,,,,,,,,,,,,,,,,,,,,,,,,
901.2999999998137,,rt_thecrossant_black,442735,,black_plus_sign,,,,50,,,1,1,,,,,,,,,,,,,,,,,,,,,,,
null,,color_black,442838,,black_plus_sign,,,,null,,,,,,,,,,,,,,,,,,,,,,,,,,,
null,,learn_phase(without_color),445843,,black_plus_sign,,,,null,GW/peoria.png,GW/carmel.png,,,,,,,,,,,,,,,,,,,,,,,,,
null,,black_cross(without_color),446583,,yellow,,,,null,GW/peoria.png,GW/carmel.png,,,,,,,,,,,,,,,,,,,,,,,,,
null,,rt_plussign_withcolor,447086,,yellow,,,,null,GW/peoria.png,GW/carmel.png,,,,,,,,,,,,,,,,,,,,,,,,,
1030.6000000000931,,rt_thecrossant_black,448353,,black_plus_sign,,,,50,,,1,1,,,,,,,,,,,,,,,,,,,,,,,
null,,color_black,448456,,black_plus_sign,,,,null,,,,,,,,,,,,,,,,,,,,,,,,,,,
null,,learn_phase(without_color),451458,,black_plus_sign,,,,null,GW/leesburg.png,GW/cornwall.png,,,,,,,,,,,,,,,,,,,,,,,,,
null,,black_cross(without_color),452560,,blue,,,,null,GW/leesburg.png,GW/cornwall.png,,,,,,,,,,,,,,,,,,,,,,,,,
null,,rt_plussign_withcolor,453063,,blue,,,,null,GW/leesburg.png,GW/cornwall.png,,,,,,,,,,,,,,,,,,,,,,,,,
902.6000000000931,,rt_thecrossant_black,453967,,black_plus_sign,,,,49,,,1,1,,,,,,,,,,,,,,,,,,,,,,,
null,,color_black,454070,,black_plus_sign,,,,null,,,,,,,,,,,,,,,,,,,,,,,,,,,
null,,learn_phase(without_color),457075,,black_plus_sign,,,,null,GW/gatlinburg.png,GW/boulder.png,,,,,,,,,,,,,,,,,,,,,,,,,
null,,black_cross(without_color),457481,,blue,,,,null,GW/gatlinburg.png,GW/boulder.png,,,,,,,,,,,,,,,,,,,,,,,,,
null,,rt_plussign_withcolor,457984,,blue,,,,null,GW/gatlinburg.png,GW/boulder.png,,,,,,,,,,,,,,,,,,,,,,,,,
1694.6999999997206,,rt_thecrossant_black,459585,,black_plus_sign,,,,49,,,1,1,,,,,,,,,,,,,,,,,,,,,,,
null,,color_black,459688,,black_plus_sign,,,,null,,,,,,,,,,,,,,,,,,,,,,,,,,,
null,,learn_phase(without_color),462692,,black_plus_sign,,,,null,GW/hanover.png,GW/westpalmbeach.png,,,,,,,,,,,,,,,,,,,,,,,,,
null,,black_cross(without_color),463690,,blue,,,,null,GW/hanover.png,GW/westpalmbeach.png,,,,,,,,,,,,,,,,,,,,,,,,,
null,,rt_plussign_withcolor,464193,,blue,,,,null,GW/hanover.png,GW/westpalmbeach.png,,,,,,,,,,,,,,,,,,,,,,,,,
884.8999999999069,,rt_thecrossant_black,465201,,black_plus_sign,,,,49,,,1,1,,,,,,,,,,,,,,,,,,,,,,,
null,,color_black,465304,,black_plus_sign,,,,null,,,,,,,,,,,,,,,,,,,,,,,,,,,
null,,learn_phase(without_color),468309,,black_plus_sign,,,,null,GW/leesburg.png,GW/cornwall.png,,,,,,,,,,,,,,,,,,,,,,,,,
null,,black_cross(without_color),469270,,blue,,,,null,GW/leesburg.png,GW/cornwall.png,,,,,,,,,,,,,,,,,,,,,,,,,
null,,rt_plussign_withcolor,469773,,blue,,,,null,GW/leesburg.png,GW/cornwall.png,,,,,,,,,,,,,,,,,,,,,,,,,
1329.5999999996275,,rt_thecrossant_black,470819,,black_plus_sign,,,,49,,,1,1,,,,,,,,,,,,,,,,,,,,,,,
null,,color_black,470923,,black_plus_sign,,,,null,,,,,,,,,,,,,,,,,,,,,,,,,,,
null,,learn_phase(without_color),473927,,black_plus_sign,,,,null,GW/peoria.png,GW/carmel.png,,,,,,,,,,,,,,,,,,,,,,,,,
null,,black_cross(without_color),474336,,yellow,,,,null,GW/peoria.png,GW/carmel.png,,,,,,,,,,,,,,,,,,,,,,,,,
null,,rt_plussign_withcolor,474839,,yellow,,,,null,GW/peoria.png,GW/carmel.png,,,,,,,,,,,,,,,,,,,,,,,,,
1134.7999999998137,,rt_thecrossant_black,476436,,black_plus_sign,,,,50,,,1,1,,,,,,,,,,,,,,,,,,,,,,,
null,,color_black,476552,,black_plus_sign,,,,null,,,,,,,,,,,,,,,,,,,,,,,,,,,
null,,learn_phase(without_color),479558,,black_plus_sign,,,,null,GW/boulder.png,GW/gatlinburg.png,,,,,,,,,,,,,,,,,,,,,,,,,
null,,black_cross(without_color),480166,,blue,,,,null,GW/boulder.png,GW/gatlinburg.png,,,,,,,,,,,,,,,,,,,,,,,,,
null,,rt_plussign_withcolor,480669,,blue,,,,null,GW/boulder.png,GW/gatlinburg.png,,,,,,,,,,,,,,,,,,,,,,,,,
868.2000000001863,,rt_thecrossant_black,482066,,black_plus_sign,,,,49,,,1,1,,,,,,,,,,,,,,,,,,,,,,,
null,,color_black,482180,,black_plus_sign,,,,null,,,,,,,,,,,,,,,,,,,,,,,,,,,
null,,learn_phase(without_color),485184,,black_plus_sign,,,,null,GW/westpalmbeach.png,GW/hanover.png,,,,,,,,,,,,,,,,,,,,,,,,,
null,,black_cross(without_color),485709,,blue,,,,null,GW/westpalmbeach.png,GW/hanover.png,,,,,,,,,,,,,,,,,,,,,,,,,
null,,rt_plussign_withcolor,486211,,blue,,,,null,GW/westpalmbeach.png,GW/hanover.png,,,,,,,,,,,,,,,,,,,,,,,,,
1009.3000000007451,,rt_thecrossant_black,487693,,black_plus_sign,,,,49,,,1,1,,,,,,,,,,,,,,,,,,,,,,,
null,,color_black,487797,,black_plus_sign,,,,null,,,,,,,,,,,,,,,,,,,,,,,,,,,
null,,learn_phase(without_color),490802,,black_plus_sign,,,,null,GW/leesburg.png,GW/cornwall.png,,,,,,,,,,,,,,,,,,,,,,,,,
null,,black_cross(without_color),491883,,blue,,,,null,GW/leesburg.png,GW/cornwall.png,,,,,,,,,,,,,,,,,,,,,,,,,
null,,rt_plussign_withcolor,492386,,blue,,,,null,GW/leesburg.png,GW/cornwall.png,,,,,,,,,,,,,,,,,,,,,,,,,
746.2999999998137,,rt_thecrossant_black,493313,,black_plus_sign,,,,49,,,1,1,,,,,,,,,,,,,,,,,,,,,,,
null,,color_black,493416,,black_plus_sign,,,,null,,,,,,,,,,,,,,,,,,,,,,,,,,,
null,,learn_phase(without_color),496421,,black_plus_sign,,,,null,GW/hanover.png,GW/westpalmbeach.png,,,,,,,,,,,,,,,,,,,,,,,,,
null,,black_cross(without_color),497276,,yellow,,,,null,GW/hanover.png,GW/westpalmbeach.png,,,,,,,,,,,,,,,,,,,,,,,,,
null,,rt_plussign_withcolor,497779,,yellow,,,,null,GW/hanover.png,GW/westpalmbeach.png,,,,,,,,,,,,,,,,,,,,,,,,,
1360.4000000003725,,rt_thecrossant_black,498931,,black_plus_sign,,,,50,,,1,1,,,,,,,,,,,,,,,,,,,,,,,
null,,color_black,499034,,black_plus_sign,,,,null,,,,,,,,,,,,,,,,,,,,,,,,,,,
null,,learn_phase(without_color),502039,,black_plus_sign,,,,null,GW/carmel.png,GW/peoria.png,,,,,,,,,,,,,,,,,,,,,,,,,
null,,black_cross(without_color),503056,,yellow,,,,null,GW/carmel.png,GW/peoria.png,,,,,,,,,,,,,,,,,,,,,,,,,
null,,rt_plussign_withcolor,503559,,yellow,,,,null,GW/carmel.png,GW/peoria.png,,,,,,,,,,,,,,,,,,,,,,,,,
1339.5999999996275,,rt_thecrossant_black,504549,,black_plus_sign,,,,50,,,1,1,,,,,,,,,,,,,,,,,,,,,,,
null,,color_black,504653,,black_plus_sign,,,,null,,,,,,,,,,,,,,,,,,,,,,,,,,,
null,,learn_phase(without_color),507657,,black_plus_sign,,,,null,GW/cornwall.png,GW/leesburg.png,,,,,,,,,,,,,,,,,,,,,,,,,
null,,black_cross(without_color),508687,,yellow,,,,null,GW/cornwall.png,GW/leesburg.png,,,,,,,,,,,,,,,,,,,,,,,,,
null,,rt_plussign_withcolor,509189,,yellow,,,,null,GW/cornwall.png,GW/leesburg.png,,,,,,,,,,,,,,,,,,,,,,,,,
1192.2999999998137,,rt_thecrossant_black,510167,,black_plus_sign,,,,50,,,1,1,,,,,,,,,,,,,,,,,,,,,,,
null,,color_black,510270,,black_plus_sign,,,,null,,,,,,,,,,,,,,,,,,,,,,,,,,,
null,,learn_phase(without_color),513273,,black_plus_sign,,,,null,GW/carmel.png,GW/peoria.png,,,,,,,,,,,,,,,,,,,,,,,,,
null,,black_cross(without_color),513966,,yellow,,,,null,GW/carmel.png,GW/peoria.png,,,,,,,,,,,,,,,,,,,,,,,,,
null,,rt_plussign_withcolor,514469,,yellow,,,,null,GW/carmel.png,GW/peoria.png,,,,,,,,,,,,,,,,,,,,,,,,,
1255.6000000005588,,rt_thecrossant_black,515783,,black_plus_sign,,,,50,,,1,1,,,,,,,,,,,,,,,,,,,,,,,
null,,color_black,515887,,black_plus_sign,,,,null,,,,,,,,,,,,,,,,,,,,,,,,,,,
null,,learn_phase(without_color),518891,,black_plus_sign,,,,null,GW/leesburg.png,GW/cornwall.png,,,,,,,,,,,,,,,,,,,,,,,,,
null,,black_cross(without_color),519499,,yellow,,,,null,GW/leesburg.png,GW/cornwall.png,,,,,,,,,,,,,,,,,,,,,,,,,
null,,rt_plussign_withcolor,520001,,yellow,,,,null,GW/leesburg.png,GW/cornwall.png,,,,,,,,,,,,,,,,,,,,,,,,,
858.6999999992549,,rt_thecrossant_black,521400,,black_plus_sign,,,,50,,,1,1,,,,,,,,,,,,,,,,,,,,,,,
null,,color_black,521503,,black_plus_sign,,,,null,,,,,,,,,,,,,,,,,,,,,,,,,,,
null,,learn_phase(without_color),524508,,black_plus_sign,,,,null,GW/gatlinburg.png,GW/boulder.png,,,,,,,,,,,,,,,,,,,,,,,,,
null,,black_cross(without_color),525111,,yellow,,,,null,GW/gatlinburg.png,GW/boulder.png,,,,,,,,,,,,,,,,,,,,,,,,,
null,,rt_plussign_withcolor,525613,,yellow,,,,null,GW/gatlinburg.png,GW/boulder.png,,,,,,,,,,,,,,,,,,,,,,,,,
955.7999999998137,,rt_thecrossant_black,527016,,black_plus_sign,,,,50,,,1,1,,,,,,,,,,,,,,,,,,,,,,,
null,,color_black,527119,,black_plus_sign,,,,null,,,,,,,,,,,,,,,,,,,,,,,,,,,
null,,learn_phase(without_color),530124,,black_plus_sign,,,,null,GW/peoria.png,GW/carmel.png,,,,,,,,,,,,,,,,,,,,,,,,,
null,,black_cross(without_color),530920,,blue,,,,null,GW/peoria.png,GW/carmel.png,,,,,,,,,,,,,,,,,,,,,,,,,
null,,rt_plussign_withcolor,531423,,blue,,,,null,GW/peoria.png,GW/carmel.png,,,,,,,,,,,,,,,,,,,,,,,,,
1006.4000000003725,,rt_thecrossant_black,532632,,black_plus_sign,,,,49,,,1,1,,,,,,,,,,,,,,,,,,,,,,,
null,,color_black,532736,,black_plus_sign,,,,null,,,,,,,,,,,,,,,,,,,,,,,,,,,
null,,learn_phase(without_color),535741,,black_plus_sign,,,,null,GW/leesburg.png,GW/cornwall.png,,,,,,,,,,,,,,,,,,,,,,,,,
null,,black_cross(without_color),536775,,yellow,,,,null,GW/leesburg.png,GW/cornwall.png,,,,,,,,,,,,,,,,,,,,,,,,,
null,,rt_plussign_withcolor,537277,,yellow,,,,null,GW/leesburg.png,GW/cornwall.png,,,,,,,,,,,,,,,,,,,,,,,,,
948.7999999998137,,rt_thecrossant_black,538250,,black_plus_sign,,,,50,,,1,1,,,,,,,,,,,,,,,,,,,,,,,
null,,color_black,538353,,black_plus_sign,,,,null,,,,,,,,,,,,,,,,,,,,,,,,,,,
null,,learn_phase(without_color),541357,,black_plus_sign,,,,null,GW/carmel.png,GW/peoria.png,,,,,,,,,,,,,,,,,,,,,,,,,
null,,black_cross(without_color),542289,,yellow,,,,null,GW/carmel.png,GW/peoria.png,,,,,,,,,,,,,,,,,,,,,,,,,
null,,rt_plussign_withcolor,542793,,yellow,,,,null,GW/carmel.png,GW/peoria.png,,,,,,,,,,,,,,,,,,,,,,,,,
1211.5999999996275,,rt_thecrossant_black,543869,,black_plus_sign,,,,50,,,1,1,,,,,,,,,,,,,,,,,,,,,,,
null,,color_black,543973,,black_plus_sign,,,,null,,,,,,,,,,,,,,,,,,,,,,,,,,,
null,,learn_phase(without_color),546975,,black_plus_sign,,,,null,GW/leesburg.png,GW/cornwall.png,,,,,,,,,,,,,,,,,,,,,,,,,
null,,black_cross(without_color),547632,,blue,,,,null,GW/leesburg.png,GW/cornwall.png,,,,,,,,,,,,,,,,,,,,,,,,,
null,,rt_plussign_withcolor,548135,,blue,,,,null,GW/leesburg.png,GW/cornwall.png,,,,,,,,,,,,,,,,,,,,,,,,,
1156.4000000003725,,rt_thecrossant_black,549485,,black_plus_sign,,,,49,,,1,1,,,,,,,,,,,,,,,,,,,,,,,
null,,color_black,549588,,black_plus_sign,,,,null,,,,,,,,,,,,,,,,,,,,,,,,,,,
null,,learn_phase(without_color),552591,,black_plus_sign,,,,null,GW/hanover.png,GW/westpalmbeach.png,,,,,,,,,,,,,,,,,,,,,,,,,
null,,black_cross(without_color),553658,,blue,,,,null,GW/hanover.png,GW/westpalmbeach.png,,,,,,,,,,,,,,,,,,,,,,,,,
null,,rt_plussign_withcolor,554162,,blue,,,,null,GW/hanover.png,GW/westpalmbeach.png,,,,,,,,,,,,,,,,,,,,,,,,,
945.4000000003725,,rt_thecrossant_black,555100,,black_plus_sign,,,,49,,,1,1,,,,,,,,,,,,,,,,,,,,,,,
null,,color_black,555204,,black_plus_sign,,,,null,,,,,,,,,,,,,,,,,,,,,,,,,,,
null,,learn_phase(without_color),558209,,black_plus_sign,,,,null,GW/peoria.png,GW/carmel.png,,,,,,,,,,,,,,,,,,,,,,,,,
null,,black_cross(without_color),558978,,yellow,,,,null,GW/peoria.png,GW/carmel.png,,,,,,,,,,,,,,,,,,,,,,,,,
null,,rt_plussign_withcolor,559481,,yellow,,,,null,GW/peoria.png,GW/carmel.png,,,,,,,,,,,,,,,,,,,,,,,,,
1326.6000000005588,,rt_thecrossant_black,560718,,black_plus_sign,,,,50,,,1,1,,,,,,,,,,,,,,,,,,,,,,,
null,,color_black,560821,,black_plus_sign,,,,null,,,,,,,,,,,,,,,,,,,,,,,,,,,
null,,learn_phase(without_color),563826,,black_plus_sign,,,,null,GW/hanover.png,GW/westpalmbeach.png,,,,,,,,,,,,,,,,,,,,,,,,,
null,,black_cross(without_color),564246,,yellow,,,,null,GW/hanover.png,GW/westpalmbeach.png,,,,,,,,,,,,,,,,,,,,,,,,,
null,,rt_plussign_withcolor,564748,,yellow,,,,null,GW/hanover.png,GW/westpalmbeach.png,,,,,,,,,,,,,,,,,,,,,,,,,
1062.8999999994412,,rt_thecrossant_black,566333,,black_plus_sign,,,,50,,,1,1,,,,,,,,,,,,,,,,,,,,,,,
null,,color_black,566437,,black_plus_sign,,,,null,,,,,,,,,,,,,,,,,,,,,,,,,,,
null,,learn_phase(without_color),569439,,black_plus_sign,,,,null,GW/carmel.png,GW/peoria.png,,,,,,,,,,,,,,,,,,,,,,,,,
null,,black_cross(without_color),570313,,blue,,,,null,GW/carmel.png,GW/peoria.png,,,,,,,,,,,,,,,,,,,,,,,,,
null,,rt_plussign_withcolor,570815,,blue,,,,null,GW/carmel.png,GW/peoria.png,,,,,,,,,,,,,,,,,,,,,,,,,
692.0999999996275,,rt_thecrossant_black,571947,,black_plus_sign,,,,49,,,1,1,,,,,,,,,,,,,,,,,,,,,,,
null,,color_black,572050,,black_plus_sign,,,,null,,,,,,,,,,,,,,,,,,,,,,,,,,,
null,,learn_phase(without_color),575055,,black_plus_sign,,,,null,GW/hanover.png,GW/westpalmbeach.png,,,,,,,,,,,,,,,,,,,,,,,,,
null,,black_cross(without_color),575638,,blue,,,,null,GW/hanover.png,GW/westpalmbeach.png,,,,,,,,,,,,,,,,,,,,,,,,,
null,,rt_plussign_withcolor,576140,,blue,,,,null,GW/hanover.png,GW/westpalmbeach.png,,,,,,,,,,,,,,,,,,,,,,,,,
1199.7000000001863,,rt_thecrossant_black,577563,,black_plus_sign,,,,49,,,1,1,,,,,,,,,,,,,,,,,,,,,,,
null,,color_black,577667,,black_plus_sign,,,,null,,,,,,,,,,,,,,,,,,,,,,,,,,,
null,,learn_phase(without_color),580671,,black_plus_sign,,,,null,GW/boulder.png,GW/gatlinburg.png,,,,,,,,,,,,,,,,,,,,,,,,,
null,,black_cross(without_color),581221,,yellow,,,,null,GW/boulder.png,GW/gatlinburg.png,,,,,,,,,,,,,,,,,,,,,,,,,
null,,rt_plussign_withcolor,581723,,yellow,,,,null,GW/boulder.png,GW/gatlinburg.png,,,,,,,,,,,,,,,,,,,,,,,,,
829.6000000005588,,rt_thecrossant_black,583180,,black_plus_sign,,,,50,,,1,1,,,,,,,,,,,,,,,,,,,,,,,
null,,color_black,583284,,black_plus_sign,,,,null,,,,,,,,,,,,,,,,,,,,,,,,,,,
null,,learn_phase(without_color),586289,,black_plus_sign,,,,null,GW/boulder.png,GW/gatlinburg.png,,,,,,,,,,,,,,,,,,,,,,,,,
null,,black_cross(without_color),587015,,blue,,,,null,GW/boulder.png,GW/gatlinburg.png,,,,,,,,,,,,,,,,,,,,,,,,,
null,,rt_plussign_withcolor,587517,,blue,,,,null,GW/boulder.png,GW/gatlinburg.png,,,,,,,,,,,,,,,,,,,,,,,,,
975.8000000007451,,rt_thecrossant_black,588796,,black_plus_sign,,,,49,,,1,1,,,,,,,,,,,,,,,,,,,,,,,
null,,color_black,588901,,black_plus_sign,,,,null,,,,,,,,,,,,,,,,,,,,,,,,,,,
null,,learn_phase(without_color),591905,,black_plus_sign,,,,null,GW/boulder.png,GW/gatlinburg.png,,,,,,,,,,,,,,,,,,,,,,,,,
null,,black_cross(without_color),592388,,blue,,,,null,GW/boulder.png,GW/gatlinburg.png,,,,,,,,,,,,,,,,,,,,,,,,,
null,,rt_plussign_withcolor,592891,,blue,,,,null,GW/boulder.png,GW/gatlinburg.png,,,,,,,,,,,,,,,,,,,,,,,,,
1039.9000000003725,,rt_thecrossant_black,594414,,black_plus_sign,,,,49,,,1,1,,,,,,,,,,,,,,,,,,,,,,,
null,,color_black,594517,,black_plus_sign,,,,null,,,,,,,,,,,,,,,,,,,,,,,,,,,
52011.5,,learn_break,646531,,learn_break,,,,32,,,,,,,,,,,,,,,,,,,,,,,,,,,
null,,html-keyboard-response,647533,,<p></p>,,,,null,,,,,,,,,,,,,,,,,,,,,,,,,,,
null,,learn_phase(without_color),650537,,black_plus_sign,,,,null,GW/carmel.png,GW/racine.png,,,,,,,,,,,,,,,,,,,,,,,,,
null,,black_cross(without_color),651267,,yellow,,,,null,GW/carmel.png,GW/racine.png,,,,,,,,,,,,,,,,,,,,,,,,,
null,,rt_plussign_withcolor,651769,,yellow,,,,null,GW/carmel.png,GW/racine.png,,,,,,,,,,,,,,,,,,,,,,,,,
780.7000000001863,,rt_thecrossant_black,653046,,black_plus_sign,,,,50,,,1,1,,,,,,,,,,,,,,,,,,,,,,,
null,,color_black,653164,,black_plus_sign,,,,null,,,,,,,,,,,,,,,,,,,,,,,,,,,
null,,learn_phase(without_color),656169,,black_plus_sign,,,,null,GW/hanover.png,GW/boulder.png,,,,,,,,,,,,,,,,,,,,,,,,,
null,,black_cross(without_color),656759,,yellow,,,,null,GW/hanover.png,GW/boulder.png,,,,,,,,,,,,,,,,,,,,,,,,,
null,,rt_plussign_withcolor,657261,,yellow,,,,null,GW/hanover.png,GW/boulder.png,,,,,,,,,,,,,,,,,,,,,,,,,
895.3999999994412,,rt_thecrossant_black,658677,,black_plus_sign,,,,50,,,1,1,,,,,,,,,,,,,,,,,,,,,,,
null,,color_black,658788,,black_plus_sign,,,,null,,,,,,,,,,,,,,,,,,,,,,,,,,,
null,,learn_phase(without_color),661792,,black_plus_sign,,,,null,GW/cornwall.png,GW/gatlinburg.png,,,,,,,,,,,,,,,,,,,,,,,,,
null,,black_cross(without_color),662306,,yellow,,,,null,GW/cornwall.png,GW/gatlinburg.png,,,,,,,,,,,,,,,,,,,,,,,,,
484.79999999981374,,rt_plussign_withcolor,662808,,yellow,,,,50,GW/cornwall.png,GW/gatlinburg.png,,,,,,,,,,,,,,,,,,,,,,,,,
null,,rt_thecrossant_black,664301,,black_plus_sign,,,,null,,,1,1,,,,,,,,,,,,,,,,,,,,,,,
null,,color_black,664404,,black_plus_sign,,,,null,,,,,,,,,,,,,,,,,,,,,,,,,,,
null,,learn_phase(without_color),667409,,black_plus_sign,,,,null,GW/shreveport.png,GW/westpalmbeach.png,,,,,,,,,,,,,,,,,,,,,,,,,
null,,black_cross(without_color),667931,,yellow,,,,null,GW/shreveport.png,GW/westpalmbeach.png,,,,,,,,,,,,,,,,,,,,,,,,,
null,,rt_plussign_withcolor,668433,,yellow,,,,null,GW/shreveport.png,GW/westpalmbeach.png,,,,,,,,,,,,,,,,,,,,,,,,,
789.9000000003725,,rt_thecrossant_black,669918,,black_plus_sign,,,,50,,,1,1,,,,,,,,,,,,,,,,,,,,,,,
null,,color_black,670022,,black_plus_sign,,,,null,,,,,,,,,,,,,,,,,,,,,,,,,,,
null,,learn_phase(without_color),673027,,black_plus_sign,,,,null,GW/hanover.png,GW/boulder.png,,,,,,,,,,,,,,,,,,,,,,,,,
null,,black_cross(without_color),673618,,blue,,,,null,GW/hanover.png,GW/boulder.png,,,,,,,,,,,,,,,,,,,,,,,,,
null,,rt_plussign_withcolor,674121,,blue,,,,null,GW/hanover.png,GW/boulder.png,,,,,,,,,,,,,,,,,,,,,,,,,
700.2999999998137,,rt_thecrossant_black,675536,,black_plus_sign,,,,49,,,1,1,,,,,,,,,,,,,,,,,,,,,,,
null,,color_black,675640,,black_plus_sign,,,,null,,,,,,,,,,,,,,,,,,,,,,,,,,,
null,,learn_phase(without_color),678645,,black_plus_sign,,,,null,GW/racine.png,GW/carmel.png,,,,,,,,,,,,,,,,,,,,,,,,,
null,,black_cross(without_color),679498,,blue,,,,null,GW/racine.png,GW/carmel.png,,,,,,,,,,,,,,,,,,,,,,,,,
null,,rt_plussign_withcolor,680000,,blue,,,,null,GW/racine.png,GW/carmel.png,,,,,,,,,,,,,,,,,,,,,,,,,
843.6000000005588,,rt_thecrossant_black,681154,,black_plus_sign,,,,49,,,1,1,,,,,,,,,,,,,,,,,,,,,,,
null,,color_black,681257,,black_plus_sign,,,,null,,,,,,,,,,,,,,,,,,,,,,,,,,,
null,,learn_phase(without_color),684263,,black_plus_sign,,,,null,GW/westpalmbeach.png,GW/shreveport.png,,,,,,,,,,,,,,,,,,,,,,,,,
null,,black_cross(without_color),684854,,blue,,,,null,GW/westpalmbeach.png,GW/shreveport.png,,,,,,,,,,,,,,,,,,,,,,,,,
null,,rt_plussign_withcolor,685357,,blue,,,,null,GW/westpalmbeach.png,GW/shreveport.png,,,,,,,,,,,,,,,,,,,,,,,,,
1087.2999999998137,,rt_thecrossant_black,686773,,black_plus_sign,,,,49,,,1,1,,,,,,,,,,,,,,,,,,,,,,,
null,,color_black,686876,,black_plus_sign,,,,null,,,,,,,,,,,,,,,,,,,,,,,,,,,
null,,learn_phase(without_color),689880,,black_plus_sign,,,,null,GW/carmel.png,GW/racine.png,,,,,,,,,,,,,,,,,,,,,,,,,
null,,black_cross(without_color),690762,,yellow,,,,null,GW/carmel.png,GW/racine.png,,,,,,,,,,,,,,,,,,,,,,,,,
null,,rt_plussign_withcolor,691265,,yellow,,,,null,GW/carmel.png,GW/racine.png,,,,,,,,,,,,,,,,,,,,,,,,,
879,,rt_thecrossant_black,692390,,black_plus_sign,,,,50,,,1,1,,,,,,,,,,,,,,,,,,,,,,,
null,,color_black,692493,,black_plus_sign,,,,null,,,,,,,,,,,,,,,,,,,,,,,,,,,
null,,learn_phase(without_color),695497,,black_plus_sign,,,,null,GW/hanover.png,GW/boulder.png,,,,,,,,,,,,,,,,,,,,,,,,,
null,,black_cross(without_color),696307,,yellow,,,,null,GW/hanover.png,GW/boulder.png,,,,,,,,,,,,,,,,,,,,,,,,,
null,,rt_plussign_withcolor,696810,,yellow,,,,null,GW/hanover.png,GW/boulder.png,,,,,,,,,,,,,,,,,,,,,,,,,
1246.5,,rt_thecrossant_black,698007,,black_plus_sign,,,,50,,,1,1,,,,,,,,,,,,,,,,,,,,,,,
null,,color_black,698110,,black_plus_sign,,,,null,,,,,,,,,,,,,,,,,,,,,,,,,,,
null,,learn_phase(without_color),701115,,black_plus_sign,,,,null,GW/carmel.png,GW/racine.png,,,,,,,,,,,,,,,,,,,,,,,,,
null,,black_cross(without_color),702091,,blue,,,,null,GW/carmel.png,GW/racine.png,,,,,,,,,,,,,,,,,,,,,,,,,
null,,rt_plussign_withcolor,702594,,blue,,,,null,GW/carmel.png,GW/racine.png,,,,,,,,,,,,,,,,,,,,,,,,,
1272,,rt_thecrossant_black,703624,,black_plus_sign,,,,49,,,1,1,,,,,,,,,,,,,,,,,,,,,,,
null,,color_black,703727,,black_plus_sign,,,,null,,,,,,,,,,,,,,,,,,,,,,,,,,,
null,,learn_phase(without_color),706733,,black_plus_sign,,,,null,GW/shreveport.png,GW/westpalmbeach.png,,,,,,,,,,,,,,,,,,,,,,,,,
null,,black_cross(without_color),707743,,yellow,,,,null,GW/shreveport.png,GW/westpalmbeach.png,,,,,,,,,,,,,,,,,,,,,,,,,
null,,rt_plussign_withcolor,708246,,yellow,,,,null,GW/shreveport.png,GW/westpalmbeach.png,,,,,,,,,,,,,,,,,,,,,,,,,
1428,,rt_thecrossant_black,709243,,black_plus_sign,,,,50,,,1,1,,,,,,,,,,,,,,,,,,,,,,,
null,,color_black,709347,,black_plus_sign,,,,null,,,,,,,,,,,,,,,,,,,,,,,,,,,
null,,learn_phase(without_color),712351,,black_plus_sign,,,,null,GW/hanover.png,GW/boulder.png,,,,,,,,,,,,,,,,,,,,,,,,,
null,,black_cross(without_color),712867,,yellow,,,,null,GW/hanover.png,GW/boulder.png,,,,,,,,,,,,,,,,,,,,,,,,,
null,,rt_plussign_withcolor,713370,,yellow,,,,null,GW/hanover.png,GW/boulder.png,,,,,,,,,,,,,,,,,,,,,,,,,
1224.0999999996275,,rt_thecrossant_black,714861,,black_plus_sign,,,,50,,,1,1,,,,,,,,,,,,,,,,,,,,,,,
null,,color_black,714964,,black_plus_sign,,,,null,,,,,,,,,,,,,,,,,,,,,,,,,,,
null,,learn_phase(without_color),717969,,black_plus_sign,,,,null,GW/cornwall.png,GW/gatlinburg.png,,,,,,,,,,,,,,,,,,,,,,,,,
null,,black_cross(without_color),718613,,yellow,,,,null,GW/cornwall.png,GW/gatlinburg.png,,,,,,,,,,,,,,,,,,,,,,,,,
null,,rt_plussign_withcolor,719116,,yellow,,,,null,GW/cornwall.png,GW/gatlinburg.png,,,,,,,,,,,,,,,,,,,,,,,,,
776.2000000001863,,rt_thecrossant_black,720479,,black_plus_sign,,,,50,,,1,1,,,,,,,,,,,,,,,,,,,,,,,
null,,color_black,720582,,black_plus_sign,,,,null,,,,,,,,,,,,,,,,,,,,,,,,,,,
null,,learn_phase(without_color),723588,,black_plus_sign,,,,null,GW/carmel.png,GW/racine.png,,,,,,,,,,,,,,,,,,,,,,,,,
null,,black_cross(without_color),724596,,blue,,,,null,GW/carmel.png,GW/racine.png,,,,,,,,,,,,,,,,,,,,,,,,,
null,,rt_plussign_withcolor,725099,,blue,,,,null,GW/carmel.png,GW/racine.png,,,,,,,,,,,,,,,,,,,,,,,,,
975.3999999994412,,rt_thecrossant_black,726097,,black_plus_sign,,,,49,,,1,1,,,,,,,,,,,,,,,,,,,,,,,
null,,color_black,726209,,black_plus_sign,,,,null,,,,,,,,,,,,,,,,,,,,,,,,,,,
null,,learn_phase(without_color),729214,,black_plus_sign,,,,null,GW/shreveport.png,GW/westpalmbeach.png,,,,,,,,,,,,,,,,,,,,,,,,,
null,,black_cross(without_color),730101,,yellow,,,,null,GW/shreveport.png,GW/westpalmbeach.png,,,,,,,,,,,,,,,,,,,,,,,,,
391.1000000005588,,rt_plussign_withcolor,730604,,yellow,,,,50,GW/shreveport.png,GW/westpalmbeach.png,,,,,,,,,,,,,,,,,,,,,,,,,
null,,rt_thecrossant_black,731733,,black_plus_sign,,,,null,,,1,1,,,,,,,,,,,,,,,,,,,,,,,
null,,color_black,731835,,black_plus_sign,,,,null,,,,,,,,,,,,,,,,,,,,,,,,,,,
null,,learn_phase(without_color),734841,,black_plus_sign,,,,null,GW/hanover.png,GW/boulder.png,,,,,,,,,,,,,,,,,,,,,,,,,
null,,black_cross(without_color),735359,,blue,,,,null,GW/hanover.png,GW/boulder.png,,,,,,,,,,,,,,,,,,,,,,,,,
null,,rt_plussign_withcolor,735861,,blue,,,,null,GW/hanover.png,GW/boulder.png,,,,,,,,,,,,,,,,,,,,,,,,,
1184.1000000005588,,rt_thecrossant_black,737348,,black_plus_sign,,,,49,,,1,1,,,,,,,,,,,,,,,,,,,,,,,
null,,color_black,737453,,black_plus_sign,,,,null,,,,,,,,,,,,,,,,,,,,,,,,,,,
null,,learn_phase(without_color),740458,,black_plus_sign,,,,null,GW/shreveport.png,GW/westpalmbeach.png,,,,,,,,,,,,,,,,,,,,,,,,,
null,,black_cross(without_color),741423,,blue,,,,null,GW/shreveport.png,GW/westpalmbeach.png,,,,,,,,,,,,,,,,,,,,,,,,,
441.90000000037253,,rt_plussign_withcolor,741926,,blue,,,,49,GW/shreveport.png,GW/westpalmbeach.png,,,,,,,,,,,,,,,,,,,,,,,,,
null,,rt_thecrossant_black,742969,,black_plus_sign,,,,null,,,1,1,,,,,,,,,,,,,,,,,,,,,,,
null,,color_black,743072,,black_plus_sign,,,,null,,,,,,,,,,,,,,,,,,,,,,,,,,,
null,,learn_phase(without_color),746076,,black_plus_sign,,,,null,GW/cornwall.png,GW/gatlinburg.png,,,,,,,,,,,,,,,,,,,,,,,,,
null,,black_cross(without_color),746955,,yellow,,,,null,GW/cornwall.png,GW/gatlinburg.png,,,,,,,,,,,,,,,,,,,,,,,,,
null,,rt_plussign_withcolor,747473,,yellow,,,,null,GW/cornwall.png,GW/gatlinburg.png,,,,,,,,,,,,,,,,,,,,,,,,,
1375.5,,rt_thecrossant_black,748606,,black_plus_sign,,,,50,,,1,1,,,,,,,,,,,,,,,,,,,,,,,
null,,color_black,748709,,black_plus_sign,,,,null,,,,,,,,,,,,,,,,,,,,,,,,,,,
null,,learn_phase(without_color),751714,,black_plus_sign,,,,null,GW/racine.png,GW/carmel.png,,,,,,,,,,,,,,,,,,,,,,,,,
null,,black_cross(without_color),752187,,blue,,,,null,GW/racine.png,GW/carmel.png,,,,,,,,,,,,,,,,,,,,,,,,,
null,,rt_plussign_withcolor,752690,,blue,,,,null,GW/racine.png,GW/carmel.png,,,,,,,,,,,,,,,,,,,,,,,,,
1171.199999999255,,rt_thecrossant_black,754224,,black_plus_sign,,,,49,,,1,1,,,,,,,,,,,,,,,,,,,,,,,
null,,color_black,754327,,black_plus_sign,,,,null,,,,,,,,,,,,,,,,,,,,,,,,,,,
null,,learn_phase(without_color),757333,,black_plus_sign,,,,null,GW/gatlinburg.png,GW/cornwall.png,,,,,,,,,,,,,,,,,,,,,,,,,
null,,black_cross(without_color),758435,,yellow,,,,null,GW/gatlinburg.png,GW/cornwall.png,,,,,,,,,,,,,,,,,,,,,,,,,
null,,rt_plussign_withcolor,758937,,yellow,,,,null,GW/gatlinburg.png,GW/cornwall.png,,,,,,,,,,,,,,,,,,,,,,,,,
955.3000000007451,,rt_thecrossant_black,759841,,black_plus_sign,,,,50,,,1,1,,,,,,,,,,,,,,,,,,,,,,,
null,,color_black,759945,,black_plus_sign,,,,null,,,,,,,,,,,,,,,,,,,,,,,,,,,
null,,learn_phase(without_color),762950,,black_plus_sign,,,,null,GW/hanover.png,GW/boulder.png,,,,,,,,,,,,,,,,,,,,,,,,,
null,,black_cross(without_color),763430,,blue,,,,null,GW/hanover.png,GW/boulder.png,,,,,,,,,,,,,,,,,,,,,,,,,
null,,rt_plussign_withcolor,763933,,blue,,,,null,GW/hanover.png,GW/boulder.png,,,,,,,,,,,,,,,,,,,,,,,,,
1475.7000000001863,,rt_thecrossant_black,765459,,black_plus_sign,,,,49,,,1,1,,,,,,,,,,,,,,,,,,,,,,,
null,,color_black,765563,,black_plus_sign,,,,null,,,,,,,,,,,,,,,,,,,,,,,,,,,
null,,learn_phase(without_color),768567,,black_plus_sign,,,,null,GW/gatlinburg.png,GW/cornwall.png,,,,,,,,,,,,,,,,,,,,,,,,,
null,,black_cross(without_color),768983,,yellow,,,,null,GW/gatlinburg.png,GW/cornwall.png,,,,,,,,,,,,,,,,,,,,,,,,,
null,,rt_plussign_withcolor,769485,,yellow,,,,null,GW/gatlinburg.png,GW/cornwall.png,,,,,,,,,,,,,,,,,,,,,,,,,
771.5,,rt_thecrossant_black,771078,,black_plus_sign,,,,50,,,1,1,,,,,,,,,,,,,,,,,,,,,,,
null,,color_black,771183,,black_plus_sign,,,,null,,,,,,,,,,,,,,,,,,,,,,,,,,,
null,,learn_phase(without_color),774188,,black_plus_sign,,,,null,GW/westpalmbeach.png,GW/shreveport.png,,,,,,,,,,,,,,,,,,,,,,,,,
null,,black_cross(without_color),775046,,yellow,,,,null,GW/westpalmbeach.png,GW/shreveport.png,,,,,,,,,,,,,,,,,,,,,,,,,
null,,rt_plussign_withcolor,775550,,yellow,,,,null,GW/westpalmbeach.png,GW/shreveport.png,,,,,,,,,,,,,,,,,,,,,,,,,
706.2999999998137,,rt_thecrossant_black,776699,,black_plus_sign,,,,50,,,1,1,,,,,,,,,,,,,,,,,,,,,,,
null,,color_black,776803,,black_plus_sign,,,,null,,,,,,,,,,,,,,,,,,,,,,,,,,,
null,,learn_phase(without_color),779808,,black_plus_sign,,,,null,GW/carmel.png,GW/racine.png,,,,,,,,,,,,,,,,,,,,,,,,,
null,,black_cross(without_color),780486,,yellow,,,,null,GW/carmel.png,GW/racine.png,,,,,,,,,,,,,,,,,,,,,,,,,
null,,rt_plussign_withcolor,780989,,yellow,,,,null,GW/carmel.png,GW/racine.png,,,,,,,,,,,,,,,,,,,,,,,,,
1312.5,,rt_thecrossant_black,782318,,black_plus_sign,,,,50,,,1,1,,,,,,,,,,,,,,,,,,,,,,,
null,,color_black,782421,,black_plus_sign,,,,null,,,,,,,,,,,,,,,,,,,,,,,,,,,
null,,learn_phase(without_color),785426,,black_plus_sign,,,,null,GW/gatlinburg.png,GW/cornwall.png,,,,,,,,,,,,,,,,,,,,,,,,,
null,,black_cross(without_color),786375,,blue,,,,null,GW/gatlinburg.png,GW/cornwall.png,,,,,,,,,,,,,,,,,,,,,,,,,
null,,rt_plussign_withcolor,786879,,blue,,,,null,GW/gatlinburg.png,GW/cornwall.png,,,,,,,,,,,,,,,,,,,,,,,,,
1015.8999999994412,,rt_thecrossant_black,787936,,black_plus_sign,,,,49,,,1,1,,,,,,,,,,,,,,,,,,,,,,,
null,,color_black,788055,,black_plus_sign,,,,null,,,,,,,,,,,,,,,,,,,,,,,,,,,
null,,learn_phase(without_color),791059,,black_plus_sign,,,,null,GW/shreveport.png,GW/westpalmbeach.png,,,,,,,,,,,,,,,,,,,,,,,,,
null,,black_cross(without_color),791543,,yellow,,,,null,GW/shreveport.png,GW/westpalmbeach.png,,,,,,,,,,,,,,,,,,,,,,,,,
null,,rt_plussign_withcolor,792046,,yellow,,,,null,GW/shreveport.png,GW/westpalmbeach.png,,,,,,,,,,,,,,,,,,,,,,,,,
1560,,rt_thecrossant_black,793568,,black_plus_sign,,,,50,,,1,1,,,,,,,,,,,,,,,,,,,,,,,
null,,color_black,793672,,black_plus_sign,,,,null,,,,,,,,,,,,,,,,,,,,,,,,,,,
null,,learn_phase(without_color),796677,,black_plus_sign,,,,null,GW/hanover.png,GW/boulder.png,,,,,,,,,,,,,,,,,,,,,,,,,
null,,black_cross(without_color),797224,,yellow,,,,null,GW/hanover.png,GW/boulder.png,,,,,,,,,,,,,,,,,,,,,,,,,
null,,rt_plussign_withcolor,797726,,yellow,,,,null,GW/hanover.png,GW/boulder.png,,,,,,,,,,,,,,,,,,,,,,,,,
623.5,,rt_thecrossant_black,799186,,black_plus_sign,,,,50,,,1,1,,,,,,,,,,,,,,,,,,,,,,,
null,,color_black,799295,,black_plus_sign,,,,null,,,,,,,,,,,,,,,,,,,,,,,,,,,
null,,learn_phase(without_color),802300,,black_plus_sign,,,,null,GW/cornwall.png,GW/gatlinburg.png,,,,,,,,,,,,,,,,,,,,,,,,,
null,,black_cross(without_color),803195,,blue,,,,null,GW/cornwall.png,GW/gatlinburg.png,,,,,,,,,,,,,,,,,,,,,,,,,
null,,rt_plussign_withcolor,803699,,blue,,,,null,GW/cornwall.png,GW/gatlinburg.png,,,,,,,,,,,,,,,,,,,,,,,,,
1030.6000000005588,,rt_thecrossant_black,804811,,black_plus_sign,,,,49,,,1,1,,,,,,,,,,,,,,,,,,,,,,,
null,,color_black,804914,,black_plus_sign,,,,null,,,,,,,,,,,,,,,,,,,,,,,,,,,
null,,learn_phase(without_color),807919,,black_plus_sign,,,,null,GW/carmel.png,GW/racine.png,,,,,,,,,,,,,,,,,,,,,,,,,
null,,black_cross(without_color),808726,,blue,,,,null,GW/carmel.png,GW/racine.png,,,,,,,,,,,,,,,,,,,,,,,,,
null,,rt_plussign_withcolor,809229,,blue,,,,null,GW/carmel.png,GW/racine.png,,,,,,,,,,,,,,,,,,,,,,,,,
1177,,rt_thecrossant_black,810430,,black_plus_sign,,,,49,,,1,1,,,,,,,,,,,,,,,,,,,,,,,
null,,color_black,810533,,black_plus_sign,,,,null,,,,,,,,,,,,,,,,,,,,,,,,,,,
null,,learn_phase(without_color),813539,,black_plus_sign,,,,null,GW/hanover.png,GW/boulder.png,,,,,,,,,,,,,,,,,,,,,,,,,
null,,black_cross(without_color),814391,,blue,,,,null,GW/hanover.png,GW/boulder.png,,,,,,,,,,,,,,,,,,,,,,,,,
null,,rt_plussign_withcolor,814893,,blue,,,,null,GW/hanover.png,GW/boulder.png,,,,,,,,,,,,,,,,,,,,,,,,,
1268.5,,rt_thecrossant_black,816048,,black_plus_sign,,,,49,,,1,1,,,,,,,,,,,,,,,,,,,,,,,
null,,color_black,816153,,black_plus_sign,,,,null,,,,,,,,,,,,,,,,,,,,,,,,,,,
null,,learn_phase(without_color),819158,,black_plus_sign,,,,null,GW/shreveport.png,GW/westpalmbeach.png,,,,,,,,,,,,,,,,,,,,,,,,,
null,,black_cross(without_color),819569,,blue,,,,null,GW/shreveport.png,GW/westpalmbeach.png,,,,,,,,,,,,,,,,,,,,,,,,,
null,,rt_plussign_withcolor,820072,,blue,,,,null,GW/shreveport.png,GW/westpalmbeach.png,,,,,,,,,,,,,,,,,,,,,,,,,
1121.8999999994412,,rt_thecrossant_black,821667,,black_plus_sign,,,,49,,,1,1,,,,,,,,,,,,,,,,,,,,,,,
null,,color_black,821771,,black_plus_sign,,,,null,,,,,,,,,,,,,,,,,,,,,,,,,,,
null,,learn_phase(without_color),824776,,black_plus_sign,,,,null,GW/gatlinburg.png,GW/cornwall.png,,,,,,,,,,,,,,,,,,,,,,,,,
null,,black_cross(without_color),825873,,yellow,,,,null,GW/gatlinburg.png,GW/cornwall.png,,,,,,,,,,,,,,,,,,,,,,,,,
null,,rt_plussign_withcolor,826376,,yellow,,,,null,GW/gatlinburg.png,GW/cornwall.png,,,,,,,,,,,,,,,,,,,,,,,,,
904.4000000003725,,rt_thecrossant_black,827285,,black_plus_sign,,,,50,,,1,1,,,,,,,,,,,,,,,,,,,,,,,
null,,color_black,827389,,black_plus_sign,,,,null,,,,,,,,,,,,,,,,,,,,,,,,,,,
null,,learn_phase(without_color),830393,,black_plus_sign,,,,null,GW/peoria.png,GW/huntsville.png,,,,,,,,,,,,,,,,,,,,,,,,,
null,,black_cross(without_color),831117,,blue,,,,null,GW/peoria.png,GW/huntsville.png,,,,,,,,,,,,,,,,,,,,,,,,,
null,,rt_plussign_withcolor,831620,,blue,,,,null,GW/peoria.png,GW/huntsville.png,,,,,,,,,,,,,,,,,,,,,,,,,
1465.2000000001863,,rt_thecrossant_black,832904,,black_plus_sign,,,,49,,,1,1,,,,,,,,,,,,,,,,,,,,,,,
null,,color_black,833007,,black_plus_sign,,,,null,,,,,,,,,,,,,,,,,,,,,,,,,,,
null,,learn_phase(without_color),836013,,black_plus_sign,,,,null,GW/hanover.png,GW/carmel.png,,,,,,,,,,,,,,,,,,,,,,,,,
null,,black_cross(without_color),836561,,yellow,,,,null,GW/hanover.png,GW/carmel.png,,,,,,,,,,,,,,,,,,,,,,,,,
null,,rt_plussign_withcolor,837064,,yellow,,,,null,GW/hanover.png,GW/carmel.png,,,,,,,,,,,,,,,,,,,,,,,,,
1308.2000000001863,,rt_thecrossant_black,838523,,black_plus_sign,,,,50,,,1,1,,,,,,,,,,,,,,,,,,,,,,,
null,,color_black,838626,,black_plus_sign,,,,null,,,,,,,,,,,,,,,,,,,,,,,,,,,
null,,learn_phase(without_color),841631,,black_plus_sign,,,,null,GW/shreveport.png,GW/leesburg.png,,,,,,,,,,,,,,,,,,,,,,,,,
null,,black_cross(without_color),842041,,blue,,,,null,GW/shreveport.png,GW/leesburg.png,,,,,,,,,,,,,,,,,,,,,,,,,
null,,rt_plussign_withcolor,842543,,blue,,,,null,GW/shreveport.png,GW/leesburg.png,,,,,,,,,,,,,,,,,,,,,,,,,
862.2999999998137,,rt_thecrossant_black,844140,,black_plus_sign,,,,49,,,1,1,,,,,,,,,,,,,,,,,,,,,,,
null,,color_black,844243,,black_plus_sign,,,,null,,,,,,,,,,,,,,,,,,,,,,,,,,,
null,,learn_phase(without_color),847248,,black_plus_sign,,,,null,GW/westpalmbeach.png,GW/gatlinburg.png,,,,,,,,,,,,,,,,,,,,,,,,,
null,,black_cross(without_color),848343,,blue,,,,null,GW/westpalmbeach.png,GW/gatlinburg.png,,,,,,,,,,,,,,,,,,,,,,,,,
null,,rt_plussign_withcolor,848847,,blue,,,,null,GW/westpalmbeach.png,GW/gatlinburg.png,,,,,,,,,,,,,,,,,,,,,,,,,
686.1000000005588,,rt_thecrossant_black,849759,,black_plus_sign,,,,49,,,1,1,,,,,,,,,,,,,,,,,,,,,,,
null,,color_black,849863,,black_plus_sign,,,,null,,,,,,,,,,,,,,,,,,,,,,,,,,,
null,,learn_phase(without_color),852868,,black_plus_sign,,,,null,GW/leesburg.png,GW/shreveport.png,,,,,,,,,,,,,,,,,,,,,,,,,
null,,black_cross(without_color),853791,,blue,,,,null,GW/leesburg.png,GW/shreveport.png,,,,,,,,,,,,,,,,,,,,,,,,,
null,,rt_plussign_withcolor,854293,,blue,,,,null,GW/leesburg.png,GW/shreveport.png,,,,,,,,,,,,,,,,,,,,,,,,,
1365,,rt_thecrossant_black,855377,,black_plus_sign,,,,49,,,1,1,,,,,,,,,,,,,,,,,,,,,,,
null,,color_black,855481,,black_plus_sign,,,,null,,,,,,,,,,,,,,,,,,,,,,,,,,,
null,,learn_phase(without_color),858487,,black_plus_sign,,,,null,GW/gatlinburg.png,GW/westpalmbeach.png,,,,,,,,,,,,,,,,,,,,,,,,,
null,,black_cross(without_color),859038,,yellow,,,,null,GW/gatlinburg.png,GW/westpalmbeach.png,,,,,,,,,,,,,,,,,,,,,,,,,
null,,rt_plussign_withcolor,859541,,yellow,,,,null,GW/gatlinburg.png,GW/westpalmbeach.png,,,,,,,,,,,,,,,,,,,,,,,,,
1253.300000000745,,rt_thecrossant_black,860997,,black_plus_sign,,,,50,,,1,1,,,,,,,,,,,,,,,,,,,,,,,
null,,color_black,861101,,black_plus_sign,,,,null,,,,,,,,,,,,,,,,,,,,,,,,,,,
null,,learn_phase(without_color),864106,,black_plus_sign,,,,null,GW/hanover.png,GW/carmel.png,,,,,,,,,,,,,,,,,,,,,,,,,
null,,black_cross(without_color),865034,,yellow,,,,null,GW/hanover.png,GW/carmel.png,,,,,,,,,,,,,,,,,,,,,,,,,
null,,rt_plussign_withcolor,865536,,yellow,,,,null,GW/hanover.png,GW/carmel.png,,,,,,,,,,,,,,,,,,,,,,,,,
820.5,,rt_thecrossant_black,866615,,black_plus_sign,,,,50,,,1,1,,,,,,,,,,,,,,,,,,,,,,,
null,,color_black,866719,,black_plus_sign,,,,null,,,,,,,,,,,,,,,,,,,,,,,,,,,
null,,learn_phase(without_color),869723,,black_plus_sign,,,,null,GW/gatlinburg.png,GW/westpalmbeach.png,,,,,,,,,,,,,,,,,,,,,,,,,
null,,black_cross(without_color),870608,,yellow,,,,null,GW/gatlinburg.png,GW/westpalmbeach.png,,,,,,,,,,,,,,,,,,,,,,,,,
null,,rt_plussign_withcolor,871111,,yellow,,,,null,GW/gatlinburg.png,GW/westpalmbeach.png,,,,,,,,,,,,,,,,,,,,,,,,,
1153.9000000003725,,rt_thecrossant_black,872233,,black_plus_sign,,,,50,,,1,1,,,,,,,,,,,,,,,,,,,,,,,
null,,color_black,872336,,black_plus_sign,,,,null,,,,,,,,,,,,,,,,,,,,,,,,,,,
null,,learn_phase(without_color),875342,,black_plus_sign,,,,null,GW/carmel.png,GW/hanover.png,,,,,,,,,,,,,,,,,,,,,,,,,
null,,black_cross(without_color),875961,,yellow,,,,null,GW/carmel.png,GW/hanover.png,,,,,,,,,,,,,,,,,,,,,,,,,
null,,rt_plussign_withcolor,876464,,yellow,,,,null,GW/carmel.png,GW/hanover.png,,,,,,,,,,,,,,,,,,,,,,,,,
1048.9000000003725,,rt_thecrossant_black,877853,,black_plus_sign,,,,50,,,1,1,,,,,,,,,,,,,,,,,,,,,,,
null,,color_black,877956,,black_plus_sign,,,,null,,,,,,,,,,,,,,,,,,,,,,,,,,,
null,,learn_phase(without_color),880963,,black_plus_sign,,,,null,GW/gatlinburg.png,GW/westpalmbeach.png,,,,,,,,,,,,,,,,,,,,,,,,,
null,,black_cross(without_color),881684,,blue,,,,null,GW/gatlinburg.png,GW/westpalmbeach.png,,,,,,,,,,,,,,,,,,,,,,,,,
null,,rt_plussign_withcolor,882186,,blue,,,,null,GW/gatlinburg.png,GW/westpalmbeach.png,,,,,,,,,,,,,,,,,,,,,,,,,
944.2000000001863,,rt_thecrossant_black,883474,,black_plus_sign,,,,49,,,1,1,,,,,,,,,,,,,,,,,,,,,,,
null,,color_black,883577,,black_plus_sign,,,,null,,,,,,,,,,,,,,,,,,,,,,,,,,,
null,,learn_phase(without_color),886581,,black_plus_sign,,,,null,GW/peoria.png,GW/huntsville.png,,,,,,,,,,,,,,,,,,,,,,,,,
null,,black_cross(without_color),887149,,yellow,,,,null,GW/peoria.png,GW/huntsville.png,,,,,,,,,,,,,,,,,,,,,,,,,
null,,rt_plussign_withcolor,887653,,yellow,,,,null,GW/peoria.png,GW/huntsville.png,,,,,,,,,,,,,,,,,,,,,,,,,
1101.0999999996275,,rt_thecrossant_black,889093,,black_plus_sign,,,,50,,,1,1,,,,,,,,,,,,,,,,,,,,,,,
null,,color_black,889197,,black_plus_sign,,,,null,,,,,,,,,,,,,,,,,,,,,,,,,,,
null,,learn_phase(without_color),892202,,black_plus_sign,,,,null,GW/leesburg.png,GW/shreveport.png,,,,,,,,,,,,,,,,,,,,,,,,,
null,,black_cross(without_color),892674,,yellow,,,,null,GW/leesburg.png,GW/shreveport.png,,,,,,,,,,,,,,,,,,,,,,,,,
null,,rt_plussign_withcolor,893177,,yellow,,,,null,GW/leesburg.png,GW/shreveport.png,,,,,,,,,,,,,,,,,,,,,,,,,
864.7000000001863,,rt_thecrossant_black,894711,,black_plus_sign,,,,50,,,1,1,,,,,,,,,,,,,,,,,,,,,,,
null,,color_black,894814,,black_plus_sign,,,,null,,,,,,,,,,,,,,,,,,,,,,,,,,,
null,,learn_phase(without_color),897819,,black_plus_sign,,,,null,GW/gatlinburg.png,GW/westpalmbeach.png,,,,,,,,,,,,,,,,,,,,,,,,,
null,,black_cross(without_color),898430,,yellow,,,,null,GW/gatlinburg.png,GW/westpalmbeach.png,,,,,,,,,,,,,,,,,,,,,,,,,
null,,rt_plussign_withcolor,898933,,yellow,,,,null,GW/gatlinburg.png,GW/westpalmbeach.png,,,,,,,,,,,,,,,,,,,,,,,,,
777.4000000003725,,rt_thecrossant_black,900330,,black_plus_sign,,,,50,,,1,1,,,,,,,,,,,,,,,,,,,,,,,
null,,color_black,900433,,black_plus_sign,,,,null,,,,,,,,,,,,,,,,,,,,,,,,,,,
null,,learn_phase(without_color),903439,,black_plus_sign,,,,null,GW/leesburg.png,GW/shreveport.png,,,,,,,,,,,,,,,,,,,,,,,,,
null,,black_cross(without_color),904513,,yellow,,,,null,GW/leesburg.png,GW/shreveport.png,,,,,,,,,,,,,,,,,,,,,,,,,
null,,rt_plussign_withcolor,905015,,yellow,,,,null,GW/leesburg.png,GW/shreveport.png,,,,,,,,,,,,,,,,,,,,,,,,,
990.4000000003725,,rt_thecrossant_black,905963,,black_plus_sign,,,,50,,,1,1,,,,,,,,,,,,,,,,,,,,,,,
null,,color_black,906066,,black_plus_sign,,,,null,,,,,,,,,,,,,,,,,,,,,,,,,,,
null,,learn_phase(without_color),909073,,black_plus_sign,,,,null,GW/westpalmbeach.png,GW/gatlinburg.png,,,,,,,,,,,,,,,,,,,,,,,,,
null,,black_cross(without_color),910005,,yellow,,,,null,GW/westpalmbeach.png,GW/gatlinburg.png,,,,,,,,,,,,,,,,,,,,,,,,,
null,,rt_plussign_withcolor,910523,,yellow,,,,null,GW/westpalmbeach.png,GW/gatlinburg.png,,,,,,,,,,,,,,,,,,,,,,,,,
1196.2999999998137,,rt_thecrossant_black,911598,,black_plus_sign,,,,50,,,1,1,,,,,,,,,,,,,,,,,,,,,,,
null,,color_black,911703,,black_plus_sign,,,,null,,,,,,,,,,,,,,,,,,,,,,,,,,,
null,,learn_phase(without_color),914709,,black_plus_sign,,,,null,GW/peoria.png,GW/huntsville.png,,,,,,,,,,,,,,,,,,,,,,,,,
null,,black_cross(without_color),915687,,yellow,,,,null,GW/peoria.png,GW/huntsville.png,,,,,,,,,,,,,,,,,,,,,,,,,
null,,rt_plussign_withcolor,916190,,yellow,,,,null,GW/peoria.png,GW/huntsville.png,,,,,,,,,,,,,,,,,,,,,,,,,
1060.2999999998137,,rt_thecrossant_black,917218,,black_plus_sign,,,,50,,,1,1,,,,,,,,,,,,,,,,,,,,,,,
null,,color_black,917322,,black_plus_sign,,,,null,,,,,,,,,,,,,,,,,,,,,,,,,,,
null,,learn_phase(without_color),920327,,black_plus_sign,,,,null,GW/carmel.png,GW/hanover.png,,,,,,,,,,,,,,,,,,,,,,,,,
null,,black_cross(without_color),921130,,yellow,,,,null,GW/carmel.png,GW/hanover.png,,,,,,,,,,,,,,,,,,,,,,,,,
464.3999999994412,,rt_plussign_withcolor,921633,,yellow,,,,50,GW/carmel.png,GW/hanover.png,,,,,,,,,,,,,,,,,,,,,,,,,
null,,rt_thecrossant_black,922837,,black_plus_sign,,,,null,,,1,1,,,,,,,,,,,,,,,,,,,,,,,
null,,color_black,922941,,black_plus_sign,,,,null,,,,,,,,,,,,,,,,,,,,,,,,,,,
null,,learn_phase(without_color),925946,,black_plus_sign,,,,null,GW/huntsville.png,GW/peoria.png,,,,,,,,,,,,,,,,,,,,,,,,,
null,,black_cross(without_color),926496,,blue,,,,null,GW/huntsville.png,GW/peoria.png,,,,,,,,,,,,,,,,,,,,,,,,,
null,,rt_plussign_withcolor,926998,,blue,,,,null,GW/huntsville.png,GW/peoria.png,,,,,,,,,,,,,,,,,,,,,,,,,
1269.9000000003725,,rt_thecrossant_black,928456,,black_plus_sign,,,,49,,,1,1,,,,,,,,,,,,,,,,,,,,,,,
null,,color_black,928560,,black_plus_sign,,,,null,,,,,,,,,,,,,,,,,,,,,,,,,,,
null,,learn_phase(without_color),931565,,black_plus_sign,,,,null,GW/hanover.png,GW/carmel.png,,,,,,,,,,,,,,,,,,,,,,,,,
null,,black_cross(without_color),932328,,blue,,,,null,GW/hanover.png,GW/carmel.png,,,,,,,,,,,,,,,,,,,,,,,,,
null,,rt_plussign_withcolor,932831,,blue,,,,null,GW/hanover.png,GW/carmel.png,,,,,,,,,,,,,,,,,,,,,,,,,
845.5999999996275,,rt_thecrossant_black,934075,,black_plus_sign,,,,49,,,1,1,,,,,,,,,,,,,,,,,,,,,,,
null,,color_black,934179,,black_plus_sign,,,,null,,,,,,,,,,,,,,,,,,,,,,,,,,,
null,,learn_phase(without_color),937184,,black_plus_sign,,,,null,GW/huntsville.png,GW/peoria.png,,,,,,,,,,,,,,,,,,,,,,,,,
null,,black_cross(without_color),937839,,yellow,,,,null,GW/huntsville.png,GW/peoria.png,,,,,,,,,,,,,,,,,,,,,,,,,
null,,rt_plussign_withcolor,938343,,yellow,,,,null,GW/huntsville.png,GW/peoria.png,,,,,,,,,,,,,,,,,,,,,,,,,
1029.7000000001863,,rt_thecrossant_black,939694,,black_plus_sign,,,,50,,,1,1,,,,,,,,,,,,,,,,,,,,,,,
null,,color_black,939798,,black_plus_sign,,,,null,,,,,,,,,,,,,,,,,,,,,,,,,,,
null,,learn_phase(without_color),942803,,black_plus_sign,,,,null,GW/hanover.png,GW/carmel.png,,,,,,,,,,,,,,,,,,,,,,,,,
null,,black_cross(without_color),943674,,yellow,,,,null,GW/hanover.png,GW/carmel.png,,,,,,,,,,,,,,,,,,,,,,,,,
null,,rt_plussign_withcolor,944177,,yellow,,,,null,GW/hanover.png,GW/carmel.png,,,,,,,,,,,,,,,,,,,,,,,,,
882.2999999998137,,rt_thecrossant_black,945313,,black_plus_sign,,,,50,,,1,1,,,,,,,,,,,,,,,,,,,,,,,
null,,color_black,945417,,black_plus_sign,,,,null,,,,,,,,,,,,,,,,,,,,,,,,,,,
null,,learn_phase(without_color),948423,,black_plus_sign,,,,null,GW/gatlinburg.png,GW/westpalmbeach.png,,,,,,,,,,,,,,,,,,,,,,,,,
null,,black_cross(without_color),949078,,blue,,,,null,GW/gatlinburg.png,GW/westpalmbeach.png,,,,,,,,,,,,,,,,,,,,,,,,,
null,,rt_plussign_withcolor,949580,,blue,,,,null,GW/gatlinburg.png,GW/westpalmbeach.png,,,,,,,,,,,,,,,,,,,,,,,,,
1328.5,,rt_thecrossant_black,950933,,black_plus_sign,,,,49,,,1,1,,,,,,,,,,,,,,,,,,,,,,,
null,,color_black,951037,,black_plus_sign,,,,null,,,,,,,,,,,,,,,,,,,,,,,,,,,
null,,learn_phase(without_color),954042,,black_plus_sign,,,,null,GW/peoria.png,GW/huntsville.png,,,,,,,,,,,,,,,,,,,,,,,,,
null,,black_cross(without_color),954504,,blue,,,,null,GW/peoria.png,GW/huntsville.png,,,,,,,,,,,,,,,,,,,,,,,,,
null,,rt_plussign_withcolor,955007,,blue,,,,null,GW/peoria.png,GW/huntsville.png,,,,,,,,,,,,,,,,,,,,,,,,,
834.4000000003725,,rt_thecrossant_black,956553,,black_plus_sign,,,,49,,,1,1,,,,,,,,,,,,,,,,,,,,,,,
null,,color_black,956657,,black_plus_sign,,,,null,,,,,,,,,,,,,,,,,,,,,,,,,,,
null,,learn_phase(without_color),959662,,black_plus_sign,,,,null,GW/carmel.png,GW/hanover.png,,,,,,,,,,,,,,,,,,,,,,,,,
null,,black_cross(without_color),960531,,blue,,,,null,GW/carmel.png,GW/hanover.png,,,,,,,,,,,,,,,,,,,,,,,,,
null,,rt_plussign_withcolor,961034,,blue,,,,null,GW/carmel.png,GW/hanover.png,,,,,,,,,,,,,,,,,,,,,,,,,
1317.2000000001863,,rt_thecrossant_black,962174,,black_plus_sign,,,,49,,,1,1,,,,,,,,,,,,,,,,,,,,,,,
null,,color_black,962277,,black_plus_sign,,,,null,,,,,,,,,,,,,,,,,,,,,,,,,,,
null,,learn_phase(without_color),965282,,black_plus_sign,,,,null,GW/peoria.png,GW/huntsville.png,,,,,,,,,,,,,,,,,,,,,,,,,
null,,black_cross(without_color),966320,,yellow,,,,null,GW/peoria.png,GW/huntsville.png,,,,,,,,,,,,,,,,,,,,,,,,,
null,,rt_plussign_withcolor,966824,,yellow,,,,null,GW/peoria.png,GW/huntsville.png,,,,,,,,,,,,,,,,,,,,,,,,,
965.5,,rt_thecrossant_black,967793,,black_plus_sign,,,,50,,,1,1,,,,,,,,,,,,,,,,,,,,,,,
null,,color_black,967896,,black_plus_sign,,,,null,,,,,,,,,,,,,,,,,,,,,,,,,,,
null,,learn_phase(without_color),970901,,black_plus_sign,,,,null,GW/hanover.png,GW/carmel.png,,,,,,,,,,,,,,,,,,,,,,,,,
null,,black_cross(without_color),971391,,blue,,,,null,GW/hanover.png,GW/carmel.png,,,,,,,,,,,,,,,,,,,,,,,,,
null,,rt_plussign_withcolor,971894,,blue,,,,null,GW/hanover.png,GW/carmel.png,,,,,,,,,,,,,,,,,,,,,,,,,
1354.0999999996275,,rt_thecrossant_black,973411,,black_plus_sign,,,,49,,,1,1,,,,,,,,,,,,,,,,,,,,,,,
null,,color_black,973516,,black_plus_sign,,,,null,,,,,,,,,,,,,,,,,,,,,,,,,,,
null,,learn_phase(without_color),976520,,black_plus_sign,,,,null,GW/huntsville.png,GW/peoria.png,,,,,,,,,,,,,,,,,,,,,,,,,
null,,black_cross(without_color),977601,,blue,,,,null,GW/huntsville.png,GW/peoria.png,,,,,,,,,,,,,,,,,,,,,,,,,
null,,rt_plussign_withcolor,978105,,blue,,,,null,GW/huntsville.png,GW/peoria.png,,,,,,,,,,,,,,,,,,,,,,,,,
751.7000000001863,,rt_thecrossant_black,979033,,black_plus_sign,,,,49,,,1,1,,,,,,,,,,,,,,,,,,,,,,,
null,,color_black,979137,,black_plus_sign,,,,null,,,,,,,,,,,,,,,,,,,,,,,,,,,
null,,learn_phase(without_color),982143,,black_plus_sign,,,,null,GW/leesburg.png,GW/shreveport.png,,,,,,,,,,,,,,,,,,,,,,,,,
null,,black_cross(without_color),983245,,yellow,,,,null,GW/leesburg.png,GW/shreveport.png,,,,,,,,,,,,,,,,,,,,,,,,,
null,,rt_plussign_withcolor,983746,,yellow,,,,null,GW/leesburg.png,GW/shreveport.png,,,,,,,,,,,,,,,,,,,,,,,,,
1364.7000000001863,,rt_thecrossant_black,984651,,black_plus_sign,,,,50,,,1,1,,,,,,,,,,,,,,,,,,,,,,,
null,,color_black,984755,,black_plus_sign,,,,null,,,,,,,,,,,,,,,,,,,,,,,,,,,
null,,learn_phase(without_color),987761,,black_plus_sign,,,,null,GW/leesburg.png,GW/shreveport.png,,,,,,,,,,,,,,,,,,,,,,,,,
null,,black_cross(without_color),988298,,yellow,,,,null,GW/leesburg.png,GW/shreveport.png,,,,,,,,,,,,,,,,,,,,,,,,,
null,,rt_plussign_withcolor,988801,,yellow,,,,null,GW/leesburg.png,GW/shreveport.png,,,,,,,,,,,,,,,,,,,,,,,,,
1439.1000000005588,,rt_thecrossant_black,990271,,black_plus_sign,,,,50,,,1,1,,,,,,,,,,,,,,,,,,,,,,,
null,,color_black,990374,,black_plus_sign,,,,null,,,,,,,,,,,,,,,,,,,,,,,,,,,
null,,learn_phase(without_color),993379,,black_plus_sign,,,,null,GW/shreveport.png,GW/leesburg.png,,,,,,,,,,,,,,,,,,,,,,,,,
null,,black_cross(without_color),994152,,blue,,,,null,GW/shreveport.png,GW/leesburg.png,,,,,,,,,,,,,,,,,,,,,,,,,
null,,rt_plussign_withcolor,994655,,blue,,,,null,GW/shreveport.png,GW/leesburg.png,,,,,,,,,,,,,,,,,,,,,,,,,
816.7000000001863,,rt_thecrossant_black,995888,,black_plus_sign,,,,49,,,1,1,,,,,,,,,,,,,,,,,,,,,,,
null,,color_black,995993,,black_plus_sign,,,,null,,,,,,,,,,,,,,,,,,,,,,,,,,,
null,,learn_phase(without_color),998998,,black_plus_sign,,,,null,GW/gatlinburg.png,GW/westpalmbeach.png,,,,,,,,,,,,,,,,,,,,,,,,,
null,,black_cross(without_color),999963,,yellow,,,,null,GW/gatlinburg.png,GW/westpalmbeach.png,,,,,,,,,,,,,,,,,,,,,,,,,
null,,rt_plussign_withcolor,1000466,,yellow,,,,null,GW/gatlinburg.png,GW/westpalmbeach.png,,,,,,,,,,,,,,,,,,,,,,,,,
1097.2000000001863,,rt_thecrossant_black,1001507,,black_plus_sign,,,,50,,,1,1,,,,,,,,,,,,,,,,,,,,,,,
null,,color_black,1001611,,black_plus_sign,,,,null,,,,,,,,,,,,,,,,,,,,,,,,,,,
null,,learn_phase(without_color),1004615,,black_plus_sign,,,,null,GW/leesburg.png,GW/shreveport.png,,,,,,,,,,,,,,,,,,,,,,,,,
null,,black_cross(without_color),1005331,,yellow,,,,null,GW/leesburg.png,GW/shreveport.png,,,,,,,,,,,,,,,,,,,,,,,,,
494.79999999981374,,rt_plussign_withcolor,1005833,,yellow,,,,50,GW/leesburg.png,GW/shreveport.png,,,,,,,,,,,,,,,,,,,,,,,,,
null,,rt_thecrossant_black,1007124,,black_plus_sign,,,,null,,,1,1,,,,,,,,,,,,,,,,,,,,,,,
null,,color_black,1007227,,black_plus_sign,,,,null,,,,,,,,,,,,,,,,,,,,,,,,,,,
56860.5,,learn_break,1064092,,learn_break,,,,32,,,,,,,,,,,,,,,,,,,,,,,,,,,
12416.299999999814,,intro_1,1076511,,instruct,,0,Start,,,,,,,,,,,,,,,,,,,,,,,,,,,,
3145.2000000001863,,directmemory_phase,1079661,,GW/leesburg.png,,,,51,,,1,1,GW/hanover.png,GW/westpalmbeach.png,GW/hotsprings.png,GW/hotsprings.png,GW/westpalmbeach.png,GW/hanover.png,1,,,,,,,,,,,,,,,,
null,,html-keyboard-response,1080668,,<p></p>,,,,null,,,,,,,,,,,,,,,,,,,,,,,,,,,
3373,,directmemory_phase,1084044,,GW/westpalmbeach.png,,,,49,,,0,0.5,GW/cornwall.png,GW/shreveport.png,GW/newhope.png,GW/shreveport.png,GW/cornwall.png,GW/newhope.png,0.5,closer,,,,,,,,,,,,,,,
null,,html-keyboard-response,1085048,,<p></p>,,,,null,,,,,,,,,,,,,,,,,,,,,,,,,,,
4092.2999999998137,,directmemory_phase,1089143,,GW/boulder.png,,,,49,,,1,0.6666666666666666,GW/hanover.png,GW/huntsville.png,GW/westpalmbeach.png,GW/hanover.png,GW/westpalmbeach.png,GW/huntsville.png,1,,,,,,,,,,,,,,,,
null,,html-keyboard-response,1090148,,<p></p>,,,,null,,,,,,,,,,,,,,,,,,,,,,,,,,,
3114,,directmemory_phase,1093265,,GW/shreveport.png,,,,50,,,0,0.5,GW/racine.png,GW/cornwall.png,GW/westpalmbeach.png,GW/westpalmbeach.png,GW/cornwall.png,GW/racine.png,0.5,closer,,,,,,,,,,,,,,,
null,,html-keyboard-response,1094270,,<p></p>,,,,null,,,,,,,,,,,,,,,,,,,,,,,,,,,
2769.7000000001863,,directmemory_phase,1097044,,GW/huntsville.png,,,,51,,,1,0.6,GW/westpalmbeach.png,GW/carmel.png,GW/peoria.png,GW/peoria.png,GW/carmel.png,GW/westpalmbeach.png,1,,,,,,,,,,,,,,,,
null,,html-keyboard-response,1098048,,<p></p>,,,,null,,,,,,,,,,,,,,,,,,,,,,,,,,,
3134.0999999996275,,directmemory_phase,1101185,,GW/westpalmbeach.png,,,,51,,,1,0.6666666666666666,GW/huntsville.png,GW/peoria.png,GW/hanover.png,GW/hanover.png,GW/peoria.png,GW/huntsville.png,1,,,,,,,,,,,,,,,,
null,,html-keyboard-response,1102189,,<p></p>,,,,null,,,,,,,,,,,,,,,,,,,,,,,,,,,
3053.7000000001863,,directmemory_phase,1105246,,GW/leesburg.png,,,,50,,,0,0.5714285714285714,GW/peoria.png,GW/gatlinburg.png,GW/cornwall.png,GW/cornwall.png,GW/gatlinburg.png,GW/peoria.png,0.5,closer,,,,,,,,,,,,,,,
null,,html-keyboard-response,1106259,,<p></p>,,,,null,,,,,,,,,,,,,,,,,,,,,,,,,,,
1956.9000000003725,,directmemory_phase,1108220,,GW/hanover.png,,,,51,,,1,0.625,GW/leesburg.png,GW/gatlinburg.png,GW/westpalmbeach.png,GW/westpalmbeach.png,GW/gatlinburg.png,GW/leesburg.png,1,,,,,,,,,,,,,,,,
null,,html-keyboard-response,1109224,,<p></p>,,,,null,,,,,,,,,,,,,,,,,,,,,,,,,,,
2065.7000000001863,,directmemory_phase,1111293,,GW/shreveport.png,,,,51,,,0,0.5555555555555556,GW/leesburg.png,GW/peoria.png,GW/cornwall.png,GW/leesburg.png,GW/cornwall.png,GW/peoria.png,0.5,closer,,,,,,,,,,,,,,,
null,,html-keyboard-response,1112298,,<p></p>,,,,null,,,,,,,,,,,,,,,,,,,,,,,,,,,
1610.300000000745,,directmemory_phase,1113912,,GW/peoria.png,,,,49,,,1,0.6,GW/hanover.png,GW/cornwall.png,GW/racine.png,GW/hanover.png,GW/racine.png,GW/cornwall.png,1,,,,,,,,,,,,,,,,
null,,html-keyboard-response,1114916,,<p></p>,,,,null,,,,,,,,,,,,,,,,,,,,,,,,,,,
3114.5,,directmemory_phase,1118034,,GW/westpalmbeach.png,,,,51,,,1,0.6363636363636364,GW/racine.png,GW/cornwall.png,GW/gatlinburg.png,GW/gatlinburg.png,GW/cornwall.png,GW/racine.png,1,,,,,,,,,,,,,,,,
null,,html-keyboard-response,1119038,,<p></p>,,,,null,,,,,,,,,,,,,,,,,,,,,,,,,,,
2308.5,,directmemory_phase,1121350,,GW/hanover.png,,,,49,,,0,0.5833333333333334,GW/hotsprings.png,GW/huntsville.png,GW/peoria.png,GW/peoria.png,GW/huntsville.png,GW/hotsprings.png,0.5,closer,,,,,,,,,,,,,,,
null,,html-keyboard-response,1122356,,<p></p>,,,,null,,,,,,,,,,,,,,,,,,,,,,,,,,,
4452.200000000186,,directmemory_phase,1126812,,GW/gatlinburg.png,,,,50,,,1,0.6153846153846154,GW/newhope.png,GW/westpalmbeach.png,GW/peoria.png,GW/westpalmbeach.png,GW/newhope.png,GW/peoria.png,1,,,,,,,,,,,,,,,,
null,,html-keyboard-response,1127816,,<p></p>,,,,null,,,,,,,,,,,,,,,,,,,,,,,,,,,
1702.8999999994412,,directmemory_phase,1129522,,GW/peoria.png,,,,50,,,1,0.6428571428571429,GW/racine.png,GW/huntsville.png,GW/leesburg.png,GW/huntsville.png,GW/racine.png,GW/leesburg.png,1,,,,,,,,,,,,,,,,
null,,html-keyboard-response,1130529,,<p></p>,,,,null,,,,,,,,,,,,,,,,,,,,,,,,,,,
2526.2999999998137,,directmemory_phase,1133059,,GW/gatlinburg.png,,,,50,,,1,0.6666666666666666,GW/shreveport.png,GW/boulder.png,GW/hotsprings.png,GW/boulder.png,GW/shreveport.png,GW/hotsprings.png,1,,,,,,,,,,,,,,,,
null,,html-keyboard-response,1134063,,<p></p>,,,,null,,,,,,,,,,,,,,,,,,,,,,,,,,,
4785.9000000003725,,directmemory_phase,1138853,,GW/hotsprings.png,,,,51,,,0,0.625,GW/leesburg.png,GW/boulder.png,GW/shreveport.png,GW/leesburg.png,GW/shreveport.png,GW/boulder.png,0.5,closer,,,,,,,,,,,,,,,
null,,html-keyboard-response,1139856,,<p></p>,,,,null,,,,,,,,,,,,,,,,,,,,,,,,,,,
2136.5999999996275,,directmemory_phase,1141997,,GW/gatlinburg.png,,,,51,,,1,0.6470588235294118,GW/racine.png,GW/hanover.png,GW/cornwall.png,GW/cornwall.png,GW/hanover.png,GW/racine.png,1,,,,,,,,,,,,,,,,
null,,html-keyboard-response,1143001,,<p></p>,,,,null,,,,,,,,,,,,,,,,,,,,,,,,,,,
4424.600000000559,,directmemory_phase,1147429,,GW/boulder.png,,,,51,,,1,0.6666666666666666,GW/hotsprings.png,GW/westpalmbeach.png,GW/carmel.png,GW/carmel.png,GW/westpalmbeach.png,GW/hotsprings.png,1,,,,,,,,,,,,,,,,
null,,html-keyboard-response,1148433,,<p></p>,,,,null,,,,,,,,,,,,,,,,,,,,,,,,,,,
1641,,directmemory_phase,1150078,,GW/newhope.png,,,,51,,,1,0.6842105263157895,GW/westpalmbeach.png,GW/gatlinburg.png,GW/cornwall.png,GW/cornwall.png,GW/gatlinburg.png,GW/westpalmbeach.png,1,,,,,,,,,,,,,,,,
null,,html-keyboard-response,1151082,,<p></p>,,,,null,,,,,,,,,,,,,,,,,,,,,,,,,,,
4554.700000000186,,directmemory_phase,1155640,,GW/carmel.png,,,,50,,,0,0.65,GW/shreveport.png,GW/westpalmbeach.png,GW/peoria.png,GW/peoria.png,GW/westpalmbeach.png,GW/shreveport.png,0.5,closer,,,,,,,,,,,,,,,
null,,html-keyboard-response,1156644,,<p></p>,,,,null,,,,,,,,,,,,,,,,,,,,,,,,,,,
2377.899999999441,,directmemory_phase,1159025,,GW/hanover.png,,,,50,,,0,0.6190476190476191,GW/newhope.png,GW/shreveport.png,GW/boulder.png,GW/boulder.png,GW/shreveport.png,GW/newhope.png,0.5,closer,,,,,,,,,,,,,,,
null,,html-keyboard-response,1160030,,<p></p>,,,,null,,,,,,,,,,,,,,,,,,,,,,,,,,,
1742.2999999998137,,directmemory_phase,1161776,,GW/carmel.png,,,,50,,,0,0.5909090909090909,GW/newhope.png,GW/westpalmbeach.png,GW/racine.png,GW/racine.png,GW/westpalmbeach.png,GW/newhope.png,0.5,closer,,,,,,,,,,,,,,,
null,,html-keyboard-response,1162780,,<p></p>,,,,null,,,,,,,,,,,,,,,,,,,,,,,,,,,
4655.200000000186,,directmemory_phase,1167438,,GW/leesburg.png,,,,49,,,0,0.5652173913043478,GW/gatlinburg.png,GW/shreveport.png,GW/hanover.png,GW/shreveport.png,GW/gatlinburg.png,GW/hanover.png,0.5,closer,,,,,,,,,,,,,,,
null,,html-keyboard-response,1168443,,<p></p>,,,,null,,,,,,,,,,,,,,,,,,,,,,,,,,,
2105.7999999998137,,directmemory_phase,1170552,,GW/hanover.png,,,,49,,,1,0.5833333333333334,GW/carmel.png,GW/cornwall.png,GW/racine.png,GW/carmel.png,GW/racine.png,GW/cornwall.png,1,,,,,,,,,,,,,,,,
null,,html-keyboard-response,1171556,,<p></p>,,,,null,,,,,,,,,,,,,,,,,,,,,,,,,,,
1511.300000000745,,directmemory_phase,1173071,,GW/cornwall.png,,,,50,,,1,0.6,GW/shreveport.png,GW/gatlinburg.png,GW/carmel.png,GW/gatlinburg.png,GW/shreveport.png,GW/carmel.png,1,,,,,,,,,,,,,,,,
null,,html-keyboard-response,1174075,,<p></p>,,,,null,,,,,,,,,,,,,,,,,,,,,,,,,,,
1783.7000000001863,,directmemory_phase,1175862,,GW/carmel.png,,,,50,,,1,0.6153846153846154,GW/huntsville.png,GW/boulder.png,GW/cornwall.png,GW/boulder.png,GW/huntsville.png,GW/cornwall.png,1,,,,,,,,,,,,,,,,
null,,html-keyboard-response,1176866,,<p></p>,,,,null,,,,,,,,,,,,,,,,,,,,,,,,,,,
2910.9000000003725,,directmemory_phase,1179781,,GW/cornwall.png,,,,49,,,1,0.6296296296296297,GW/leesburg.png,GW/carmel.png,GW/westpalmbeach.png,GW/leesburg.png,GW/westpalmbeach.png,GW/carmel.png,1,,,,,,,,,,,,,,,,
null,,html-keyboard-response,1180785,,<p></p>,,,,null,,,,,,,,,,,,,,,,,,,,,,,,,,,
2630.5,,directmemory_phase,1183419,,GW/carmel.png,,,,49,,,1,0.6428571428571429,GW/hanover.png,GW/leesburg.png,GW/gatlinburg.png,GW/hanover.png,GW/gatlinburg.png,GW/leesburg.png,1,,,,,,,,,,,,,,,,
null,,html-keyboard-response,1184423,,<p></p>,,,,null,,,,,,,,,,,,,,,,,,,,,,,,,,,
2539.7000000001863,,directmemory_phase,1186966,,GW/cornwall.png,,,,49,,,1,0.6551724137931034,GW/newhope.png,GW/racine.png,GW/hotsprings.png,GW/newhope.png,GW/hotsprings.png,GW/racine.png,1,,,,,,,,,,,,,,,,
null,,html-keyboard-response,1187971,,<p></p>,,,,null,,,,,,,,,,,,,,,,,,,,,,,,,,,
1671.9000000003725,,directmemory_phase,1189646,,GW/racine.png,,,,49,,,1,0.6666666666666666,GW/carmel.png,GW/gatlinburg.png,GW/peoria.png,GW/carmel.png,GW/peoria.png,GW/gatlinburg.png,1,,,,,,,,,,,,,,,,
null,,html-keyboard-response,1190650,,<p></p>,,,,null,,,,,,,,,,,,,,,,,,,,,,,,,,,
1752.5,,directmemory_phase,1192406,,GW/boulder.png,,,,49,,,0,0.6451612903225806,GW/shreveport.png,GW/westpalmbeach.png,GW/gatlinburg.png,GW/gatlinburg.png,GW/westpalmbeach.png,GW/shreveport.png,0.5,closer,,,,,,,,,,,,,,,
null,,html-keyboard-response,1193411,,<p></p>,,,,null,,,,,,,,,,,,,,,,,,,,,,,,,,,
2600.5,,directmemory_phase,1196015,,GW/peoria.png,,,,50,,,0,0.625,GW/carmel.png,GW/leesburg.png,GW/racine.png,GW/carmel.png,GW/racine.png,GW/leesburg.png,0.5,closer,,,,,,,,,,,,,,,
null,,html-keyboard-response,1197020,,<p></p>,,,,null,,,,,,,,,,,,,,,,,,,,,,,,,,,
17621.799999999814,,intro_1,1214644,,instruct,,0,,,,,,,,,,,,,,,,,,,,,,,,,,,,,
11303.299999999814,,intro_2,1225950,,instruct,,1,Next,,,,,,,,,,,,,,,,,,,,,,,,,,,,
3413.5999999996275,,intro_3,1229366,,instruct,,1,Next,,,,,,,,,,,,,,,,,,,,,,,,,,,,
10436.799999999814,,intro_4,1239805,,instruct,,1,Next,,,,,,,,,,,,,,,,,,,,,,,,,,,,
9261.399999999441,,intro_5,1249068,,instruct,,1,Next,,,,,,,,,,,,,,,,,,,,,,,,,,,,
10684.799999999814,,intro_6,1259756,,instruct,,1,Next,,,,,,,,,,,,,,,,,,,,,,,,,,,,
6848.800000000745,,intro_7,1266607,,instruct,,1,Next,,,,,,,,,,,,,,,,,,,,,,,,,,,,
12311.399999999441,,intro_8,1278921,,instruct,,1,Next,,,,,,,,,,,,,,,,,,,,,,,,,,,,
2218.699999999255,,shortestpath_phase,1281143,,GW/cornwall.png,,,,49,GW/westpalmbeach.png,GW/racine.png,1,1,,,,GW/westpalmbeach.png,,,,,Two Edge Diff,Two Edge Four Edge,,,,,,,,,,,,,
null,,html-keyboard-response,1282148,,<p></p>,,,,null,,,,,,,,,,,,,,,,,,,,,,,,,,,
3295,,shortestpath_phase,1285447,,GW/hotsprings.png,,,,50,GW/peoria.png,GW/hanover.png,1,1,,,,GW/hanover.png,,,,,One Edge Diff,Four Edge Five Edge,,,,,,,,,,,,,
null,,html-keyboard-response,1286450,,<p></p>,,,,null,,,,,,,,,,,,,,,,,,,,,,,,,,,
2804.2999999998137,,shortestpath_phase,1289258,,GW/racine.png,,,,50,GW/hotsprings.png,GW/boulder.png,1,1,,,,GW/boulder.png,,,,,Four Edge Diff,Two Edge Six Edge,,,,,,,,,,,,,
null,,html-keyboard-response,1290263,,<p></p>,,,,null,,,,,,,,,,,,,,,,,,,,,,,,,,,
3337,,shortestpath_phase,1293604,,GW/gatlinburg.png,,,,49,GW/carmel.png,GW/huntsville.png,1,1,,,,GW/carmel.png,,,,,Two Edge Diff,Two Edge Four Edge,,,,,,,,,,,,,
null,,html-keyboard-response,1294609,,<p></p>,,,,null,,,,,,,,,,,,,,,,,,,,,,,,,,,
3043.600000000559,,shortestpath_phase,1297655,,GW/huntsville.png,,,,49,GW/hanover.png,GW/newhope.png,1,1,,,,GW/hanover.png,,,,,Four Edge Diff,Two Edge Six Edge,,,,,,,,,,,,,
null,,html-keyboard-response,1298660,,<p></p>,,,,null,,,,,,,,,,,,,,,,,,,,,,,,,,,
2824.4000000003725,,shortestpath_phase,1301487,,GW/cornwall.png,,,,50,GW/carmel.png,GW/hotsprings.png,1,1,,,,GW/hotsprings.png,,,,,One Edge Diff,Two Edge Three Edge,,,,,,,,,,,,,
null,,html-keyboard-response,1302493,,<p></p>,,,,null,,,,,,,,,,,,,,,,,,,,,,,,,,,
2287.199999999255,,shortestpath_phase,1304783,,GW/racine.png,,,,50,GW/westpalmbeach.png,GW/cornwall.png,0,0.8571428571428571,,,,GW/westpalmbeach.png,,,,,One Edge Diff,Three Edge Four Edge,,,,,,,,,,,,,
null,,html-keyboard-response,1305787,,<p></p>,,,,null,,,,,,,,,,,,,,,,,,,,,,,,,,,
2209.0999999996275,,shortestpath_phase,1308000,,GW/cornwall.png,,,,50,GW/racine.png,GW/shreveport.png,1,0.875,,,,GW/shreveport.png,,,,,Two Edge Diff,Two Edge Four Edge,,,,,,,,,,,,,
null,,html-keyboard-response,1309005,,<p></p>,,,,null,,,,,,,,,,,,,,,,,,,,,,,,,,,
2530.0999999996275,,shortestpath_phase,1311538,,GW/hotsprings.png,,,,49,GW/westpalmbeach.png,GW/carmel.png,1,0.8888888888888888,,,,GW/westpalmbeach.png,,,,,Two Edge Diff,Three Edge Five Edge,,,,,,,,,,,,,
null,,html-keyboard-response,1312543,,<p></p>,,,,null,,,,,,,,,,,,,,,,,,,,,,,,,,,
2327.7999999998137,,shortestpath_phase,1314874,,GW/cornwall.png,,,,50,GW/boulder.png,GW/huntsville.png,0,0.8,,,,GW/boulder.png,,,,,Three Edge Diff,Two Edge Five Edge,,,,,,,,,,,,,
null,,html-keyboard-response,1315879,,<p></p>,,,,null,,,,,,,,,,,,,,,,,,,,,,,,,,,
1582.5,,shortestpath_phase,1317465,,GW/peoria.png,,,,49,GW/hotsprings.png,GW/racine.png,0,0.7272727272727273,,,,GW/racine.png,,,,,Three Edge Diff,Two Edge Five Edge,,,,,,,,,,,,,
null,,html-keyboard-response,1318469,,<p></p>,,,,null,,,,,,,,,,,,,,,,,,,,,,,,,,,
4244.0999999996275,,shortestpath_phase,1322717,,GW/westpalmbeach.png,,,,50,GW/newhope.png,GW/cornwall.png,1,0.75,,,,GW/cornwall.png,,,,,One Edge Diff,Two Edge Three Edge,,,,,,,,,,,,,
null,,html-keyboard-response,1323721,,<p></p>,,,,null,,,,,,,,,,,,,,,,,,,,,,,,,,,
1732.7999999998137,,shortestpath_phase,1325457,,GW/hotsprings.png,,,,50,GW/newhope.png,GW/shreveport.png,1,0.7692307692307693,,,,GW/shreveport.png,,,,,One Edge Diff,Two Edge Three Edge,,,,,,,,,,,,,
null,,html-keyboard-response,1326462,,<p></p>,,,,null,,,,,,,,,,,,,,,,,,,,,,,,,,,
2369.899999999441,,shortestpath_phase,1328835,,GW/newhope.png,,,,49,GW/racine.png,GW/gatlinburg.png,0,0.7142857142857143,,,,GW/gatlinburg.png,,,,,Three Edge Diff,Three Edge Six Edge,,,,,,,,,,,,,
null,,html-keyboard-response,1329840,,<p></p>,,,,null,,,,,,,,,,,,,,,,,,,,,,,,,,,
2379.0999999996275,,shortestpath_phase,1332222,,GW/hotsprings.png,,,,50,GW/carmel.png,GW/cornwall.png,1,0.7333333333333333,,,,GW/cornwall.png,,,,,Three Edge Diff,Two Edge Five Edge,,,,,,,,,,,,,
null,,html-keyboard-response,1333227,,<p></p>,,,,null,,,,,,,,,,,,,,,,,,,,,,,,,,,
1673.8999999994412,,shortestpath_phase,1334904,,GW/carmel.png,,,,49,GW/newhope.png,GW/shreveport.png,0,0.6875,,,,GW/shreveport.png,,,,,One Edge Diff,Three Edge Four Edge,,,,,,,,,,,,,
null,,html-keyboard-response,1335908,,<p></p>,,,,null,,,,,,,,,,,,,,,,,,,,,,,,,,,
2520.399999999441,,shortestpath_phase,1338431,,GW/hotsprings.png,,,,49,GW/peoria.png,GW/racine.png,1,0.7058823529411765,,,,GW/peoria.png,,,,,One Edge Diff,Five Edge Six Edge,,,,,,,,,,,,,
null,,html-keyboard-response,1339436,,<p></p>,,,,null,,,,,,,,,,,,,,,,,,,,,,,,,,,
3255.7000000001863,,shortestpath_phase,1342695,,GW/racine.png,,,,49,GW/hanover.png,GW/hotsprings.png,1,0.7222222222222222,,,,GW/hanover.png,,,,,Four Edge Diff,Two Edge Six Edge,,,,,,,,,,,,,
null,,html-keyboard-response,1343699,,<p></p>,,,,null,,,,,,,,,,,,,,,,,,,,,,,,,,,
1261.0999999996275,,shortestpath_phase,1344963,,GW/hotsprings.png,,,,50,GW/peoria.png,GW/huntsville.png,0,0.6842105263157895,,,,GW/peoria.png,,,,,One Edge Diff,Five Edge Six Edge,,,,,,,,,,,,,
null,,html-keyboard-response,1345968,,<p></p>,,,,null,,,,,,,,,,,,,,,,,,,,,,,,,,,
1562.300000000745,,shortestpath_phase,1347533,,GW/huntsville.png,,,,49,GW/cornwall.png,GW/hanover.png,0,0.65,,,,GW/hanover.png,,,,,Three Edge Diff,Two Edge Five Edge,,,,,,,,,,,,,
null,,html-keyboard-response,1348538,,<p></p>,,,,null,,,,,,,,,,,,,,,,,,,,,,,,,,,
1168.8999999994412,,shortestpath_phase,1349710,,GW/hotsprings.png,,,,49,GW/huntsville.png,GW/carmel.png,0,0.6190476190476191,,,,GW/carmel.png,,,,,One Edge Diff,Five Edge Six Edge,,,,,,,,,,,,,
null,,html-keyboard-response,1350714,,<p></p>,,,,null,,,,,,,,,,,,,,,,,,,,,,,,,,,
1916.2999999998137,,shortestpath_phase,1352634,,GW/racine.png,,,,49,GW/peoria.png,GW/hotsprings.png,1,0.6363636363636364,,,,GW/peoria.png,,,,,Four Edge Diff,Two Edge Six Edge,,,,,,,,,,,,,
null,,html-keyboard-response,1353638,,<p></p>,,,,null,,,,,,,,,,,,,,,,,,,,,,,,,,,
1080.1000000005588,,shortestpath_phase,1354721,,GW/hotsprings.png,,,,50,GW/racine.png,GW/hanover.png,1,0.6521739130434783,,,,GW/hanover.png,,,,,Two Edge Diff,Four Edge Six Edge,,,,,,,,,,,,,
null,,html-keyboard-response,1355725,,<p></p>,,,,null,,,,,,,,,,,,,,,,,,,,,,,,,,,
1916.5,,shortestpath_phase,1357645,,GW/cornwall.png,,,,50,GW/peoria.png,GW/huntsville.png,0,0.625,,,,GW/peoria.png,,,,,One Edge Diff,Four Edge Five Edge,,,,,,,,,,,,,
null,,html-keyboard-response,1358650,,<p></p>,,,,null,,,,,,,,,,,,,,,,,,,,,,,,,,,
1290.2000000001863,,shortestpath_phase,1359943,,GW/newhope.png,,,,49,GW/peoria.png,GW/hotsprings.png,0,0.6,,,,GW/hotsprings.png,,,,,Two Edge Diff,Three Edge Five Edge,,,,,,,,,,,,,
null,,html-keyboard-response,1360949,,<p></p>,,,,null,,,,,,,,,,,,,,,,,,,,,,,,,,,
1139,,shortestpath_phase,1362091,,GW/huntsville.png,,,,50,GW/westpalmbeach.png,GW/gatlinburg.png,0,0.5769230769230769,,,,GW/westpalmbeach.png,,,,,One Edge Diff,Three Edge Four Edge,,,,,,,,,,,,,
null,,html-keyboard-response,1363095,,<p></p>,,,,null,,,,,,,,,,,,,,,,,,,,,,,,,,,
1108.2999999998137,,shortestpath_phase,1364207,,GW/shreveport.png,,,,50,GW/racine.png,GW/hotsprings.png,1,0.5925925925925926,,,,GW/hotsprings.png,,,,,Two Edge Diff,Two Edge Four Edge,,,,,,,,,,,,,
null,,html-keyboard-response,1365212,,<p></p>,,,,null,,,,,,,,,,,,,,,,,,,,,,,,,,,
2157.2000000001863,,shortestpath_phase,1367372,,GW/boulder.png,,,,50,GW/leesburg.png,GW/cornwall.png,1,0.6071428571428571,,,,GW/cornwall.png,,,,,One Edge Diff,Two Edge Three Edge,,,,,,,,,,,,,
null,,html-keyboard-response,1368377,,<p></p>,,,,null,,,,,,,,,,,,,,,,,,,,,,,,,,,
1482.7999999998137,,shortestpath_phase,1369863,,GW/hotsprings.png,,,,50,GW/shreveport.png,GW/carmel.png,0,0.5862068965517241,,,,GW/shreveport.png,,,,,Three Edge Diff,Two Edge Five Edge,,,,,,,,,,,,,
null,,html-keyboard-response,1370868,,<p></p>,,,,null,,,,,,,,,,,,,,,,,,,,,,,,,,,
1179.7999999998137,,shortestpath_phase,1372051,,GW/huntsville.png,,,,49,GW/hotsprings.png,GW/cornwall.png,0,0.5666666666666667,,,,GW/cornwall.png,,,,,One Edge Diff,Five Edge Six Edge,,,,,,,,,,,,,
null,,html-keyboard-response,1373055,,<p></p>,,,,null,,,,,,,,,,,,,,,,,,,,,,,,,,,
1553.8999999994412,,shortestpath_phase,1374612,,GW/hotsprings.png,,,,49,GW/boulder.png,GW/huntsville.png,1,0.5806451612903226,,,,GW/boulder.png,,,,,Two Edge Diff,Four Edge Six Edge,,,,,,,,,,,,,
null,,html-keyboard-response,1375617,,<p></p>,,,,null,,,,,,,,,,,,,,,,,,,,,,,,,,,
1381,,shortestpath_phase,1377002,,GW/huntsville.png,,,,49,GW/hanover.png,GW/leesburg.png,1,0.59375,,,,GW/hanover.png,,,,,Three Edge Diff,Three Edge Six Edge,,,,,,,,,,,,,
null,,html-keyboard-response,1378007,,<p></p>,,,,null,,,,,,,,,,,,,,,,,,,,,,,,,,,
1964.7000000001863,,shortestpath_phase,1379975,,GW/hotsprings.png,,,,50,GW/racine.png,GW/cornwall.png,1,0.6060606060606061,,,,GW/cornwall.png,,,,,Four Edge Diff,Two Edge Six Edge,,,,,,,,,,,,,
null,,html-keyboard-response,1380981,,<p></p>,,,,null,,,,,,,,,,,,,,,,,,,,,,,,,,,
5948.200000000186,,shortestpath_phase,1386933,,GW/huntsville.png,,,,49,GW/hanover.png,GW/hotsprings.png,1,0.6176470588235294,,,,GW/hanover.png,,,,,Four Edge Diff,Two Edge Six Edge,,,,,,,,,,,,,
null,,html-keyboard-response,1387937,,<p></p>,,,,null,,,,,,,,,,,,,,,,,,,,,,,,,,,
1078.5999999996275,,shortestpath_phase,1389019,,GW/cornwall.png,,,,49,GW/huntsville.png,GW/westpalmbeach.png,0,0.6,,,,GW/westpalmbeach.png,,,,,Three Edge Diff,Three Edge Six Edge,,,,,,,,,,,,,
null,,html-keyboard-response,1390024,,<p></p>,,,,null,,,,,,,,,,,,,,,,,,,,,,,,,,,
2602.5,,shortestpath_phase,1392629,,GW/leesburg.png,,,,49,GW/gatlinburg.png,GW/huntsville.png,1,0.6111111111111112,,,,GW/gatlinburg.png,,,,,Three Edge Diff,Two Edge Five Edge,,,,,,,,,,,,,
null,,html-keyboard-response,1393633,,<p></p>,,,,null,,,,,,,,,,,,,,,,,,,,,,,,,,,
null,,shortestpath_phase,1401138,,GW/racine.png,,,,null,GW/cornwall.png,GW/hotsprings.png,0,0.5945945945945946,,,,GW/cornwall.png,,,,,Two Edge Diff,Four Edge Six Edge,,,,,,,,,,,,,
null,,warning_page,1404144,,warning,,,,null,,,,,,,,,,,,,,,,,,,,,,,,,,,
null,,html-keyboard-response,1405146,,<p></p>,,,,null,,,,,,,,,,,,,,,,,,,,,,,,,,,
1204,,shortestpath_phase,1406353,,GW/newhope.png,,,,49,GW/huntsville.png,GW/carmel.png,0,0.5789473684210527,,,,GW/carmel.png,,,,,Two Edge Diff,Four Edge Six Edge,,,,,,,,,,,,,
null,,html-keyboard-response,1407358,,<p></p>,,,,null,,,,,,,,,,,,,,,,,,,,,,,,,,,
1501.800000000745,,shortestpath_phase,1408864,,GW/racine.png,,,,49,GW/leesburg.png,GW/peoria.png,0,0.5641025641025641,,,,GW/peoria.png,,,,,Three Edge Diff,Three Edge Six Edge,,,,,,,,,,,,,
null,,html-keyboard-response,1409868,,<p></p>,,,,null,,,,,,,,,,,,,,,,,,,,,,,,,,,
1654.300000000745,,shortestpath_phase,1411526,,GW/hotsprings.png,,,,50,GW/huntsville.png,GW/cornwall.png,1,0.575,,,,GW/cornwall.png,,,,,Four Edge Diff,Two Edge Six Edge,,,,,,,,,,,,,
null,,html-keyboard-response,1412531,,<p></p>,,,,null,,,,,,,,,,,,,,,,,,,,,,,,,,,
1008.3999999994412,,shortestpath_phase,1413543,,GW/huntsville.png,,,,49,GW/cornwall.png,GW/boulder.png,0,0.5609756097560976,,,,GW/boulder.png,,,,,Two Edge Diff,Three Edge Five Edge,,,,,,,,,,,,,
null,,html-keyboard-response,1414548,,<p></p>,,,,null,,,,,,,,,,,,,,,,,,,,,,,,,,,
1087.7000000001863,,shortestpath_phase,1415639,,GW/newhope.png,,,,50,GW/racine.png,GW/huntsville.png,0,0.5476190476190477,,,,GW/racine.png,,,,,One Edge Diff,Five Edge Six Edge,,,,,,,,,,,,,
null,,html-keyboard-response,1416644,,<p></p>,,,,null,,,,,,,,,,,,,,,,,,,,,,,,,,,
1018.5999999996275,,shortestpath_phase,1417666,,GW/hotsprings.png,,,,49,GW/boulder.png,GW/racine.png,1,0.5581395348837209,,,,GW/boulder.png,,,,,Two Edge Diff,Four Edge Six Edge,,,,,,,,,,,,,
null,,html-keyboard-response,1418670,,<p></p>,,,,null,,,,,,,,,,,,,,,,,,,,,,,,,,,
1058.9000000003725,,shortestpath_phase,1419732,,GW/peoria.png,,,,49,GW/hotsprings.png,GW/racine.png,0,0.5454545454545454,,,,GW/racine.png,,,,,Three Edge Diff,Three Edge Six Edge,,,,,,,,,,,,,
null,,html-keyboard-response,1420737,,<p></p>,,,,null,,,,,,,,,,,,,,,,,,,,,,,,,,,
1118.2999999998137,,shortestpath_phase,1421859,,GW/newhope.png,,,,50,GW/boulder.png,GW/peoria.png,0,0.5333333333333333,,,,GW/boulder.png,,,,,Two Edge Diff,Three Edge Five Edge,,,,,,,,,,,,,
null,,html-keyboard-response,1422864,,<p></p>,,,,null,,,,,,,,,,,,,,,,,,,,,,,,,,,
1079.9000000003725,,shortestpath_phase,1423947,,GW/hotsprings.png,,,,50,GW/carmel.png,GW/cornwall.png,1,0.5434782608695652,,,,GW/cornwall.png,,,,,Three Edge Diff,Three Edge Six Edge,,,,,,,,,,,,,
null,,html-keyboard-response,1424951,,<p></p>,,,,null,,,,,,,,,,,,,,,,,,,,,,,,,,,
2743.4000000003725,,shortestpath_phase,1427698,,GW/racine.png,,,,49,GW/peoria.png,GW/leesburg.png,1,0.5531914893617021,,,,GW/peoria.png,,,,,Three Edge Diff,Two Edge Five Edge,,,,,,,,,,,,,
null,,html-keyboard-response,1428703,,<p></p>,,,,null,,,,,,,,,,,,,,,,,,,,,,,,,,,
1089,,shortestpath_phase,1429796,,GW/cornwall.png,,,,49,GW/huntsville.png,GW/hotsprings.png,0,0.5416666666666666,,,,GW/hotsprings.png,,,,,Three Edge Diff,Three Edge Six Edge,,,,,,,,,,,,,
null,,html-keyboard-response,1430801,,<p></p>,,,,null,,,,,,,,,,,,,,,,,,,,,,,,,,,
1552.2999999998137,,shortestpath_phase,1432357,,GW/boulder.png,,,,49,GW/newhope.png,GW/hotsprings.png,1,0.5510204081632653,,,,GW/newhope.png,,,,,One Edge Diff,Three Edge Four Edge,,,,,,,,,,,,,
null,,html-keyboard-response,1433362,,<p></p>,,,,null,,,,,,,,,,,,,,,,,,,,,,,,,,,
1643.7000000001863,,shortestpath_phase,1435009,,GW/peoria.png,,,,49,GW/newhope.png,GW/westpalmbeach.png,0,0.54,,,,GW/westpalmbeach.png,,,,,Three Edge Diff,Two Edge Five Edge,,,,,,,,,,,,,
null,,html-keyboard-response,1436014,,<p></p>,,,,null,,,,,,,,,,,,,,,,,,,,,,,,,,,
1350.5,,shortestpath_phase,1437368,,GW/leesburg.png,,,,50,GW/carmel.png,GW/huntsville.png,0,0.5294117647058824,,,,GW/carmel.png,,,,,One Edge Diff,Four Edge Five Edge,,,,,,,,,,,,,
null,,html-keyboard-response,1438372,,<p></p>,,,,null,,,,,,,,,,,,,,,,,,,,,,,,,,,
1473.7999999998137,,shortestpath_phase,1439849,,GW/racine.png,,,,50,GW/boulder.png,GW/westpalmbeach.png,0,0.5192307692307693,,,,GW/boulder.png,,,,,One Edge Diff,Two Edge Three Edge,,,,,,,,,,,,,
null,,html-keyboard-response,1440853,,<p></p>,,,,null,,,,,,,,,,,,,,,,,,,,,,,,,,,
1724.9000000003725,,shortestpath_phase,1442582,,GW/newhope.png,,,,49,GW/carmel.png,GW/racine.png,1,0.5283018867924528,,,,GW/carmel.png,,,,,One Edge Diff,Four Edge Five Edge,,,,,,,,,,,,,
null,,html-keyboard-response,1443587,,<p></p>,,,,null,,,,,,,,,,,,,,,,,,,,,,,,,,,
1401.5999999996275,,shortestpath_phase,1444992,,GW/racine.png,,,,49,GW/leesburg.png,GW/cornwall.png,0,0.5185185185185185,,,,GW/cornwall.png,,,,,One Edge Diff,Four Edge Five Edge,,,,,,,,,,,,,
null,,html-keyboard-response,1445996,,<p></p>,,,,null,,,,,,,,,,,,,,,,,,,,,,,,,,,
979.5,,shortestpath_phase,1446979,,GW/huntsville.png,,,,49,GW/cornwall.png,GW/carmel.png,0,0.509090909090909,,,,GW/carmel.png,,,,,Three Edge Diff,Three Edge Six Edge,,,,,,,,,,,,,
null,,html-keyboard-response,1447984,,<p></p>,,,,null,,,,,,,,,,,,,,,,,,,,,,,,,,,
1209.7999999998137,,shortestpath_phase,1449198,,GW/cornwall.png,,,,50,GW/racine.png,GW/huntsville.png,0,0.5,,,,GW/racine.png,,,,,One Edge Diff,Four Edge Five Edge,,,,,,,,,,,,,
null,,html-keyboard-response,1450203,,<p></p>,,,,null,,,,,,,,,,,,,,,,,,,,,,,,,,,
1492.9000000003725,,shortestpath_phase,1451699,,GW/huntsville.png,,,,49,GW/gatlinburg.png,GW/hotsprings.png,1,0.5087719298245614,,,,GW/gatlinburg.png,,,,,Two Edge Diff,Four Edge Six Edge,,,,,,,,,,,,,
null,,html-keyboard-response,1452705,,<p></p>,,,,null,,,,,,,,,,,,,,,,,,,,,,,,,,,
1047.8999999994412,,shortestpath_phase,1453756,,GW/hotsprings.png,,,,50,GW/hanover.png,GW/huntsville.png,0,0.5,,,,GW/hanover.png,,,,,Two Edge Diff,Four Edge Six Edge,,,,,,,,,,,,,
null,,html-keyboard-response,1454762,,<p></p>,,,,null,,,,,,,,,,,,,,,,,,,,,,,,,,,
1542,,shortestpath_phase,1456308,,GW/racine.png,,,,50,GW/huntsville.png,GW/cornwall.png,0,0.4915254237288136,,,,GW/huntsville.png,,,,,One Edge Diff,Three Edge Four Edge,,,,,,,,,,,,,
null,,html-keyboard-response,1457313,,<p></p>,,,,null,,,,,,,,,,,,,,,,,,,,,,,,,,,
1239.0999999996275,,shortestpath_phase,1458556,,GW/gatlinburg.png,,,,49,GW/newhope.png,GW/huntsville.png,1,0.5,,,,GW/newhope.png,,,,,Two Edge Diff,Two Edge Four Edge,,,,,,,,,,,,,
null,,html-keyboard-response,1459560,,<p></p>,,,,null,,,,,,,,,,,,,,,,,,,,,,,,,,,
1462.2000000001863,,shortestpath_phase,1461026,,GW/racine.png,,,,50,GW/huntsville.png,GW/leesburg.png,0,0.4918032786885246,,,,GW/huntsville.png,,,,,Two Edge Diff,Three Edge Five Edge,,,,,,,,,,,,,
null,,html-keyboard-response,1462031,,<p></p>,,,,null,,,,,,,,,,,,,,,,,,,,,,,,,,,
1422.7999999998137,,shortestpath_phase,1463458,,GW/carmel.png,,,,50,GW/gatlinburg.png,GW/newhope.png,0,0.4838709677419355,,,,GW/gatlinburg.png,,,,,Two Edge Diff,Two Edge Four Edge,,,,,,,,,,,,,
null,,html-keyboard-response,1464463,,<p></p>,,,,null,,,,,,,,,,,,,,,,,,,,,,,,,,,
1472.0999999996275,,shortestpath_phase,1465938,,GW/hanover.png,,,,50,GW/shreveport.png,GW/leesburg.png,0,0.47619047619047616,,,,GW/shreveport.png,,,,,One Edge Diff,Two Edge Three Edge,,,,,,,,,,,,,
null,,html-keyboard-response,1466943,,<p></p>,,,,null,,,,,,,,,,,,,,,,,,,,,,,,,,,
1018.4000000003725,,shortestpath_phase,1467965,,GW/huntsville.png,,,,49,GW/newhope.png,GW/gatlinburg.png,0,0.46875,,,,GW/gatlinburg.png,,,,,Two Edge Diff,Four Edge Six Edge,,,,,,,,,,,,,
null,,html-keyboard-response,1468970,,<p></p>,,,,null,,,,,,,,,,,,,,,,,,,,,,,,,,,
1825,,shortestpath_phase,1470798,,GW/leesburg.png,,,,50,GW/boulder.png,GW/peoria.png,0,0.46153846153846156,,,,GW/boulder.png,,,,,One Edge Diff,Three Edge Four Edge,,,,,,,,,,,,,
null,,html-keyboard-response,1471803,,<p></p>,,,,null,,,,,,,,,,,,,,,,,,,,,,,,,,,
1522.5999999996275,,shortestpath_phase,1473329,,GW/huntsville.png,,,,50,GW/carmel.png,GW/hotsprings.png,0,0.45454545454545453,,,,GW/carmel.png,,,,,Four Edge Diff,Two Edge Six Edge,,,,,,,,,,,,,
null,,html-keyboard-response,1474334,,<p></p>,,,,null,,,,,,,,,,,,,,,,,,,,,,,,,,,
1140.7000000001863,,shortestpath_phase,1475478,,GW/peoria.png,,,,50,GW/westpalmbeach.png,GW/leesburg.png,0,0.44776119402985076,,,,GW/westpalmbeach.png,,,,,Two Edge Diff,Two Edge Four Edge,,,,,,,,,,,,,
null,,html-keyboard-response,1476483,,<p></p>,,,,null,,,,,,,,,,,,,,,,,,,,,,,,,,,
857.2999999998137,,shortestpath_phase,1477344,,GW/huntsville.png,,,,49,GW/newhope.png,GW/leesburg.png,0,0.4411764705882353,,,,GW/leesburg.png,,,,,One Edge Diff,Five Edge Six Edge,,,,,,,,,,,,,
