rt,responses,trial_type,time_elapsed,sequence,stimulus,graphorder,button_pressed,response,key_press,stimulus_left,stimulus_right,accuracy,cumulative_accuracy,stimulus_down_left,stimulus_down_mid,stimulus_down_right,stimulus_correct,stimulus_short,stimulus_far,weighted_accuracy,missedtrial,condition,specific_pairs,imgL_ID,imgR_ID,linedress,linedressed,linedressed_detor,detour_trial,problems,smooth,distraction,strategies,easier,similar,comments
5545.4000000003725,{worker_id:67062295123561f8241f65fc},id_enter,5547,interleaved,replication,GW/peoria.png; GW/boulder.png; GW/gatlinburg.png; GW/carmel.png; GW/leesburg.png; GW/huntsville.png; GW/westpalmbeach.png; GW/newhope.png; GW/shreveport.png; GW/hanover.png; GW/cornwall.png; GW/hotsprings.png; GW/racine.png,,,,,,,,,,,,,,,,,,,,,,,,,,,,,,
75301.70000000019,,fullscreen,80852,,fullscreen,,0,,,,,,,,,,,,,,,,,,,,,,,,,,,,,
14569.700000000186,,intro_1,95423,,instruct,,0,,,,,,,,,,,,,,,,,,,,,,,,,,,,,
19511.700000000186,,intro_2,114936,,instruct,,1,Next,,,,,,,,,,,,,,,,,,,,,,,,,,,,
13661.400000000373,,intro_3,128598,,instruct,,1,Next,,,,,,,,,,,,,,,,,,,,,,,,,,,,
null,,learn_prac_1,131599,,lean_prac_1,,,,null,,,,,,,,,,,,,,,,,,,,,,,,,,,
null,,html-keyboard-response,132603,,<p></p>,,,,null,,,,,,,,,,,,,,,,,,,,,,,,,,,
3527,,intro_1,136131,,instruct,,0,,,,,,,,,,,,,,,,,,,,,,,,,,,,,
17054,,intro_2,153186,,instruct,,1,Next,,,,,,,,,,,,,,,,,,,,,,,,,,,,
null,,learn_prac_2,156187,,lean_prac_2,,,,null,,,,,,,,,,,,,,,,,,,,,,,,,,,
null,,html-keyboard-response,157188,,<p></p>,,,,null,,,,,,,,,,,,,,,,,,,,,,,,,,,
7745.700000000186,,intro_1,164935,,instruct,,0,,,,,,,,,,,,,,,,,,,,,,,,,,,,,
7725.700000000186,,intro_2,172662,,instruct,,1,Next,,,,,,,,,,,,,,,,,,,,,,,,,,,,
36428.09999999963,,intro_3,209091,,instruct,,1,Next,,,,,,,,,,,,,,,,,,,,,,,,,,,,
null,,prac_atten_color_black,209639,,black_plus_sign,,,,null,,,,,,,,,,,,,,,,,,,,,,,,,,,
null,,prac_atten_color,210494,,prac_stop_color,,,,null,,,,,,,,,,,,,,,,,,,,,,,,,,,
625,,prac_atten_color_black,212497,,black_plus_sign,,,,49,,,,,,,,,,,,,,,,,,,,,,,,,,,
null,,prac_atten_color_black,213047,,black_plus_sign,,,,null,,,,,,,,,,,,,,,,,,,,,,,,,,,
289.29999999981374,,prac_atten_color,213778,,prac_stop_color,,,,50,,,,,,,,,,,,,,,,,,,,,,,,,,,
null,,prac_atten_color_black,215779,,black_plus_sign,,,,null,,,,,,,,,,,,,,,,,,,,,,,,,,,
null,,prac_atten_color_black,216453,,black_plus_sign,,,,null,,,,,,,,,,,,,,,,,,,,,,,,,,,
391.3999999994412,,prac_atten_color,217338,,prac_stop_color,,,,49,,,,,,,,,,,,,,,,,,,,,,,,,,,
null,,prac_atten_color_black,219340,,black_plus_sign,,,,null,,,,,,,,,,,,,,,,,,,,,,,,,,,
5498.799999999814,,attentioncheck_help,224840,,instruct,,,,32,,,,,,,,,,,,,,,,,,,,,,,,,,,
null,,prac_atten_color_black,225359,,black_plus_sign,,,,null,,,,,,,,,,,,,,,,,,,,,,,,,,,
356.29999999981374,,prac_atten_color,225852,,prac_stop_color,,,,49,,,,,,,,,,,,,,,,,,,,,,,,,,,
null,,prac_atten_color_black,227854,,black_plus_sign,,,,null,,,,,,,,,,,,,,,,,,,,,,,,,,,
null,,prac_atten_color_black,228764,,black_plus_sign,,,,null,,,,,,,,,,,,,,,,,,,,,,,,,,,
285.09999999962747,,prac_atten_color,229189,,prac_stop_color,,,,50,,,,,,,,,,,,,,,,,,,,,,,,,,,
null,,prac_atten_color_black,231190,,black_plus_sign,,,,null,,,,,,,,,,,,,,,,,,,,,,,,,,,
null,,prac_atten_color_black,232169,,black_plus_sign,,,,null,,,,,,,,,,,,,,,,,,,,,,,,,,,
403.20000000018626,,prac_atten_color,232809,,prac_stop_color,,,,50,,,,,,,,,,,,,,,,,,,,,,,,,,,
null,,prac_atten_color_black,234811,,black_plus_sign,,,,null,,,,,,,,,,,,,,,,,,,,,,,,,,,
null,,prac_atten_color_black,235574,,black_plus_sign,,,,null,,,,,,,,,,,,,,,,,,,,,,,,,,,
307.79999999981374,,prac_atten_color,236327,,prac_stop_color,,,,49,,,,,,,,,,,,,,,,,,,,,,,,,,,
null,,prac_atten_color_black,238329,,black_plus_sign,,,,null,,,,,,,,,,,,,,,,,,,,,,,,,,,
null,,prac_atten_color_black,238980,,black_plus_sign,,,,null,,,,,,,,,,,,,,,,,,,,,,,,,,,
331.79999999981374,,prac_atten_color,239907,,prac_stop_color,,,,50,,,,,,,,,,,,,,,,,,,,,,,,,,,
null,,prac_atten_color_black,241909,,black_plus_sign,,,,null,,,,,,,,,,,,,,,,,,,,,,,,,,,
null,,prac_atten_color_black,242386,,black_plus_sign,,,,null,,,,,,,,,,,,,,,,,,,,,,,,,,,
477.79999999981374,,prac_atten_color,243252,,prac_stop_color,,,,49,,,,,,,,,,,,,,,,,,,,,,,,,,,
null,,prac_atten_color_black,245254,,black_plus_sign,,,,null,,,,,,,,,,,,,,,,,,,,,,,,,,,
null,,prac_atten_color_black,245792,,black_plus_sign,,,,null,,,,,,,,,,,,,,,,,,,,,,,,,,,
517.1000000005588,,prac_atten_color,246707,,prac_stop_color,,,,49,,,,,,,,,,,,,,,,,,,,,,,,,,,
null,,prac_atten_color_black,248709,,black_plus_sign,,,,null,,,,,,,,,,,,,,,,,,,,,,,,,,,
8256.599999999627,,attentioncheck_feedback,256967,,cross_check_feedback,,0,,,,,,,,,,,,,,,,,,,,,,,,,,,,,
30115.799999999814,,last_instruct,287084,,instruct,,,,32,,,,,,,,,,,,,,,,,,,,,,,,,,,
null,,learn_phase(without_color),290085,,black_plus_sign,,,,null,GW/huntsville.png,GW/shreveport.png,,,,,,,,,,,,,,,,,,,,,,,,,
null,,black_cross(without_color),290923,,blue,,,,null,GW/huntsville.png,GW/shreveport.png,,,,,,,,,,,,,,,,,,,,,,,,,
null,,rt_plussign_withcolor,291425,,blue,,,,null,GW/huntsville.png,GW/shreveport.png,,,,,,,,,,,,,,,,,,,,,,,,,
949.7000000001863,,rt_thecrossant_black,292590,,black_plus_sign,,,,49,,,1,1,,,,,,,,,,,,,,,,,,,,,,,
null,,color_black,292693,,black_plus_sign,,,,null,,,,,,,,,,,,,,,,,,,,,,,,,,,
null,,learn_phase(without_color),295695,,black_plus_sign,,,,null,GW/hotsprings.png,GW/cornwall.png,,,,,,,,,,,,,,,,,,,,,,,,,
null,,black_cross(without_color),296362,,yellow,,,,null,GW/hotsprings.png,GW/cornwall.png,,,,,,,,,,,,,,,,,,,,,,,,,
492.8999999994412,,rt_plussign_withcolor,296864,,yellow,,,,50,GW/hotsprings.png,GW/cornwall.png,,,,,,,,,,,,,,,,,,,,,,,,,
null,,rt_thecrossant_black,298201,,black_plus_sign,,,,null,,,1,1,,,,,,,,,,,,,,,,,,,,,,,
null,,color_black,298303,,black_plus_sign,,,,null,,,,,,,,,,,,,,,,,,,,,,,,,,,
null,,learn_phase(without_color),301304,,black_plus_sign,,,,null,GW/cornwall.png,GW/gatlinburg.png,,,,,,,,,,,,,,,,,,,,,,,,,
null,,black_cross(without_color),301801,,yellow,,,,null,GW/cornwall.png,GW/gatlinburg.png,,,,,,,,,,,,,,,,,,,,,,,,,
427.29999999981374,,rt_plussign_withcolor,302302,,yellow,,,,50,GW/cornwall.png,GW/gatlinburg.png,,,,,,,,,,,,,,,,,,,,,,,,,
null,,rt_thecrossant_black,303811,,black_plus_sign,,,,null,,,1,1,,,,,,,,,,,,,,,,,,,,,,,
null,,color_black,303912,,black_plus_sign,,,,null,,,,,,,,,,,,,,,,,,,,,,,,,,,
null,,learn_phase(without_color),306915,,black_plus_sign,,,,null,GW/gatlinburg.png,GW/boulder.png,,,,,,,,,,,,,,,,,,,,,,,,,
null,,black_cross(without_color),307755,,yellow,,,,null,GW/gatlinburg.png,GW/boulder.png,,,,,,,,,,,,,,,,,,,,,,,,,
493.6000000005588,,rt_plussign_withcolor,308255,,yellow,,,,50,GW/gatlinburg.png,GW/boulder.png,,,,,,,,,,,,,,,,,,,,,,,,,
null,,rt_thecrossant_black,309418,,black_plus_sign,,,,null,,,1,1,,,,,,,,,,,,,,,,,,,,,,,
null,,color_black,309520,,black_plus_sign,,,,null,,,,,,,,,,,,,,,,,,,,,,,,,,,
null,,learn_phase(without_color),312522,,black_plus_sign,,,,null,GW/carmel.png,GW/hotsprings.png,,,,,,,,,,,,,,,,,,,,,,,,,
null,,black_cross(without_color),313469,,yellow,,,,null,GW/carmel.png,GW/hotsprings.png,,,,,,,,,,,,,,,,,,,,,,,,,
460.20000000018626,,rt_plussign_withcolor,313970,,yellow,,,,50,GW/carmel.png,GW/hotsprings.png,,,,,,,,,,,,,,,,,,,,,,,,,
null,,rt_thecrossant_black,315027,,black_plus_sign,,,,null,,,1,1,,,,,,,,,,,,,,,,,,,,,,,
null,,color_black,315128,,black_plus_sign,,,,null,,,,,,,,,,,,,,,,,,,,,,,,,,,
null,,learn_phase(without_color),318132,,black_plus_sign,,,,null,GW/gatlinburg.png,GW/cornwall.png,,,,,,,,,,,,,,,,,,,,,,,,,
null,,black_cross(without_color),318698,,yellow,,,,null,GW/gatlinburg.png,GW/cornwall.png,,,,,,,,,,,,,,,,,,,,,,,,,
null,,rt_plussign_withcolor,319199,,yellow,,,,null,GW/gatlinburg.png,GW/cornwall.png,,,,,,,,,,,,,,,,,,,,,,,,,
1217.199999999255,,rt_thecrossant_black,320637,,black_plus_sign,,,,50,,,1,1,,,,,,,,,,,,,,,,,,,,,,,
null,,color_black,320738,,black_plus_sign,,,,null,,,,,,,,,,,,,,,,,,,,,,,,,,,
null,,learn_phase(without_color),323741,,black_plus_sign,,,,null,GW/boulder.png,GW/gatlinburg.png,,,,,,,,,,,,,,,,,,,,,,,,,
null,,black_cross(without_color),324269,,yellow,,,,null,GW/boulder.png,GW/gatlinburg.png,,,,,,,,,,,,,,,,,,,,,,,,,
null,,rt_plussign_withcolor,324771,,yellow,,,,null,GW/boulder.png,GW/gatlinburg.png,,,,,,,,,,,,,,,,,,,,,,,,,
791.8999999994412,,rt_thecrossant_black,326247,,black_plus_sign,,,,50,,,1,1,,,,,,,,,,,,,,,,,,,,,,,
null,,color_black,326348,,black_plus_sign,,,,null,,,,,,,,,,,,,,,,,,,,,,,,,,,
null,,learn_phase(without_color),329349,,black_plus_sign,,,,null,GW/huntsville.png,GW/shreveport.png,,,,,,,,,,,,,,,,,,,,,,,,,
null,,black_cross(without_color),330258,,blue,,,,null,GW/huntsville.png,GW/shreveport.png,,,,,,,,,,,,,,,,,,,,,,,,,
490.20000000018626,,rt_plussign_withcolor,330759,,blue,,,,49,GW/huntsville.png,GW/shreveport.png,,,,,,,,,,,,,,,,,,,,,,,,,
null,,rt_thecrossant_black,331855,,black_plus_sign,,,,null,,,1,1,,,,,,,,,,,,,,,,,,,,,,,
null,,color_black,331958,,black_plus_sign,,,,null,,,,,,,,,,,,,,,,,,,,,,,,,,,
null,,learn_phase(without_color),334959,,black_plus_sign,,,,null,GW/boulder.png,GW/carmel.png,,,,,,,,,,,,,,,,,,,,,,,,,
null,,black_cross(without_color),335814,,yellow,,,,null,GW/boulder.png,GW/carmel.png,,,,,,,,,,,,,,,,,,,,,,,,,
null,,rt_plussign_withcolor,336327,,yellow,,,,null,GW/boulder.png,GW/carmel.png,,,,,,,,,,,,,,,,,,,,,,,,,
1167.2999999998137,,rt_thecrossant_black,337476,,black_plus_sign,,,,50,,,1,1,,,,,,,,,,,,,,,,,,,,,,,
null,,color_black,337578,,black_plus_sign,,,,null,,,,,,,,,,,,,,,,,,,,,,,,,,,
null,,learn_phase(without_color),340580,,black_plus_sign,,,,null,GW/carmel.png,GW/boulder.png,,,,,,,,,,,,,,,,,,,,,,,,,
null,,black_cross(without_color),341318,,yellow,,,,null,GW/carmel.png,GW/boulder.png,,,,,,,,,,,,,,,,,,,,,,,,,
null,,rt_plussign_withcolor,341821,,yellow,,,,null,GW/carmel.png,GW/boulder.png,,,,,,,,,,,,,,,,,,,,,,,,,
1227.0999999996275,,rt_thecrossant_black,343086,,black_plus_sign,,,,50,,,1,1,,,,,,,,,,,,,,,,,,,,,,,
null,,color_black,343188,,black_plus_sign,,,,null,,,,,,,,,,,,,,,,,,,,,,,,,,,
null,,learn_phase(without_color),346190,,black_plus_sign,,,,null,GW/carmel.png,GW/hotsprings.png,,,,,,,,,,,,,,,,,,,,,,,,,
null,,black_cross(without_color),346924,,blue,,,,null,GW/carmel.png,GW/hotsprings.png,,,,,,,,,,,,,,,,,,,,,,,,,
414.79999999981374,,rt_plussign_withcolor,347425,,blue,,,,49,GW/carmel.png,GW/hotsprings.png,,,,,,,,,,,,,,,,,,,,,,,,,
null,,rt_thecrossant_black,348694,,black_plus_sign,,,,null,,,1,1,,,,,,,,,,,,,,,,,,,,,,,
null,,color_black,348796,,black_plus_sign,,,,null,,,,,,,,,,,,,,,,,,,,,,,,,,,
null,,learn_phase(without_color),351799,,black_plus_sign,,,,null,GW/boulder.png,GW/gatlinburg.png,,,,,,,,,,,,,,,,,,,,,,,,,
null,,black_cross(without_color),352396,,yellow,,,,null,GW/boulder.png,GW/gatlinburg.png,,,,,,,,,,,,,,,,,,,,,,,,,
408.5,,rt_plussign_withcolor,352898,,yellow,,,,49,GW/boulder.png,GW/gatlinburg.png,,,,,,,,,,,,,,,,,,,,,,,,,
null,,rt_thecrossant_black,354305,,black_plus_sign,,,,null,,,0,0.9166666666666666,,,,,,,,,,,,,,,,,,,,,,,
null,,color_black,354406,,black_plus_sign,,,,null,,,,,,,,,,,,,,,,,,,,,,,,,,,
null,,learn_phase(without_color),357409,,black_plus_sign,,,,null,GW/racine.png,GW/westpalmbeach.png,,,,,,,,,,,,,,,,,,,,,,,,,
null,,black_cross(without_color),358150,,blue,,,,null,GW/racine.png,GW/westpalmbeach.png,,,,,,,,,,,,,,,,,,,,,,,,,
null,,rt_plussign_withcolor,358650,,blue,,,,null,GW/racine.png,GW/westpalmbeach.png,,,,,,,,,,,,,,,,,,,,,,,,,
839.0999999996275,,rt_thecrossant_black,359914,,black_plus_sign,,,,49,,,1,0.9230769230769231,,,,,,,,,,,,,,,,,,,,,,,
null,,color_black,360016,,black_plus_sign,,,,null,,,,,,,,,,,,,,,,,,,,,,,,,,,
null,,learn_phase(without_color),363018,,black_plus_sign,,,,null,GW/shreveport.png,GW/newhope.png,,,,,,,,,,,,,,,,,,,,,,,,,
null,,black_cross(without_color),363999,,yellow,,,,null,GW/shreveport.png,GW/newhope.png,,,,,,,,,,,,,,,,,,,,,,,,,
462,,rt_plussign_withcolor,364500,,yellow,,,,50,GW/shreveport.png,GW/newhope.png,,,,,,,,,,,,,,,,,,,,,,,,,
null,,rt_thecrossant_black,365523,,black_plus_sign,,,,null,,,1,0.9285714285714286,,,,,,,,,,,,,,,,,,,,,,,
null,,color_black,365626,,black_plus_sign,,,,null,,,,,,,,,,,,,,,,,,,,,,,,,,,
null,,learn_phase(without_color),368628,,black_plus_sign,,,,null,GW/gatlinburg.png,GW/huntsville.png,,,,,,,,,,,,,,,,,,,,,,,,,
null,,black_cross(without_color),369249,,blue,,,,null,GW/gatlinburg.png,GW/huntsville.png,,,,,,,,,,,,,,,,,,,,,,,,,
null,,rt_plussign_withcolor,369751,,blue,,,,null,GW/gatlinburg.png,GW/huntsville.png,,,,,,,,,,,,,,,,,,,,,,,,,
1246.3999999994412,,rt_thecrossant_black,371133,,black_plus_sign,,,,49,,,1,0.9333333333333333,,,,,,,,,,,,,,,,,,,,,,,
null,,color_black,371235,,black_plus_sign,,,,null,,,,,,,,,,,,,,,,,,,,,,,,,,,
null,,learn_phase(without_color),374237,,black_plus_sign,,,,null,GW/carmel.png,GW/leesburg.png,,,,,,,,,,,,,,,,,,,,,,,,,
null,,black_cross(without_color),375172,,yellow,,,,null,GW/carmel.png,GW/leesburg.png,,,,,,,,,,,,,,,,,,,,,,,,,
397.29999999981374,,rt_plussign_withcolor,375684,,yellow,,,,50,GW/carmel.png,GW/leesburg.png,,,,,,,,,,,,,,,,,,,,,,,,,
null,,rt_thecrossant_black,376754,,black_plus_sign,,,,null,,,1,0.9375,,,,,,,,,,,,,,,,,,,,,,,
null,,color_black,376856,,black_plus_sign,,,,null,,,,,,,,,,,,,,,,,,,,,,,,,,,
null,,learn_phase(without_color),379858,,black_plus_sign,,,,null,GW/gatlinburg.png,GW/boulder.png,,,,,,,,,,,,,,,,,,,,,,,,,
null,,black_cross(without_color),380749,,yellow,,,,null,GW/gatlinburg.png,GW/boulder.png,,,,,,,,,,,,,,,,,,,,,,,,,
381.70000000018626,,rt_plussign_withcolor,381250,,yellow,,,,50,GW/gatlinburg.png,GW/boulder.png,,,,,,,,,,,,,,,,,,,,,,,,,
null,,rt_thecrossant_black,382364,,black_plus_sign,,,,null,,,1,0.9411764705882353,,,,,,,,,,,,,,,,,,,,,,,
null,,color_black,382466,,black_plus_sign,,,,null,,,,,,,,,,,,,,,,,,,,,,,,,,,
null,,learn_phase(without_color),385468,,black_plus_sign,,,,null,GW/gatlinburg.png,GW/boulder.png,,,,,,,,,,,,,,,,,,,,,,,,,
null,,black_cross(without_color),386108,,blue,,,,null,GW/gatlinburg.png,GW/boulder.png,,,,,,,,,,,,,,,,,,,,,,,,,
444.30000000074506,,rt_plussign_withcolor,386609,,blue,,,,49,GW/gatlinburg.png,GW/boulder.png,,,,,,,,,,,,,,,,,,,,,,,,,
null,,rt_thecrossant_black,387973,,black_plus_sign,,,,null,,,1,0.9444444444444444,,,,,,,,,,,,,,,,,,,,,,,
null,,color_black,388075,,black_plus_sign,,,,null,,,,,,,,,,,,,,,,,,,,,,,,,,,
null,,learn_phase(without_color),391076,,black_plus_sign,,,,null,GW/westpalmbeach.png,GW/racine.png,,,,,,,,,,,,,,,,,,,,,,,,,
null,,black_cross(without_color),391926,,blue,,,,null,GW/westpalmbeach.png,GW/racine.png,,,,,,,,,,,,,,,,,,,,,,,,,
362.09999999962747,,rt_plussign_withcolor,392428,,blue,,,,49,GW/westpalmbeach.png,GW/racine.png,,,,,,,,,,,,,,,,,,,,,,,,,
null,,rt_thecrossant_black,393580,,black_plus_sign,,,,null,,,1,0.9473684210526315,,,,,,,,,,,,,,,,,,,,,,,
null,,color_black,393683,,black_plus_sign,,,,null,,,,,,,,,,,,,,,,,,,,,,,,,,,
null,,learn_phase(without_color),396684,,black_plus_sign,,,,null,GW/westpalmbeach.png,GW/shreveport.png,,,,,,,,,,,,,,,,,,,,,,,,,
null,,black_cross(without_color),397729,,yellow,,,,null,GW/westpalmbeach.png,GW/shreveport.png,,,,,,,,,,,,,,,,,,,,,,,,,
null,,rt_plussign_withcolor,398231,,yellow,,,,null,GW/westpalmbeach.png,GW/shreveport.png,,,,,,,,,,,,,,,,,,,,,,,,,
996.5,,rt_thecrossant_black,399190,,black_plus_sign,,,,50,,,1,0.95,,,,,,,,,,,,,,,,,,,,,,,
null,,color_black,399292,,black_plus_sign,,,,null,,,,,,,,,,,,,,,,,,,,,,,,,,,
null,,learn_phase(without_color),402294,,black_plus_sign,,,,null,GW/newhope.png,GW/hanover.png,,,,,,,,,,,,,,,,,,,,,,,,,
null,,black_cross(without_color),402934,,blue,,,,null,GW/newhope.png,GW/hanover.png,,,,,,,,,,,,,,,,,,,,,,,,,
null,,rt_plussign_withcolor,403450,,blue,,,,null,GW/newhope.png,GW/hanover.png,,,,,,,,,,,,,,,,,,,,,,,,,
null,,rt_thecrossant_black,404814,,black_plus_sign,,,,null,,,,0.95,,,,,,,,,,,,,,,,,,,,,,,
null,,color_black,404916,,black_plus_sign,,,,null,,,,,,,,,,,,,,,,,,,,,,,,,,,
null,,learn_phase(without_color),407919,,black_plus_sign,,,,null,GW/leesburg.png,GW/carmel.png,,,,,,,,,,,,,,,,,,,,,,,,,
null,,black_cross(without_color),408693,,yellow,,,,null,GW/leesburg.png,GW/carmel.png,,,,,,,,,,,,,,,,,,,,,,,,,
null,,rt_plussign_withcolor,409195,,yellow,,,,null,GW/leesburg.png,GW/carmel.png,,,,,,,,,,,,,,,,,,,,,,,,,
779.7000000001863,,rt_thecrossant_black,410432,,black_plus_sign,,,,50,,,1,0.9523809523809523,,,,,,,,,,,,,,,,,,,,,,,
null,,color_black,410534,,black_plus_sign,,,,null,,,,,,,,,,,,,,,,,,,,,,,,,,,
null,,learn_phase(without_color),413537,,black_plus_sign,,,,null,GW/boulder.png,GW/gatlinburg.png,,,,,,,,,,,,,,,,,,,,,,,,,
null,,black_cross(without_color),413946,,yellow,,,,null,GW/boulder.png,GW/gatlinburg.png,,,,,,,,,,,,,,,,,,,,,,,,,
null,,rt_plussign_withcolor,414448,,yellow,,,,null,GW/boulder.png,GW/gatlinburg.png,,,,,,,,,,,,,,,,,,,,,,,,,
1212.699999999255,,rt_thecrossant_black,416042,,black_plus_sign,,,,50,,,1,0.9545454545454546,,,,,,,,,,,,,,,,,,,,,,,
null,,color_black,416144,,black_plus_sign,,,,null,,,,,,,,,,,,,,,,,,,,,,,,,,,
null,,learn_phase(without_color),419146,,black_plus_sign,,,,null,GW/gatlinburg.png,GW/huntsville.png,,,,,,,,,,,,,,,,,,,,,,,,,
null,,black_cross(without_color),419802,,blue,,,,null,GW/gatlinburg.png,GW/huntsville.png,,,,,,,,,,,,,,,,,,,,,,,,,
309.19999999925494,,rt_plussign_withcolor,420303,,blue,,,,49,GW/gatlinburg.png,GW/huntsville.png,,,,,,,,,,,,,,,,,,,,,,,,,
null,,rt_thecrossant_black,421652,,black_plus_sign,,,,null,,,1,0.9565217391304348,,,,,,,,,,,,,,,,,,,,,,,
null,,color_black,421754,,black_plus_sign,,,,null,,,,,,,,,,,,,,,,,,,,,,,,,,,
null,,learn_phase(without_color),424756,,black_plus_sign,,,,null,GW/shreveport.png,GW/westpalmbeach.png,,,,,,,,,,,,,,,,,,,,,,,,,
null,,black_cross(without_color),425416,,blue,,,,null,GW/shreveport.png,GW/westpalmbeach.png,,,,,,,,,,,,,,,,,,,,,,,,,
330.80000000074506,,rt_plussign_withcolor,425918,,blue,,,,49,GW/shreveport.png,GW/westpalmbeach.png,,,,,,,,,,,,,,,,,,,,,,,,,
null,,rt_thecrossant_black,427260,,black_plus_sign,,,,null,,,1,0.9583333333333334,,,,,,,,,,,,,,,,,,,,,,,
null,,color_black,427361,,black_plus_sign,,,,null,,,,,,,,,,,,,,,,,,,,,,,,,,,
null,,learn_phase(without_color),430363,,black_plus_sign,,,,null,GW/boulder.png,GW/carmel.png,,,,,,,,,,,,,,,,,,,,,,,,,
null,,black_cross(without_color),430905,,yellow,,,,null,GW/boulder.png,GW/carmel.png,,,,,,,,,,,,,,,,,,,,,,,,,
384.80000000074506,,rt_plussign_withcolor,431406,,yellow,,,,50,GW/boulder.png,GW/carmel.png,,,,,,,,,,,,,,,,,,,,,,,,,
null,,rt_thecrossant_black,432867,,black_plus_sign,,,,null,,,1,0.96,,,,,,,,,,,,,,,,,,,,,,,
null,,color_black,432969,,black_plus_sign,,,,null,,,,,,,,,,,,,,,,,,,,,,,,,,,
null,,learn_phase(without_color),435972,,black_plus_sign,,,,null,GW/huntsville.png,GW/shreveport.png,,,,,,,,,,,,,,,,,,,,,,,,,
null,,black_cross(without_color),436801,,yellow,,,,null,GW/huntsville.png,GW/shreveport.png,,,,,,,,,,,,,,,,,,,,,,,,,
414.3999999994412,,rt_plussign_withcolor,437303,,yellow,,,,50,GW/huntsville.png,GW/shreveport.png,,,,,,,,,,,,,,,,,,,,,,,,,
null,,rt_thecrossant_black,438478,,black_plus_sign,,,,null,,,1,0.9615384615384616,,,,,,,,,,,,,,,,,,,,,,,
null,,color_black,438579,,black_plus_sign,,,,null,,,,,,,,,,,,,,,,,,,,,,,,,,,
null,,learn_phase(without_color),441581,,black_plus_sign,,,,null,GW/cornwall.png,GW/gatlinburg.png,,,,,,,,,,,,,,,,,,,,,,,,,
null,,black_cross(without_color),442532,,blue,,,,null,GW/cornwall.png,GW/gatlinburg.png,,,,,,,,,,,,,,,,,,,,,,,,,
493,,rt_plussign_withcolor,443034,,blue,,,,50,GW/cornwall.png,GW/gatlinburg.png,,,,,,,,,,,,,,,,,,,,,,,,,
null,,rt_thecrossant_black,444085,,black_plus_sign,,,,null,,,0,0.9259259259259259,,,,,,,,,,,,,,,,,,,,,,,
null,,color_black,444186,,black_plus_sign,,,,null,,,,,,,,,,,,,,,,,,,,,,,,,,,
null,,learn_phase(without_color),447188,,black_plus_sign,,,,null,GW/carmel.png,GW/leesburg.png,,,,,,,,,,,,,,,,,,,,,,,,,
null,,black_cross(without_color),447986,,blue,,,,null,GW/carmel.png,GW/leesburg.png,,,,,,,,,,,,,,,,,,,,,,,,,
336.40000000037253,,rt_plussign_withcolor,448487,,blue,,,,49,GW/carmel.png,GW/leesburg.png,,,,,,,,,,,,,,,,,,,,,,,,,
null,,rt_thecrossant_black,449693,,black_plus_sign,,,,null,,,1,0.9285714285714286,,,,,,,,,,,,,,,,,,,,,,,
null,,color_black,449794,,black_plus_sign,,,,null,,,,,,,,,,,,,,,,,,,,,,,,,,,
null,,learn_phase(without_color),452796,,black_plus_sign,,,,null,GW/westpalmbeach.png,GW/shreveport.png,,,,,,,,,,,,,,,,,,,,,,,,,
null,,black_cross(without_color),453642,,yellow,,,,null,GW/westpalmbeach.png,GW/shreveport.png,,,,,,,,,,,,,,,,,,,,,,,,,
null,,rt_plussign_withcolor,454144,,yellow,,,,null,GW/westpalmbeach.png,GW/shreveport.png,,,,,,,,,,,,,,,,,,,,,,,,,
1114.2000000001863,,rt_thecrossant_black,455302,,black_plus_sign,,,,50,,,1,0.9310344827586207,,,,,,,,,,,,,,,,,,,,,,,
null,,color_black,455405,,black_plus_sign,,,,null,,,,,,,,,,,,,,,,,,,,,,,,,,,
null,,learn_phase(without_color),458407,,black_plus_sign,,,,null,GW/cornwall.png,GW/hotsprings.png,,,,,,,,,,,,,,,,,,,,,,,,,
null,,black_cross(without_color),459506,,blue,,,,null,GW/cornwall.png,GW/hotsprings.png,,,,,,,,,,,,,,,,,,,,,,,,,
293.70000000018626,,rt_plussign_withcolor,460008,,blue,,,,49,GW/cornwall.png,GW/hotsprings.png,,,,,,,,,,,,,,,,,,,,,,,,,
null,,rt_thecrossant_black,460928,,black_plus_sign,,,,null,,,1,0.9333333333333333,,,,,,,,,,,,,,,,,,,,,,,
null,,color_black,461030,,black_plus_sign,,,,null,,,,,,,,,,,,,,,,,,,,,,,,,,,
null,,learn_phase(without_color),464031,,black_plus_sign,,,,null,GW/peoria.png,GW/boulder.png,,,,,,,,,,,,,,,,,,,,,,,,,
null,,black_cross(without_color),464683,,blue,,,,null,GW/peoria.png,GW/boulder.png,,,,,,,,,,,,,,,,,,,,,,,,,
325.5,,rt_plussign_withcolor,465184,,blue,,,,49,GW/peoria.png,GW/boulder.png,,,,,,,,,,,,,,,,,,,,,,,,,
null,,rt_thecrossant_black,466535,,black_plus_sign,,,,null,,,1,0.9354838709677419,,,,,,,,,,,,,,,,,,,,,,,
null,,color_black,466638,,black_plus_sign,,,,null,,,,,,,,,,,,,,,,,,,,,,,,,,,
null,,learn_phase(without_color),469640,,black_plus_sign,,,,null,GW/westpalmbeach.png,GW/shreveport.png,,,,,,,,,,,,,,,,,,,,,,,,,
null,,black_cross(without_color),470708,,blue,,,,null,GW/westpalmbeach.png,GW/shreveport.png,,,,,,,,,,,,,,,,,,,,,,,,,
379.20000000018626,,rt_plussign_withcolor,471209,,blue,,,,49,GW/westpalmbeach.png,GW/shreveport.png,,,,,,,,,,,,,,,,,,,,,,,,,
null,,rt_thecrossant_black,472146,,black_plus_sign,,,,null,,,1,0.9375,,,,,,,,,,,,,,,,,,,,,,,
null,,color_black,472247,,black_plus_sign,,,,null,,,,,,,,,,,,,,,,,,,,,,,,,,,
null,,learn_phase(without_color),475248,,black_plus_sign,,,,null,GW/gatlinburg.png,GW/huntsville.png,,,,,,,,,,,,,,,,,,,,,,,,,
null,,black_cross(without_color),475716,,yellow,,,,null,GW/gatlinburg.png,GW/huntsville.png,,,,,,,,,,,,,,,,,,,,,,,,,
395.40000000037253,,rt_plussign_withcolor,476217,,yellow,,,,50,GW/gatlinburg.png,GW/huntsville.png,,,,,,,,,,,,,,,,,,,,,,,,,
null,,rt_thecrossant_black,477753,,black_plus_sign,,,,null,,,1,0.9393939393939394,,,,,,,,,,,,,,,,,,,,,,,
null,,color_black,477854,,black_plus_sign,,,,null,,,,,,,,,,,,,,,,,,,,,,,,,,,
null,,learn_phase(without_color),480856,,black_plus_sign,,,,null,GW/boulder.png,GW/carmel.png,,,,,,,,,,,,,,,,,,,,,,,,,
null,,black_cross(without_color),481618,,blue,,,,null,GW/boulder.png,GW/carmel.png,,,,,,,,,,,,,,,,,,,,,,,,,
277.5,,rt_plussign_withcolor,482120,,blue,,,,49,GW/boulder.png,GW/carmel.png,,,,,,,,,,,,,,,,,,,,,,,,,
null,,rt_thecrossant_black,483360,,black_plus_sign,,,,null,,,1,0.9411764705882353,,,,,,,,,,,,,,,,,,,,,,,
null,,color_black,483463,,black_plus_sign,,,,null,,,,,,,,,,,,,,,,,,,,,,,,,,,
null,,learn_phase(without_color),486464,,black_plus_sign,,,,null,GW/hanover.png,GW/newhope.png,,,,,,,,,,,,,,,,,,,,,,,,,
null,,black_cross(without_color),487496,,yellow,,,,null,GW/hanover.png,GW/newhope.png,,,,,,,,,,,,,,,,,,,,,,,,,
null,,rt_plussign_withcolor,487997,,yellow,,,,null,GW/hanover.png,GW/newhope.png,,,,,,,,,,,,,,,,,,,,,,,,,
899.5,,rt_thecrossant_black,488969,,black_plus_sign,,,,50,,,1,0.9428571428571428,,,,,,,,,,,,,,,,,,,,,,,
null,,color_black,489078,,black_plus_sign,,,,null,,,,,,,,,,,,,,,,,,,,,,,,,,,
null,,learn_phase(without_color),492080,,black_plus_sign,,,,null,GW/westpalmbeach.png,GW/racine.png,,,,,,,,,,,,,,,,,,,,,,,,,
null,,black_cross(without_color),493182,,blue,,,,null,GW/westpalmbeach.png,GW/racine.png,,,,,,,,,,,,,,,,,,,,,,,,,
456.29999999981374,,rt_plussign_withcolor,493683,,blue,,,,49,GW/westpalmbeach.png,GW/racine.png,,,,,,,,,,,,,,,,,,,,,,,,,
null,,rt_thecrossant_black,494585,,black_plus_sign,,,,null,,,1,0.9444444444444444,,,,,,,,,,,,,,,,,,,,,,,
null,,color_black,494688,,black_plus_sign,,,,null,,,,,,,,,,,,,,,,,,,,,,,,,,,
null,,learn_phase(without_color),497689,,black_plus_sign,,,,null,GW/cornwall.png,GW/hotsprings.png,,,,,,,,,,,,,,,,,,,,,,,,,
null,,black_cross(without_color),498514,,blue,,,,null,GW/cornwall.png,GW/hotsprings.png,,,,,,,,,,,,,,,,,,,,,,,,,
381.29999999981374,,rt_plussign_withcolor,499015,,blue,,,,49,GW/cornwall.png,GW/hotsprings.png,,,,,,,,,,,,,,,,,,,,,,,,,
null,,rt_thecrossant_black,500194,,black_plus_sign,,,,null,,,1,0.9459459459459459,,,,,,,,,,,,,,,,,,,,,,,
null,,color_black,500296,,black_plus_sign,,,,null,,,,,,,,,,,,,,,,,,,,,,,,,,,
null,,learn_phase(without_color),503298,,black_plus_sign,,,,null,GW/racine.png,GW/westpalmbeach.png,,,,,,,,,,,,,,,,,,,,,,,,,
null,,black_cross(without_color),503945,,blue,,,,null,GW/racine.png,GW/westpalmbeach.png,,,,,,,,,,,,,,,,,,,,,,,,,
407.70000000018626,,rt_plussign_withcolor,504446,,blue,,,,49,GW/racine.png,GW/westpalmbeach.png,,,,,,,,,,,,,,,,,,,,,,,,,
null,,rt_thecrossant_black,505803,,black_plus_sign,,,,null,,,1,0.9473684210526315,,,,,,,,,,,,,,,,,,,,,,,
null,,color_black,505905,,black_plus_sign,,,,null,,,,,,,,,,,,,,,,,,,,,,,,,,,
null,,learn_phase(without_color),508907,,black_plus_sign,,,,null,GW/boulder.png,GW/gatlinburg.png,,,,,,,,,,,,,,,,,,,,,,,,,
null,,black_cross(without_color),509860,,blue,,,,null,GW/boulder.png,GW/gatlinburg.png,,,,,,,,,,,,,,,,,,,,,,,,,
322.69999999925494,,rt_plussign_withcolor,510361,,blue,,,,50,GW/boulder.png,GW/gatlinburg.png,,,,,,,,,,,,,,,,,,,,,,,,,
null,,rt_thecrossant_black,511412,,black_plus_sign,,,,null,,,0,0.9230769230769231,,,,,,,,,,,,,,,,,,,,,,,
null,,color_black,511514,,black_plus_sign,,,,null,,,,,,,,,,,,,,,,,,,,,,,,,,,
null,,learn_phase(without_color),514516,,black_plus_sign,,,,null,GW/shreveport.png,GW/huntsville.png,,,,,,,,,,,,,,,,,,,,,,,,,
null,,black_cross(without_color),515198,,yellow,,,,null,GW/shreveport.png,GW/huntsville.png,,,,,,,,,,,,,,,,,,,,,,,,,
null,,rt_plussign_withcolor,515700,,yellow,,,,null,GW/shreveport.png,GW/huntsville.png,,,,,,,,,,,,,,,,,,,,,,,,,
1134.4000000003725,,rt_thecrossant_black,517023,,black_plus_sign,,,,50,,,1,0.925,,,,,,,,,,,,,,,,,,,,,,,
null,,color_black,517124,,black_plus_sign,,,,null,,,,,,,,,,,,,,,,,,,,,,,,,,,
null,,learn_phase(without_color),520127,,black_plus_sign,,,,null,GW/carmel.png,GW/leesburg.png,,,,,,,,,,,,,,,,,,,,,,,,,
null,,black_cross(without_color),521032,,yellow,,,,null,GW/carmel.png,GW/leesburg.png,,,,,,,,,,,,,,,,,,,,,,,,,
462.8999999994412,,rt_plussign_withcolor,521534,,yellow,,,,50,GW/carmel.png,GW/leesburg.png,,,,,,,,,,,,,,,,,,,,,,,,,
null,,rt_thecrossant_black,522633,,black_plus_sign,,,,null,,,1,0.926829268292683,,,,,,,,,,,,,,,,,,,,,,,
null,,color_black,522735,,black_plus_sign,,,,null,,,,,,,,,,,,,,,,,,,,,,,,,,,
null,,learn_phase(without_color),525736,,black_plus_sign,,,,null,GW/newhope.png,GW/westpalmbeach.png,,,,,,,,,,,,,,,,,,,,,,,,,
null,,black_cross(without_color),526592,,yellow,,,,null,GW/newhope.png,GW/westpalmbeach.png,,,,,,,,,,,,,,,,,,,,,,,,,
470,,rt_plussign_withcolor,527094,,yellow,,,,49,GW/newhope.png,GW/westpalmbeach.png,,,,,,,,,,,,,,,,,,,,,,,,,
null,,rt_thecrossant_black,528242,,black_plus_sign,,,,null,,,0,0.9047619047619048,,,,,,,,,,,,,,,,,,,,,,,
null,,color_black,528345,,black_plus_sign,,,,null,,,,,,,,,,,,,,,,,,,,,,,,,,,
null,,learn_phase(without_color),531347,,black_plus_sign,,,,null,GW/huntsville.png,GW/westpalmbeach.png,,,,,,,,,,,,,,,,,,,,,,,,,
null,,black_cross(without_color),532189,,blue,,,,null,GW/huntsville.png,GW/westpalmbeach.png,,,,,,,,,,,,,,,,,,,,,,,,,
460,,rt_plussign_withcolor,532690,,blue,,,,49,GW/huntsville.png,GW/westpalmbeach.png,,,,,,,,,,,,,,,,,,,,,,,,,
null,,rt_thecrossant_black,533852,,black_plus_sign,,,,null,,,1,0.9069767441860465,,,,,,,,,,,,,,,,,,,,,,,
null,,color_black,533954,,black_plus_sign,,,,null,,,,,,,,,,,,,,,,,,,,,,,,,,,
null,,learn_phase(without_color),536956,,black_plus_sign,,,,null,GW/westpalmbeach.png,GW/newhope.png,,,,,,,,,,,,,,,,,,,,,,,,,
null,,black_cross(without_color),537719,,blue,,,,null,GW/westpalmbeach.png,GW/newhope.png,,,,,,,,,,,,,,,,,,,,,,,,,
321.59999999962747,,rt_plussign_withcolor,538221,,blue,,,,49,GW/westpalmbeach.png,GW/newhope.png,,,,,,,,,,,,,,,,,,,,,,,,,
null,,rt_thecrossant_black,539461,,black_plus_sign,,,,null,,,1,0.9090909090909091,,,,,,,,,,,,,,,,,,,,,,,
null,,color_black,539563,,black_plus_sign,,,,null,,,,,,,,,,,,,,,,,,,,,,,,,,,
null,,learn_phase(without_color),542565,,black_plus_sign,,,,null,GW/cornwall.png,GW/shreveport.png,,,,,,,,,,,,,,,,,,,,,,,,,
null,,black_cross(without_color),543368,,yellow,,,,null,GW/cornwall.png,GW/shreveport.png,,,,,,,,,,,,,,,,,,,,,,,,,
388.90000000037253,,rt_plussign_withcolor,543870,,yellow,,,,50,GW/cornwall.png,GW/shreveport.png,,,,,,,,,,,,,,,,,,,,,,,,,
null,,rt_thecrossant_black,545072,,black_plus_sign,,,,null,,,1,0.9111111111111111,,,,,,,,,,,,,,,,,,,,,,,
null,,color_black,545174,,black_plus_sign,,,,null,,,,,,,,,,,,,,,,,,,,,,,,,,,
null,,learn_phase(without_color),548176,,black_plus_sign,,,,null,GW/newhope.png,GW/westpalmbeach.png,,,,,,,,,,,,,,,,,,,,,,,,,
null,,black_cross(without_color),548694,,yellow,,,,null,GW/newhope.png,GW/westpalmbeach.png,,,,,,,,,,,,,,,,,,,,,,,,,
479.90000000037253,,rt_plussign_withcolor,549196,,yellow,,,,50,GW/newhope.png,GW/westpalmbeach.png,,,,,,,,,,,,,,,,,,,,,,,,,
null,,rt_thecrossant_black,550682,,black_plus_sign,,,,null,,,1,0.9130434782608695,,,,,,,,,,,,,,,,,,,,,,,
null,,color_black,550783,,black_plus_sign,,,,null,,,,,,,,,,,,,,,,,,,,,,,,,,,
null,,learn_phase(without_color),553785,,black_plus_sign,,,,null,GW/westpalmbeach.png,GW/racine.png,,,,,,,,,,,,,,,,,,,,,,,,,
null,,black_cross(without_color),554262,,yellow,,,,null,GW/westpalmbeach.png,GW/racine.png,,,,,,,,,,,,,,,,,,,,,,,,,
null,,rt_plussign_withcolor,554763,,yellow,,,,null,GW/westpalmbeach.png,GW/racine.png,,,,,,,,,,,,,,,,,,,,,,,,,
628.6000000005588,,rt_thecrossant_black,556291,,black_plus_sign,,,,50,,,1,0.9148936170212766,,,,,,,,,,,,,,,,,,,,,,,
null,,color_black,556393,,black_plus_sign,,,,null,,,,,,,,,,,,,,,,,,,,,,,,,,,
null,,learn_phase(without_color),559394,,black_plus_sign,,,,null,GW/westpalmbeach.png,GW/huntsville.png,,,,,,,,,,,,,,,,,,,,,,,,,
null,,black_cross(without_color),560094,,blue,,,,null,GW/westpalmbeach.png,GW/huntsville.png,,,,,,,,,,,,,,,,,,,,,,,,,
349.40000000037253,,rt_plussign_withcolor,560595,,blue,,,,49,GW/westpalmbeach.png,GW/huntsville.png,,,,,,,,,,,,,,,,,,,,,,,,,
null,,rt_thecrossant_black,561899,,black_plus_sign,,,,null,,,1,0.9166666666666666,,,,,,,,,,,,,,,,,,,,,,,
null,,color_black,562000,,black_plus_sign,,,,null,,,,,,,,,,,,,,,,,,,,,,,,,,,
null,,learn_phase(without_color),565003,,black_plus_sign,,,,null,GW/cornwall.png,GW/gatlinburg.png,,,,,,,,,,,,,,,,,,,,,,,,,
null,,black_cross(without_color),565655,,yellow,,,,null,GW/cornwall.png,GW/gatlinburg.png,,,,,,,,,,,,,,,,,,,,,,,,,
414.29999999981374,,rt_plussign_withcolor,566163,,yellow,,,,50,GW/cornwall.png,GW/gatlinburg.png,,,,,,,,,,,,,,,,,,,,,,,,,
null,,rt_thecrossant_black,567514,,black_plus_sign,,,,null,,,1,0.9183673469387755,,,,,,,,,,,,,,,,,,,,,,,
null,,color_black,567617,,black_plus_sign,,,,null,,,,,,,,,,,,,,,,,,,,,,,,,,,
null,,learn_phase(without_color),570619,,black_plus_sign,,,,null,GW/hotsprings.png,GW/carmel.png,,,,,,,,,,,,,,,,,,,,,,,,,
null,,black_cross(without_color),571159,,blue,,,,null,GW/hotsprings.png,GW/carmel.png,,,,,,,,,,,,,,,,,,,,,,,,,
393,,rt_plussign_withcolor,571660,,blue,,,,50,GW/hotsprings.png,GW/carmel.png,,,,,,,,,,,,,,,,,,,,,,,,,
null,,rt_thecrossant_black,573125,,black_plus_sign,,,,null,,,0,0.9,,,,,,,,,,,,,,,,,,,,,,,
null,,color_black,573227,,black_plus_sign,,,,null,,,,,,,,,,,,,,,,,,,,,,,,,,,
null,,learn_phase(without_color),576229,,black_plus_sign,,,,null,GW/huntsville.png,GW/westpalmbeach.png,,,,,,,,,,,,,,,,,,,,,,,,,
null,,black_cross(without_color),576857,,yellow,,,,null,GW/huntsville.png,GW/westpalmbeach.png,,,,,,,,,,,,,,,,,,,,,,,,,
null,,rt_plussign_withcolor,577359,,yellow,,,,null,GW/huntsville.png,GW/westpalmbeach.png,,,,,,,,,,,,,,,,,,,,,,,,,
686.2999999998137,,rt_thecrossant_black,578736,,black_plus_sign,,,,50,,,1,0.9019607843137255,,,,,,,,,,,,,,,,,,,,,,,
null,,color_black,578838,,black_plus_sign,,,,null,,,,,,,,,,,,,,,,,,,,,,,,,,,
null,,learn_phase(without_color),581839,,black_plus_sign,,,,null,GW/racine.png,GW/westpalmbeach.png,,,,,,,,,,,,,,,,,,,,,,,,,
null,,black_cross(without_color),582482,,yellow,,,,null,GW/racine.png,GW/westpalmbeach.png,,,,,,,,,,,,,,,,,,,,,,,,,
422.6000000005588,,rt_plussign_withcolor,582982,,yellow,,,,50,GW/racine.png,GW/westpalmbeach.png,,,,,,,,,,,,,,,,,,,,,,,,,
null,,rt_thecrossant_black,584343,,black_plus_sign,,,,null,,,1,0.9038461538461539,,,,,,,,,,,,,,,,,,,,,,,
null,,color_black,584445,,black_plus_sign,,,,null,,,,,,,,,,,,,,,,,,,,,,,,,,,
null,,learn_phase(without_color),587447,,black_plus_sign,,,,null,GW/boulder.png,GW/peoria.png,,,,,,,,,,,,,,,,,,,,,,,,,
null,,black_cross(without_color),587874,,yellow,,,,null,GW/boulder.png,GW/peoria.png,,,,,,,,,,,,,,,,,,,,,,,,,
338,,rt_plussign_withcolor,588375,,yellow,,,,50,GW/boulder.png,GW/peoria.png,,,,,,,,,,,,,,,,,,,,,,,,,
null,,rt_thecrossant_black,589952,,black_plus_sign,,,,null,,,1,0.9056603773584906,,,,,,,,,,,,,,,,,,,,,,,
null,,color_black,590054,,black_plus_sign,,,,null,,,,,,,,,,,,,,,,,,,,,,,,,,,
null,,learn_phase(without_color),593057,,black_plus_sign,,,,null,GW/hotsprings.png,GW/carmel.png,,,,,,,,,,,,,,,,,,,,,,,,,
null,,black_cross(without_color),593793,,blue,,,,null,GW/hotsprings.png,GW/carmel.png,,,,,,,,,,,,,,,,,,,,,,,,,
309.90000000037253,,rt_plussign_withcolor,594294,,blue,,,,49,GW/hotsprings.png,GW/carmel.png,,,,,,,,,,,,,,,,,,,,,,,,,
null,,rt_thecrossant_black,595562,,black_plus_sign,,,,null,,,1,0.9074074074074074,,,,,,,,,,,,,,,,,,,,,,,
null,,color_black,595663,,black_plus_sign,,,,null,,,,,,,,,,,,,,,,,,,,,,,,,,,
null,,learn_phase(without_color),598666,,black_plus_sign,,,,null,GW/huntsville.png,GW/westpalmbeach.png,,,,,,,,,,,,,,,,,,,,,,,,,
null,,black_cross(without_color),599398,,yellow,,,,null,GW/huntsville.png,GW/westpalmbeach.png,,,,,,,,,,,,,,,,,,,,,,,,,
471.5,,rt_plussign_withcolor,599899,,yellow,,,,50,GW/huntsville.png,GW/westpalmbeach.png,,,,,,,,,,,,,,,,,,,,,,,,,
null,,rt_thecrossant_black,601171,,black_plus_sign,,,,null,,,1,0.9090909090909091,,,,,,,,,,,,,,,,,,,,,,,
null,,color_black,601272,,black_plus_sign,,,,null,,,,,,,,,,,,,,,,,,,,,,,,,,,
null,,learn_phase(without_color),604274,,black_plus_sign,,,,null,GW/westpalmbeach.png,GW/newhope.png,,,,,,,,,,,,,,,,,,,,,,,,,
null,,black_cross(without_color),604831,,yellow,,,,null,GW/westpalmbeach.png,GW/newhope.png,,,,,,,,,,,,,,,,,,,,,,,,,
null,,rt_plussign_withcolor,605332,,yellow,,,,null,GW/westpalmbeach.png,GW/newhope.png,,,,,,,,,,,,,,,,,,,,,,,,,
858.0999999996275,,rt_thecrossant_black,606780,,black_plus_sign,,,,50,,,1,0.9107142857142857,,,,,,,,,,,,,,,,,,,,,,,
null,,color_black,606882,,black_plus_sign,,,,null,,,,,,,,,,,,,,,,,,,,,,,,,,,
null,,learn_phase(without_color),609884,,black_plus_sign,,,,null,GW/shreveport.png,GW/westpalmbeach.png,,,,,,,,,,,,,,,,,,,,,,,,,
null,,black_cross(without_color),610826,,yellow,,,,null,GW/shreveport.png,GW/westpalmbeach.png,,,,,,,,,,,,,,,,,,,,,,,,,
390.40000000037253,,rt_plussign_withcolor,611327,,yellow,,,,49,GW/shreveport.png,GW/westpalmbeach.png,,,,,,,,,,,,,,,,,,,,,,,,,
null,,rt_thecrossant_black,612389,,black_plus_sign,,,,null,,,0,0.8947368421052632,,,,,,,,,,,,,,,,,,,,,,,
null,,color_black,612491,,black_plus_sign,,,,null,,,,,,,,,,,,,,,,,,,,,,,,,,,
null,,learn_phase(without_color),615493,,black_plus_sign,,,,null,GW/boulder.png,GW/carmel.png,,,,,,,,,,,,,,,,,,,,,,,,,
null,,black_cross(without_color),616417,,blue,,,,null,GW/boulder.png,GW/carmel.png,,,,,,,,,,,,,,,,,,,,,,,,,
286.29999999981374,,rt_plussign_withcolor,616919,,blue,,,,49,GW/boulder.png,GW/carmel.png,,,,,,,,,,,,,,,,,,,,,,,,,
null,,rt_thecrossant_black,617997,,black_plus_sign,,,,null,,,1,0.896551724137931,,,,,,,,,,,,,,,,,,,,,,,
null,,color_black,618099,,black_plus_sign,,,,null,,,,,,,,,,,,,,,,,,,,,,,,,,,
null,,learn_phase(without_color),621101,,black_plus_sign,,,,null,GW/carmel.png,GW/hotsprings.png,,,,,,,,,,,,,,,,,,,,,,,,,
null,,black_cross(without_color),622006,,blue,,,,null,GW/carmel.png,GW/hotsprings.png,,,,,,,,,,,,,,,,,,,,,,,,,
369.59999999962747,,rt_plussign_withcolor,622508,,blue,,,,49,GW/carmel.png,GW/hotsprings.png,,,,,,,,,,,,,,,,,,,,,,,,,
null,,rt_thecrossant_black,623607,,black_plus_sign,,,,null,,,1,0.8983050847457628,,,,,,,,,,,,,,,,,,,,,,,
null,,color_black,623709,,black_plus_sign,,,,null,,,,,,,,,,,,,,,,,,,,,,,,,,,
null,,learn_phase(without_color),626711,,black_plus_sign,,,,null,GW/huntsville.png,GW/gatlinburg.png,,,,,,,,,,,,,,,,,,,,,,,,,
null,,black_cross(without_color),627678,,yellow,,,,null,GW/huntsville.png,GW/gatlinburg.png,,,,,,,,,,,,,,,,,,,,,,,,,
390.30000000074506,,rt_plussign_withcolor,628179,,yellow,,,,50,GW/huntsville.png,GW/gatlinburg.png,,,,,,,,,,,,,,,,,,,,,,,,,
null,,rt_thecrossant_black,629216,,black_plus_sign,,,,null,,,1,0.9,,,,,,,,,,,,,,,,,,,,,,,
null,,color_black,629318,,black_plus_sign,,,,null,,,,,,,,,,,,,,,,,,,,,,,,,,,
null,,learn_phase(without_color),632320,,black_plus_sign,,,,null,GW/cornwall.png,GW/gatlinburg.png,,,,,,,,,,,,,,,,,,,,,,,,,
null,,black_cross(without_color),633337,,blue,,,,null,GW/cornwall.png,GW/gatlinburg.png,,,,,,,,,,,,,,,,,,,,,,,,,
411,,rt_plussign_withcolor,633839,,blue,,,,49,GW/cornwall.png,GW/gatlinburg.png,,,,,,,,,,,,,,,,,,,,,,,,,
null,,rt_thecrossant_black,634826,,black_plus_sign,,,,null,,,1,0.9016393442622951,,,,,,,,,,,,,,,,,,,,,,,
null,,color_black,634928,,black_plus_sign,,,,null,,,,,,,,,,,,,,,,,,,,,,,,,,,
null,,learn_phase(without_color),637930,,black_plus_sign,,,,null,GW/carmel.png,GW/hotsprings.png,,,,,,,,,,,,,,,,,,,,,,,,,
null,,black_cross(without_color),638437,,yellow,,,,null,GW/carmel.png,GW/hotsprings.png,,,,,,,,,,,,,,,,,,,,,,,,,
339.79999999981374,,rt_plussign_withcolor,638937,,yellow,,,,50,GW/carmel.png,GW/hotsprings.png,,,,,,,,,,,,,,,,,,,,,,,,,
null,,rt_thecrossant_black,640435,,black_plus_sign,,,,null,,,1,0.9032258064516129,,,,,,,,,,,,,,,,,,,,,,,
null,,color_black,640537,,black_plus_sign,,,,null,,,,,,,,,,,,,,,,,,,,,,,,,,,
null,,learn_phase(without_color),643539,,black_plus_sign,,,,null,GW/newhope.png,GW/shreveport.png,,,,,,,,,,,,,,,,,,,,,,,,,
null,,black_cross(without_color),644458,,yellow,,,,null,GW/newhope.png,GW/shreveport.png,,,,,,,,,,,,,,,,,,,,,,,,,
484,,rt_plussign_withcolor,644960,,yellow,,,,50,GW/newhope.png,GW/shreveport.png,,,,,,,,,,,,,,,,,,,,,,,,,
null,,rt_thecrossant_black,646045,,black_plus_sign,,,,null,,,1,0.9047619047619048,,,,,,,,,,,,,,,,,,,,,,,
null,,color_black,646146,,black_plus_sign,,,,null,,,,,,,,,,,,,,,,,,,,,,,,,,,
null,,learn_break,706149,,learn_break,,,,null,,,,,,,,,,,,,,,,,,,,,,,,,,,
null,,html-keyboard-response,707150,,<p></p>,,,,null,,,,,,,,,,,,,,,,,,,,,,,,,,,
null,,learn_phase(without_color),710152,,black_plus_sign,,,,null,GW/boulder.png,GW/peoria.png,,,,,,,,,,,,,,,,,,,,,,,,,
null,,black_cross(without_color),711094,,blue,,,,null,GW/boulder.png,GW/peoria.png,,,,,,,,,,,,,,,,,,,,,,,,,
387.20000000018626,,rt_plussign_withcolor,711596,,blue,,,,49,GW/boulder.png,GW/peoria.png,,,,,,,,,,,,,,,,,,,,,,,,,
null,,rt_thecrossant_black,712657,,black_plus_sign,,,,null,,,1,0.90625,,,,,,,,,,,,,,,,,,,,,,,
null,,color_black,712758,,black_plus_sign,,,,null,,,,,,,,,,,,,,,,,,,,,,,,,,,
null,,learn_phase(without_color),715762,,black_plus_sign,,,,null,GW/huntsville.png,GW/westpalmbeach.png,,,,,,,,,,,,,,,,,,,,,,,,,
null,,black_cross(without_color),716267,,blue,,,,null,GW/huntsville.png,GW/westpalmbeach.png,,,,,,,,,,,,,,,,,,,,,,,,,
307.5,,rt_plussign_withcolor,716768,,blue,,,,49,GW/huntsville.png,GW/westpalmbeach.png,,,,,,,,,,,,,,,,,,,,,,,,,
null,,rt_thecrossant_black,718267,,black_plus_sign,,,,null,,,1,0.9076923076923077,,,,,,,,,,,,,,,,,,,,,,,
null,,color_black,718370,,black_plus_sign,,,,null,,,,,,,,,,,,,,,,,,,,,,,,,,,
null,,learn_phase(without_color),721372,,black_plus_sign,,,,null,GW/hotsprings.png,GW/cornwall.png,,,,,,,,,,,,,,,,,,,,,,,,,
null,,black_cross(without_color),722257,,blue,,,,null,GW/hotsprings.png,GW/cornwall.png,,,,,,,,,,,,,,,,,,,,,,,,,
363.1000000005588,,rt_plussign_withcolor,722758,,blue,,,,49,GW/hotsprings.png,GW/cornwall.png,,,,,,,,,,,,,,,,,,,,,,,,,
null,,rt_thecrossant_black,723883,,black_plus_sign,,,,null,,,1,0.9090909090909091,,,,,,,,,,,,,,,,,,,,,,,
null,,color_black,723984,,black_plus_sign,,,,null,,,,,,,,,,,,,,,,,,,,,,,,,,,
null,,learn_phase(without_color),726987,,black_plus_sign,,,,null,GW/shreveport.png,GW/cornwall.png,,,,,,,,,,,,,,,,,,,,,,,,,
null,,black_cross(without_color),727803,,yellow,,,,null,GW/shreveport.png,GW/cornwall.png,,,,,,,,,,,,,,,,,,,,,,,,,
343.29999999981374,,rt_plussign_withcolor,728304,,yellow,,,,49,GW/shreveport.png,GW/cornwall.png,,,,,,,,,,,,,,,,,,,,,,,,,
null,,rt_thecrossant_black,729492,,black_plus_sign,,,,null,,,0,0.8955223880597015,,,,,,,,,,,,,,,,,,,,,,,
null,,color_black,729594,,black_plus_sign,,,,null,,,,,,,,,,,,,,,,,,,,,,,,,,,
null,,learn_phase(without_color),732597,,black_plus_sign,,,,null,GW/hotsprings.png,GW/cornwall.png,,,,,,,,,,,,,,,,,,,,,,,,,
null,,black_cross(without_color),733095,,blue,,,,null,GW/hotsprings.png,GW/cornwall.png,,,,,,,,,,,,,,,,,,,,,,,,,
389.70000000018626,,rt_plussign_withcolor,733596,,blue,,,,49,GW/hotsprings.png,GW/cornwall.png,,,,,,,,,,,,,,,,,,,,,,,,,
null,,rt_thecrossant_black,735103,,black_plus_sign,,,,null,,,1,0.8970588235294118,,,,,,,,,,,,,,,,,,,,,,,
null,,color_black,735205,,black_plus_sign,,,,null,,,,,,,,,,,,,,,,,,,,,,,,,,,
null,,learn_phase(without_color),738207,,black_plus_sign,,,,null,GW/hotsprings.png,GW/carmel.png,,,,,,,,,,,,,,,,,,,,,,,,,
null,,black_cross(without_color),738665,,yellow,,,,null,GW/hotsprings.png,GW/carmel.png,,,,,,,,,,,,,,,,,,,,,,,,,
310.79999999981374,,rt_plussign_withcolor,739166,,yellow,,,,50,GW/hotsprings.png,GW/carmel.png,,,,,,,,,,,,,,,,,,,,,,,,,
null,,rt_thecrossant_black,740712,,black_plus_sign,,,,null,,,1,0.8985507246376812,,,,,,,,,,,,,,,,,,,,,,,
null,,color_black,740814,,black_plus_sign,,,,null,,,,,,,,,,,,,,,,,,,,,,,,,,,
null,,learn_phase(without_color),743816,,black_plus_sign,,,,null,GW/huntsville.png,GW/gatlinburg.png,,,,,,,,,,,,,,,,,,,,,,,,,
null,,black_cross(without_color),744810,,blue,,,,null,GW/huntsville.png,GW/gatlinburg.png,,,,,,,,,,,,,,,,,,,,,,,,,
285.70000000018626,,rt_plussign_withcolor,745311,,blue,,,,49,GW/huntsville.png,GW/gatlinburg.png,,,,,,,,,,,,,,,,,,,,,,,,,
null,,rt_thecrossant_black,746321,,black_plus_sign,,,,null,,,1,0.9,,,,,,,,,,,,,,,,,,,,,,,
null,,color_black,746423,,black_plus_sign,,,,null,,,,,,,,,,,,,,,,,,,,,,,,,,,
null,,learn_phase(without_color),749425,,black_plus_sign,,,,null,GW/shreveport.png,GW/cornwall.png,,,,,,,,,,,,,,,,,,,,,,,,,
null,,black_cross(without_color),750525,,yellow,,,,null,GW/shreveport.png,GW/cornwall.png,,,,,,,,,,,,,,,,,,,,,,,,,
271.70000000018626,,rt_plussign_withcolor,751034,,yellow,,,,50,GW/shreveport.png,GW/cornwall.png,,,,,,,,,,,,,,,,,,,,,,,,,
null,,rt_thecrossant_black,751937,,black_plus_sign,,,,null,,,1,0.9014084507042254,,,,,,,,,,,,,,,,,,,,,,,
null,,color_black,752040,,black_plus_sign,,,,null,,,,,,,,,,,,,,,,,,,,,,,,,,,
null,,learn_phase(without_color),755042,,black_plus_sign,,,,null,GW/boulder.png,GW/peoria.png,,,,,,,,,,,,,,,,,,,,,,,,,
null,,black_cross(without_color),755710,,yellow,,,,null,GW/boulder.png,GW/peoria.png,,,,,,,,,,,,,,,,,,,,,,,,,
null,,rt_plussign_withcolor,756221,,yellow,,,,null,GW/boulder.png,GW/peoria.png,,,,,,,,,,,,,,,,,,,,,,,,,
1236.5999999996275,,rt_thecrossant_black,757556,,black_plus_sign,,,,50,,,1,0.9027777777777778,,,,,,,,,,,,,,,,,,,,,,,
null,,color_black,757658,,black_plus_sign,,,,null,,,,,,,,,,,,,,,,,,,,,,,,,,,
null,,learn_phase(without_color),760660,,black_plus_sign,,,,null,GW/newhope.png,GW/shreveport.png,,,,,,,,,,,,,,,,,,,,,,,,,
null,,black_cross(without_color),761644,,blue,,,,null,GW/newhope.png,GW/shreveport.png,,,,,,,,,,,,,,,,,,,,,,,,,
331.20000000018626,,rt_plussign_withcolor,762146,,blue,,,,49,GW/newhope.png,GW/shreveport.png,,,,,,,,,,,,,,,,,,,,,,,,,
null,,rt_thecrossant_black,763165,,black_plus_sign,,,,null,,,1,0.9041095890410958,,,,,,,,,,,,,,,,,,,,,,,
null,,color_black,763267,,black_plus_sign,,,,null,,,,,,,,,,,,,,,,,,,,,,,,,,,
null,,learn_phase(without_color),766270,,black_plus_sign,,,,null,GW/shreveport.png,GW/newhope.png,,,,,,,,,,,,,,,,,,,,,,,,,
null,,black_cross(without_color),767025,,blue,,,,null,GW/shreveport.png,GW/newhope.png,,,,,,,,,,,,,,,,,,,,,,,,,
336.8999999994412,,rt_plussign_withcolor,767526,,blue,,,,49,GW/shreveport.png,GW/newhope.png,,,,,,,,,,,,,,,,,,,,,,,,,
null,,rt_thecrossant_black,768775,,black_plus_sign,,,,null,,,1,0.9054054054054054,,,,,,,,,,,,,,,,,,,,,,,
null,,color_black,768877,,black_plus_sign,,,,null,,,,,,,,,,,,,,,,,,,,,,,,,,,
null,,learn_phase(without_color),771879,,black_plus_sign,,,,null,GW/hanover.png,GW/newhope.png,,,,,,,,,,,,,,,,,,,,,,,,,
null,,black_cross(without_color),772762,,blue,,,,null,GW/hanover.png,GW/newhope.png,,,,,,,,,,,,,,,,,,,,,,,,,
null,,rt_plussign_withcolor,773264,,blue,,,,null,GW/hanover.png,GW/newhope.png,,,,,,,,,,,,,,,,,,,,,,,,,
966.7999999998137,,rt_thecrossant_black,774385,,black_plus_sign,,,,49,,,1,0.9066666666666666,,,,,,,,,,,,,,,,,,,,,,,
null,,color_black,774487,,black_plus_sign,,,,null,,,,,,,,,,,,,,,,,,,,,,,,,,,
null,,learn_phase(without_color),777490,,black_plus_sign,,,,null,GW/newhope.png,GW/westpalmbeach.png,,,,,,,,,,,,,,,,,,,,,,,,,
null,,black_cross(without_color),777929,,blue,,,,null,GW/newhope.png,GW/westpalmbeach.png,,,,,,,,,,,,,,,,,,,,,,,,,
null,,rt_plussign_withcolor,778430,,blue,,,,null,GW/newhope.png,GW/westpalmbeach.png,,,,,,,,,,,,,,,,,,,,,,,,,
1040.2000000001863,,rt_thecrossant_black,780003,,black_plus_sign,,,,49,,,1,0.9078947368421053,,,,,,,,,,,,,,,,,,,,,,,
null,,color_black,780104,,black_plus_sign,,,,null,,,,,,,,,,,,,,,,,,,,,,,,,,,
null,,learn_phase(without_color),783107,,black_plus_sign,,,,null,GW/shreveport.png,GW/cornwall.png,,,,,,,,,,,,,,,,,,,,,,,,,
null,,black_cross(without_color),783789,,blue,,,,null,GW/shreveport.png,GW/cornwall.png,,,,,,,,,,,,,,,,,,,,,,,,,
472,,rt_plussign_withcolor,784290,,blue,,,,50,GW/shreveport.png,GW/cornwall.png,,,,,,,,,,,,,,,,,,,,,,,,,
null,,rt_thecrossant_black,785612,,black_plus_sign,,,,null,,,0,0.8961038961038961,,,,,,,,,,,,,,,,,,,,,,,
null,,color_black,785714,,black_plus_sign,,,,null,,,,,,,,,,,,,,,,,,,,,,,,,,,
null,,learn_phase(without_color),788717,,black_plus_sign,,,,null,GW/cornwall.png,GW/shreveport.png,,,,,,,,,,,,,,,,,,,,,,,,,
null,,black_cross(without_color),789523,,yellow,,,,null,GW/cornwall.png,GW/shreveport.png,,,,,,,,,,,,,,,,,,,,,,,,,
320.1000000005588,,rt_plussign_withcolor,790024,,yellow,,,,50,GW/cornwall.png,GW/shreveport.png,,,,,,,,,,,,,,,,,,,,,,,,,
null,,rt_thecrossant_black,791222,,black_plus_sign,,,,null,,,1,0.8974358974358975,,,,,,,,,,,,,,,,,,,,,,,
null,,color_black,791324,,black_plus_sign,,,,null,,,,,,,,,,,,,,,,,,,,,,,,,,,
null,,learn_phase(without_color),794326,,black_plus_sign,,,,null,GW/cornwall.png,GW/hotsprings.png,,,,,,,,,,,,,,,,,,,,,,,,,
null,,black_cross(without_color),795212,,yellow,,,,null,GW/cornwall.png,GW/hotsprings.png,,,,,,,,,,,,,,,,,,,,,,,,,
263.29999999981374,,rt_plussign_withcolor,795714,,yellow,,,,49,GW/cornwall.png,GW/hotsprings.png,,,,,,,,,,,,,,,,,,,,,,,,,
null,,rt_thecrossant_black,796833,,black_plus_sign,,,,null,,,0,0.8860759493670886,,,,,,,,,,,,,,,,,,,,,,,
null,,color_black,796935,,black_plus_sign,,,,null,,,,,,,,,,,,,,,,,,,,,,,,,,,
null,,learn_phase(without_color),799937,,black_plus_sign,,,,null,GW/boulder.png,GW/peoria.png,,,,,,,,,,,,,,,,,,,,,,,,,
null,,black_cross(without_color),800826,,blue,,,,null,GW/boulder.png,GW/peoria.png,,,,,,,,,,,,,,,,,,,,,,,,,
333.79999999981374,,rt_plussign_withcolor,801328,,blue,,,,49,GW/boulder.png,GW/peoria.png,,,,,,,,,,,,,,,,,,,,,,,,,
null,,rt_thecrossant_black,802444,,black_plus_sign,,,,null,,,1,0.8875,,,,,,,,,,,,,,,,,,,,,,,
null,,color_black,802547,,black_plus_sign,,,,null,,,,,,,,,,,,,,,,,,,,,,,,,,,
null,,learn_phase(without_color),805549,,black_plus_sign,,,,null,GW/shreveport.png,GW/cornwall.png,,,,,,,,,,,,,,,,,,,,,,,,,
null,,black_cross(without_color),806316,,yellow,,,,null,GW/shreveport.png,GW/cornwall.png,,,,,,,,,,,,,,,,,,,,,,,,,
355.6000000005588,,rt_plussign_withcolor,806817,,yellow,,,,50,GW/shreveport.png,GW/cornwall.png,,,,,,,,,,,,,,,,,,,,,,,,,
null,,rt_thecrossant_black,808054,,black_plus_sign,,,,null,,,1,0.8888888888888888,,,,,,,,,,,,,,,,,,,,,,,
null,,color_black,808156,,black_plus_sign,,,,null,,,,,,,,,,,,,,,,,,,,,,,,,,,
null,,learn_phase(without_color),811158,,black_plus_sign,,,,null,GW/cornwall.png,GW/shreveport.png,,,,,,,,,,,,,,,,,,,,,,,,,
null,,black_cross(without_color),811615,,yellow,,,,null,GW/cornwall.png,GW/shreveport.png,,,,,,,,,,,,,,,,,,,,,,,,,
419.59999999962747,,rt_plussign_withcolor,812117,,yellow,,,,50,GW/cornwall.png,GW/shreveport.png,,,,,,,,,,,,,,,,,,,,,,,,,
null,,rt_thecrossant_black,813663,,black_plus_sign,,,,null,,,1,0.8902439024390244,,,,,,,,,,,,,,,,,,,,,,,
null,,color_black,813766,,black_plus_sign,,,,null,,,,,,,,,,,,,,,,,,,,,,,,,,,
null,,learn_phase(without_color),816768,,black_plus_sign,,,,null,GW/shreveport.png,GW/huntsville.png,,,,,,,,,,,,,,,,,,,,,,,,,
null,,black_cross(without_color),817819,,yellow,,,,null,GW/shreveport.png,GW/huntsville.png,,,,,,,,,,,,,,,,,,,,,,,,,
320,,rt_plussign_withcolor,818321,,yellow,,,,49,GW/shreveport.png,GW/huntsville.png,,,,,,,,,,,,,,,,,,,,,,,,,
null,,rt_thecrossant_black,819275,,black_plus_sign,,,,null,,,0,0.8795180722891566,,,,,,,,,,,,,,,,,,,,,,,
null,,color_black,819377,,black_plus_sign,,,,null,,,,,,,,,,,,,,,,,,,,,,,,,,,
null,,learn_phase(without_color),822380,,black_plus_sign,,,,null,GW/boulder.png,GW/gatlinburg.png,,,,,,,,,,,,,,,,,,,,,,,,,
null,,black_cross(without_color),822961,,yellow,,,,null,GW/boulder.png,GW/gatlinburg.png,,,,,,,,,,,,,,,,,,,,,,,,,
471.20000000018626,,rt_plussign_withcolor,823462,,yellow,,,,50,GW/boulder.png,GW/gatlinburg.png,,,,,,,,,,,,,,,,,,,,,,,,,
null,,rt_thecrossant_black,824886,,black_plus_sign,,,,null,,,1,0.8809523809523809,,,,,,,,,,,,,,,,,,,,,,,
null,,color_black,824989,,black_plus_sign,,,,null,,,,,,,,,,,,,,,,,,,,,,,,,,,
null,,learn_phase(without_color),827990,,black_plus_sign,,,,null,GW/gatlinburg.png,GW/cornwall.png,,,,,,,,,,,,,,,,,,,,,,,,,
null,,black_cross(without_color),828967,,yellow,,,,null,GW/gatlinburg.png,GW/cornwall.png,,,,,,,,,,,,,,,,,,,,,,,,,
380.6000000005588,,rt_plussign_withcolor,829469,,yellow,,,,50,GW/gatlinburg.png,GW/cornwall.png,,,,,,,,,,,,,,,,,,,,,,,,,
null,,rt_thecrossant_black,830495,,black_plus_sign,,,,null,,,1,0.8823529411764706,,,,,,,,,,,,,,,,,,,,,,,
null,,color_black,830596,,black_plus_sign,,,,null,,,,,,,,,,,,,,,,,,,,,,,,,,,
null,,learn_phase(without_color),833599,,black_plus_sign,,,,null,GW/leesburg.png,GW/carmel.png,,,,,,,,,,,,,,,,,,,,,,,,,
null,,black_cross(without_color),834611,,blue,,,,null,GW/leesburg.png,GW/carmel.png,,,,,,,,,,,,,,,,,,,,,,,,,
327.3999999994412,,rt_plussign_withcolor,835112,,blue,,,,49,GW/leesburg.png,GW/carmel.png,,,,,,,,,,,,,,,,,,,,,,,,,
null,,rt_thecrossant_black,836105,,black_plus_sign,,,,null,,,1,0.8837209302325582,,,,,,,,,,,,,,,,,,,,,,,
null,,color_black,836206,,black_plus_sign,,,,null,,,,,,,,,,,,,,,,,,,,,,,,,,,
null,,learn_phase(without_color),839209,,black_plus_sign,,,,null,GW/cornwall.png,GW/hotsprings.png,,,,,,,,,,,,,,,,,,,,,,,,,
null,,black_cross(without_color),840056,,yellow,,,,null,GW/cornwall.png,GW/hotsprings.png,,,,,,,,,,,,,,,,,,,,,,,,,
454,,rt_plussign_withcolor,840558,,yellow,,,,50,GW/cornwall.png,GW/hotsprings.png,,,,,,,,,,,,,,,,,,,,,,,,,
null,,rt_thecrossant_black,841716,,black_plus_sign,,,,null,,,1,0.8850574712643678,,,,,,,,,,,,,,,,,,,,,,,
null,,color_black,841818,,black_plus_sign,,,,null,,,,,,,,,,,,,,,,,,,,,,,,,,,
null,,learn_phase(without_color),844819,,black_plus_sign,,,,null,GW/carmel.png,GW/leesburg.png,,,,,,,,,,,,,,,,,,,,,,,,,
null,,black_cross(without_color),845609,,blue,,,,null,GW/carmel.png,GW/leesburg.png,,,,,,,,,,,,,,,,,,,,,,,,,
433.40000000037253,,rt_plussign_withcolor,846111,,blue,,,,49,GW/carmel.png,GW/leesburg.png,,,,,,,,,,,,,,,,,,,,,,,,,
null,,rt_thecrossant_black,847326,,black_plus_sign,,,,null,,,1,0.8863636363636364,,,,,,,,,,,,,,,,,,,,,,,
null,,color_black,847428,,black_plus_sign,,,,null,,,,,,,,,,,,,,,,,,,,,,,,,,,
null,,learn_phase(without_color),850431,,black_plus_sign,,,,null,GW/peoria.png,GW/boulder.png,,,,,,,,,,,,,,,,,,,,,,,,,
null,,black_cross(without_color),851104,,blue,,,,null,GW/peoria.png,GW/boulder.png,,,,,,,,,,,,,,,,,,,,,,,,,
409,,rt_plussign_withcolor,851607,,blue,,,,49,GW/peoria.png,GW/boulder.png,,,,,,,,,,,,,,,,,,,,,,,,,
null,,rt_thecrossant_black,852938,,black_plus_sign,,,,null,,,1,0.8876404494382022,,,,,,,,,,,,,,,,,,,,,,,
null,,color_black,853041,,black_plus_sign,,,,null,,,,,,,,,,,,,,,,,,,,,,,,,,,
null,,learn_phase(without_color),856044,,black_plus_sign,,,,null,GW/gatlinburg.png,GW/huntsville.png,,,,,,,,,,,,,,,,,,,,,,,,,
null,,black_cross(without_color),857021,,yellow,,,,null,GW/gatlinburg.png,GW/huntsville.png,,,,,,,,,,,,,,,,,,,,,,,,,
403.5,,rt_plussign_withcolor,857522,,yellow,,,,50,GW/gatlinburg.png,GW/huntsville.png,,,,,,,,,,,,,,,,,,,,,,,,,
null,,rt_thecrossant_black,858549,,black_plus_sign,,,,null,,,1,0.8888888888888888,,,,,,,,,,,,,,,,,,,,,,,
null,,color_black,858651,,black_plus_sign,,,,null,,,,,,,,,,,,,,,,,,,,,,,,,,,
null,,learn_phase(without_color),861653,,black_plus_sign,,,,null,GW/newhope.png,GW/shreveport.png,,,,,,,,,,,,,,,,,,,,,,,,,
null,,black_cross(without_color),862148,,blue,,,,null,GW/newhope.png,GW/shreveport.png,,,,,,,,,,,,,,,,,,,,,,,,,
334,,rt_plussign_withcolor,862649,,blue,,,,49,GW/newhope.png,GW/shreveport.png,,,,,,,,,,,,,,,,,,,,,,,,,
null,,rt_thecrossant_black,864157,,black_plus_sign,,,,null,,,1,0.8901098901098901,,,,,,,,,,,,,,,,,,,,,,,
null,,color_black,864260,,black_plus_sign,,,,null,,,,,,,,,,,,,,,,,,,,,,,,,,,
null,,learn_phase(without_color),867263,,black_plus_sign,,,,null,GW/shreveport.png,GW/huntsville.png,,,,,,,,,,,,,,,,,,,,,,,,,
null,,black_cross(without_color),868127,,yellow,,,,null,GW/shreveport.png,GW/huntsville.png,,,,,,,,,,,,,,,,,,,,,,,,,
509.29999999981374,,rt_plussign_withcolor,868638,,yellow,,,,49,GW/shreveport.png,GW/huntsville.png,,,,,,,,,,,,,,,,,,,,,,,,,
null,,rt_thecrossant_black,869777,,black_plus_sign,,,,null,,,0,0.8804347826086957,,,,,,,,,,,,,,,,,,,,,,,
null,,color_black,869879,,black_plus_sign,,,,null,,,,,,,,,,,,,,,,,,,,,,,,,,,
null,,learn_phase(without_color),872881,,black_plus_sign,,,,null,GW/cornwall.png,GW/gatlinburg.png,,,,,,,,,,,,,,,,,,,,,,,,,
null,,black_cross(without_color),873605,,blue,,,,null,GW/cornwall.png,GW/gatlinburg.png,,,,,,,,,,,,,,,,,,,,,,,,,
348.5,,rt_plussign_withcolor,874106,,blue,,,,49,GW/cornwall.png,GW/gatlinburg.png,,,,,,,,,,,,,,,,,,,,,,,,,
null,,rt_thecrossant_black,875386,,black_plus_sign,,,,null,,,1,0.8817204301075269,,,,,,,,,,,,,,,,,,,,,,,
null,,color_black,875488,,black_plus_sign,,,,null,,,,,,,,,,,,,,,,,,,,,,,,,,,
null,,learn_phase(without_color),878490,,black_plus_sign,,,,null,GW/shreveport.png,GW/newhope.png,,,,,,,,,,,,,,,,,,,,,,,,,
null,,black_cross(without_color),879407,,yellow,,,,null,GW/shreveport.png,GW/newhope.png,,,,,,,,,,,,,,,,,,,,,,,,,
392.3999999994412,,rt_plussign_withcolor,879908,,yellow,,,,50,GW/shreveport.png,GW/newhope.png,,,,,,,,,,,,,,,,,,,,,,,,,
null,,rt_thecrossant_black,880996,,black_plus_sign,,,,null,,,1,0.8829787234042553,,,,,,,,,,,,,,,,,,,,,,,
null,,color_black,881097,,black_plus_sign,,,,null,,,,,,,,,,,,,,,,,,,,,,,,,,,
null,,learn_phase(without_color),884099,,black_plus_sign,,,,null,GW/huntsville.png,GW/westpalmbeach.png,,,,,,,,,,,,,,,,,,,,,,,,,
null,,black_cross(without_color),884689,,yellow,,,,null,GW/huntsville.png,GW/westpalmbeach.png,,,,,,,,,,,,,,,,,,,,,,,,,
421.8999999994412,,rt_plussign_withcolor,885192,,yellow,,,,50,GW/huntsville.png,GW/westpalmbeach.png,,,,,,,,,,,,,,,,,,,,,,,,,
null,,rt_thecrossant_black,886605,,black_plus_sign,,,,null,,,1,0.8842105263157894,,,,,,,,,,,,,,,,,,,,,,,
null,,color_black,886707,,black_plus_sign,,,,null,,,,,,,,,,,,,,,,,,,,,,,,,,,
null,,learn_phase(without_color),889709,,black_plus_sign,,,,null,GW/gatlinburg.png,GW/cornwall.png,,,,,,,,,,,,,,,,,,,,,,,,,
null,,black_cross(without_color),890332,,yellow,,,,null,GW/gatlinburg.png,GW/cornwall.png,,,,,,,,,,,,,,,,,,,,,,,,,
371,,rt_plussign_withcolor,890834,,yellow,,,,50,GW/gatlinburg.png,GW/cornwall.png,,,,,,,,,,,,,,,,,,,,,,,,,
null,,rt_thecrossant_black,892215,,black_plus_sign,,,,null,,,1,0.8854166666666666,,,,,,,,,,,,,,,,,,,,,,,
null,,color_black,892317,,black_plus_sign,,,,null,,,,,,,,,,,,,,,,,,,,,,,,,,,
null,,learn_phase(without_color),895319,,black_plus_sign,,,,null,GW/newhope.png,GW/shreveport.png,,,,,,,,,,,,,,,,,,,,,,,,,
null,,black_cross(without_color),895758,,yellow,,,,null,GW/newhope.png,GW/shreveport.png,,,,,,,,,,,,,,,,,,,,,,,,,
413.29999999981374,,rt_plussign_withcolor,896260,,yellow,,,,50,GW/newhope.png,GW/shreveport.png,,,,,,,,,,,,,,,,,,,,,,,,,
null,,rt_thecrossant_black,897824,,black_plus_sign,,,,null,,,1,0.8865979381443299,,,,,,,,,,,,,,,,,,,,,,,
null,,color_black,897926,,black_plus_sign,,,,null,,,,,,,,,,,,,,,,,,,,,,,,,,,
null,,learn_phase(without_color),900928,,black_plus_sign,,,,null,GW/shreveport.png,GW/westpalmbeach.png,,,,,,,,,,,,,,,,,,,,,,,,,
null,,black_cross(without_color),901486,,yellow,,,,null,GW/shreveport.png,GW/westpalmbeach.png,,,,,,,,,,,,,,,,,,,,,,,,,
373.70000000018626,,rt_plussign_withcolor,901988,,yellow,,,,50,GW/shreveport.png,GW/westpalmbeach.png,,,,,,,,,,,,,,,,,,,,,,,,,
null,,rt_thecrossant_black,903435,,black_plus_sign,,,,null,,,1,0.8877551020408163,,,,,,,,,,,,,,,,,,,,,,,
null,,color_black,903536,,black_plus_sign,,,,null,,,,,,,,,,,,,,,,,,,,,,,,,,,
null,,learn_phase(without_color),906538,,black_plus_sign,,,,null,GW/newhope.png,GW/shreveport.png,,,,,,,,,,,,,,,,,,,,,,,,,
null,,black_cross(without_color),906985,,yellow,,,,null,GW/newhope.png,GW/shreveport.png,,,,,,,,,,,,,,,,,,,,,,,,,
467.1000000005588,,rt_plussign_withcolor,907486,,yellow,,,,50,GW/newhope.png,GW/shreveport.png,,,,,,,,,,,,,,,,,,,,,,,,,
null,,rt_thecrossant_black,909044,,black_plus_sign,,,,null,,,1,0.8888888888888888,,,,,,,,,,,,,,,,,,,,,,,
null,,color_black,909146,,black_plus_sign,,,,null,,,,,,,,,,,,,,,,,,,,,,,,,,,
null,,learn_phase(without_color),912149,,black_plus_sign,,,,null,GW/boulder.png,GW/carmel.png,,,,,,,,,,,,,,,,,,,,,,,,,
null,,black_cross(without_color),912975,,yellow,,,,null,GW/boulder.png,GW/carmel.png,,,,,,,,,,,,,,,,,,,,,,,,,
382,,rt_plussign_withcolor,913476,,yellow,,,,50,GW/boulder.png,GW/carmel.png,,,,,,,,,,,,,,,,,,,,,,,,,
null,,rt_thecrossant_black,914655,,black_plus_sign,,,,null,,,1,0.89,,,,,,,,,,,,,,,,,,,,,,,
null,,color_black,914757,,black_plus_sign,,,,null,,,,,,,,,,,,,,,,,,,,,,,,,,,
null,,learn_phase(without_color),917758,,black_plus_sign,,,,null,GW/carmel.png,GW/leesburg.png,,,,,,,,,,,,,,,,,,,,,,,,,
null,,black_cross(without_color),918387,,blue,,,,null,GW/carmel.png,GW/leesburg.png,,,,,,,,,,,,,,,,,,,,,,,,,
324.70000000018626,,rt_plussign_withcolor,918888,,blue,,,,50,GW/carmel.png,GW/leesburg.png,,,,,,,,,,,,,,,,,,,,,,,,,
null,,rt_thecrossant_black,920263,,black_plus_sign,,,,null,,,0,0.8811881188118812,,,,,,,,,,,,,,,,,,,,,,,
null,,color_black,920365,,black_plus_sign,,,,null,,,,,,,,,,,,,,,,,,,,,,,,,,,
null,,learn_phase(without_color),923367,,black_plus_sign,,,,null,GW/newhope.png,GW/hanover.png,,,,,,,,,,,,,,,,,,,,,,,,,
null,,black_cross(without_color),924426,,blue,,,,null,GW/newhope.png,GW/hanover.png,,,,,,,,,,,,,,,,,,,,,,,,,
278.70000000018626,,rt_plussign_withcolor,924927,,blue,,,,49,GW/newhope.png,GW/hanover.png,,,,,,,,,,,,,,,,,,,,,,,,,
null,,rt_thecrossant_black,925874,,black_plus_sign,,,,null,,,1,0.8823529411764706,,,,,,,,,,,,,,,,,,,,,,,
null,,color_black,925975,,black_plus_sign,,,,null,,,,,,,,,,,,,,,,,,,,,,,,,,,
null,,learn_phase(without_color),928977,,black_plus_sign,,,,null,GW/carmel.png,GW/hotsprings.png,,,,,,,,,,,,,,,,,,,,,,,,,
null,,black_cross(without_color),929670,,yellow,,,,null,GW/carmel.png,GW/hotsprings.png,,,,,,,,,,,,,,,,,,,,,,,,,
347.59999999962747,,rt_plussign_withcolor,930172,,yellow,,,,50,GW/carmel.png,GW/hotsprings.png,,,,,,,,,,,,,,,,,,,,,,,,,
null,,rt_thecrossant_black,931483,,black_plus_sign,,,,null,,,1,0.883495145631068,,,,,,,,,,,,,,,,,,,,,,,
null,,color_black,931584,,black_plus_sign,,,,null,,,,,,,,,,,,,,,,,,,,,,,,,,,
null,,learn_phase(without_color),934587,,black_plus_sign,,,,null,GW/boulder.png,GW/carmel.png,,,,,,,,,,,,,,,,,,,,,,,,,
null,,black_cross(without_color),935498,,yellow,,,,null,GW/boulder.png,GW/carmel.png,,,,,,,,,,,,,,,,,,,,,,,,,
365,,rt_plussign_withcolor,936000,,yellow,,,,50,GW/boulder.png,GW/carmel.png,,,,,,,,,,,,,,,,,,,,,,,,,
null,,rt_thecrossant_black,937094,,black_plus_sign,,,,null,,,1,0.8846153846153846,,,,,,,,,,,,,,,,,,,,,,,
null,,color_black,937196,,black_plus_sign,,,,null,,,,,,,,,,,,,,,,,,,,,,,,,,,
null,,learn_phase(without_color),940198,,black_plus_sign,,,,null,GW/newhope.png,GW/hanover.png,,,,,,,,,,,,,,,,,,,,,,,,,
null,,black_cross(without_color),940783,,yellow,,,,null,GW/newhope.png,GW/hanover.png,,,,,,,,,,,,,,,,,,,,,,,,,
371.90000000037253,,rt_plussign_withcolor,941284,,yellow,,,,49,GW/newhope.png,GW/hanover.png,,,,,,,,,,,,,,,,,,,,,,,,,
null,,rt_thecrossant_black,942703,,black_plus_sign,,,,null,,,0,0.8761904761904762,,,,,,,,,,,,,,,,,,,,,,,
null,,color_black,942806,,black_plus_sign,,,,null,,,,,,,,,,,,,,,,,,,,,,,,,,,
null,,learn_phase(without_color),945808,,black_plus_sign,,,,null,GW/huntsville.png,GW/westpalmbeach.png,,,,,,,,,,,,,,,,,,,,,,,,,
null,,black_cross(without_color),946607,,yellow,,,,null,GW/huntsville.png,GW/westpalmbeach.png,,,,,,,,,,,,,,,,,,,,,,,,,
438.20000000018626,,rt_plussign_withcolor,947109,,yellow,,,,50,GW/huntsville.png,GW/westpalmbeach.png,,,,,,,,,,,,,,,,,,,,,,,,,
null,,rt_thecrossant_black,948315,,black_plus_sign,,,,null,,,1,0.8773584905660378,,,,,,,,,,,,,,,,,,,,,,,
null,,color_black,948418,,black_plus_sign,,,,null,,,,,,,,,,,,,,,,,,,,,,,,,,,
null,,learn_phase(without_color),951420,,black_plus_sign,,,,null,GW/newhope.png,GW/hanover.png,,,,,,,,,,,,,,,,,,,,,,,,,
null,,black_cross(without_color),952446,,blue,,,,null,GW/newhope.png,GW/hanover.png,,,,,,,,,,,,,,,,,,,,,,,,,
390.40000000037253,,rt_plussign_withcolor,952949,,blue,,,,49,GW/newhope.png,GW/hanover.png,,,,,,,,,,,,,,,,,,,,,,,,,
null,,rt_thecrossant_black,953926,,black_plus_sign,,,,null,,,1,0.8785046728971962,,,,,,,,,,,,,,,,,,,,,,,
null,,color_black,954027,,black_plus_sign,,,,null,,,,,,,,,,,,,,,,,,,,,,,,,,,
null,,learn_phase(without_color),957030,,black_plus_sign,,,,null,GW/huntsville.png,GW/westpalmbeach.png,,,,,,,,,,,,,,,,,,,,,,,,,
null,,black_cross(without_color),957738,,yellow,,,,null,GW/huntsville.png,GW/westpalmbeach.png,,,,,,,,,,,,,,,,,,,,,,,,,
380.70000000018626,,rt_plussign_withcolor,958239,,yellow,,,,50,GW/huntsville.png,GW/westpalmbeach.png,,,,,,,,,,,,,,,,,,,,,,,,,
null,,rt_thecrossant_black,959534,,black_plus_sign,,,,null,,,1,0.8796296296296297,,,,,,,,,,,,,,,,,,,,,,,
null,,color_black,959636,,black_plus_sign,,,,null,,,,,,,,,,,,,,,,,,,,,,,,,,,
null,,learn_phase(without_color),962638,,black_plus_sign,,,,null,GW/newhope.png,GW/hanover.png,,,,,,,,,,,,,,,,,,,,,,,,,
null,,black_cross(without_color),963594,,blue,,,,null,GW/newhope.png,GW/hanover.png,,,,,,,,,,,,,,,,,,,,,,,,,
464.3999999994412,,rt_plussign_withcolor,964096,,blue,,,,50,GW/newhope.png,GW/hanover.png,,,,,,,,,,,,,,,,,,,,,,,,,
null,,rt_thecrossant_black,965143,,black_plus_sign,,,,49,,,0,0.8715596330275229,,,,,,,,,,,,,,,,,,,,,,,
null,,color_black,965245,,black_plus_sign,,,,null,,,,,,,,,,,,,,,,,,,,,,,,,,,
null,,learn_phase(without_color),968246,,black_plus_sign,,,,null,GW/westpalmbeach.png,GW/newhope.png,,,,,,,,,,,,,,,,,,,,,,,,,
null,,black_cross(without_color),969127,,yellow,,,,null,GW/westpalmbeach.png,GW/newhope.png,,,,,,,,,,,,,,,,,,,,,,,,,
474,,rt_plussign_withcolor,969628,,yellow,,,,50,GW/westpalmbeach.png,GW/newhope.png,,,,,,,,,,,,,,,,,,,,,,,,,
null,,rt_thecrossant_black,970751,,black_plus_sign,,,,null,,,1,0.8727272727272727,,,,,,,,,,,,,,,,,,,,,,,
null,,color_black,970852,,black_plus_sign,,,,null,,,,,,,,,,,,,,,,,,,,,,,,,,,
null,,learn_phase(without_color),973854,,black_plus_sign,,,,null,GW/shreveport.png,GW/huntsville.png,,,,,,,,,,,,,,,,,,,,,,,,,
null,,black_cross(without_color),974662,,yellow,,,,null,GW/shreveport.png,GW/huntsville.png,,,,,,,,,,,,,,,,,,,,,,,,,
434.1000000005588,,rt_plussign_withcolor,975163,,yellow,,,,50,GW/shreveport.png,GW/huntsville.png,,,,,,,,,,,,,,,,,,,,,,,,,
null,,rt_thecrossant_black,976358,,black_plus_sign,,,,null,,,1,0.8738738738738738,,,,,,,,,,,,,,,,,,,,,,,
null,,color_black,976460,,black_plus_sign,,,,null,,,,,,,,,,,,,,,,,,,,,,,,,,,
null,,learn_phase(without_color),979462,,black_plus_sign,,,,null,GW/racine.png,GW/westpalmbeach.png,,,,,,,,,,,,,,,,,,,,,,,,,
null,,black_cross(without_color),980220,,yellow,,,,null,GW/racine.png,GW/westpalmbeach.png,,,,,,,,,,,,,,,,,,,,,,,,,
368.6000000005588,,rt_plussign_withcolor,980722,,yellow,,,,50,GW/racine.png,GW/westpalmbeach.png,,,,,,,,,,,,,,,,,,,,,,,,,
null,,rt_thecrossant_black,981968,,black_plus_sign,,,,null,,,1,0.875,,,,,,,,,,,,,,,,,,,,,,,
null,,color_black,982070,,black_plus_sign,,,,null,,,,,,,,,,,,,,,,,,,,,,,,,,,
null,,learn_phase(without_color),985073,,black_plus_sign,,,,null,GW/westpalmbeach.png,GW/shreveport.png,,,,,,,,,,,,,,,,,,,,,,,,,
null,,black_cross(without_color),985835,,yellow,,,,null,GW/westpalmbeach.png,GW/shreveport.png,,,,,,,,,,,,,,,,,,,,,,,,,
364.70000000018626,,rt_plussign_withcolor,986336,,yellow,,,,50,GW/westpalmbeach.png,GW/shreveport.png,,,,,,,,,,,,,,,,,,,,,,,,,
null,,rt_thecrossant_black,987578,,black_plus_sign,,,,null,,,1,0.8761061946902655,,,,,,,,,,,,,,,,,,,,,,,
null,,color_black,987679,,black_plus_sign,,,,null,,,,,,,,,,,,,,,,,,,,,,,,,,,
null,,learn_phase(without_color),990682,,black_plus_sign,,,,null,GW/racine.png,GW/westpalmbeach.png,,,,,,,,,,,,,,,,,,,,,,,,,
null,,black_cross(without_color),991343,,yellow,,,,null,GW/racine.png,GW/westpalmbeach.png,,,,,,,,,,,,,,,,,,,,,,,,,
273.70000000018626,,rt_plussign_withcolor,991848,,yellow,,,,49,GW/racine.png,GW/westpalmbeach.png,,,,,,,,,,,,,,,,,,,,,,,,,
null,,rt_thecrossant_black,993192,,black_plus_sign,,,,null,,,0,0.868421052631579,,,,,,,,,,,,,,,,,,,,,,,
null,,color_black,993293,,black_plus_sign,,,,null,,,,,,,,,,,,,,,,,,,,,,,,,,,
null,,learn_phase(without_color),996295,,black_plus_sign,,,,null,GW/cornwall.png,GW/shreveport.png,,,,,,,,,,,,,,,,,,,,,,,,,
null,,black_cross(without_color),996800,,blue,,,,null,GW/cornwall.png,GW/shreveport.png,,,,,,,,,,,,,,,,,,,,,,,,,
432.29999999981374,,rt_plussign_withcolor,997302,,blue,,,,49,GW/cornwall.png,GW/shreveport.png,,,,,,,,,,,,,,,,,,,,,,,,,
null,,rt_thecrossant_black,998801,,black_plus_sign,,,,null,,,1,0.8695652173913043,,,,,,,,,,,,,,,,,,,,,,,
null,,color_black,998903,,black_plus_sign,,,,null,,,,,,,,,,,,,,,,,,,,,,,,,,,
null,,learn_phase(without_color),1001905,,black_plus_sign,,,,null,GW/newhope.png,GW/westpalmbeach.png,,,,,,,,,,,,,,,,,,,,,,,,,
null,,black_cross(without_color),1002785,,yellow,,,,null,GW/newhope.png,GW/westpalmbeach.png,,,,,,,,,,,,,,,,,,,,,,,,,
438.09999999962747,,rt_plussign_withcolor,1003287,,yellow,,,,50,GW/newhope.png,GW/westpalmbeach.png,,,,,,,,,,,,,,,,,,,,,,,,,
null,,rt_thecrossant_black,1004410,,black_plus_sign,,,,null,,,1,0.8706896551724138,,,,,,,,,,,,,,,,,,,,,,,
null,,color_black,1004513,,black_plus_sign,,,,null,,,,,,,,,,,,,,,,,,,,,,,,,,,
null,,learn_phase(without_color),1007515,,black_plus_sign,,,,null,GW/hanover.png,GW/newhope.png,,,,,,,,,,,,,,,,,,,,,,,,,
null,,black_cross(without_color),1008513,,blue,,,,null,GW/hanover.png,GW/newhope.png,,,,,,,,,,,,,,,,,,,,,,,,,
null,,rt_plussign_withcolor,1009015,,blue,,,,null,GW/hanover.png,GW/newhope.png,,,,,,,,,,,,,,,,,,,,,,,,,
991.6000000005588,,rt_thecrossant_black,1010021,,black_plus_sign,,,,49,,,1,0.8717948717948718,,,,,,,,,,,,,,,,,,,,,,,
null,,color_black,1010124,,black_plus_sign,,,,null,,,,,,,,,,,,,,,,,,,,,,,,,,,
null,,learn_phase(without_color),1013127,,black_plus_sign,,,,null,GW/peoria.png,GW/boulder.png,,,,,,,,,,,,,,,,,,,,,,,,,
null,,black_cross(without_color),1014146,,yellow,,,,null,GW/peoria.png,GW/boulder.png,,,,,,,,,,,,,,,,,,,,,,,,,
313.79999999981374,,rt_plussign_withcolor,1014648,,yellow,,,,50,GW/peoria.png,GW/boulder.png,,,,,,,,,,,,,,,,,,,,,,,,,
null,,rt_thecrossant_black,1015633,,black_plus_sign,,,,null,,,1,0.8728813559322034,,,,,,,,,,,,,,,,,,,,,,,
null,,color_black,1015734,,black_plus_sign,,,,null,,,,,,,,,,,,,,,,,,,,,,,,,,,
null,,learn_phase(without_color),1018737,,black_plus_sign,,,,null,GW/westpalmbeach.png,GW/shreveport.png,,,,,,,,,,,,,,,,,,,,,,,,,
null,,black_cross(without_color),1019528,,blue,,,,null,GW/westpalmbeach.png,GW/shreveport.png,,,,,,,,,,,,,,,,,,,,,,,,,
397.5,,rt_plussign_withcolor,1020030,,blue,,,,49,GW/westpalmbeach.png,GW/shreveport.png,,,,,,,,,,,,,,,,,,,,,,,,,
null,,rt_thecrossant_black,1021244,,black_plus_sign,,,,null,,,1,0.8739495798319328,,,,,,,,,,,,,,,,,,,,,,,
null,,color_black,1021345,,black_plus_sign,,,,null,,,,,,,,,,,,,,,,,,,,,,,,,,,
null,,learn_phase(without_color),1024347,,black_plus_sign,,,,null,GW/boulder.png,GW/peoria.png,,,,,,,,,,,,,,,,,,,,,,,,,
null,,black_cross(without_color),1025136,,blue,,,,null,GW/boulder.png,GW/peoria.png,,,,,,,,,,,,,,,,,,,,,,,,,
401.90000000037253,,rt_plussign_withcolor,1025639,,blue,,,,49,GW/boulder.png,GW/peoria.png,,,,,,,,,,,,,,,,,,,,,,,,,
null,,rt_thecrossant_black,1026853,,black_plus_sign,,,,null,,,1,0.875,,,,,,,,,,,,,,,,,,,,,,,
null,,color_black,1026954,,black_plus_sign,,,,null,,,,,,,,,,,,,,,,,,,,,,,,,,,
null,,learn_phase(without_color),1029956,,black_plus_sign,,,,null,GW/huntsville.png,GW/gatlinburg.png,,,,,,,,,,,,,,,,,,,,,,,,,
null,,black_cross(without_color),1030912,,blue,,,,null,GW/huntsville.png,GW/gatlinburg.png,,,,,,,,,,,,,,,,,,,,,,,,,
371.19999999925494,,rt_plussign_withcolor,1031414,,blue,,,,49,GW/huntsville.png,GW/gatlinburg.png,,,,,,,,,,,,,,,,,,,,,,,,,
null,,rt_thecrossant_black,1032463,,black_plus_sign,,,,null,,,1,0.8760330578512396,,,,,,,,,,,,,,,,,,,,,,,
null,,color_black,1032564,,black_plus_sign,,,,null,,,,,,,,,,,,,,,,,,,,,,,,,,,
null,,learn_phase(without_color),1035566,,black_plus_sign,,,,null,GW/cornwall.png,GW/hotsprings.png,,,,,,,,,,,,,,,,,,,,,,,,,
null,,black_cross(without_color),1036044,,yellow,,,,null,GW/cornwall.png,GW/hotsprings.png,,,,,,,,,,,,,,,,,,,,,,,,,
431.30000000074506,,rt_plussign_withcolor,1036546,,yellow,,,,50,GW/cornwall.png,GW/hotsprings.png,,,,,,,,,,,,,,,,,,,,,,,,,
null,,rt_thecrossant_black,1038074,,black_plus_sign,,,,null,,,1,0.8770491803278688,,,,,,,,,,,,,,,,,,,,,,,
null,,color_black,1038175,,black_plus_sign,,,,null,,,,,,,,,,,,,,,,,,,,,,,,,,,
null,,learn_phase(without_color),1041177,,black_plus_sign,,,,null,GW/huntsville.png,GW/gatlinburg.png,,,,,,,,,,,,,,,,,,,,,,,,,
null,,black_cross(without_color),1041700,,yellow,,,,null,GW/huntsville.png,GW/gatlinburg.png,,,,,,,,,,,,,,,,,,,,,,,,,
null,,rt_plussign_withcolor,1042202,,yellow,,,,null,GW/huntsville.png,GW/gatlinburg.png,,,,,,,,,,,,,,,,,,,,,,,,,
624.0999999996275,,rt_thecrossant_black,1043682,,black_plus_sign,,,,50,,,1,0.8780487804878049,,,,,,,,,,,,,,,,,,,,,,,
null,,color_black,1043784,,black_plus_sign,,,,null,,,,,,,,,,,,,,,,,,,,,,,,,,,
null,,learn_phase(without_color),1046786,,black_plus_sign,,,,null,GW/westpalmbeach.png,GW/newhope.png,,,,,,,,,,,,,,,,,,,,,,,,,
null,,black_cross(without_color),1047314,,yellow,,,,null,GW/westpalmbeach.png,GW/newhope.png,,,,,,,,,,,,,,,,,,,,,,,,,
439.2999999988824,,rt_plussign_withcolor,1047815,,yellow,,,,50,GW/westpalmbeach.png,GW/newhope.png,,,,,,,,,,,,,,,,,,,,,,,,,
null,,rt_thecrossant_black,1049293,,black_plus_sign,,,,null,,,1,0.8790322580645161,,,,,,,,,,,,,,,,,,,,,,,
null,,color_black,1049395,,black_plus_sign,,,,null,,,,,,,,,,,,,,,,,,,,,,,,,,,
null,,learn_phase(without_color),1052397,,black_plus_sign,,,,null,GW/shreveport.png,GW/huntsville.png,,,,,,,,,,,,,,,,,,,,,,,,,
null,,black_cross(without_color),1053160,,blue,,,,null,GW/shreveport.png,GW/huntsville.png,,,,,,,,,,,,,,,,,,,,,,,,,
299.19999999925494,,rt_plussign_withcolor,1053662,,blue,,,,49,GW/shreveport.png,GW/huntsville.png,,,,,,,,,,,,,,,,,,,,,,,,,
null,,rt_thecrossant_black,1054903,,black_plus_sign,,,,null,,,1,0.88,,,,,,,,,,,,,,,,,,,,,,,
null,,color_black,1055005,,black_plus_sign,,,,null,,,,,,,,,,,,,,,,,,,,,,,,,,,
null,,learn_phase(without_color),1058007,,black_plus_sign,,,,null,GW/leesburg.png,GW/carmel.png,,,,,,,,,,,,,,,,,,,,,,,,,
null,,black_cross(without_color),1058470,,yellow,,,,null,GW/leesburg.png,GW/carmel.png,,,,,,,,,,,,,,,,,,,,,,,,,
null,,rt_plussign_withcolor,1058971,,yellow,,,,null,GW/leesburg.png,GW/carmel.png,,,,,,,,,,,,,,,,,,,,,,,,,
870.3000000007451,,rt_thecrossant_black,1060513,,black_plus_sign,,,,50,,,1,0.8809523809523809,,,,,,,,,,,,,,,,,,,,,,,
null,,color_black,1060614,,black_plus_sign,,,,null,,,,,,,,,,,,,,,,,,,,,,,,,,,
null,,learn_phase(without_color),1063617,,black_plus_sign,,,,null,GW/boulder.png,GW/carmel.png,,,,,,,,,,,,,,,,,,,,,,,,,
null,,black_cross(without_color),1064303,,yellow,,,,null,GW/boulder.png,GW/carmel.png,,,,,,,,,,,,,,,,,,,,,,,,,
404.09999999962747,,rt_plussign_withcolor,1064819,,yellow,,,,50,GW/boulder.png,GW/carmel.png,,,,,,,,,,,,,,,,,,,,,,,,,
null,,rt_thecrossant_black,1066137,,black_plus_sign,,,,null,,,1,0.8818897637795275,,,,,,,,,,,,,,,,,,,,,,,
null,,color_black,1066240,,black_plus_sign,,,,null,,,,,,,,,,,,,,,,,,,,,,,,,,,
40495.800000000745,,learn_break,1106737,,learn_break,,,,32,,,,,,,,,,,,,,,,,,,,,,,,,,,
18710.400000000373,,intro_1,1125449,,instruct,,0,Start,,,,,,,,,,,,,,,,,,,,,,,,,,,,
2530.0999999996275,,directmemory_phase,1127980,,GW/hanover.png,,,,51,,,1,1,GW/hotsprings.png,GW/shreveport.png,GW/newhope.png,GW/newhope.png,GW/shreveport.png,GW/hotsprings.png,1,,,,,,,,,,,,,,,,
null,,html-keyboard-response,1128982,,<p></p>,,,,null,,,,,,,,,,,,,,,,,,,,,,,,,,,
1947.800000000745,,directmemory_phase,1130931,,GW/hotsprings.png,,,,51,,,1,1,GW/huntsville.png,GW/boulder.png,GW/carmel.png,GW/carmel.png,GW/boulder.png,GW/huntsville.png,1,,,,,,,,,,,,,,,,
null,,html-keyboard-response,1131934,,<p></p>,,,,null,,,,,,,,,,,,,,,,,,,,,,,,,,,
1143.2000000011176,,directmemory_phase,1133079,,GW/peoria.png,,,,51,,,1,1,GW/huntsville.png,GW/gatlinburg.png,GW/boulder.png,GW/boulder.png,GW/gatlinburg.png,GW/huntsville.png,1,,,,,,,,,,,,,,,,
null,,html-keyboard-response,1134081,,<p></p>,,,,null,,,,,,,,,,,,,,,,,,,,,,,,,,,
1363.7000000011176,,directmemory_phase,1135446,,GW/carmel.png,,,,51,,,1,1,GW/newhope.png,GW/peoria.png,GW/leesburg.png,GW/leesburg.png,GW/peoria.png,GW/newhope.png,1,,,,,,,,,,,,,,,,
null,,html-keyboard-response,1136447,,<p></p>,,,,null,,,,,,,,,,,,,,,,,,,,,,,,,,,
1843.0999999996275,,directmemory_phase,1138291,,GW/gatlinburg.png,,,,51,,,1,1,GW/racine.png,GW/hotsprings.png,GW/boulder.png,GW/boulder.png,GW/hotsprings.png,GW/racine.png,1,,,,,,,,,,,,,,,,
null,,html-keyboard-response,1139293,,<p></p>,,,,null,,,,,,,,,,,,,,,,,,,,,,,,,,,
1577.699999999255,,directmemory_phase,1140872,,GW/newhope.png,,,,50,,,1,1,GW/cornwall.png,GW/hanover.png,GW/carmel.png,GW/hanover.png,GW/cornwall.png,GW/carmel.png,1,,,,,,,,,,,,,,,,
null,,html-keyboard-response,1141876,,<p></p>,,,,null,,,,,,,,,,,,,,,,,,,,,,,,,,,
1323,,directmemory_phase,1143200,,GW/carmel.png,,,,51,,,1,1,GW/huntsville.png,GW/gatlinburg.png,GW/hotsprings.png,GW/hotsprings.png,GW/gatlinburg.png,GW/huntsville.png,1,,,,,,,,,,,,,,,,
null,,html-keyboard-response,1144202,,<p></p>,,,,null,,,,,,,,,,,,,,,,,,,,,,,,,,,
2052.2000000011176,,directmemory_phase,1146255,,GW/huntsville.png,,,,50,,,1,1,GW/boulder.png,GW/westpalmbeach.png,GW/hotsprings.png,GW/westpalmbeach.png,GW/boulder.png,GW/hotsprings.png,1,,,,,,,,,,,,,,,,
null,,html-keyboard-response,1147257,,<p></p>,,,,null,,,,,,,,,,,,,,,,,,,,,,,,,,,
1203.2000000011176,,directmemory_phase,1148461,,GW/leesburg.png,,,,51,,,1,1,GW/shreveport.png,GW/hotsprings.png,GW/carmel.png,GW/carmel.png,GW/hotsprings.png,GW/shreveport.png,1,,,,,,,,,,,,,,,,
null,,html-keyboard-response,1149465,,<p></p>,,,,null,,,,,,,,,,,,,,,,,,,,,,,,,,,
1368.0999999996275,,directmemory_phase,1150834,,GW/cornwall.png,,,,50,,,1,1,GW/huntsville.png,GW/shreveport.png,GW/leesburg.png,GW/shreveport.png,GW/huntsville.png,GW/leesburg.png,1,,,,,,,,,,,,,,,,
null,,html-keyboard-response,1151844,,<p></p>,,,,null,,,,,,,,,,,,,,,,,,,,,,,,,,,
2438.5999999996275,,directmemory_phase,1154284,,GW/gatlinburg.png,,,,51,,,1,1,GW/racine.png,GW/peoria.png,GW/huntsville.png,GW/huntsville.png,GW/peoria.png,GW/racine.png,1,,,,,,,,,,,,,,,,
null,,html-keyboard-response,1155286,,<p></p>,,,,null,,,,,,,,,,,,,,,,,,,,,,,,,,,
1931.4000000003725,,directmemory_phase,1157218,,GW/boulder.png,,,,50,,,1,1,GW/hotsprings.png,GW/peoria.png,GW/racine.png,GW/peoria.png,GW/hotsprings.png,GW/racine.png,1,,,,,,,,,,,,,,,,
null,,html-keyboard-response,1158221,,<p></p>,,,,null,,,,,,,,,,,,,,,,,,,,,,,,,,,
2638,,directmemory_phase,1160860,,GW/shreveport.png,,,,50,,,1,1,GW/hanover.png,GW/newhope.png,GW/leesburg.png,GW/newhope.png,GW/hanover.png,GW/leesburg.png,1,,,,,,,,,,,,,,,,
null,,html-keyboard-response,1161861,,<p></p>,,,,null,,,,,,,,,,,,,,,,,,,,,,,,,,,
1180.199999999255,,directmemory_phase,1163042,,GW/hotsprings.png,,,,50,,,1,1,GW/shreveport.png,GW/cornwall.png,GW/newhope.png,GW/cornwall.png,GW/shreveport.png,GW/newhope.png,1,,,,,,,,,,,,,,,,
null,,html-keyboard-response,1164044,,<p></p>,,,,null,,,,,,,,,,,,,,,,,,,,,,,,,,,
2222,,directmemory_phase,1166268,,GW/shreveport.png,,,,51,,,1,1,GW/peoria.png,GW/gatlinburg.png,GW/westpalmbeach.png,GW/westpalmbeach.png,GW/gatlinburg.png,GW/peoria.png,1,,,,,,,,,,,,,,,,
null,,html-keyboard-response,1167270,,<p></p>,,,,null,,,,,,,,,,,,,,,,,,,,,,,,,,,
1611.5999999996275,,directmemory_phase,1168883,,GW/carmel.png,,,,50,,,1,1,GW/gatlinburg.png,GW/boulder.png,GW/huntsville.png,GW/boulder.png,GW/gatlinburg.png,GW/huntsville.png,1,,,,,,,,,,,,,,,,
null,,html-keyboard-response,1169884,,<p></p>,,,,null,,,,,,,,,,,,,,,,,,,,,,,,,,,
2908.7999999988824,,directmemory_phase,1172794,,GW/westpalmbeach.png,,,,49,,,1,1,GW/huntsville.png,GW/hotsprings.png,GW/gatlinburg.png,GW/huntsville.png,GW/gatlinburg.png,GW/hotsprings.png,1,,,,,,,,,,,,,,,,
null,,html-keyboard-response,1173795,,<p></p>,,,,null,,,,,,,,,,,,,,,,,,,,,,,,,,,
1309.9000000003725,,directmemory_phase,1175106,,GW/gatlinburg.png,,,,51,,,1,1,GW/leesburg.png,GW/carmel.png,GW/cornwall.png,GW/cornwall.png,GW/carmel.png,GW/leesburg.png,1,,,,,,,,,,,,,,,,
null,,html-keyboard-response,1176110,,<p></p>,,,,null,,,,,,,,,,,,,,,,,,,,,,,,,,,
2788.5999999996275,,directmemory_phase,1178899,,GW/westpalmbeach.png,,,,51,,,1,1,GW/boulder.png,GW/gatlinburg.png,GW/newhope.png,GW/newhope.png,GW/gatlinburg.png,GW/boulder.png,1,,,,,,,,,,,,,,,,
null,,html-keyboard-response,1179901,,<p></p>,,,,null,,,,,,,,,,,,,,,,,,,,,,,,,,,
4144.300000000745,,directmemory_phase,1184046,,GW/huntsville.png,,,,51,,,1,1,GW/hanover.png,GW/boulder.png,GW/shreveport.png,GW/shreveport.png,GW/boulder.png,GW/hanover.png,1,,,,,,,,,,,,,,,,
null,,html-keyboard-response,1185048,,<p></p>,,,,null,,,,,,,,,,,,,,,,,,,,,,,,,,,
3702.2000000011176,,directmemory_phase,1188751,,GW/westpalmbeach.png,,,,49,,,1,1,GW/racine.png,GW/peoria.png,GW/cornwall.png,GW/racine.png,GW/cornwall.png,GW/peoria.png,1,,,,,,,,,,,,,,,,
null,,html-keyboard-response,1189754,,<p></p>,,,,null,,,,,,,,,,,,,,,,,,,,,,,,,,,
1681.2999999988824,,directmemory_phase,1191436,,GW/shreveport.png,,,,49,,,1,1,GW/huntsville.png,GW/peoria.png,GW/hanover.png,GW/huntsville.png,GW/hanover.png,GW/peoria.png,1,,,,,,,,,,,,,,,,
null,,html-keyboard-response,1192438,,<p></p>,,,,null,,,,,,,,,,,,,,,,,,,,,,,,,,,
3647,,directmemory_phase,1196087,,GW/boulder.png,,,,50,,,1,1,GW/leesburg.png,GW/gatlinburg.png,GW/racine.png,GW/gatlinburg.png,GW/leesburg.png,GW/racine.png,1,,,,,,,,,,,,,,,,
null,,html-keyboard-response,1197088,,<p></p>,,,,null,,,,,,,,,,,,,,,,,,,,,,,,,,,
1548.300000000745,,directmemory_phase,1198637,,GW/newhope.png,,,,51,,,1,1,GW/gatlinburg.png,GW/racine.png,GW/shreveport.png,GW/shreveport.png,GW/racine.png,GW/gatlinburg.png,1,,,,,,,,,,,,,,,,
null,,html-keyboard-response,1199639,,<p></p>,,,,null,,,,,,,,,,,,,,,,,,,,,,,,,,,
2629.2000000011176,,directmemory_phase,1202270,,GW/boulder.png,,,,51,,,1,1,GW/westpalmbeach.png,GW/leesburg.png,GW/carmel.png,GW/carmel.png,GW/leesburg.png,GW/westpalmbeach.png,1,,,,,,,,,,,,,,,,
null,,html-keyboard-response,1203272,,<p></p>,,,,null,,,,,,,,,,,,,,,,,,,,,,,,,,,
3053,,directmemory_phase,1206326,,GW/westpalmbeach.png,,,,50,,,1,1,GW/gatlinburg.png,GW/shreveport.png,GW/hotsprings.png,GW/shreveport.png,GW/gatlinburg.png,GW/hotsprings.png,1,,,,,,,,,,,,,,,,
null,,html-keyboard-response,1207328,,<p></p>,,,,null,,,,,,,,,,,,,,,,,,,,,,,,,,,
1802.7999999988824,,directmemory_phase,1209132,,GW/cornwall.png,,,,49,,,1,1,GW/hotsprings.png,GW/racine.png,GW/westpalmbeach.png,GW/hotsprings.png,GW/westpalmbeach.png,GW/racine.png,1,,,,,,,,,,,,,,,,
null,,html-keyboard-response,1210134,,<p></p>,,,,null,,,,,,,,,,,,,,,,,,,,,,,,,,,
1932.5999999996275,,directmemory_phase,1212069,,GW/newhope.png,,,,49,,,0,0.9642857142857143,GW/huntsville.png,GW/westpalmbeach.png,GW/carmel.png,GW/westpalmbeach.png,GW/huntsville.png,GW/carmel.png,0.5,closer,,,,,,,,,,,,,,,
null,,html-keyboard-response,1213070,,<p></p>,,,,null,,,,,,,,,,,,,,,,,,,,,,,,,,,
3375.5999999996275,,directmemory_phase,1216447,,GW/cornwall.png,,,,51,,,1,0.9655172413793104,GW/hanover.png,GW/carmel.png,GW/gatlinburg.png,GW/gatlinburg.png,GW/carmel.png,GW/hanover.png,1,,,,,,,,,,,,,,,,
null,,html-keyboard-response,1217449,,<p></p>,,,,null,,,,,,,,,,,,,,,,,,,,,,,,,,,
1220.7000000011176,,directmemory_phase,1218671,,GW/racine.png,,,,51,,,1,0.9666666666666667,GW/gatlinburg.png,GW/newhope.png,GW/westpalmbeach.png,GW/westpalmbeach.png,GW/newhope.png,GW/gatlinburg.png,1,,,,,,,,,,,,,,,,
null,,html-keyboard-response,1219673,,<p></p>,,,,null,,,,,,,,,,,,,,,,,,,,,,,,,,,
2345,,directmemory_phase,1222019,,GW/huntsville.png,,,,51,,,1,0.967741935483871,GW/hanover.png,GW/boulder.png,GW/gatlinburg.png,GW/gatlinburg.png,GW/boulder.png,GW/hanover.png,1,,,,,,,,,,,,,,,,
null,,html-keyboard-response,1223021,,<p></p>,,,,null,,,,,,,,,,,,,,,,,,,,,,,,,,,
2205.5999999996275,,directmemory_phase,1225228,,GW/shreveport.png,,,,49,,,1,0.96875,GW/cornwall.png,GW/boulder.png,GW/hanover.png,GW/cornwall.png,GW/hanover.png,GW/boulder.png,1,,,,,,,,,,,,,,,,
null,,html-keyboard-response,1226230,,<p></p>,,,,null,,,,,,,,,,,,,,,,,,,,,,,,,,,
74844.59999999963,,intro_1,1301076,,instruct,,0,,,,,,,,,,,,,,,,,,,,,,,,,,,,,
11162.5,,intro_2,1312240,,instruct,,1,Next,,,,,,,,,,,,,,,,,,,,,,,,,,,,
4349.0999999996275,,intro_3,1316591,,instruct,,1,Next,,,,,,,,,,,,,,,,,,,,,,,,,,,,
8653.300000000745,,intro_4,1325246,,instruct,,1,Next,,,,,,,,,,,,,,,,,,,,,,,,,,,,
55997.79999999888,,intro_5,1381245,,instruct,,1,Next,,,,,,,,,,,,,,,,,,,,,,,,,,,,
21042.300000000745,,intro_6,1402289,,instruct,,1,Next,,,,,,,,,,,,,,,,,,,,,,,,,,,,
32412.699999999255,,intro_7,1434703,,instruct,,1,Next,,,,,,,,,,,,,,,,,,,,,,,,,,,,
8529,,intro_8,1443233,,instruct,,1,Next,,,,,,,,,,,,,,,,,,,,,,,,,,,,
null,,shortestpath_phase,1450735,,GW/peoria.png,,,,null,GW/newhope.png,GW/westpalmbeach.png,0,0,,,,GW/westpalmbeach.png,,,,,One Edge Diff,Four Edge Five Edge,,,,,,,,,,,,,
null,,warning_page,1453737,,warning,,,,null,,,,,,,,,,,,,,,,,,,,,,,,,,,
null,,html-keyboard-response,1454740,,<p></p>,,,,null,,,,,,,,,,,,,,,,,,,,,,,,,,,
2404.10000000149,,shortestpath_phase,1457146,,GW/hanover.png,,,,49,GW/carmel.png,GW/cornwall.png,0,0,,,,GW/cornwall.png,,,,,Two Edge Diff,Three Edge Five Edge,,,,,,,,,,,,,
null,,html-keyboard-response,1458148,,<p></p>,,,,null,,,,,,,,,,,,,,,,,,,,,,,,,,,
2807.9000000003725,,shortestpath_phase,1460958,,GW/leesburg.png,,,,49,GW/newhope.png,GW/peoria.png,0,0,,,,GW/peoria.png,,,,,Two Edge Diff,Three Edge Five Edge,,,,,,,,,,,,,
null,,html-keyboard-response,1461959,,<p></p>,,,,null,,,,,,,,,,,,,,,,,,,,,,,,,,,
3299.800000000745,,shortestpath_phase,1465260,,GW/boulder.png,,,,50,GW/hanover.png,GW/cornwall.png,1,0.25,,,,GW/cornwall.png,,,,,Three Edge Diff,Two Edge Five Edge,,,,,,,,,,,,,
null,,html-keyboard-response,1466261,,<p></p>,,,,null,,,,,,,,,,,,,,,,,,,,,,,,,,,
2275.39999999851,,shortestpath_phase,1468538,,GW/peoria.png,,,,50,GW/hanover.png,GW/westpalmbeach.png,1,0.4,,,,GW/westpalmbeach.png,,,,,Two Edge Diff,Four Edge Six Edge,,,,,,,,,,,,,
null,,html-keyboard-response,1469540,,<p></p>,,,,null,,,,,,,,,,,,,,,,,,,,,,,,,,,
2399.7000000011176,,shortestpath_phase,1471941,,GW/newhope.png,,,,50,GW/leesburg.png,GW/gatlinburg.png,1,0.5,,,,GW/gatlinburg.png,,,,,Two Edge Diff,Three Edge Five Edge,,,,,,,,,,,,,
null,,html-keyboard-response,1472943,,<p></p>,,,,null,,,,,,,,,,,,,,,,,,,,,,,,,,,
2704.5999999996275,,shortestpath_phase,1475649,,GW/peoria.png,,,,50,GW/racine.png,GW/hanover.png,0,0.42857142857142855,,,,GW/racine.png,,,,,One Edge Diff,Five Edge Six Edge,,,,,,,,,,,,,
null,,html-keyboard-response,1476651,,<p></p>,,,,null,,,,,,,,,,,,,,,,,,,,,,,,,,,
2147.2999999988824,,shortestpath_phase,1478799,,GW/shreveport.png,,,,49,GW/gatlinburg.png,GW/carmel.png,1,0.5,,,,GW/gatlinburg.png,,,,,One Edge Diff,Two Edge Three Edge,,,,,,,,,,,,,
null,,html-keyboard-response,1479801,,<p></p>,,,,null,,,,,,,,,,,,,,,,,,,,,,,,,,,
2155.5,,shortestpath_phase,1481958,,GW/peoria.png,,,,49,GW/hanover.png,GW/carmel.png,0,0.4444444444444444,,,,GW/carmel.png,,,,,Four Edge Diff,Two Edge Six Edge,,,,,,,,,,,,,
null,,html-keyboard-response,1482961,,<p></p>,,,,null,,,,,,,,,,,,,,,,,,,,,,,,,,,
2549.199999999255,,shortestpath_phase,1485512,,GW/racine.png,,,,50,GW/shreveport.png,GW/carmel.png,0,0.4,,,,GW/shreveport.png,,,,,Three Edge Diff,Two Edge Five Edge,,,,,,,,,,,,,
null,,html-keyboard-response,1486514,,<p></p>,,,,null,,,,,,,,,,,,,,,,,,,,,,,,,,,
2858.7000000011176,,shortestpath_phase,1489374,,GW/peoria.png,,,,49,GW/gatlinburg.png,GW/newhope.png,1,0.45454545454545453,,,,GW/gatlinburg.png,,,,,Three Edge Diff,Three Edge Six Edge,,,,,,,,,,,,,
null,,html-keyboard-response,1490390,,<p></p>,,,,null,,,,,,,,,,,,,,,,,,,,,,,,,,,
3124.0999999996275,,shortestpath_phase,1493515,,GW/cornwall.png,,,,49,GW/newhope.png,GW/racine.png,1,0.5,,,,GW/newhope.png,,,,,One Edge Diff,Two Edge Three Edge,,,,,,,,,,,,,
null,,html-keyboard-response,1494517,,<p></p>,,,,null,,,,,,,,,,,,,,,,,,,,,,,,,,,
2260.9000000003725,,shortestpath_phase,1496779,,GW/hotsprings.png,,,,50,GW/racine.png,GW/boulder.png,1,0.5384615384615384,,,,GW/boulder.png,,,,,Two Edge Diff,Two Edge Four Edge,,,,,,,,,,,,,
null,,html-keyboard-response,1497781,,<p></p>,,,,null,,,,,,,,,,,,,,,,,,,,,,,,,,,
2451.2999999988824,,shortestpath_phase,1500233,,GW/peoria.png,,,,49,GW/gatlinburg.png,GW/newhope.png,1,0.5714285714285714,,,,GW/gatlinburg.png,,,,,Three Edge Diff,Two Edge Five Edge,,,,,,,,,,,,,
null,,html-keyboard-response,1501235,,<p></p>,,,,null,,,,,,,,,,,,,,,,,,,,,,,,,,,
2355.800000000745,,shortestpath_phase,1503592,,GW/hanover.png,,,,49,GW/boulder.png,GW/shreveport.png,0,0.5333333333333333,,,,GW/shreveport.png,,,,,Three Edge Diff,Two Edge Five Edge,,,,,,,,,,,,,
null,,html-keyboard-response,1504594,,<p></p>,,,,null,,,,,,,,,,,,,,,,,,,,,,,,,,,
2748.5,,shortestpath_phase,1507344,,GW/gatlinburg.png,,,,50,GW/hanover.png,GW/racine.png,1,0.5625,,,,GW/racine.png,,,,,One Edge Diff,Three Edge Four Edge,,,,,,,,,,,,,
null,,html-keyboard-response,1508346,,<p></p>,,,,null,,,,,,,,,,,,,,,,,,,,,,,,,,,
2406.300000000745,,shortestpath_phase,1510753,,GW/peoria.png,,,,50,GW/racine.png,GW/leesburg.png,1,0.5882352941176471,,,,GW/leesburg.png,,,,,Two Edge Diff,Three Edge Five Edge,,,,,,,,,,,,,
null,,html-keyboard-response,1511755,,<p></p>,,,,null,,,,,,,,,,,,,,,,,,,,,,,,,,,
3117.699999999255,,shortestpath_phase,1514874,,GW/hotsprings.png,,,,50,GW/racine.png,GW/gatlinburg.png,1,0.6111111111111112,,,,GW/gatlinburg.png,,,,,Two Edge Diff,Two Edge Four Edge,,,,,,,,,,,,,
null,,html-keyboard-response,1515876,,<p></p>,,,,null,,,,,,,,,,,,,,,,,,,,,,,,,,,
2554.4000000003725,,shortestpath_phase,1518432,,GW/cornwall.png,,,,50,GW/leesburg.png,GW/huntsville.png,1,0.631578947368421,,,,GW/huntsville.png,,,,,One Edge Diff,Two Edge Three Edge,,,,,,,,,,,,,
null,,html-keyboard-response,1519434,,<p></p>,,,,null,,,,,,,,,,,,,,,,,,,,,,,,,,,
2315.9000000003725,,shortestpath_phase,1521751,,GW/racine.png,,,,49,GW/gatlinburg.png,GW/boulder.png,1,0.65,,,,GW/gatlinburg.png,,,,,One Edge Diff,Three Edge Four Edge,,,,,,,,,,,,,
null,,html-keyboard-response,1522753,,<p></p>,,,,null,,,,,,,,,,,,,,,,,,,,,,,,,,,
2057.5999999996275,,shortestpath_phase,1524811,,GW/newhope.png,,,,50,GW/cornwall.png,GW/boulder.png,0,0.6190476190476191,,,,GW/cornwall.png,,,,,Two Edge Diff,Two Edge Four Edge,,,,,,,,,,,,,
null,,html-keyboard-response,1525814,,<p></p>,,,,null,,,,,,,,,,,,,,,,,,,,,,,,,,,
2907.800000000745,,shortestpath_phase,1528723,,GW/racine.png,,,,49,GW/gatlinburg.png,GW/peoria.png,1,0.6363636363636364,,,,GW/gatlinburg.png,,,,,Two Edge Diff,Three Edge Five Edge,,,,,,,,,,,,,
null,,html-keyboard-response,1529724,,<p></p>,,,,null,,,,,,,,,,,,,,,,,,,,,,,,,,,
2839.4000000003725,,shortestpath_phase,1532565,,GW/westpalmbeach.png,,,,49,GW/cornwall.png,GW/leesburg.png,1,0.6521739130434783,,,,GW/cornwall.png,,,,,Three Edge Diff,Three Edge Six Edge,,,,,,,,,,,,,
null,,html-keyboard-response,1533567,,<p></p>,,,,null,,,,,,,,,,,,,,,,,,,,,,,,,,,
2530.2999999988824,,shortestpath_phase,1536098,,GW/hanover.png,,,,50,GW/peoria.png,GW/shreveport.png,1,0.6666666666666666,,,,GW/shreveport.png,,,,,Four Edge Diff,Two Edge Six Edge,,,,,,,,,,,,,
null,,html-keyboard-response,1537101,,<p></p>,,,,null,,,,,,,,,,,,,,,,,,,,,,,,,,,
2869.9000000003725,,shortestpath_phase,1539972,,GW/westpalmbeach.png,,,,50,GW/leesburg.png,GW/peoria.png,1,0.68,,,,GW/peoria.png,,,,,One Edge Diff,Four Edge Five Edge,,,,,,,,,,,,,
null,,html-keyboard-response,1540974,,<p></p>,,,,null,,,,,,,,,,,,,,,,,,,,,,,,,,,
3071.5,,shortestpath_phase,1544046,,GW/racine.png,,,,50,GW/carmel.png,GW/huntsville.png,1,0.6923076923076923,,,,GW/huntsville.png,,,,,Three Edge Diff,Two Edge Five Edge,,,,,,,,,,,,,
null,,html-keyboard-response,1545048,,<p></p>,,,,null,,,,,,,,,,,,,,,,,,,,,,,,,,,
2385.9000000003725,,shortestpath_phase,1547435,,GW/carmel.png,,,,49,GW/peoria.png,GW/hanover.png,1,0.7037037037037037,,,,GW/peoria.png,,,,,Three Edge Diff,Three Edge Six Edge,,,,,,,,,,,,,
null,,html-keyboard-response,1548437,,<p></p>,,,,null,,,,,,,,,,,,,,,,,,,,,,,,,,,
2057.199999999255,,shortestpath_phase,1550495,,GW/hanover.png,,,,49,GW/westpalmbeach.png,GW/carmel.png,1,0.7142857142857143,,,,GW/westpalmbeach.png,,,,,Three Edge Diff,Two Edge Five Edge,,,,,,,,,,,,,
null,,html-keyboard-response,1551499,,<p></p>,,,,null,,,,,,,,,,,,,,,,,,,,,,,,,,,
2753.5,,shortestpath_phase,1554253,,GW/racine.png,,,,49,GW/carmel.png,GW/newhope.png,0,0.6896551724137931,,,,GW/newhope.png,,,,,Three Edge Diff,Three Edge Six Edge,,,,,,,,,,,,,
null,,html-keyboard-response,1555255,,<p></p>,,,,null,,,,,,,,,,,,,,,,,,,,,,,,,,,
2490,,shortestpath_phase,1557746,,GW/hanover.png,,,,49,GW/peoria.png,GW/carmel.png,0,0.6666666666666666,,,,GW/carmel.png,,,,,One Edge Diff,Five Edge Six Edge,,,,,,,,,,,,,
null,,html-keyboard-response,1558748,,<p></p>,,,,null,,,,,,,,,,,,,,,,,,,,,,,,,,,
2266.5999999996275,,shortestpath_phase,1561015,,GW/leesburg.png,,,,49,GW/huntsville.png,GW/racine.png,1,0.6774193548387096,,,,GW/huntsville.png,,,,,Two Edge Diff,Four Edge Six Edge,,,,,,,,,,,,,
null,,html-keyboard-response,1562018,,<p></p>,,,,null,,,,,,,,,,,,,,,,,,,,,,,,,,,
3207.0999999996275,,shortestpath_phase,1565226,,GW/peoria.png,,,,49,GW/racine.png,GW/carmel.png,0,0.65625,,,,GW/carmel.png,,,,,Three Edge Diff,Three Edge Six Edge,,,,,,,,,,,,,
null,,html-keyboard-response,1566229,,<p></p>,,,,null,,,,,,,,,,,,,,,,,,,,,,,,,,,
2573.7999999988824,,shortestpath_phase,1568804,,GW/newhope.png,,,,50,GW/gatlinburg.png,GW/carmel.png,0,0.6363636363636364,,,,GW/gatlinburg.png,,,,,One Edge Diff,Three Edge Four Edge,,,,,,,,,,,,,
null,,html-keyboard-response,1569805,,<p></p>,,,,null,,,,,,,,,,,,,,,,,,,,,,,,,,,
2465.5999999996275,,shortestpath_phase,1572272,,GW/westpalmbeach.png,,,,50,GW/leesburg.png,GW/carmel.png,1,0.6470588235294118,,,,GW/carmel.png,,,,,One Edge Diff,Four Edge Five Edge,,,,,,,,,,,,,
null,,html-keyboard-response,1573274,,<p></p>,,,,null,,,,,,,,,,,,,,,,,,,,,,,,,,,
2051.699999999255,,shortestpath_phase,1575327,,GW/racine.png,,,,50,GW/newhope.png,GW/leesburg.png,0,0.6285714285714286,,,,GW/newhope.png,,,,,Four Edge Diff,Two Edge Six Edge,,,,,,,,,,,,,
null,,html-keyboard-response,1576330,,<p></p>,,,,null,,,,,,,,,,,,,,,,,,,,,,,,,,,
1851.7000000011176,,shortestpath_phase,1578183,,GW/carmel.png,,,,49,GW/westpalmbeach.png,GW/gatlinburg.png,0,0.6111111111111112,,,,GW/gatlinburg.png,,,,,Two Edge Diff,Two Edge Four Edge,,,,,,,,,,,,,
null,,html-keyboard-response,1579185,,<p></p>,,,,null,,,,,,,,,,,,,,,,,,,,,,,,,,,
2335.0999999996275,,shortestpath_phase,1581522,,GW/leesburg.png,,,,49,GW/boulder.png,GW/hanover.png,1,0.6216216216216216,,,,GW/boulder.png,,,,,Four Edge Diff,Two Edge Six Edge,,,,,,,,,,,,,
null,,html-keyboard-response,1582524,,<p></p>,,,,null,,,,,,,,,,,,,,,,,,,,,,,,,,,
2415.4000000003725,,shortestpath_phase,1584941,,GW/carmel.png,,,,50,GW/hanover.png,GW/cornwall.png,1,0.631578947368421,,,,GW/cornwall.png,,,,,Three Edge Diff,Two Edge Five Edge,,,,,,,,,,,,,
null,,html-keyboard-response,1585944,,<p></p>,,,,null,,,,,,,,,,,,,,,,,,,,,,,,,,,
2607.89999999851,,shortestpath_phase,1588553,,GW/hanover.png,,,,50,GW/racine.png,GW/boulder.png,0,0.6153846153846154,,,,GW/racine.png,,,,,Two Edge Diff,Three Edge Five Edge,,,,,,,,,,,,,
null,,html-keyboard-response,1589555,,<p></p>,,,,null,,,,,,,,,,,,,,,,,,,,,,,,,,,
2705.800000000745,,shortestpath_phase,1592262,,GW/leesburg.png,,,,49,GW/westpalmbeach.png,GW/hotsprings.png,0,0.6,,,,GW/hotsprings.png,,,,,Three Edge Diff,Three Edge Six Edge,,,,,,,,,,,,,
null,,html-keyboard-response,1593267,,<p></p>,,,,null,,,,,,,,,,,,,,,,,,,,,,,,,,,
2316.5,,shortestpath_phase,1595585,,GW/hanover.png,,,,50,GW/gatlinburg.png,GW/boulder.png,0,0.5853658536585366,,,,GW/gatlinburg.png,,,,,One Edge Diff,Four Edge Five Edge,,,,,,,,,,,,,
null,,html-keyboard-response,1596587,,<p></p>,,,,null,,,,,,,,,,,,,,,,,,,,,,,,,,,
1922.0999999996275,,shortestpath_phase,1598510,,GW/leesburg.png,,,,50,GW/westpalmbeach.png,GW/peoria.png,1,0.5952380952380952,,,,GW/peoria.png,,,,,Two Edge Diff,Three Edge Five Edge,,,,,,,,,,,,,
null,,html-keyboard-response,1599512,,<p></p>,,,,null,,,,,,,,,,,,,,,,,,,,,,,,,,,
2693.89999999851,,shortestpath_phase,1602207,,GW/racine.png,,,,50,GW/boulder.png,GW/leesburg.png,0,0.5813953488372093,,,,GW/boulder.png,,,,,Two Edge Diff,Four Edge Six Edge,,,,,,,,,,,,,
null,,html-keyboard-response,1603209,,<p></p>,,,,null,,,,,,,,,,,,,,,,,,,,,,,,,,,
2401,,shortestpath_phase,1605611,,GW/newhope.png,,,,50,GW/peoria.png,GW/cornwall.png,1,0.5909090909090909,,,,GW/cornwall.png,,,,,Three Edge Diff,Three Edge Six Edge,,,,,,,,,,,,,
null,,html-keyboard-response,1606615,,<p></p>,,,,null,,,,,,,,,,,,,,,,,,,,,,,,,,,
2872.0999999996275,,shortestpath_phase,1609488,,GW/racine.png,,,,49,GW/hotsprings.png,GW/huntsville.png,0,0.5777777777777777,,,,GW/huntsville.png,,,,,Two Edge Diff,Two Edge Four Edge,,,,,,,,,,,,,
null,,html-keyboard-response,1610489,,<p></p>,,,,null,,,,,,,,,,,,,,,,,,,,,,,,,,,
2695.7999999988824,,shortestpath_phase,1613186,,GW/carmel.png,,,,49,GW/gatlinburg.png,GW/racine.png,1,0.5869565217391305,,,,GW/gatlinburg.png,,,,,Three Edge Diff,Two Edge Five Edge,,,,,,,,,,,,,
null,,html-keyboard-response,1614189,,<p></p>,,,,null,,,,,,,,,,,,,,,,,,,,,,,,,,,
2190.300000000745,,shortestpath_phase,1616380,,GW/hanover.png,,,,49,GW/shreveport.png,GW/leesburg.png,1,0.5957446808510638,,,,GW/shreveport.png,,,,,Four Edge Diff,Two Edge Six Edge,,,,,,,,,,,,,
null,,html-keyboard-response,1617383,,<p></p>,,,,null,,,,,,,,,,,,,,,,,,,,,,,,,,,
2349.699999999255,,shortestpath_phase,1619735,,GW/newhope.png,,,,49,GW/cornwall.png,GW/leesburg.png,1,0.6041666666666666,,,,GW/cornwall.png,,,,,Three Edge Diff,Two Edge Five Edge,,,,,,,,,,,,,
null,,html-keyboard-response,1620737,,<p></p>,,,,null,,,,,,,,,,,,,,,,,,,,,,,,,,,
715.5999999996275,,shortestpath_phase,1621453,,GW/carmel.png,,,,49,GW/peoria.png,GW/racine.png,1,0.6122448979591837,,,,GW/peoria.png,,,,,Three Edge Diff,Two Edge Five Edge,,,,,,,,,,,,,
null,,html-keyboard-response,1622455,,<p></p>,,,,null,,,,,,,,,,,,,,,,,,,,,,,,,,,
2217.9000000003725,,shortestpath_phase,1624674,,GW/boulder.png,,,,50,GW/racine.png,GW/cornwall.png,1,0.62,,,,GW/cornwall.png,,,,,Two Edge Diff,Two Edge Four Edge,,,,,,,,,,,,,
null,,html-keyboard-response,1625677,,<p></p>,,,,null,,,,,,,,,,,,,,,,,,,,,,,,,,,
1965.5,,shortestpath_phase,1627644,,GW/leesburg.png,,,,49,GW/hotsprings.png,GW/westpalmbeach.png,1,0.6274509803921569,,,,GW/hotsprings.png,,,,,Three Edge Diff,Two Edge Five Edge,,,,,,,,,,,,,
null,,html-keyboard-response,1628646,,<p></p>,,,,null,,,,,,,,,,,,,,,,,,,,,,,,,,,
2145.0999999996275,,shortestpath_phase,1630792,,GW/racine.png,,,,50,GW/peoria.png,GW/hanover.png,1,0.6346153846153846,,,,GW/hanover.png,,,,,Two Edge Diff,Three Edge Five Edge,,,,,,,,,,,,,
null,,html-keyboard-response,1631794,,<p></p>,,,,null,,,,,,,,,,,,,,,,,,,,,,,,,,,
2600.199999999255,,shortestpath_phase,1634395,,GW/carmel.png,,,,49,GW/gatlinburg.png,GW/newhope.png,1,0.6415094339622641,,,,GW/gatlinburg.png,,,,,Two Edge Diff,Two Edge Four Edge,,,,,,,,,,,,,
null,,html-keyboard-response,1635398,,<p></p>,,,,null,,,,,,,,,,,,,,,,,,,,,,,,,,,
2988.5,,shortestpath_phase,1638387,,GW/racine.png,,,,50,GW/leesburg.png,GW/huntsville.png,1,0.6481481481481481,,,,GW/huntsville.png,,,,,Four Edge Diff,Two Edge Six Edge,,,,,,,,,,,,,
null,,html-keyboard-response,1639390,,<p></p>,,,,null,,,,,,,,,,,,,,,,,,,,,,,,,,,
3462.300000000745,,shortestpath_phase,1642853,,GW/leesburg.png,,,,49,GW/peoria.png,GW/hotsprings.png,0,0.6363636363636364,,,,GW/hotsprings.png,,,,,One Edge Diff,Two Edge Three Edge,,,,,,,,,,,,,
null,,html-keyboard-response,1643855,,<p></p>,,,,null,,,,,,,,,,,,,,,,,,,,,,,,,,,
2883.0999999996275,,shortestpath_phase,1646739,,GW/racine.png,,,,50,GW/boulder.png,GW/carmel.png,0,0.625,,,,GW/boulder.png,,,,,One Edge Diff,Four Edge Five Edge,,,,,,,,,,,,,
null,,html-keyboard-response,1647741,,<p></p>,,,,null,,,,,,,,,,,,,,,,,,,,,,,,,,,
2217.2999999988824,,shortestpath_phase,1649960,,GW/leesburg.png,,,,49,GW/shreveport.png,GW/gatlinburg.png,0,0.6140350877192983,,,,GW/gatlinburg.png,,,,,One Edge Diff,Three Edge Four Edge,,,,,,,,,,,,,
null,,html-keyboard-response,1650962,,<p></p>,,,,null,,,,,,,,,,,,,,,,,,,,,,,,,,,
2797.9000000003725,,shortestpath_phase,1653761,,GW/newhope.png,,,,50,GW/racine.png,GW/leesburg.png,0,0.603448275862069,,,,GW/racine.png,,,,,Three Edge Diff,Three Edge Six Edge,,,,,,,,,,,,,
null,,html-keyboard-response,1654764,,<p></p>,,,,null,,,,,,,,,,,,,,,,,,,,,,,,,,,
2524.4000000003725,,shortestpath_phase,1657290,,GW/hanover.png,,,,49,GW/boulder.png,GW/shreveport.png,0,0.5932203389830508,,,,GW/shreveport.png,,,,,Three Edge Diff,Three Edge Six Edge,,,,,,,,,,,,,
null,,html-keyboard-response,1658306,,<p></p>,,,,null,,,,,,,,,,,,,,,,,,,,,,,,,,,
2681.10000000149,,shortestpath_phase,1660989,,GW/peoria.png,,,,50,GW/newhope.png,GW/hanover.png,0,0.5833333333333334,,,,GW/newhope.png,,,,,One Edge Diff,Five Edge Six Edge,,,,,,,,,,,,,
null,,html-keyboard-response,1661991,,<p></p>,,,,null,,,,,,,,,,,,,,,,,,,,,,,,,,,
