rt,responses,trial_type,time_elapsed,sequence,stimulus,graphorder,button_pressed,response,key_press,stimulus_left,stimulus_right,accuracy,cumulative_accuracy,stimulus_down_left,stimulus_down_mid,stimulus_down_right,stimulus_correct,stimulus_short,stimulus_far,weighted_accuracy,missedtrial,condition,specific_pairs,imgL_ID,imgR_ID,linedress,linedressed,linedressed_detor,detour_trial,problems,smooth,distraction,strategies,easier,similar,comments
19092.699999999255,{worker_id:54e32a60fdf99b3eae9de85b},id_enter,19103,interleaved,replication,GW/hotsprings.png; GW/newhope.png; GW/hanover.png; GW/gatlinburg.png; GW/leesburg.png; GW/shreveport.png; GW/peoria.png; GW/boulder.png; GW/westpalmbeach.png; GW/huntsville.png; GW/cornwall.png; GW/carmel.png; GW/racine.png,,,,,,,,,,,,,,,,,,,,,,,,,,,,,,
31629.5,,fullscreen,50753,,fullscreen,,0,,,,,,,,,,,,,,,,,,,,,,,,,,,,,
17757.5,,intro_1,68518,,instruct,,0,,,,,,,,,,,,,,,,,,,,,,,,,,,,,
11251.299999998882,,intro_2,79783,,instruct,,1,Next,,,,,,,,,,,,,,,,,,,,,,,,,,,,
6431.4000000003725,,intro_3,86224,,instruct,,1,Next,,,,,,,,,,,,,,,,,,,,,,,,,,,,
null,,learn_prac_1,89235,,lean_prac_1,,,,null,,,,,,,,,,,,,,,,,,,,,,,,,,,
null,,html-keyboard-response,90242,,<p></p>,,,,null,,,,,,,,,,,,,,,,,,,,,,,,,,,
2312.800000000745,,intro_1,92561,,instruct,,0,,,,,,,,,,,,,,,,,,,,,,,,,,,,,
3085.5,,intro_2,95654,,instruct,,1,Next,,,,,,,,,,,,,,,,,,,,,,,,,,,,
null,,learn_prac_2,98657,,lean_prac_2,,,,null,,,,,,,,,,,,,,,,,,,,,,,,,,,
null,,html-keyboard-response,99661,,<p></p>,,,,null,,,,,,,,,,,,,,,,,,,,,,,,,,,
2112.9000000003725,,intro_1,101779,,instruct,,0,,,,,,,,,,,,,,,,,,,,,,,,,,,,,
2322.199999999255,,intro_2,104110,,instruct,,1,Next,,,,,,,,,,,,,,,,,,,,,,,,,,,,
23563.199999999255,,intro_3,127684,,instruct,,1,Next,,,,,,,,,,,,,,,,,,,,,,,,,,,,
null,,prac_atten_color_black,128206,,black_plus_sign,,,,null,,,,,,,,,,,,,,,,,,,,,,,,,,,
null,,prac_atten_color,129104,,prac_stop_color,,,,null,,,,,,,,,,,,,,,,,,,,,,,,,,,
736.5,,prac_atten_color_black,131109,,black_plus_sign,,,,49,,,,,,,,,,,,,,,,,,,,,,,,,,,
null,,prac_atten_color_black,131632,,black_plus_sign,,,,null,,,,,,,,,,,,,,,,,,,,,,,,,,,
574.7999999988824,,prac_atten_color,132628,,prac_stop_color,,,,50,,,,,,,,,,,,,,,,,,,,,,,,,,,
null,,prac_atten_color_black,134631,,black_plus_sign,,,,null,,,,,,,,,,,,,,,,,,,,,,,,,,,
null,,prac_atten_color_black,135046,,black_plus_sign,,,,null,,,,,,,,,,,,,,,,,,,,,,,,,,,
389.8999999985099,,prac_atten_color,135932,,prac_stop_color,,,,50,,,,,,,,,,,,,,,,,,,,,,,,,,,
null,,prac_atten_color_black,137936,,black_plus_sign,,,,null,,,,,,,,,,,,,,,,,,,,,,,,,,,
null,,prac_atten_color_black,138463,,black_plus_sign,,,,null,,,,,,,,,,,,,,,,,,,,,,,,,,,
568.1000000014901,,prac_atten_color,139131,,prac_stop_color,,,,49,,,,,,,,,,,,,,,,,,,,,,,,,,,
null,,prac_atten_color_black,141135,,black_plus_sign,,,,null,,,,,,,,,,,,,,,,,,,,,,,,,,,
null,,prac_atten_color_black,141879,,black_plus_sign,,,,null,,,,,,,,,,,,,,,,,,,,,,,,,,,
null,,prac_atten_color,142413,,prac_stop_color,,,,null,,,,,,,,,,,,,,,,,,,,,,,,,,,
12.300000000745058,,prac_atten_color_black,144417,,black_plus_sign,,,,50,,,,,,,,,,,,,,,,,,,,,,,,,,,
null,,prac_atten_color_black,145294,,black_plus_sign,,,,null,,,,,,,,,,,,,,,,,,,,,,,,,,,
452.5,,prac_atten_color,145772,,prac_stop_color,,,,50,,,,,,,,,,,,,,,,,,,,,,,,,,,
null,,prac_atten_color_black,147776,,black_plus_sign,,,,null,,,,,,,,,,,,,,,,,,,,,,,,,,,
null,,prac_atten_color_black,148708,,black_plus_sign,,,,null,,,,,,,,,,,,,,,,,,,,,,,,,,,
null,,prac_atten_color,149136,,prac_stop_color,,,,null,,,,,,,,,,,,,,,,,,,,,,,,,,,
12.099999999627471,,prac_atten_color_black,151140,,black_plus_sign,,,,49,,,,,,,,,,,,,,,,,,,,,,,,,,,
null,,prac_atten_color_black,152126,,black_plus_sign,,,,null,,,,,,,,,,,,,,,,,,,,,,,,,,,
480.40000000037253,,prac_atten_color,152678,,prac_stop_color,,,,50,,,,,,,,,,,,,,,,,,,,,,,,,,,
null,,prac_atten_color_black,154682,,black_plus_sign,,,,null,,,,,,,,,,,,,,,,,,,,,,,,,,,
null,,prac_atten_color_black,155542,,black_plus_sign,,,,null,,,,,,,,,,,,,,,,,,,,,,,,,,,
504.3999999985099,,prac_atten_color,156357,,prac_stop_color,,,,49,,,,,,,,,,,,,,,,,,,,,,,,,,,
null,,prac_atten_color_black,158361,,black_plus_sign,,,,null,,,,,,,,,,,,,,,,,,,,,,,,,,,
null,,prac_atten_color_black,158958,,black_plus_sign,,,,null,,,,,,,,,,,,,,,,,,,,,,,,,,,
374.59999999962747,,prac_atten_color,159687,,prac_stop_color,,,,49,,,,,,,,,,,,,,,,,,,,,,,,,,,
null,,prac_atten_color_black,161691,,black_plus_sign,,,,null,,,,,,,,,,,,,,,,,,,,,,,,,,,
4038.2000000011176,,attentioncheck_feedback,165737,,cross_check_feedback,,0,,,,,,,,,,,,,,,,,,,,,,,,,,,,,
16488.900000000373,,last_instruct,182231,,instruct,,,,32,,,,,,,,,,,,,,,,,,,,,,,,,,,
null,,learn_phase(without_color),185235,,black_plus_sign,,,,null,GW/peoria.png,GW/boulder.png,,,,,,,,,,,,,,,,,,,,,,,,,
null,,black_cross(without_color),186133,,yellow,,,,null,GW/peoria.png,GW/boulder.png,,,,,,,,,,,,,,,,,,,,,,,,,
null,,rt_plussign_withcolor,186638,,yellow,,,,null,GW/peoria.png,GW/boulder.png,,,,,,,,,,,,,,,,,,,,,,,,,
1525.7999999988824,,rt_thecrossant_black,187757,,black_plus_sign,,,,50,,,1,1,,,,,,,,,,,,,,,,,,,,,,,
null,,color_black,187862,,black_plus_sign,,,,null,,,,,,,,,,,,,,,,,,,,,,,,,,,
null,,learn_phase(without_color),190870,,black_plus_sign,,,,null,GW/gatlinburg.png,GW/carmel.png,,,,,,,,,,,,,,,,,,,,,,,,,
null,,black_cross(without_color),191371,,yellow,,,,null,GW/gatlinburg.png,GW/carmel.png,,,,,,,,,,,,,,,,,,,,,,,,,
null,,rt_plussign_withcolor,191874,,yellow,,,,null,GW/gatlinburg.png,GW/carmel.png,,,,,,,,,,,,,,,,,,,,,,,,,
1186,,rt_thecrossant_black,193384,,black_plus_sign,,,,50,,,1,1,,,,,,,,,,,,,,,,,,,,,,,
null,,color_black,193490,,black_plus_sign,,,,null,,,,,,,,,,,,,,,,,,,,,,,,,,,
null,,learn_phase(without_color),196497,,black_plus_sign,,,,null,GW/carmel.png,GW/gatlinburg.png,,,,,,,,,,,,,,,,,,,,,,,,,
null,,black_cross(without_color),197330,,yellow,,,,null,GW/carmel.png,GW/gatlinburg.png,,,,,,,,,,,,,,,,,,,,,,,,,
467,,rt_plussign_withcolor,197833,,yellow,,,,50,GW/carmel.png,GW/gatlinburg.png,,,,,,,,,,,,,,,,,,,,,,,,,
null,,rt_thecrossant_black,199012,,black_plus_sign,,,,null,,,1,1,,,,,,,,,,,,,,,,,,,,,,,
null,,color_black,199118,,black_plus_sign,,,,null,,,,,,,,,,,,,,,,,,,,,,,,,,,
null,,learn_phase(without_color),202127,,black_plus_sign,,,,null,GW/boulder.png,GW/westpalmbeach.png,,,,,,,,,,,,,,,,,,,,,,,,,
null,,black_cross(without_color),202916,,yellow,,,,null,GW/boulder.png,GW/westpalmbeach.png,,,,,,,,,,,,,,,,,,,,,,,,,
null,,rt_plussign_withcolor,203419,,yellow,,,,null,GW/boulder.png,GW/westpalmbeach.png,,,,,,,,,,,,,,,,,,,,,,,,,
1247.2999999988824,,rt_thecrossant_black,204641,,black_plus_sign,,,,50,,,1,1,,,,,,,,,,,,,,,,,,,,,,,
null,,color_black,204747,,black_plus_sign,,,,null,,,,,,,,,,,,,,,,,,,,,,,,,,,
null,,learn_phase(without_color),207755,,black_plus_sign,,,,null,GW/westpalmbeach.png,GW/boulder.png,,,,,,,,,,,,,,,,,,,,,,,,,
null,,black_cross(without_color),208428,,blue,,,,null,GW/westpalmbeach.png,GW/boulder.png,,,,,,,,,,,,,,,,,,,,,,,,,
null,,rt_plussign_withcolor,208931,,blue,,,,null,GW/westpalmbeach.png,GW/boulder.png,,,,,,,,,,,,,,,,,,,,,,,,,
1001.5,,rt_thecrossant_black,210269,,black_plus_sign,,,,49,,,1,1,,,,,,,,,,,,,,,,,,,,,,,
null,,color_black,210375,,black_plus_sign,,,,null,,,,,,,,,,,,,,,,,,,,,,,,,,,
null,,learn_phase(without_color),213381,,black_plus_sign,,,,null,GW/boulder.png,GW/huntsville.png,,,,,,,,,,,,,,,,,,,,,,,,,
null,,black_cross(without_color),213867,,blue,,,,null,GW/boulder.png,GW/huntsville.png,,,,,,,,,,,,,,,,,,,,,,,,,
null,,rt_plussign_withcolor,214370,,blue,,,,null,GW/boulder.png,GW/huntsville.png,,,,,,,,,,,,,,,,,,,,,,,,,
1035.0999999996275,,rt_thecrossant_black,215893,,black_plus_sign,,,,49,,,1,1,,,,,,,,,,,,,,,,,,,,,,,
null,,color_black,215999,,black_plus_sign,,,,null,,,,,,,,,,,,,,,,,,,,,,,,,,,
null,,learn_phase(without_color),219006,,black_plus_sign,,,,null,GW/cornwall.png,GW/hanover.png,,,,,,,,,,,,,,,,,,,,,,,,,
null,,black_cross(without_color),219684,,blue,,,,null,GW/cornwall.png,GW/hanover.png,,,,,,,,,,,,,,,,,,,,,,,,,
438.1000000014901,,rt_plussign_withcolor,220188,,blue,,,,49,GW/cornwall.png,GW/hanover.png,,,,,,,,,,,,,,,,,,,,,,,,,
null,,rt_thecrossant_black,221519,,black_plus_sign,,,,null,,,1,1,,,,,,,,,,,,,,,,,,,,,,,
null,,color_black,221625,,black_plus_sign,,,,null,,,,,,,,,,,,,,,,,,,,,,,,,,,
null,,learn_phase(without_color),224632,,black_plus_sign,,,,null,GW/newhope.png,GW/gatlinburg.png,,,,,,,,,,,,,,,,,,,,,,,,,
null,,black_cross(without_color),225667,,blue,,,,null,GW/newhope.png,GW/gatlinburg.png,,,,,,,,,,,,,,,,,,,,,,,,,
null,,rt_plussign_withcolor,226170,,blue,,,,null,GW/newhope.png,GW/gatlinburg.png,,,,,,,,,,,,,,,,,,,,,,,,,
834.7000000011176,,rt_thecrossant_black,227146,,black_plus_sign,,,,49,,,1,1,,,,,,,,,,,,,,,,,,,,,,,
null,,color_black,227252,,black_plus_sign,,,,null,,,,,,,,,,,,,,,,,,,,,,,,,,,
null,,learn_phase(without_color),230256,,black_plus_sign,,,,null,GW/boulder.png,GW/huntsville.png,,,,,,,,,,,,,,,,,,,,,,,,,
null,,black_cross(without_color),230920,,blue,,,,null,GW/boulder.png,GW/huntsville.png,,,,,,,,,,,,,,,,,,,,,,,,,
null,,rt_plussign_withcolor,231423,,blue,,,,null,GW/boulder.png,GW/huntsville.png,,,,,,,,,,,,,,,,,,,,,,,,,
1639,,rt_thecrossant_black,232772,,black_plus_sign,,,,49,,,1,1,,,,,,,,,,,,,,,,,,,,,,,
null,,color_black,232878,,black_plus_sign,,,,null,,,,,,,,,,,,,,,,,,,,,,,,,,,
null,,learn_phase(without_color),235886,,black_plus_sign,,,,null,GW/peoria.png,GW/westpalmbeach.png,,,,,,,,,,,,,,,,,,,,,,,,,
null,,black_cross(without_color),236688,,yellow,,,,null,GW/peoria.png,GW/westpalmbeach.png,,,,,,,,,,,,,,,,,,,,,,,,,
null,,rt_plussign_withcolor,237192,,yellow,,,,null,GW/peoria.png,GW/westpalmbeach.png,,,,,,,,,,,,,,,,,,,,,,,,,
865.5999999996275,,rt_thecrossant_black,238402,,black_plus_sign,,,,50,,,1,1,,,,,,,,,,,,,,,,,,,,,,,
null,,color_black,238507,,black_plus_sign,,,,null,,,,,,,,,,,,,,,,,,,,,,,,,,,
null,,learn_phase(without_color),241515,,black_plus_sign,,,,null,GW/cornwall.png,GW/carmel.png,,,,,,,,,,,,,,,,,,,,,,,,,
null,,black_cross(without_color),242411,,blue,,,,null,GW/cornwall.png,GW/carmel.png,,,,,,,,,,,,,,,,,,,,,,,,,
448.7999999988824,,rt_plussign_withcolor,242914,,blue,,,,49,GW/cornwall.png,GW/carmel.png,,,,,,,,,,,,,,,,,,,,,,,,,
null,,rt_thecrossant_black,244027,,black_plus_sign,,,,null,,,1,1,,,,,,,,,,,,,,,,,,,,,,,
null,,color_black,244133,,black_plus_sign,,,,null,,,,,,,,,,,,,,,,,,,,,,,,,,,
null,,learn_phase(without_color),247141,,black_plus_sign,,,,null,GW/westpalmbeach.png,GW/peoria.png,,,,,,,,,,,,,,,,,,,,,,,,,
null,,black_cross(without_color),247911,,blue,,,,null,GW/westpalmbeach.png,GW/peoria.png,,,,,,,,,,,,,,,,,,,,,,,,,
null,,rt_plussign_withcolor,248415,,blue,,,,null,GW/westpalmbeach.png,GW/peoria.png,,,,,,,,,,,,,,,,,,,,,,,,,
1456.800000000745,,rt_thecrossant_black,249654,,black_plus_sign,,,,49,,,1,1,,,,,,,,,,,,,,,,,,,,,,,
null,,color_black,249760,,black_plus_sign,,,,null,,,,,,,,,,,,,,,,,,,,,,,,,,,
null,,learn_phase(without_color),252767,,black_plus_sign,,,,null,GW/newhope.png,GW/hotsprings.png,,,,,,,,,,,,,,,,,,,,,,,,,
null,,black_cross(without_color),253807,,blue,,,,null,GW/newhope.png,GW/hotsprings.png,,,,,,,,,,,,,,,,,,,,,,,,,
null,,rt_plussign_withcolor,254311,,blue,,,,null,GW/newhope.png,GW/hotsprings.png,,,,,,,,,,,,,,,,,,,,,,,,,
886.5,,rt_thecrossant_black,255284,,black_plus_sign,,,,49,,,1,1,,,,,,,,,,,,,,,,,,,,,,,
null,,color_black,255389,,black_plus_sign,,,,null,,,,,,,,,,,,,,,,,,,,,,,,,,,
null,,learn_phase(without_color),258395,,black_plus_sign,,,,null,GW/peoria.png,GW/boulder.png,,,,,,,,,,,,,,,,,,,,,,,,,
null,,black_cross(without_color),259492,,blue,,,,null,GW/peoria.png,GW/boulder.png,,,,,,,,,,,,,,,,,,,,,,,,,
null,,rt_plussign_withcolor,259994,,blue,,,,null,GW/peoria.png,GW/boulder.png,,,,,,,,,,,,,,,,,,,,,,,,,
1148,,rt_thecrossant_black,260909,,black_plus_sign,,,,49,,,1,1,,,,,,,,,,,,,,,,,,,,,,,
null,,color_black,261014,,black_plus_sign,,,,null,,,,,,,,,,,,,,,,,,,,,,,,,,,
null,,learn_phase(without_color),264021,,black_plus_sign,,,,null,GW/boulder.png,GW/westpalmbeach.png,,,,,,,,,,,,,,,,,,,,,,,,,
null,,black_cross(without_color),264592,,blue,,,,null,GW/boulder.png,GW/westpalmbeach.png,,,,,,,,,,,,,,,,,,,,,,,,,
null,,rt_plussign_withcolor,265096,,blue,,,,null,GW/boulder.png,GW/westpalmbeach.png,,,,,,,,,,,,,,,,,,,,,,,,,
1662.2999999988824,,rt_thecrossant_black,266540,,black_plus_sign,,,,49,,,1,1,,,,,,,,,,,,,,,,,,,,,,,
null,,color_black,266647,,black_plus_sign,,,,null,,,,,,,,,,,,,,,,,,,,,,,,,,,
null,,learn_phase(without_color),269654,,black_plus_sign,,,,null,GW/hotsprings.png,GW/newhope.png,,,,,,,,,,,,,,,,,,,,,,,,,
null,,black_cross(without_color),270692,,blue,,,,null,GW/hotsprings.png,GW/newhope.png,,,,,,,,,,,,,,,,,,,,,,,,,
null,,rt_plussign_withcolor,271195,,blue,,,,null,GW/hotsprings.png,GW/newhope.png,,,,,,,,,,,,,,,,,,,,,,,,,
736.3000000007451,,rt_thecrossant_black,272167,,black_plus_sign,,,,49,,,1,1,,,,,,,,,,,,,,,,,,,,,,,
null,,color_black,272274,,black_plus_sign,,,,null,,,,,,,,,,,,,,,,,,,,,,,,,,,
null,,learn_phase(without_color),275279,,black_plus_sign,,,,null,GW/westpalmbeach.png,GW/shreveport.png,,,,,,,,,,,,,,,,,,,,,,,,,
null,,black_cross(without_color),276076,,yellow,,,,null,GW/westpalmbeach.png,GW/shreveport.png,,,,,,,,,,,,,,,,,,,,,,,,,
null,,rt_plussign_withcolor,276579,,yellow,,,,null,GW/westpalmbeach.png,GW/shreveport.png,,,,,,,,,,,,,,,,,,,,,,,,,
1955.300000000745,,rt_thecrossant_black,277794,,black_plus_sign,,,,50,,,1,1,,,,,,,,,,,,,,,,,,,,,,,
null,,color_black,277900,,black_plus_sign,,,,null,,,,,,,,,,,,,,,,,,,,,,,,,,,
null,,learn_phase(without_color),280908,,black_plus_sign,,,,null,GW/peoria.png,GW/shreveport.png,,,,,,,,,,,,,,,,,,,,,,,,,
null,,black_cross(without_color),281794,,yellow,,,,null,GW/peoria.png,GW/shreveport.png,,,,,,,,,,,,,,,,,,,,,,,,,
null,,rt_plussign_withcolor,282297,,yellow,,,,null,GW/peoria.png,GW/shreveport.png,,,,,,,,,,,,,,,,,,,,,,,,,
1387.0999999996275,,rt_thecrossant_black,283424,,black_plus_sign,,,,49,,,0,0.9444444444444444,,,,,,,,,,,,,,,,,,,,,,,
null,,color_black,283531,,black_plus_sign,,,,null,,,,,,,,,,,,,,,,,,,,,,,,,,,
null,,learn_phase(without_color),286538,,black_plus_sign,,,,null,GW/peoria.png,GW/westpalmbeach.png,,,,,,,,,,,,,,,,,,,,,,,,,
null,,black_cross(without_color),287008,,yellow,,,,null,GW/peoria.png,GW/westpalmbeach.png,,,,,,,,,,,,,,,,,,,,,,,,,
null,,rt_plussign_withcolor,287512,,yellow,,,,null,GW/peoria.png,GW/westpalmbeach.png,,,,,,,,,,,,,,,,,,,,,,,,,
1292.3999999985099,,rt_thecrossant_black,289054,,black_plus_sign,,,,50,,,1,0.9473684210526315,,,,,,,,,,,,,,,,,,,,,,,
null,,color_black,289159,,black_plus_sign,,,,null,,,,,,,,,,,,,,,,,,,,,,,,,,,
null,,learn_phase(without_color),292166,,black_plus_sign,,,,null,GW/carmel.png,GW/gatlinburg.png,,,,,,,,,,,,,,,,,,,,,,,,,
null,,black_cross(without_color),292659,,blue,,,,null,GW/carmel.png,GW/gatlinburg.png,,,,,,,,,,,,,,,,,,,,,,,,,
null,,rt_plussign_withcolor,293162,,blue,,,,null,GW/carmel.png,GW/gatlinburg.png,,,,,,,,,,,,,,,,,,,,,,,,,
691.5,,rt_thecrossant_black,294680,,black_plus_sign,,,,49,,,1,0.95,,,,,,,,,,,,,,,,,,,,,,,
null,,color_black,294787,,black_plus_sign,,,,null,,,,,,,,,,,,,,,,,,,,,,,,,,,
null,,learn_phase(without_color),297795,,black_plus_sign,,,,null,GW/cornwall.png,GW/hanover.png,,,,,,,,,,,,,,,,,,,,,,,,,
null,,black_cross(without_color),298791,,blue,,,,null,GW/cornwall.png,GW/hanover.png,,,,,,,,,,,,,,,,,,,,,,,,,
null,,rt_plussign_withcolor,299295,,blue,,,,null,GW/cornwall.png,GW/hanover.png,,,,,,,,,,,,,,,,,,,,,,,,,
773.5,,rt_thecrossant_black,300310,,black_plus_sign,,,,49,,,1,0.9523809523809523,,,,,,,,,,,,,,,,,,,,,,,
null,,color_black,300416,,black_plus_sign,,,,null,,,,,,,,,,,,,,,,,,,,,,,,,,,
null,,learn_phase(without_color),303423,,black_plus_sign,,,,null,GW/hanover.png,GW/shreveport.png,,,,,,,,,,,,,,,,,,,,,,,,,
null,,black_cross(without_color),304010,,blue,,,,null,GW/hanover.png,GW/shreveport.png,,,,,,,,,,,,,,,,,,,,,,,,,
null,,rt_plussign_withcolor,304513,,blue,,,,null,GW/hanover.png,GW/shreveport.png,,,,,,,,,,,,,,,,,,,,,,,,,
1114.0999999996275,,rt_thecrossant_black,305938,,black_plus_sign,,,,49,,,1,0.9545454545454546,,,,,,,,,,,,,,,,,,,,,,,
null,,color_black,306044,,black_plus_sign,,,,null,,,,,,,,,,,,,,,,,,,,,,,,,,,
null,,learn_phase(without_color),309051,,black_plus_sign,,,,null,GW/gatlinburg.png,GW/leesburg.png,,,,,,,,,,,,,,,,,,,,,,,,,
null,,black_cross(without_color),309730,,blue,,,,null,GW/gatlinburg.png,GW/leesburg.png,,,,,,,,,,,,,,,,,,,,,,,,,
null,,rt_plussign_withcolor,310233,,blue,,,,null,GW/gatlinburg.png,GW/leesburg.png,,,,,,,,,,,,,,,,,,,,,,,,,
744,,rt_thecrossant_black,311566,,black_plus_sign,,,,49,,,1,0.9565217391304348,,,,,,,,,,,,,,,,,,,,,,,
null,,color_black,311671,,black_plus_sign,,,,null,,,,,,,,,,,,,,,,,,,,,,,,,,,
null,,learn_phase(without_color),314679,,black_plus_sign,,,,null,GW/westpalmbeach.png,GW/cornwall.png,,,,,,,,,,,,,,,,,,,,,,,,,
null,,black_cross(without_color),315195,,blue,,,,null,GW/westpalmbeach.png,GW/cornwall.png,,,,,,,,,,,,,,,,,,,,,,,,,
490.7999999988824,,rt_plussign_withcolor,315698,,blue,,,,49,GW/westpalmbeach.png,GW/cornwall.png,,,,,,,,,,,,,,,,,,,,,,,,,
null,,rt_thecrossant_black,317195,,black_plus_sign,,,,null,,,1,0.9583333333333334,,,,,,,,,,,,,,,,,,,,,,,
null,,color_black,317298,,black_plus_sign,,,,null,,,,,,,,,,,,,,,,,,,,,,,,,,,
null,,learn_phase(without_color),320303,,black_plus_sign,,,,null,GW/gatlinburg.png,GW/carmel.png,,,,,,,,,,,,,,,,,,,,,,,,,
null,,black_cross(without_color),320766,,blue,,,,null,GW/gatlinburg.png,GW/carmel.png,,,,,,,,,,,,,,,,,,,,,,,,,
null,,rt_plussign_withcolor,321269,,blue,,,,null,GW/gatlinburg.png,GW/carmel.png,,,,,,,,,,,,,,,,,,,,,,,,,
639.9000000003725,,rt_thecrossant_black,322816,,black_plus_sign,,,,49,,,1,0.96,,,,,,,,,,,,,,,,,,,,,,,
null,,color_black,322922,,black_plus_sign,,,,null,,,,,,,,,,,,,,,,,,,,,,,,,,,
null,,learn_phase(without_color),325929,,black_plus_sign,,,,null,GW/newhope.png,GW/hotsprings.png,,,,,,,,,,,,,,,,,,,,,,,,,
null,,black_cross(without_color),326797,,blue,,,,null,GW/newhope.png,GW/hotsprings.png,,,,,,,,,,,,,,,,,,,,,,,,,
null,,rt_plussign_withcolor,327300,,blue,,,,null,GW/newhope.png,GW/hotsprings.png,,,,,,,,,,,,,,,,,,,,,,,,,
615.0999999996275,,rt_thecrossant_black,328442,,black_plus_sign,,,,49,,,1,0.9615384615384616,,,,,,,,,,,,,,,,,,,,,,,
null,,color_black,328548,,black_plus_sign,,,,null,,,,,,,,,,,,,,,,,,,,,,,,,,,
null,,learn_phase(without_color),331556,,black_plus_sign,,,,null,GW/gatlinburg.png,GW/leesburg.png,,,,,,,,,,,,,,,,,,,,,,,,,
null,,black_cross(without_color),332609,,blue,,,,null,GW/gatlinburg.png,GW/leesburg.png,,,,,,,,,,,,,,,,,,,,,,,,,
null,,rt_plussign_withcolor,333114,,blue,,,,null,GW/gatlinburg.png,GW/leesburg.png,,,,,,,,,,,,,,,,,,,,,,,,,
967.1999999992549,,rt_thecrossant_black,334071,,black_plus_sign,,,,49,,,1,0.9629629629629629,,,,,,,,,,,,,,,,,,,,,,,
null,,color_black,334177,,black_plus_sign,,,,null,,,,,,,,,,,,,,,,,,,,,,,,,,,
null,,learn_phase(without_color),337185,,black_plus_sign,,,,null,GW/racine.png,GW/peoria.png,,,,,,,,,,,,,,,,,,,,,,,,,
null,,black_cross(without_color),337728,,blue,,,,null,GW/racine.png,GW/peoria.png,,,,,,,,,,,,,,,,,,,,,,,,,
null,,rt_plussign_withcolor,338231,,blue,,,,null,GW/racine.png,GW/peoria.png,,,,,,,,,,,,,,,,,,,,,,,,,
1409.6000000014901,,rt_thecrossant_black,339700,,black_plus_sign,,,,49,,,1,0.9642857142857143,,,,,,,,,,,,,,,,,,,,,,,
null,,color_black,339806,,black_plus_sign,,,,null,,,,,,,,,,,,,,,,,,,,,,,,,,,
null,,learn_phase(without_color),342813,,black_plus_sign,,,,null,GW/hanover.png,GW/cornwall.png,,,,,,,,,,,,,,,,,,,,,,,,,
null,,black_cross(without_color),343528,,yellow,,,,null,GW/hanover.png,GW/cornwall.png,,,,,,,,,,,,,,,,,,,,,,,,,
null,,rt_plussign_withcolor,344032,,yellow,,,,null,GW/hanover.png,GW/cornwall.png,,,,,,,,,,,,,,,,,,,,,,,,,
865.8000000007451,,rt_thecrossant_black,345329,,black_plus_sign,,,,50,,,1,0.9655172413793104,,,,,,,,,,,,,,,,,,,,,,,
null,,color_black,345436,,black_plus_sign,,,,null,,,,,,,,,,,,,,,,,,,,,,,,,,,
null,,learn_phase(without_color),348443,,black_plus_sign,,,,null,GW/shreveport.png,GW/peoria.png,,,,,,,,,,,,,,,,,,,,,,,,,
null,,black_cross(without_color),349249,,blue,,,,null,GW/shreveport.png,GW/peoria.png,,,,,,,,,,,,,,,,,,,,,,,,,
null,,rt_plussign_withcolor,349753,,blue,,,,null,GW/shreveport.png,GW/peoria.png,,,,,,,,,,,,,,,,,,,,,,,,,
834,,rt_thecrossant_black,350957,,black_plus_sign,,,,49,,,1,0.9666666666666667,,,,,,,,,,,,,,,,,,,,,,,
null,,color_black,351063,,black_plus_sign,,,,null,,,,,,,,,,,,,,,,,,,,,,,,,,,
null,,learn_phase(without_color),354071,,black_plus_sign,,,,null,GW/peoria.png,GW/shreveport.png,,,,,,,,,,,,,,,,,,,,,,,,,
null,,black_cross(without_color),354509,,blue,,,,null,GW/peoria.png,GW/shreveport.png,,,,,,,,,,,,,,,,,,,,,,,,,
null,,rt_plussign_withcolor,355012,,blue,,,,null,GW/peoria.png,GW/shreveport.png,,,,,,,,,,,,,,,,,,,,,,,,,
1782,,rt_thecrossant_black,356587,,black_plus_sign,,,,49,,,1,0.967741935483871,,,,,,,,,,,,,,,,,,,,,,,
null,,color_black,356693,,black_plus_sign,,,,null,,,,,,,,,,,,,,,,,,,,,,,,,,,
null,,learn_phase(without_color),359701,,black_plus_sign,,,,null,GW/shreveport.png,GW/peoria.png,,,,,,,,,,,,,,,,,,,,,,,,,
null,,black_cross(without_color),360655,,yellow,,,,null,GW/shreveport.png,GW/peoria.png,,,,,,,,,,,,,,,,,,,,,,,,,
480.90000000037253,,rt_plussign_withcolor,361159,,yellow,,,,50,GW/shreveport.png,GW/peoria.png,,,,,,,,,,,,,,,,,,,,,,,,,
null,,rt_thecrossant_black,362215,,black_plus_sign,,,,null,,,1,0.96875,,,,,,,,,,,,,,,,,,,,,,,
null,,color_black,362321,,black_plus_sign,,,,null,,,,,,,,,,,,,,,,,,,,,,,,,,,
null,,learn_phase(without_color),365325,,black_plus_sign,,,,null,GW/peoria.png,GW/racine.png,,,,,,,,,,,,,,,,,,,,,,,,,
null,,black_cross(without_color),365904,,blue,,,,null,GW/peoria.png,GW/racine.png,,,,,,,,,,,,,,,,,,,,,,,,,
null,,rt_plussign_withcolor,366408,,blue,,,,null,GW/peoria.png,GW/racine.png,,,,,,,,,,,,,,,,,,,,,,,,,
1460,,rt_thecrossant_black,367840,,black_plus_sign,,,,49,,,1,0.9696969696969697,,,,,,,,,,,,,,,,,,,,,,,
null,,color_black,367945,,black_plus_sign,,,,null,,,,,,,,,,,,,,,,,,,,,,,,,,,
null,,learn_phase(without_color),370953,,black_plus_sign,,,,null,GW/huntsville.png,GW/boulder.png,,,,,,,,,,,,,,,,,,,,,,,,,
null,,black_cross(without_color),371841,,blue,,,,null,GW/huntsville.png,GW/boulder.png,,,,,,,,,,,,,,,,,,,,,,,,,
null,,rt_plussign_withcolor,372347,,blue,,,,null,GW/huntsville.png,GW/boulder.png,,,,,,,,,,,,,,,,,,,,,,,,,
1011.5,,rt_thecrossant_black,373474,,black_plus_sign,,,,49,,,1,0.9705882352941176,,,,,,,,,,,,,,,,,,,,,,,
null,,color_black,373581,,black_plus_sign,,,,null,,,,,,,,,,,,,,,,,,,,,,,,,,,
null,,learn_phase(without_color),376588,,black_plus_sign,,,,null,GW/hanover.png,GW/shreveport.png,,,,,,,,,,,,,,,,,,,,,,,,,
null,,black_cross(without_color),377459,,blue,,,,null,GW/hanover.png,GW/shreveport.png,,,,,,,,,,,,,,,,,,,,,,,,,
null,,rt_plussign_withcolor,377961,,blue,,,,null,GW/hanover.png,GW/shreveport.png,,,,,,,,,,,,,,,,,,,,,,,,,
1593,,rt_thecrossant_black,379104,,black_plus_sign,,,,49,,,1,0.9714285714285714,,,,,,,,,,,,,,,,,,,,,,,
null,,color_black,379210,,black_plus_sign,,,,null,,,,,,,,,,,,,,,,,,,,,,,,,,,
null,,learn_phase(without_color),382218,,black_plus_sign,,,,null,GW/cornwall.png,GW/westpalmbeach.png,,,,,,,,,,,,,,,,,,,,,,,,,
null,,black_cross(without_color),383113,,yellow,,,,null,GW/cornwall.png,GW/westpalmbeach.png,,,,,,,,,,,,,,,,,,,,,,,,,
null,,rt_plussign_withcolor,383616,,yellow,,,,null,GW/cornwall.png,GW/westpalmbeach.png,,,,,,,,,,,,,,,,,,,,,,,,,
1047.5,,rt_thecrossant_black,384733,,black_plus_sign,,,,50,,,1,0.9722222222222222,,,,,,,,,,,,,,,,,,,,,,,
null,,color_black,384838,,black_plus_sign,,,,null,,,,,,,,,,,,,,,,,,,,,,,,,,,
null,,learn_phase(without_color),387846,,black_plus_sign,,,,null,GW/westpalmbeach.png,GW/peoria.png,,,,,,,,,,,,,,,,,,,,,,,,,
null,,black_cross(without_color),388511,,yellow,,,,null,GW/westpalmbeach.png,GW/peoria.png,,,,,,,,,,,,,,,,,,,,,,,,,
null,,rt_plussign_withcolor,389023,,yellow,,,,null,GW/westpalmbeach.png,GW/peoria.png,,,,,,,,,,,,,,,,,,,,,,,,,
1187.0999999996275,,rt_thecrossant_black,390372,,black_plus_sign,,,,50,,,1,0.972972972972973,,,,,,,,,,,,,,,,,,,,,,,
null,,color_black,390479,,black_plus_sign,,,,null,,,,,,,,,,,,,,,,,,,,,,,,,,,
null,,learn_phase(without_color),393486,,black_plus_sign,,,,null,GW/peoria.png,GW/racine.png,,,,,,,,,,,,,,,,,,,,,,,,,
null,,black_cross(without_color),393990,,yellow,,,,null,GW/peoria.png,GW/racine.png,,,,,,,,,,,,,,,,,,,,,,,,,
406,,rt_plussign_withcolor,394492,,yellow,,,,50,GW/peoria.png,GW/racine.png,,,,,,,,,,,,,,,,,,,,,,,,,
null,,rt_thecrossant_black,395998,,black_plus_sign,,,,null,,,1,0.9736842105263158,,,,,,,,,,,,,,,,,,,,,,,
null,,color_black,396104,,black_plus_sign,,,,null,,,,,,,,,,,,,,,,,,,,,,,,,,,
null,,learn_phase(without_color),399111,,black_plus_sign,,,,null,GW/gatlinburg.png,GW/newhope.png,,,,,,,,,,,,,,,,,,,,,,,,,
null,,black_cross(without_color),399698,,blue,,,,null,GW/gatlinburg.png,GW/newhope.png,,,,,,,,,,,,,,,,,,,,,,,,,
492.59999999962747,,rt_plussign_withcolor,400202,,blue,,,,49,GW/gatlinburg.png,GW/newhope.png,,,,,,,,,,,,,,,,,,,,,,,,,
null,,rt_thecrossant_black,401626,,black_plus_sign,,,,null,,,1,0.9743589743589743,,,,,,,,,,,,,,,,,,,,,,,
null,,color_black,401732,,black_plus_sign,,,,null,,,,,,,,,,,,,,,,,,,,,,,,,,,
null,,learn_phase(without_color),404739,,black_plus_sign,,,,null,GW/newhope.png,GW/hotsprings.png,,,,,,,,,,,,,,,,,,,,,,,,,
null,,black_cross(without_color),405654,,blue,,,,null,GW/newhope.png,GW/hotsprings.png,,,,,,,,,,,,,,,,,,,,,,,,,
443.1000000014901,,rt_plussign_withcolor,406158,,blue,,,,49,GW/newhope.png,GW/hotsprings.png,,,,,,,,,,,,,,,,,,,,,,,,,
null,,rt_thecrossant_black,407253,,black_plus_sign,,,,null,,,1,0.975,,,,,,,,,,,,,,,,,,,,,,,
null,,color_black,407357,,black_plus_sign,,,,null,,,,,,,,,,,,,,,,,,,,,,,,,,,
null,,learn_phase(without_color),410362,,black_plus_sign,,,,null,GW/hanover.png,GW/newhope.png,,,,,,,,,,,,,,,,,,,,,,,,,
null,,black_cross(without_color),411378,,blue,,,,null,GW/hanover.png,GW/newhope.png,,,,,,,,,,,,,,,,,,,,,,,,,
null,,rt_plussign_withcolor,411881,,blue,,,,null,GW/hanover.png,GW/newhope.png,,,,,,,,,,,,,,,,,,,,,,,,,
1389,,rt_thecrossant_black,412877,,black_plus_sign,,,,49,,,1,0.975609756097561,,,,,,,,,,,,,,,,,,,,,,,
null,,color_black,412983,,black_plus_sign,,,,null,,,,,,,,,,,,,,,,,,,,,,,,,,,
null,,learn_phase(without_color),415992,,black_plus_sign,,,,null,GW/cornwall.png,GW/westpalmbeach.png,,,,,,,,,,,,,,,,,,,,,,,,,
null,,black_cross(without_color),416926,,blue,,,,null,GW/cornwall.png,GW/westpalmbeach.png,,,,,,,,,,,,,,,,,,,,,,,,,
null,,rt_plussign_withcolor,417429,,blue,,,,null,GW/cornwall.png,GW/westpalmbeach.png,,,,,,,,,,,,,,,,,,,,,,,,,
1563.699999999255,,rt_thecrossant_black,418505,,black_plus_sign,,,,49,,,1,0.9761904761904762,,,,,,,,,,,,,,,,,,,,,,,
null,,color_black,418612,,black_plus_sign,,,,null,,,,,,,,,,,,,,,,,,,,,,,,,,,
null,,learn_phase(without_color),421625,,black_plus_sign,,,,null,GW/huntsville.png,GW/boulder.png,,,,,,,,,,,,,,,,,,,,,,,,,
null,,black_cross(without_color),422688,,blue,,,,null,GW/huntsville.png,GW/boulder.png,,,,,,,,,,,,,,,,,,,,,,,,,
null,,rt_plussign_withcolor,423192,,blue,,,,null,GW/huntsville.png,GW/boulder.png,,,,,,,,,,,,,,,,,,,,,,,,,
1122.6000000014901,,rt_thecrossant_black,424142,,black_plus_sign,,,,49,,,1,0.9767441860465116,,,,,,,,,,,,,,,,,,,,,,,
null,,color_black,424248,,black_plus_sign,,,,null,,,,,,,,,,,,,,,,,,,,,,,,,,,
null,,learn_phase(without_color),427256,,black_plus_sign,,,,null,GW/peoria.png,GW/westpalmbeach.png,,,,,,,,,,,,,,,,,,,,,,,,,
null,,black_cross(without_color),428106,,blue,,,,null,GW/peoria.png,GW/westpalmbeach.png,,,,,,,,,,,,,,,,,,,,,,,,,
null,,rt_plussign_withcolor,428609,,blue,,,,null,GW/peoria.png,GW/westpalmbeach.png,,,,,,,,,,,,,,,,,,,,,,,,,
1188.3999999985099,,rt_thecrossant_black,429772,,black_plus_sign,,,,49,,,1,0.9772727272727273,,,,,,,,,,,,,,,,,,,,,,,
null,,color_black,429878,,black_plus_sign,,,,null,,,,,,,,,,,,,,,,,,,,,,,,,,,
null,,learn_phase(without_color),432884,,black_plus_sign,,,,null,GW/boulder.png,GW/huntsville.png,,,,,,,,,,,,,,,,,,,,,,,,,
null,,black_cross(without_color),433576,,yellow,,,,null,GW/boulder.png,GW/huntsville.png,,,,,,,,,,,,,,,,,,,,,,,,,
488.5,,rt_plussign_withcolor,434080,,yellow,,,,50,GW/boulder.png,GW/huntsville.png,,,,,,,,,,,,,,,,,,,,,,,,,
null,,rt_thecrossant_black,435399,,black_plus_sign,,,,null,,,1,0.9777777777777777,,,,,,,,,,,,,,,,,,,,,,,
null,,color_black,435505,,black_plus_sign,,,,null,,,,,,,,,,,,,,,,,,,,,,,,,,,
null,,learn_phase(without_color),438512,,black_plus_sign,,,,null,GW/leesburg.png,GW/gatlinburg.png,,,,,,,,,,,,,,,,,,,,,,,,,
null,,black_cross(without_color),439232,,yellow,,,,null,GW/leesburg.png,GW/gatlinburg.png,,,,,,,,,,,,,,,,,,,,,,,,,
null,,rt_plussign_withcolor,439736,,yellow,,,,null,GW/leesburg.png,GW/gatlinburg.png,,,,,,,,,,,,,,,,,,,,,,,,,
844.2999999988824,,rt_thecrossant_black,441032,,black_plus_sign,,,,50,,,1,0.9782608695652174,,,,,,,,,,,,,,,,,,,,,,,
null,,color_black,441138,,black_plus_sign,,,,null,,,,,,,,,,,,,,,,,,,,,,,,,,,
null,,learn_phase(without_color),444143,,black_plus_sign,,,,null,GW/shreveport.png,GW/hanover.png,,,,,,,,,,,,,,,,,,,,,,,,,
null,,black_cross(without_color),445160,,yellow,,,,null,GW/shreveport.png,GW/hanover.png,,,,,,,,,,,,,,,,,,,,,,,,,
null,,rt_plussign_withcolor,445664,,yellow,,,,null,GW/shreveport.png,GW/hanover.png,,,,,,,,,,,,,,,,,,,,,,,,,
824.5,,rt_thecrossant_black,446659,,black_plus_sign,,,,50,,,1,0.9787234042553191,,,,,,,,,,,,,,,,,,,,,,,
null,,color_black,446765,,black_plus_sign,,,,null,,,,,,,,,,,,,,,,,,,,,,,,,,,
null,,learn_phase(without_color),449772,,black_plus_sign,,,,null,GW/peoria.png,GW/racine.png,,,,,,,,,,,,,,,,,,,,,,,,,
null,,black_cross(without_color),450611,,yellow,,,,null,GW/peoria.png,GW/racine.png,,,,,,,,,,,,,,,,,,,,,,,,,
null,,rt_plussign_withcolor,451115,,yellow,,,,null,GW/peoria.png,GW/racine.png,,,,,,,,,,,,,,,,,,,,,,,,,
1451.6000000014901,,rt_thecrossant_black,452287,,black_plus_sign,,,,50,,,1,0.9791666666666666,,,,,,,,,,,,,,,,,,,,,,,
null,,color_black,452419,,black_plus_sign,,,,null,,,,,,,,,,,,,,,,,,,,,,,,,,,
null,,learn_phase(without_color),455426,,black_plus_sign,,,,null,GW/boulder.png,GW/huntsville.png,,,,,,,,,,,,,,,,,,,,,,,,,
null,,black_cross(without_color),455949,,yellow,,,,null,GW/boulder.png,GW/huntsville.png,,,,,,,,,,,,,,,,,,,,,,,,,
null,,rt_plussign_withcolor,456453,,yellow,,,,null,GW/boulder.png,GW/huntsville.png,,,,,,,,,,,,,,,,,,,,,,,,,
1144.9000000003725,,rt_thecrossant_black,457942,,black_plus_sign,,,,50,,,1,0.9795918367346939,,,,,,,,,,,,,,,,,,,,,,,
null,,color_black,458046,,black_plus_sign,,,,null,,,,,,,,,,,,,,,,,,,,,,,,,,,
null,,learn_phase(without_color),461055,,black_plus_sign,,,,null,GW/hanover.png,GW/shreveport.png,,,,,,,,,,,,,,,,,,,,,,,,,
null,,black_cross(without_color),461608,,blue,,,,null,GW/hanover.png,GW/shreveport.png,,,,,,,,,,,,,,,,,,,,,,,,,
null,,rt_plussign_withcolor,462113,,blue,,,,null,GW/hanover.png,GW/shreveport.png,,,,,,,,,,,,,,,,,,,,,,,,,
741.8000000007451,,rt_thecrossant_black,463577,,black_plus_sign,,,,49,,,1,0.98,,,,,,,,,,,,,,,,,,,,,,,
null,,color_black,463683,,black_plus_sign,,,,null,,,,,,,,,,,,,,,,,,,,,,,,,,,
null,,learn_phase(without_color),466691,,black_plus_sign,,,,null,GW/gatlinburg.png,GW/leesburg.png,,,,,,,,,,,,,,,,,,,,,,,,,
null,,black_cross(without_color),467247,,yellow,,,,null,GW/gatlinburg.png,GW/leesburg.png,,,,,,,,,,,,,,,,,,,,,,,,,
null,,rt_plussign_withcolor,467750,,yellow,,,,null,GW/gatlinburg.png,GW/leesburg.png,,,,,,,,,,,,,,,,,,,,,,,,,
1123.800000000745,,rt_thecrossant_black,469206,,black_plus_sign,,,,50,,,1,0.9803921568627451,,,,,,,,,,,,,,,,,,,,,,,
null,,color_black,469313,,black_plus_sign,,,,null,,,,,,,,,,,,,,,,,,,,,,,,,,,
null,,learn_phase(without_color),472321,,black_plus_sign,,,,null,GW/cornwall.png,GW/carmel.png,,,,,,,,,,,,,,,,,,,,,,,,,
null,,black_cross(without_color),473204,,yellow,,,,null,GW/cornwall.png,GW/carmel.png,,,,,,,,,,,,,,,,,,,,,,,,,
null,,rt_plussign_withcolor,473707,,yellow,,,,null,GW/cornwall.png,GW/carmel.png,,,,,,,,,,,,,,,,,,,,,,,,,
771.4000000003725,,rt_thecrossant_black,474836,,black_plus_sign,,,,50,,,1,0.9807692307692307,,,,,,,,,,,,,,,,,,,,,,,
null,,color_black,474942,,black_plus_sign,,,,null,,,,,,,,,,,,,,,,,,,,,,,,,,,
null,,learn_phase(without_color),477947,,black_plus_sign,,,,null,GW/peoria.png,GW/boulder.png,,,,,,,,,,,,,,,,,,,,,,,,,
null,,black_cross(without_color),478522,,yellow,,,,null,GW/peoria.png,GW/boulder.png,,,,,,,,,,,,,,,,,,,,,,,,,
null,,rt_plussign_withcolor,479025,,yellow,,,,null,GW/peoria.png,GW/boulder.png,,,,,,,,,,,,,,,,,,,,,,,,,
1356.300000000745,,rt_thecrossant_black,480462,,black_plus_sign,,,,50,,,1,0.9811320754716981,,,,,,,,,,,,,,,,,,,,,,,
null,,color_black,480567,,black_plus_sign,,,,null,,,,,,,,,,,,,,,,,,,,,,,,,,,
null,,learn_phase(without_color),483574,,black_plus_sign,,,,null,GW/westpalmbeach.png,GW/peoria.png,,,,,,,,,,,,,,,,,,,,,,,,,
null,,black_cross(without_color),484145,,blue,,,,null,GW/westpalmbeach.png,GW/peoria.png,,,,,,,,,,,,,,,,,,,,,,,,,
null,,rt_plussign_withcolor,484647,,blue,,,,null,GW/westpalmbeach.png,GW/peoria.png,,,,,,,,,,,,,,,,,,,,,,,,,
null,,rt_thecrossant_black,486086,,black_plus_sign,,,,null,,,,0.9811320754716981,,,,,,,,,,,,,,,,,,,,,,,
null,,color_black,486192,,black_plus_sign,,,,null,,,,,,,,,,,,,,,,,,,,,,,,,,,
null,,learn_phase(without_color),489199,,black_plus_sign,,,,null,GW/hotsprings.png,GW/newhope.png,,,,,,,,,,,,,,,,,,,,,,,,,
null,,black_cross(without_color),489709,,blue,,,,null,GW/hotsprings.png,GW/newhope.png,,,,,,,,,,,,,,,,,,,,,,,,,
null,,rt_plussign_withcolor,490213,,blue,,,,null,GW/hotsprings.png,GW/newhope.png,,,,,,,,,,,,,,,,,,,,,,,,,
1355,,rt_thecrossant_black,491720,,black_plus_sign,,,,49,,,1,0.9814814814814815,,,,,,,,,,,,,,,,,,,,,,,
null,,color_black,491826,,black_plus_sign,,,,null,,,,,,,,,,,,,,,,,,,,,,,,,,,
null,,learn_phase(without_color),494834,,black_plus_sign,,,,null,GW/newhope.png,GW/gatlinburg.png,,,,,,,,,,,,,,,,,,,,,,,,,
null,,black_cross(without_color),495292,,blue,,,,null,GW/newhope.png,GW/gatlinburg.png,,,,,,,,,,,,,,,,,,,,,,,,,
null,,rt_plussign_withcolor,495796,,blue,,,,null,GW/newhope.png,GW/gatlinburg.png,,,,,,,,,,,,,,,,,,,,,,,,,
626.5,,rt_thecrossant_black,497349,,black_plus_sign,,,,49,,,1,0.9818181818181818,,,,,,,,,,,,,,,,,,,,,,,
null,,color_black,497453,,black_plus_sign,,,,null,,,,,,,,,,,,,,,,,,,,,,,,,,,
null,,learn_phase(without_color),500462,,black_plus_sign,,,,null,GW/carmel.png,GW/cornwall.png,,,,,,,,,,,,,,,,,,,,,,,,,
null,,black_cross(without_color),500928,,blue,,,,null,GW/carmel.png,GW/cornwall.png,,,,,,,,,,,,,,,,,,,,,,,,,
null,,rt_plussign_withcolor,501432,,blue,,,,null,GW/carmel.png,GW/cornwall.png,,,,,,,,,,,,,,,,,,,,,,,,,
895.0999999996275,,rt_thecrossant_black,502977,,black_plus_sign,,,,49,,,1,0.9821428571428571,,,,,,,,,,,,,,,,,,,,,,,
null,,color_black,503083,,black_plus_sign,,,,null,,,,,,,,,,,,,,,,,,,,,,,,,,,
null,,learn_phase(without_color),506091,,black_plus_sign,,,,null,GW/cornwall.png,GW/westpalmbeach.png,,,,,,,,,,,,,,,,,,,,,,,,,
null,,black_cross(without_color),506757,,yellow,,,,null,GW/cornwall.png,GW/westpalmbeach.png,,,,,,,,,,,,,,,,,,,,,,,,,
null,,rt_plussign_withcolor,507267,,yellow,,,,null,GW/cornwall.png,GW/westpalmbeach.png,,,,,,,,,,,,,,,,,,,,,,,,,
584.5,,rt_thecrossant_black,508613,,black_plus_sign,,,,50,,,1,0.9824561403508771,,,,,,,,,,,,,,,,,,,,,,,
null,,color_black,508718,,black_plus_sign,,,,null,,,,,,,,,,,,,,,,,,,,,,,,,,,
null,,learn_phase(without_color),511726,,black_plus_sign,,,,null,GW/newhope.png,GW/hanover.png,,,,,,,,,,,,,,,,,,,,,,,,,
null,,black_cross(without_color),512285,,yellow,,,,null,GW/newhope.png,GW/hanover.png,,,,,,,,,,,,,,,,,,,,,,,,,
null,,rt_plussign_withcolor,512788,,yellow,,,,null,GW/newhope.png,GW/hanover.png,,,,,,,,,,,,,,,,,,,,,,,,,
807,,rt_thecrossant_black,514241,,black_plus_sign,,,,50,,,1,0.9827586206896551,,,,,,,,,,,,,,,,,,,,,,,
null,,color_black,514344,,black_plus_sign,,,,null,,,,,,,,,,,,,,,,,,,,,,,,,,,
null,,learn_phase(without_color),517353,,black_plus_sign,,,,null,GW/cornwall.png,GW/westpalmbeach.png,,,,,,,,,,,,,,,,,,,,,,,,,
null,,black_cross(without_color),518110,,blue,,,,null,GW/cornwall.png,GW/westpalmbeach.png,,,,,,,,,,,,,,,,,,,,,,,,,
null,,rt_plussign_withcolor,518613,,blue,,,,null,GW/cornwall.png,GW/westpalmbeach.png,,,,,,,,,,,,,,,,,,,,,,,,,
723.1999999992549,,rt_thecrossant_black,519866,,black_plus_sign,,,,49,,,1,0.9830508474576272,,,,,,,,,,,,,,,,,,,,,,,
null,,color_black,519972,,black_plus_sign,,,,null,,,,,,,,,,,,,,,,,,,,,,,,,,,
null,,learn_phase(without_color),522980,,black_plus_sign,,,,null,GW/peoria.png,GW/boulder.png,,,,,,,,,,,,,,,,,,,,,,,,,
null,,black_cross(without_color),523532,,yellow,,,,null,GW/peoria.png,GW/boulder.png,,,,,,,,,,,,,,,,,,,,,,,,,
null,,rt_plussign_withcolor,524035,,yellow,,,,null,GW/peoria.png,GW/boulder.png,,,,,,,,,,,,,,,,,,,,,,,,,
1221.2999999988824,,rt_thecrossant_black,525495,,black_plus_sign,,,,50,,,1,0.9833333333333333,,,,,,,,,,,,,,,,,,,,,,,
null,,color_black,525602,,black_plus_sign,,,,null,,,,,,,,,,,,,,,,,,,,,,,,,,,
null,,learn_phase(without_color),528609,,black_plus_sign,,,,null,GW/newhope.png,GW/gatlinburg.png,,,,,,,,,,,,,,,,,,,,,,,,,
null,,black_cross(without_color),529619,,yellow,,,,null,GW/newhope.png,GW/gatlinburg.png,,,,,,,,,,,,,,,,,,,,,,,,,
null,,rt_plussign_withcolor,530122,,yellow,,,,null,GW/newhope.png,GW/gatlinburg.png,,,,,,,,,,,,,,,,,,,,,,,,,
649.7999999988824,,rt_thecrossant_black,531127,,black_plus_sign,,,,50,,,1,0.9836065573770492,,,,,,,,,,,,,,,,,,,,,,,
null,,color_black,531232,,black_plus_sign,,,,null,,,,,,,,,,,,,,,,,,,,,,,,,,,
null,,learn_phase(without_color),534240,,black_plus_sign,,,,null,GW/newhope.png,GW/hanover.png,,,,,,,,,,,,,,,,,,,,,,,,,
null,,black_cross(without_color),535064,,yellow,,,,null,GW/newhope.png,GW/hanover.png,,,,,,,,,,,,,,,,,,,,,,,,,
null,,rt_plussign_withcolor,535568,,yellow,,,,null,GW/newhope.png,GW/hanover.png,,,,,,,,,,,,,,,,,,,,,,,,,
1451.699999999255,,rt_thecrossant_black,536756,,black_plus_sign,,,,50,,,1,0.9838709677419355,,,,,,,,,,,,,,,,,,,,,,,
null,,color_black,536862,,black_plus_sign,,,,null,,,,,,,,,,,,,,,,,,,,,,,,,,,
null,,learn_phase(without_color),539870,,black_plus_sign,,,,null,GW/carmel.png,GW/gatlinburg.png,,,,,,,,,,,,,,,,,,,,,,,,,
null,,black_cross(without_color),540414,,yellow,,,,null,GW/carmel.png,GW/gatlinburg.png,,,,,,,,,,,,,,,,,,,,,,,,,
null,,rt_plussign_withcolor,540918,,yellow,,,,null,GW/carmel.png,GW/gatlinburg.png,,,,,,,,,,,,,,,,,,,,,,,,,
1086.300000000745,,rt_thecrossant_black,542386,,black_plus_sign,,,,50,,,1,0.9841269841269841,,,,,,,,,,,,,,,,,,,,,,,
null,,color_black,542490,,black_plus_sign,,,,null,,,,,,,,,,,,,,,,,,,,,,,,,,,
null,,learn_break,602497,,learn_break,,,,null,,,,,,,,,,,,,,,,,,,,,,,,,,,
null,,html-keyboard-response,603501,,<p></p>,,,,null,,,,,,,,,,,,,,,,,,,,,,,,,,,
null,,learn_phase(without_color),606506,,black_plus_sign,,,,null,GW/gatlinburg.png,GW/leesburg.png,,,,,,,,,,,,,,,,,,,,,,,,,
null,,black_cross(without_color),607320,,blue,,,,null,GW/gatlinburg.png,GW/leesburg.png,,,,,,,,,,,,,,,,,,,,,,,,,
null,,rt_plussign_withcolor,607823,,blue,,,,null,GW/gatlinburg.png,GW/leesburg.png,,,,,,,,,,,,,,,,,,,,,,,,,
832.5,,rt_thecrossant_black,609021,,black_plus_sign,,,,49,,,1,0.984375,,,,,,,,,,,,,,,,,,,,,,,
null,,color_black,609125,,black_plus_sign,,,,null,,,,,,,,,,,,,,,,,,,,,,,,,,,
null,,learn_phase(without_color),612130,,black_plus_sign,,,,null,GW/newhope.png,GW/hanover.png,,,,,,,,,,,,,,,,,,,,,,,,,
null,,black_cross(without_color),613013,,yellow,,,,null,GW/newhope.png,GW/hanover.png,,,,,,,,,,,,,,,,,,,,,,,,,
null,,rt_plussign_withcolor,613516,,yellow,,,,null,GW/newhope.png,GW/hanover.png,,,,,,,,,,,,,,,,,,,,,,,,,
950.6000000014901,,rt_thecrossant_black,614645,,black_plus_sign,,,,50,,,1,0.9846153846153847,,,,,,,,,,,,,,,,,,,,,,,
null,,color_black,614751,,black_plus_sign,,,,null,,,,,,,,,,,,,,,,,,,,,,,,,,,
null,,learn_phase(without_color),617759,,black_plus_sign,,,,null,GW/gatlinburg.png,GW/newhope.png,,,,,,,,,,,,,,,,,,,,,,,,,
null,,black_cross(without_color),618423,,blue,,,,null,GW/gatlinburg.png,GW/newhope.png,,,,,,,,,,,,,,,,,,,,,,,,,
null,,rt_plussign_withcolor,618927,,blue,,,,null,GW/gatlinburg.png,GW/newhope.png,,,,,,,,,,,,,,,,,,,,,,,,,
1133.7999999988824,,rt_thecrossant_black,620274,,black_plus_sign,,,,49,,,1,0.9848484848484849,,,,,,,,,,,,,,,,,,,,,,,
null,,color_black,620380,,black_plus_sign,,,,null,,,,,,,,,,,,,,,,,,,,,,,,,,,
null,,learn_phase(without_color),623388,,black_plus_sign,,,,null,GW/racine.png,GW/peoria.png,,,,,,,,,,,,,,,,,,,,,,,,,
null,,black_cross(without_color),623911,,blue,,,,null,GW/racine.png,GW/peoria.png,,,,,,,,,,,,,,,,,,,,,,,,,
null,,rt_plussign_withcolor,624415,,blue,,,,null,GW/racine.png,GW/peoria.png,,,,,,,,,,,,,,,,,,,,,,,,,
986.8999999985099,,rt_thecrossant_black,625904,,black_plus_sign,,,,49,,,1,0.9850746268656716,,,,,,,,,,,,,,,,,,,,,,,
null,,color_black,626011,,black_plus_sign,,,,null,,,,,,,,,,,,,,,,,,,,,,,,,,,
null,,learn_phase(without_color),629019,,black_plus_sign,,,,null,GW/westpalmbeach.png,GW/peoria.png,,,,,,,,,,,,,,,,,,,,,,,,,
null,,black_cross(without_color),629778,,yellow,,,,null,GW/westpalmbeach.png,GW/peoria.png,,,,,,,,,,,,,,,,,,,,,,,,,
null,,rt_plussign_withcolor,630282,,yellow,,,,null,GW/westpalmbeach.png,GW/peoria.png,,,,,,,,,,,,,,,,,,,,,,,,,
632.7000000011176,,rt_thecrossant_black,631536,,black_plus_sign,,,,50,,,1,0.9852941176470589,,,,,,,,,,,,,,,,,,,,,,,
null,,color_black,631642,,black_plus_sign,,,,null,,,,,,,,,,,,,,,,,,,,,,,,,,,
null,,learn_phase(without_color),634650,,black_plus_sign,,,,null,GW/carmel.png,GW/gatlinburg.png,,,,,,,,,,,,,,,,,,,,,,,,,
null,,black_cross(without_color),635418,,yellow,,,,null,GW/carmel.png,GW/gatlinburg.png,,,,,,,,,,,,,,,,,,,,,,,,,
null,,rt_plussign_withcolor,635922,,yellow,,,,null,GW/carmel.png,GW/gatlinburg.png,,,,,,,,,,,,,,,,,,,,,,,,,
965.5,,rt_thecrossant_black,637166,,black_plus_sign,,,,50,,,1,0.9855072463768116,,,,,,,,,,,,,,,,,,,,,,,
null,,color_black,637272,,black_plus_sign,,,,null,,,,,,,,,,,,,,,,,,,,,,,,,,,
null,,learn_phase(without_color),640280,,black_plus_sign,,,,null,GW/gatlinburg.png,GW/newhope.png,,,,,,,,,,,,,,,,,,,,,,,,,
null,,black_cross(without_color),640692,,yellow,,,,null,GW/gatlinburg.png,GW/newhope.png,,,,,,,,,,,,,,,,,,,,,,,,,
null,,rt_plussign_withcolor,641196,,yellow,,,,null,GW/gatlinburg.png,GW/newhope.png,,,,,,,,,,,,,,,,,,,,,,,,,
904,,rt_thecrossant_black,642796,,black_plus_sign,,,,50,,,1,0.9857142857142858,,,,,,,,,,,,,,,,,,,,,,,
null,,color_black,642903,,black_plus_sign,,,,null,,,,,,,,,,,,,,,,,,,,,,,,,,,
null,,learn_phase(without_color),645911,,black_plus_sign,,,,null,GW/cornwall.png,GW/hanover.png,,,,,,,,,,,,,,,,,,,,,,,,,
null,,black_cross(without_color),646359,,yellow,,,,null,GW/cornwall.png,GW/hanover.png,,,,,,,,,,,,,,,,,,,,,,,,,
null,,rt_plussign_withcolor,646862,,yellow,,,,null,GW/cornwall.png,GW/hanover.png,,,,,,,,,,,,,,,,,,,,,,,,,
559.8000000007451,,rt_thecrossant_black,648426,,black_plus_sign,,,,50,,,1,0.9859154929577465,,,,,,,,,,,,,,,,,,,,,,,
null,,color_black,648533,,black_plus_sign,,,,null,,,,,,,,,,,,,,,,,,,,,,,,,,,
null,,learn_phase(without_color),651541,,black_plus_sign,,,,null,GW/shreveport.png,GW/westpalmbeach.png,,,,,,,,,,,,,,,,,,,,,,,,,
null,,black_cross(without_color),652055,,blue,,,,null,GW/shreveport.png,GW/westpalmbeach.png,,,,,,,,,,,,,,,,,,,,,,,,,
null,,rt_plussign_withcolor,652562,,blue,,,,null,GW/shreveport.png,GW/westpalmbeach.png,,,,,,,,,,,,,,,,,,,,,,,,,
560.5,,rt_thecrossant_black,654067,,black_plus_sign,,,,49,,,1,0.9861111111111112,,,,,,,,,,,,,,,,,,,,,,,
null,,color_black,654173,,black_plus_sign,,,,null,,,,,,,,,,,,,,,,,,,,,,,,,,,
null,,learn_phase(without_color),657182,,black_plus_sign,,,,null,GW/hanover.png,GW/cornwall.png,,,,,,,,,,,,,,,,,,,,,,,,,
null,,black_cross(without_color),657967,,blue,,,,null,GW/hanover.png,GW/cornwall.png,,,,,,,,,,,,,,,,,,,,,,,,,
null,,rt_plussign_withcolor,658471,,blue,,,,null,GW/hanover.png,GW/cornwall.png,,,,,,,,,,,,,,,,,,,,,,,,,
999.6999999992549,,rt_thecrossant_black,659697,,black_plus_sign,,,,49,,,1,0.9863013698630136,,,,,,,,,,,,,,,,,,,,,,,
null,,color_black,659803,,black_plus_sign,,,,null,,,,,,,,,,,,,,,,,,,,,,,,,,,
null,,learn_phase(without_color),662810,,black_plus_sign,,,,null,GW/gatlinburg.png,GW/leesburg.png,,,,,,,,,,,,,,,,,,,,,,,,,
null,,black_cross(without_color),663822,,blue,,,,null,GW/gatlinburg.png,GW/leesburg.png,,,,,,,,,,,,,,,,,,,,,,,,,
null,,rt_plussign_withcolor,664331,,blue,,,,null,GW/gatlinburg.png,GW/leesburg.png,,,,,,,,,,,,,,,,,,,,,,,,,
912.5999999996275,,rt_thecrossant_black,665335,,black_plus_sign,,,,49,,,1,0.9864864864864865,,,,,,,,,,,,,,,,,,,,,,,
null,,color_black,665441,,black_plus_sign,,,,null,,,,,,,,,,,,,,,,,,,,,,,,,,,
null,,learn_phase(without_color),668449,,black_plus_sign,,,,null,GW/shreveport.png,GW/westpalmbeach.png,,,,,,,,,,,,,,,,,,,,,,,,,
null,,black_cross(without_color),669280,,yellow,,,,null,GW/shreveport.png,GW/westpalmbeach.png,,,,,,,,,,,,,,,,,,,,,,,,,
null,,rt_plussign_withcolor,669784,,yellow,,,,null,GW/shreveport.png,GW/westpalmbeach.png,,,,,,,,,,,,,,,,,,,,,,,,,
1109.0999999996275,,rt_thecrossant_black,670964,,black_plus_sign,,,,50,,,1,0.9866666666666667,,,,,,,,,,,,,,,,,,,,,,,
null,,color_black,671070,,black_plus_sign,,,,null,,,,,,,,,,,,,,,,,,,,,,,,,,,
null,,learn_phase(without_color),674079,,black_plus_sign,,,,null,GW/westpalmbeach.png,GW/boulder.png,,,,,,,,,,,,,,,,,,,,,,,,,
null,,black_cross(without_color),674801,,yellow,,,,null,GW/westpalmbeach.png,GW/boulder.png,,,,,,,,,,,,,,,,,,,,,,,,,
null,,rt_plussign_withcolor,675305,,yellow,,,,null,GW/westpalmbeach.png,GW/boulder.png,,,,,,,,,,,,,,,,,,,,,,,,,
972.1000000014901,,rt_thecrossant_black,676596,,black_plus_sign,,,,50,,,1,0.9868421052631579,,,,,,,,,,,,,,,,,,,,,,,
null,,color_black,676702,,black_plus_sign,,,,null,,,,,,,,,,,,,,,,,,,,,,,,,,,
null,,learn_phase(without_color),679711,,black_plus_sign,,,,null,GW/westpalmbeach.png,GW/shreveport.png,,,,,,,,,,,,,,,,,,,,,,,,,
null,,black_cross(without_color),680305,,blue,,,,null,GW/westpalmbeach.png,GW/shreveport.png,,,,,,,,,,,,,,,,,,,,,,,,,
null,,rt_plussign_withcolor,680808,,blue,,,,null,GW/westpalmbeach.png,GW/shreveport.png,,,,,,,,,,,,,,,,,,,,,,,,,
856.5999999996275,,rt_thecrossant_black,682227,,black_plus_sign,,,,49,,,1,0.987012987012987,,,,,,,,,,,,,,,,,,,,,,,
null,,color_black,682333,,black_plus_sign,,,,null,,,,,,,,,,,,,,,,,,,,,,,,,,,
null,,learn_phase(without_color),685341,,black_plus_sign,,,,null,GW/newhope.png,GW/gatlinburg.png,,,,,,,,,,,,,,,,,,,,,,,,,
null,,black_cross(without_color),686270,,yellow,,,,null,GW/newhope.png,GW/gatlinburg.png,,,,,,,,,,,,,,,,,,,,,,,,,
null,,rt_plussign_withcolor,686774,,yellow,,,,null,GW/newhope.png,GW/gatlinburg.png,,,,,,,,,,,,,,,,,,,,,,,,,
812.0999999996275,,rt_thecrossant_black,687856,,black_plus_sign,,,,50,,,1,0.9871794871794872,,,,,,,,,,,,,,,,,,,,,,,
null,,color_black,687963,,black_plus_sign,,,,null,,,,,,,,,,,,,,,,,,,,,,,,,,,
null,,learn_phase(without_color),690971,,black_plus_sign,,,,null,GW/newhope.png,GW/gatlinburg.png,,,,,,,,,,,,,,,,,,,,,,,,,
null,,black_cross(without_color),691717,,yellow,,,,null,GW/newhope.png,GW/gatlinburg.png,,,,,,,,,,,,,,,,,,,,,,,,,
null,,rt_plussign_withcolor,692220,,yellow,,,,null,GW/newhope.png,GW/gatlinburg.png,,,,,,,,,,,,,,,,,,,,,,,,,
1063.4000000003725,,rt_thecrossant_black,693488,,black_plus_sign,,,,50,,,1,0.9873417721518988,,,,,,,,,,,,,,,,,,,,,,,
null,,color_black,693594,,black_plus_sign,,,,null,,,,,,,,,,,,,,,,,,,,,,,,,,,
null,,learn_phase(without_color),696602,,black_plus_sign,,,,null,GW/boulder.png,GW/peoria.png,,,,,,,,,,,,,,,,,,,,,,,,,
null,,black_cross(without_color),697034,,yellow,,,,null,GW/boulder.png,GW/peoria.png,,,,,,,,,,,,,,,,,,,,,,,,,
null,,rt_plussign_withcolor,697537,,yellow,,,,null,GW/boulder.png,GW/peoria.png,,,,,,,,,,,,,,,,,,,,,,,,,
947.9000000003725,,rt_thecrossant_black,699117,,black_plus_sign,,,,50,,,1,0.9875,,,,,,,,,,,,,,,,,,,,,,,
null,,color_black,699221,,black_plus_sign,,,,null,,,,,,,,,,,,,,,,,,,,,,,,,,,
null,,learn_phase(without_color),702230,,black_plus_sign,,,,null,GW/cornwall.png,GW/westpalmbeach.png,,,,,,,,,,,,,,,,,,,,,,,,,
null,,black_cross(without_color),702700,,blue,,,,null,GW/cornwall.png,GW/westpalmbeach.png,,,,,,,,,,,,,,,,,,,,,,,,,
null,,rt_plussign_withcolor,703205,,blue,,,,null,GW/cornwall.png,GW/westpalmbeach.png,,,,,,,,,,,,,,,,,,,,,,,,,
658.5999999996275,,rt_thecrossant_black,704746,,black_plus_sign,,,,49,,,1,0.9876543209876543,,,,,,,,,,,,,,,,,,,,,,,
null,,color_black,704852,,black_plus_sign,,,,null,,,,,,,,,,,,,,,,,,,,,,,,,,,
null,,learn_phase(without_color),707861,,black_plus_sign,,,,null,GW/cornwall.png,GW/westpalmbeach.png,,,,,,,,,,,,,,,,,,,,,,,,,
null,,black_cross(without_color),708286,,yellow,,,,null,GW/cornwall.png,GW/westpalmbeach.png,,,,,,,,,,,,,,,,,,,,,,,,,
null,,rt_plussign_withcolor,708789,,yellow,,,,null,GW/cornwall.png,GW/westpalmbeach.png,,,,,,,,,,,,,,,,,,,,,,,,,
632.5,,rt_thecrossant_black,710374,,black_plus_sign,,,,50,,,1,0.9878048780487805,,,,,,,,,,,,,,,,,,,,,,,
null,,color_black,710480,,black_plus_sign,,,,null,,,,,,,,,,,,,,,,,,,,,,,,,,,
null,,learn_phase(without_color),713488,,black_plus_sign,,,,null,GW/hotsprings.png,GW/newhope.png,,,,,,,,,,,,,,,,,,,,,,,,,
null,,black_cross(without_color),714339,,yellow,,,,null,GW/hotsprings.png,GW/newhope.png,,,,,,,,,,,,,,,,,,,,,,,,,
null,,rt_plussign_withcolor,714843,,yellow,,,,null,GW/hotsprings.png,GW/newhope.png,,,,,,,,,,,,,,,,,,,,,,,,,
null,,rt_thecrossant_black,716004,,black_plus_sign,,,,null,,,,0.9878048780487805,,,,,,,,,,,,,,,,,,,,,,,
null,,color_black,716110,,black_plus_sign,,,,null,,,,,,,,,,,,,,,,,,,,,,,,,,,
null,,learn_phase(without_color),719118,,black_plus_sign,,,,null,GW/shreveport.png,GW/peoria.png,,,,,,,,,,,,,,,,,,,,,,,,,
null,,black_cross(without_color),719871,,yellow,,,,null,GW/shreveport.png,GW/peoria.png,,,,,,,,,,,,,,,,,,,,,,,,,
null,,rt_plussign_withcolor,720375,,yellow,,,,null,GW/shreveport.png,GW/peoria.png,,,,,,,,,,,,,,,,,,,,,,,,,
949.0999999996275,,rt_thecrossant_black,721636,,black_plus_sign,,,,49,,,0,0.9759036144578314,,,,,,,,,,,,,,,,,,,,,,,
null,,warning_page,724643,,warning,,,,null,,,,,,,,,,,,,,,,,,,,,,,,,,,
null,,color_black,724747,,black_plus_sign,,,,null,,,,,,,,,,,,,,,,,,,,,,,,,,,
null,,learn_phase(without_color),727756,,black_plus_sign,,,,null,GW/westpalmbeach.png,GW/boulder.png,,,,,,,,,,,,,,,,,,,,,,,,,
null,,black_cross(without_color),728258,,blue,,,,null,GW/westpalmbeach.png,GW/boulder.png,,,,,,,,,,,,,,,,,,,,,,,,,
null,,rt_plussign_withcolor,728762,,blue,,,,null,GW/westpalmbeach.png,GW/boulder.png,,,,,,,,,,,,,,,,,,,,,,,,,
954.5999999996275,,rt_thecrossant_black,730271,,black_plus_sign,,,,49,,,1,0.9761904761904762,,,,,,,,,,,,,,,,,,,,,,,
null,,color_black,730378,,black_plus_sign,,,,null,,,,,,,,,,,,,,,,,,,,,,,,,,,
null,,learn_phase(without_color),733385,,black_plus_sign,,,,null,GW/peoria.png,GW/shreveport.png,,,,,,,,,,,,,,,,,,,,,,,,,
null,,black_cross(without_color),733939,,yellow,,,,null,GW/peoria.png,GW/shreveport.png,,,,,,,,,,,,,,,,,,,,,,,,,
null,,rt_plussign_withcolor,734443,,yellow,,,,null,GW/peoria.png,GW/shreveport.png,,,,,,,,,,,,,,,,,,,,,,,,,
713.1999999992549,,rt_thecrossant_black,735901,,black_plus_sign,,,,50,,,1,0.9764705882352941,,,,,,,,,,,,,,,,,,,,,,,
null,,color_black,736006,,black_plus_sign,,,,null,,,,,,,,,,,,,,,,,,,,,,,,,,,
null,,learn_phase(without_color),739011,,black_plus_sign,,,,null,GW/shreveport.png,GW/peoria.png,,,,,,,,,,,,,,,,,,,,,,,,,
null,,black_cross(without_color),739515,,blue,,,,null,GW/shreveport.png,GW/peoria.png,,,,,,,,,,,,,,,,,,,,,,,,,
null,,rt_plussign_withcolor,740025,,blue,,,,null,GW/shreveport.png,GW/peoria.png,,,,,,,,,,,,,,,,,,,,,,,,,
698,,rt_thecrossant_black,741533,,black_plus_sign,,,,49,,,1,0.9767441860465116,,,,,,,,,,,,,,,,,,,,,,,
null,,color_black,741639,,black_plus_sign,,,,null,,,,,,,,,,,,,,,,,,,,,,,,,,,
null,,learn_phase(without_color),744647,,black_plus_sign,,,,null,GW/westpalmbeach.png,GW/boulder.png,,,,,,,,,,,,,,,,,,,,,,,,,
null,,black_cross(without_color),745544,,blue,,,,null,GW/westpalmbeach.png,GW/boulder.png,,,,,,,,,,,,,,,,,,,,,,,,,
null,,rt_plussign_withcolor,746048,,blue,,,,null,GW/westpalmbeach.png,GW/boulder.png,,,,,,,,,,,,,,,,,,,,,,,,,
751.6999999992549,,rt_thecrossant_black,747165,,black_plus_sign,,,,49,,,1,0.9770114942528736,,,,,,,,,,,,,,,,,,,,,,,
null,,color_black,747271,,black_plus_sign,,,,null,,,,,,,,,,,,,,,,,,,,,,,,,,,
null,,learn_phase(without_color),750279,,black_plus_sign,,,,null,GW/hanover.png,GW/newhope.png,,,,,,,,,,,,,,,,,,,,,,,,,
null,,black_cross(without_color),751116,,blue,,,,null,GW/hanover.png,GW/newhope.png,,,,,,,,,,,,,,,,,,,,,,,,,
null,,rt_plussign_withcolor,751621,,blue,,,,null,GW/hanover.png,GW/newhope.png,,,,,,,,,,,,,,,,,,,,,,,,,
1215.2000000011176,,rt_thecrossant_black,752796,,black_plus_sign,,,,49,,,1,0.9772727272727273,,,,,,,,,,,,,,,,,,,,,,,
null,,color_black,752900,,black_plus_sign,,,,null,,,,,,,,,,,,,,,,,,,,,,,,,,,
null,,learn_phase(without_color),755905,,black_plus_sign,,,,null,GW/cornwall.png,GW/carmel.png,,,,,,,,,,,,,,,,,,,,,,,,,
null,,black_cross(without_color),756751,,blue,,,,null,GW/cornwall.png,GW/carmel.png,,,,,,,,,,,,,,,,,,,,,,,,,
499,,rt_plussign_withcolor,757255,,blue,,,,49,GW/cornwall.png,GW/carmel.png,,,,,,,,,,,,,,,,,,,,,,,,,
null,,rt_thecrossant_black,758421,,black_plus_sign,,,,null,,,1,0.9775280898876404,,,,,,,,,,,,,,,,,,,,,,,
null,,color_black,758524,,black_plus_sign,,,,null,,,,,,,,,,,,,,,,,,,,,,,,,,,
null,,learn_phase(without_color),761530,,black_plus_sign,,,,null,GW/hotsprings.png,GW/newhope.png,,,,,,,,,,,,,,,,,,,,,,,,,
null,,black_cross(without_color),762620,,yellow,,,,null,GW/hotsprings.png,GW/newhope.png,,,,,,,,,,,,,,,,,,,,,,,,,
null,,rt_plussign_withcolor,763124,,yellow,,,,null,GW/hotsprings.png,GW/newhope.png,,,,,,,,,,,,,,,,,,,,,,,,,
978.6000000014901,,rt_thecrossant_black,764046,,black_plus_sign,,,,50,,,1,0.9777777777777777,,,,,,,,,,,,,,,,,,,,,,,
null,,color_black,764153,,black_plus_sign,,,,null,,,,,,,,,,,,,,,,,,,,,,,,,,,
null,,learn_phase(without_color),767160,,black_plus_sign,,,,null,GW/carmel.png,GW/cornwall.png,,,,,,,,,,,,,,,,,,,,,,,,,
null,,black_cross(without_color),767897,,yellow,,,,null,GW/carmel.png,GW/cornwall.png,,,,,,,,,,,,,,,,,,,,,,,,,
null,,rt_plussign_withcolor,768401,,yellow,,,,null,GW/carmel.png,GW/cornwall.png,,,,,,,,,,,,,,,,,,,,,,,,,
1203.5,,rt_thecrossant_black,769677,,black_plus_sign,,,,50,,,1,0.978021978021978,,,,,,,,,,,,,,,,,,,,,,,
null,,color_black,769784,,black_plus_sign,,,,null,,,,,,,,,,,,,,,,,,,,,,,,,,,
null,,learn_phase(without_color),772792,,black_plus_sign,,,,null,GW/newhope.png,GW/hanover.png,,,,,,,,,,,,,,,,,,,,,,,,,
null,,black_cross(without_color),773808,,blue,,,,null,GW/newhope.png,GW/hanover.png,,,,,,,,,,,,,,,,,,,,,,,,,
null,,rt_plussign_withcolor,774312,,blue,,,,null,GW/newhope.png,GW/hanover.png,,,,,,,,,,,,,,,,,,,,,,,,,
914.1999999992549,,rt_thecrossant_black,775308,,black_plus_sign,,,,49,,,1,0.9782608695652174,,,,,,,,,,,,,,,,,,,,,,,
null,,color_black,775414,,black_plus_sign,,,,null,,,,,,,,,,,,,,,,,,,,,,,,,,,
null,,learn_phase(without_color),778423,,black_plus_sign,,,,null,GW/shreveport.png,GW/hanover.png,,,,,,,,,,,,,,,,,,,,,,,,,
null,,black_cross(without_color),779013,,yellow,,,,null,GW/shreveport.png,GW/hanover.png,,,,,,,,,,,,,,,,,,,,,,,,,
null,,rt_plussign_withcolor,779517,,yellow,,,,null,GW/shreveport.png,GW/hanover.png,,,,,,,,,,,,,,,,,,,,,,,,,
1179.7000000011176,,rt_thecrossant_black,780940,,black_plus_sign,,,,50,,,1,0.978494623655914,,,,,,,,,,,,,,,,,,,,,,,
null,,color_black,781046,,black_plus_sign,,,,null,,,,,,,,,,,,,,,,,,,,,,,,,,,
null,,learn_phase(without_color),784055,,black_plus_sign,,,,null,GW/racine.png,GW/peoria.png,,,,,,,,,,,,,,,,,,,,,,,,,
null,,black_cross(without_color),785077,,yellow,,,,null,GW/racine.png,GW/peoria.png,,,,,,,,,,,,,,,,,,,,,,,,,
null,,rt_plussign_withcolor,785581,,yellow,,,,null,GW/racine.png,GW/peoria.png,,,,,,,,,,,,,,,,,,,,,,,,,
782.0999999996275,,rt_thecrossant_black,786578,,black_plus_sign,,,,50,,,1,0.9787234042553191,,,,,,,,,,,,,,,,,,,,,,,
null,,color_black,786685,,black_plus_sign,,,,null,,,,,,,,,,,,,,,,,,,,,,,,,,,
null,,learn_phase(without_color),789694,,black_plus_sign,,,,null,GW/gatlinburg.png,GW/leesburg.png,,,,,,,,,,,,,,,,,,,,,,,,,
null,,black_cross(without_color),790292,,blue,,,,null,GW/gatlinburg.png,GW/leesburg.png,,,,,,,,,,,,,,,,,,,,,,,,,
null,,rt_plussign_withcolor,790795,,blue,,,,null,GW/gatlinburg.png,GW/leesburg.png,,,,,,,,,,,,,,,,,,,,,,,,,
1311.5,,rt_thecrossant_black,792209,,black_plus_sign,,,,49,,,1,0.9789473684210527,,,,,,,,,,,,,,,,,,,,,,,
null,,color_black,792315,,black_plus_sign,,,,null,,,,,,,,,,,,,,,,,,,,,,,,,,,
null,,learn_phase(without_color),795324,,black_plus_sign,,,,null,GW/carmel.png,GW/gatlinburg.png,,,,,,,,,,,,,,,,,,,,,,,,,
null,,black_cross(without_color),796024,,blue,,,,null,GW/carmel.png,GW/gatlinburg.png,,,,,,,,,,,,,,,,,,,,,,,,,
null,,rt_plussign_withcolor,796533,,blue,,,,null,GW/carmel.png,GW/gatlinburg.png,,,,,,,,,,,,,,,,,,,,,,,,,
694.3999999985099,,rt_thecrossant_black,797852,,black_plus_sign,,,,49,,,1,0.9791666666666666,,,,,,,,,,,,,,,,,,,,,,,
null,,color_black,797956,,black_plus_sign,,,,null,,,,,,,,,,,,,,,,,,,,,,,,,,,
null,,learn_phase(without_color),800961,,black_plus_sign,,,,null,GW/westpalmbeach.png,GW/shreveport.png,,,,,,,,,,,,,,,,,,,,,,,,,
null,,black_cross(without_color),801734,,yellow,,,,null,GW/westpalmbeach.png,GW/shreveport.png,,,,,,,,,,,,,,,,,,,,,,,,,
null,,rt_plussign_withcolor,802238,,yellow,,,,null,GW/westpalmbeach.png,GW/shreveport.png,,,,,,,,,,,,,,,,,,,,,,,,,
823.8000000007451,,rt_thecrossant_black,803478,,black_plus_sign,,,,50,,,1,0.979381443298969,,,,,,,,,,,,,,,,,,,,,,,
null,,color_black,803585,,black_plus_sign,,,,null,,,,,,,,,,,,,,,,,,,,,,,,,,,
null,,learn_phase(without_color),806593,,black_plus_sign,,,,null,GW/gatlinburg.png,GW/leesburg.png,,,,,,,,,,,,,,,,,,,,,,,,,
null,,black_cross(without_color),807435,,blue,,,,null,GW/gatlinburg.png,GW/leesburg.png,,,,,,,,,,,,,,,,,,,,,,,,,
480.59999999962747,,rt_plussign_withcolor,807938,,blue,,,,49,GW/gatlinburg.png,GW/leesburg.png,,,,,,,,,,,,,,,,,,,,,,,,,
null,,rt_thecrossant_black,809109,,black_plus_sign,,,,null,,,1,0.9795918367346939,,,,,,,,,,,,,,,,,,,,,,,
null,,color_black,809215,,black_plus_sign,,,,null,,,,,,,,,,,,,,,,,,,,,,,,,,,
null,,learn_phase(without_color),812225,,black_plus_sign,,,,null,GW/westpalmbeach.png,GW/boulder.png,,,,,,,,,,,,,,,,,,,,,,,,,
null,,black_cross(without_color),813011,,yellow,,,,null,GW/westpalmbeach.png,GW/boulder.png,,,,,,,,,,,,,,,,,,,,,,,,,
null,,rt_plussign_withcolor,813515,,yellow,,,,null,GW/westpalmbeach.png,GW/boulder.png,,,,,,,,,,,,,,,,,,,,,,,,,
987.8999999985099,,rt_thecrossant_black,814742,,black_plus_sign,,,,50,,,1,0.9797979797979798,,,,,,,,,,,,,,,,,,,,,,,
null,,color_black,814850,,black_plus_sign,,,,null,,,,,,,,,,,,,,,,,,,,,,,,,,,
null,,learn_phase(without_color),817858,,black_plus_sign,,,,null,GW/westpalmbeach.png,GW/boulder.png,,,,,,,,,,,,,,,,,,,,,,,,,
null,,black_cross(without_color),818643,,yellow,,,,null,GW/westpalmbeach.png,GW/boulder.png,,,,,,,,,,,,,,,,,,,,,,,,,
472,,rt_plussign_withcolor,819145,,yellow,,,,50,GW/westpalmbeach.png,GW/boulder.png,,,,,,,,,,,,,,,,,,,,,,,,,
null,,rt_thecrossant_black,820374,,black_plus_sign,,,,null,,,1,0.98,,,,,,,,,,,,,,,,,,,,,,,
null,,color_black,820480,,black_plus_sign,,,,null,,,,,,,,,,,,,,,,,,,,,,,,,,,
null,,learn_phase(without_color),823486,,black_plus_sign,,,,null,GW/racine.png,GW/peoria.png,,,,,,,,,,,,,,,,,,,,,,,,,
null,,black_cross(without_color),823963,,yellow,,,,null,GW/racine.png,GW/peoria.png,,,,,,,,,,,,,,,,,,,,,,,,,
null,,rt_plussign_withcolor,824468,,yellow,,,,null,GW/racine.png,GW/peoria.png,,,,,,,,,,,,,,,,,,,,,,,,,
958.2000000011176,,rt_thecrossant_black,826002,,black_plus_sign,,,,50,,,1,0.9801980198019802,,,,,,,,,,,,,,,,,,,,,,,
null,,color_black,826108,,black_plus_sign,,,,null,,,,,,,,,,,,,,,,,,,,,,,,,,,
null,,learn_phase(without_color),829117,,black_plus_sign,,,,null,GW/boulder.png,GW/huntsville.png,,,,,,,,,,,,,,,,,,,,,,,,,
null,,black_cross(without_color),829573,,yellow,,,,null,GW/boulder.png,GW/huntsville.png,,,,,,,,,,,,,,,,,,,,,,,,,
null,,rt_plussign_withcolor,830077,,yellow,,,,null,GW/boulder.png,GW/huntsville.png,,,,,,,,,,,,,,,,,,,,,,,,,
637.5999999996275,,rt_thecrossant_black,831634,,black_plus_sign,,,,50,,,1,0.9803921568627451,,,,,,,,,,,,,,,,,,,,,,,
null,,color_black,831746,,black_plus_sign,,,,null,,,,,,,,,,,,,,,,,,,,,,,,,,,
null,,learn_phase(without_color),834751,,black_plus_sign,,,,null,GW/cornwall.png,GW/carmel.png,,,,,,,,,,,,,,,,,,,,,,,,,
null,,black_cross(without_color),835431,,yellow,,,,null,GW/cornwall.png,GW/carmel.png,,,,,,,,,,,,,,,,,,,,,,,,,
444.7999999988824,,rt_plussign_withcolor,835936,,yellow,,,,50,GW/cornwall.png,GW/carmel.png,,,,,,,,,,,,,,,,,,,,,,,,,
null,,rt_thecrossant_black,837270,,black_plus_sign,,,,null,,,1,0.9805825242718447,,,,,,,,,,,,,,,,,,,,,,,
null,,color_black,837377,,black_plus_sign,,,,null,,,,,,,,,,,,,,,,,,,,,,,,,,,
null,,learn_phase(without_color),840385,,black_plus_sign,,,,null,GW/hotsprings.png,GW/newhope.png,,,,,,,,,,,,,,,,,,,,,,,,,
null,,black_cross(without_color),841170,,blue,,,,null,GW/hotsprings.png,GW/newhope.png,,,,,,,,,,,,,,,,,,,,,,,,,
463.59999999962747,,rt_plussign_withcolor,841674,,blue,,,,49,GW/hotsprings.png,GW/newhope.png,,,,,,,,,,,,,,,,,,,,,,,,,
null,,rt_thecrossant_black,842900,,black_plus_sign,,,,null,,,1,0.9807692307692307,,,,,,,,,,,,,,,,,,,,,,,
null,,color_black,843004,,black_plus_sign,,,,null,,,,,,,,,,,,,,,,,,,,,,,,,,,
null,,learn_phase(without_color),846010,,black_plus_sign,,,,null,GW/racine.png,GW/peoria.png,,,,,,,,,,,,,,,,,,,,,,,,,
null,,black_cross(without_color),847112,,blue,,,,null,GW/racine.png,GW/peoria.png,,,,,,,,,,,,,,,,,,,,,,,,,
434.80000000074506,,rt_plussign_withcolor,847616,,blue,,,,49,GW/racine.png,GW/peoria.png,,,,,,,,,,,,,,,,,,,,,,,,,
null,,rt_thecrossant_black,848526,,black_plus_sign,,,,null,,,1,0.9809523809523809,,,,,,,,,,,,,,,,,,,,,,,
null,,color_black,848632,,black_plus_sign,,,,null,,,,,,,,,,,,,,,,,,,,,,,,,,,
null,,learn_phase(without_color),851642,,black_plus_sign,,,,null,GW/hanover.png,GW/cornwall.png,,,,,,,,,,,,,,,,,,,,,,,,,
null,,black_cross(without_color),852192,,yellow,,,,null,GW/hanover.png,GW/cornwall.png,,,,,,,,,,,,,,,,,,,,,,,,,
447.80000000074506,,rt_plussign_withcolor,852696,,yellow,,,,50,GW/hanover.png,GW/cornwall.png,,,,,,,,,,,,,,,,,,,,,,,,,
null,,rt_thecrossant_black,854158,,black_plus_sign,,,,null,,,1,0.9811320754716981,,,,,,,,,,,,,,,,,,,,,,,
null,,color_black,854264,,black_plus_sign,,,,null,,,,,,,,,,,,,,,,,,,,,,,,,,,
null,,learn_phase(without_color),857270,,black_plus_sign,,,,null,GW/shreveport.png,GW/westpalmbeach.png,,,,,,,,,,,,,,,,,,,,,,,,,
null,,black_cross(without_color),858231,,blue,,,,null,GW/shreveport.png,GW/westpalmbeach.png,,,,,,,,,,,,,,,,,,,,,,,,,
439,,rt_plussign_withcolor,858734,,blue,,,,49,GW/shreveport.png,GW/westpalmbeach.png,,,,,,,,,,,,,,,,,,,,,,,,,
null,,rt_thecrossant_black,859784,,black_plus_sign,,,,null,,,1,0.9813084112149533,,,,,,,,,,,,,,,,,,,,,,,
null,,color_black,859890,,black_plus_sign,,,,null,,,,,,,,,,,,,,,,,,,,,,,,,,,
null,,learn_phase(without_color),862899,,black_plus_sign,,,,null,GW/boulder.png,GW/peoria.png,,,,,,,,,,,,,,,,,,,,,,,,,
null,,black_cross(without_color),863814,,blue,,,,null,GW/boulder.png,GW/peoria.png,,,,,,,,,,,,,,,,,,,,,,,,,
null,,rt_plussign_withcolor,864318,,blue,,,,null,GW/boulder.png,GW/peoria.png,,,,,,,,,,,,,,,,,,,,,,,,,
1077.199999999255,,rt_thecrossant_black,865415,,black_plus_sign,,,,49,,,1,0.9814814814814815,,,,,,,,,,,,,,,,,,,,,,,
null,,color_black,865522,,black_plus_sign,,,,null,,,,,,,,,,,,,,,,,,,,,,,,,,,
null,,learn_phase(without_color),868530,,black_plus_sign,,,,null,GW/hanover.png,GW/newhope.png,,,,,,,,,,,,,,,,,,,,,,,,,
null,,black_cross(without_color),869424,,blue,,,,null,GW/hanover.png,GW/newhope.png,,,,,,,,,,,,,,,,,,,,,,,,,
null,,rt_plussign_withcolor,869928,,blue,,,,null,GW/hanover.png,GW/newhope.png,,,,,,,,,,,,,,,,,,,,,,,,,
1027.699999999255,,rt_thecrossant_black,871048,,black_plus_sign,,,,49,,,1,0.981651376146789,,,,,,,,,,,,,,,,,,,,,,,
null,,color_black,871155,,black_plus_sign,,,,null,,,,,,,,,,,,,,,,,,,,,,,,,,,
null,,learn_phase(without_color),874163,,black_plus_sign,,,,null,GW/shreveport.png,GW/westpalmbeach.png,,,,,,,,,,,,,,,,,,,,,,,,,
null,,black_cross(without_color),875013,,yellow,,,,null,GW/shreveport.png,GW/westpalmbeach.png,,,,,,,,,,,,,,,,,,,,,,,,,
null,,rt_plussign_withcolor,875520,,yellow,,,,null,GW/shreveport.png,GW/westpalmbeach.png,,,,,,,,,,,,,,,,,,,,,,,,,
989.9000000003725,,rt_thecrossant_black,876680,,black_plus_sign,,,,50,,,1,0.9818181818181818,,,,,,,,,,,,,,,,,,,,,,,
null,,color_black,876789,,black_plus_sign,,,,null,,,,,,,,,,,,,,,,,,,,,,,,,,,
null,,learn_phase(without_color),879797,,black_plus_sign,,,,null,GW/peoria.png,GW/boulder.png,,,,,,,,,,,,,,,,,,,,,,,,,
null,,black_cross(without_color),880692,,yellow,,,,null,GW/peoria.png,GW/boulder.png,,,,,,,,,,,,,,,,,,,,,,,,,
460.30000000074506,,rt_plussign_withcolor,881195,,yellow,,,,50,GW/peoria.png,GW/boulder.png,,,,,,,,,,,,,,,,,,,,,,,,,
null,,rt_thecrossant_black,882313,,black_plus_sign,,,,null,,,1,0.9819819819819819,,,,,,,,,,,,,,,,,,,,,,,
null,,color_black,882419,,black_plus_sign,,,,null,,,,,,,,,,,,,,,,,,,,,,,,,,,
null,,learn_phase(without_color),885428,,black_plus_sign,,,,null,GW/cornwall.png,GW/westpalmbeach.png,,,,,,,,,,,,,,,,,,,,,,,,,
null,,black_cross(without_color),886529,,yellow,,,,null,GW/cornwall.png,GW/westpalmbeach.png,,,,,,,,,,,,,,,,,,,,,,,,,
492.7999999988824,,rt_plussign_withcolor,887033,,yellow,,,,50,GW/cornwall.png,GW/westpalmbeach.png,,,,,,,,,,,,,,,,,,,,,,,,,
null,,rt_thecrossant_black,887943,,black_plus_sign,,,,null,,,1,0.9821428571428571,,,,,,,,,,,,,,,,,,,,,,,
null,,color_black,888047,,black_plus_sign,,,,null,,,,,,,,,,,,,,,,,,,,,,,,,,,
null,,learn_phase(without_color),891053,,black_plus_sign,,,,null,GW/westpalmbeach.png,GW/peoria.png,,,,,,,,,,,,,,,,,,,,,,,,,
null,,black_cross(without_color),891631,,yellow,,,,null,GW/westpalmbeach.png,GW/peoria.png,,,,,,,,,,,,,,,,,,,,,,,,,
null,,rt_plussign_withcolor,892134,,yellow,,,,null,GW/westpalmbeach.png,GW/peoria.png,,,,,,,,,,,,,,,,,,,,,,,,,
1441,,rt_thecrossant_black,893569,,black_plus_sign,,,,50,,,1,0.9823008849557522,,,,,,,,,,,,,,,,,,,,,,,
null,,color_black,893675,,black_plus_sign,,,,null,,,,,,,,,,,,,,,,,,,,,,,,,,,
null,,learn_phase(without_color),896684,,black_plus_sign,,,,null,GW/carmel.png,GW/cornwall.png,,,,,,,,,,,,,,,,,,,,,,,,,
null,,black_cross(without_color),897703,,blue,,,,null,GW/carmel.png,GW/cornwall.png,,,,,,,,,,,,,,,,,,,,,,,,,
null,,rt_plussign_withcolor,898208,,blue,,,,null,GW/carmel.png,GW/cornwall.png,,,,,,,,,,,,,,,,,,,,,,,,,
687.8000000007451,,rt_thecrossant_black,899202,,black_plus_sign,,,,49,,,1,0.9824561403508771,,,,,,,,,,,,,,,,,,,,,,,
null,,color_black,899309,,black_plus_sign,,,,null,,,,,,,,,,,,,,,,,,,,,,,,,,,
null,,learn_phase(without_color),902317,,black_plus_sign,,,,null,GW/hanover.png,GW/newhope.png,,,,,,,,,,,,,,,,,,,,,,,,,
null,,black_cross(without_color),903085,,yellow,,,,null,GW/hanover.png,GW/newhope.png,,,,,,,,,,,,,,,,,,,,,,,,,
376,,rt_plussign_withcolor,903589,,yellow,,,,49,GW/hanover.png,GW/newhope.png,,,,,,,,,,,,,,,,,,,,,,,,,
null,,rt_thecrossant_black,904837,,black_plus_sign,,,,50,,,0,0.9739130434782609,,,,,,,,,,,,,,,,,,,,,,,
null,,color_black,904943,,black_plus_sign,,,,null,,,,,,,,,,,,,,,,,,,,,,,,,,,
null,,learn_phase(without_color),907953,,black_plus_sign,,,,null,GW/hanover.png,GW/shreveport.png,,,,,,,,,,,,,,,,,,,,,,,,,
null,,black_cross(without_color),908903,,blue,,,,null,GW/hanover.png,GW/shreveport.png,,,,,,,,,,,,,,,,,,,,,,,,,
null,,rt_plussign_withcolor,909407,,blue,,,,null,GW/hanover.png,GW/shreveport.png,,,,,,,,,,,,,,,,,,,,,,,,,
867.0999999996275,,rt_thecrossant_black,910469,,black_plus_sign,,,,49,,,1,0.9741379310344828,,,,,,,,,,,,,,,,,,,,,,,
null,,color_black,910575,,black_plus_sign,,,,null,,,,,,,,,,,,,,,,,,,,,,,,,,,
null,,learn_phase(without_color),913583,,black_plus_sign,,,,null,GW/shreveport.png,GW/hanover.png,,,,,,,,,,,,,,,,,,,,,,,,,
null,,black_cross(without_color),914518,,blue,,,,null,GW/shreveport.png,GW/hanover.png,,,,,,,,,,,,,,,,,,,,,,,,,
496.69999999925494,,rt_plussign_withcolor,915023,,blue,,,,49,GW/shreveport.png,GW/hanover.png,,,,,,,,,,,,,,,,,,,,,,,,,
null,,rt_thecrossant_black,916106,,black_plus_sign,,,,null,,,1,0.9743589743589743,,,,,,,,,,,,,,,,,,,,,,,
null,,color_black,916214,,black_plus_sign,,,,null,,,,,,,,,,,,,,,,,,,,,,,,,,,
null,,learn_phase(without_color),919222,,black_plus_sign,,,,null,GW/cornwall.png,GW/hanover.png,,,,,,,,,,,,,,,,,,,,,,,,,
null,,black_cross(without_color),919752,,yellow,,,,null,GW/cornwall.png,GW/hanover.png,,,,,,,,,,,,,,,,,,,,,,,,,
null,,rt_plussign_withcolor,920256,,yellow,,,,null,GW/cornwall.png,GW/hanover.png,,,,,,,,,,,,,,,,,,,,,,,,,
1331,,rt_thecrossant_black,921741,,black_plus_sign,,,,50,,,1,0.9745762711864406,,,,,,,,,,,,,,,,,,,,,,,
null,,color_black,921847,,black_plus_sign,,,,null,,,,,,,,,,,,,,,,,,,,,,,,,,,
null,,learn_phase(without_color),924856,,black_plus_sign,,,,null,GW/hanover.png,GW/shreveport.png,,,,,,,,,,,,,,,,,,,,,,,,,
null,,black_cross(without_color),925764,,blue,,,,null,GW/hanover.png,GW/shreveport.png,,,,,,,,,,,,,,,,,,,,,,,,,
null,,rt_plussign_withcolor,926268,,blue,,,,null,GW/hanover.png,GW/shreveport.png,,,,,,,,,,,,,,,,,,,,,,,,,
663,,rt_thecrossant_black,927372,,black_plus_sign,,,,49,,,1,0.9747899159663865,,,,,,,,,,,,,,,,,,,,,,,
null,,color_black,927479,,black_plus_sign,,,,null,,,,,,,,,,,,,,,,,,,,,,,,,,,
null,,learn_phase(without_color),930488,,black_plus_sign,,,,null,GW/shreveport.png,GW/peoria.png,,,,,,,,,,,,,,,,,,,,,,,,,
null,,black_cross(without_color),931078,,yellow,,,,null,GW/shreveport.png,GW/peoria.png,,,,,,,,,,,,,,,,,,,,,,,,,
null,,rt_plussign_withcolor,931583,,yellow,,,,null,GW/shreveport.png,GW/peoria.png,,,,,,,,,,,,,,,,,,,,,,,,,
1121.699999999255,,rt_thecrossant_black,933008,,black_plus_sign,,,,50,,,1,0.975,,,,,,,,,,,,,,,,,,,,,,,
null,,color_black,933112,,black_plus_sign,,,,null,,,,,,,,,,,,,,,,,,,,,,,,,,,
null,,learn_phase(without_color),936117,,black_plus_sign,,,,null,GW/huntsville.png,GW/boulder.png,,,,,,,,,,,,,,,,,,,,,,,,,
null,,black_cross(without_color),937154,,yellow,,,,null,GW/huntsville.png,GW/boulder.png,,,,,,,,,,,,,,,,,,,,,,,,,
463.2000000011176,,rt_plussign_withcolor,937657,,yellow,,,,50,GW/huntsville.png,GW/boulder.png,,,,,,,,,,,,,,,,,,,,,,,,,
null,,rt_thecrossant_black,938631,,black_plus_sign,,,,null,,,1,0.9752066115702479,,,,,,,,,,,,,,,,,,,,,,,
null,,color_black,938735,,black_plus_sign,,,,null,,,,,,,,,,,,,,,,,,,,,,,,,,,
null,,learn_phase(without_color),941740,,black_plus_sign,,,,null,GW/carmel.png,GW/cornwall.png,,,,,,,,,,,,,,,,,,,,,,,,,
null,,black_cross(without_color),942178,,yellow,,,,null,GW/carmel.png,GW/cornwall.png,,,,,,,,,,,,,,,,,,,,,,,,,
null,,rt_plussign_withcolor,942684,,yellow,,,,null,GW/carmel.png,GW/cornwall.png,,,,,,,,,,,,,,,,,,,,,,,,,
1214.0999999996275,,rt_thecrossant_black,944265,,black_plus_sign,,,,50,,,1,0.9754098360655737,,,,,,,,,,,,,,,,,,,,,,,
null,,color_black,944371,,black_plus_sign,,,,null,,,,,,,,,,,,,,,,,,,,,,,,,,,
null,,learn_phase(without_color),947376,,black_plus_sign,,,,null,GW/hanover.png,GW/cornwall.png,,,,,,,,,,,,,,,,,,,,,,,,,
null,,black_cross(without_color),948221,,yellow,,,,null,GW/hanover.png,GW/cornwall.png,,,,,,,,,,,,,,,,,,,,,,,,,
465.59999999962747,,rt_plussign_withcolor,948725,,yellow,,,,50,GW/hanover.png,GW/cornwall.png,,,,,,,,,,,,,,,,,,,,,,,,,
null,,rt_thecrossant_black,949891,,black_plus_sign,,,,null,,,1,0.975609756097561,,,,,,,,,,,,,,,,,,,,,,,
null,,color_black,949998,,black_plus_sign,,,,null,,,,,,,,,,,,,,,,,,,,,,,,,,,
null,,learn_phase(without_color),953007,,black_plus_sign,,,,null,GW/westpalmbeach.png,GW/shreveport.png,,,,,,,,,,,,,,,,,,,,,,,,,
null,,black_cross(without_color),953497,,blue,,,,null,GW/westpalmbeach.png,GW/shreveport.png,,,,,,,,,,,,,,,,,,,,,,,,,
null,,rt_plussign_withcolor,954001,,blue,,,,null,GW/westpalmbeach.png,GW/shreveport.png,,,,,,,,,,,,,,,,,,,,,,,,,
981,,rt_thecrossant_black,955524,,black_plus_sign,,,,49,,,1,0.9758064516129032,,,,,,,,,,,,,,,,,,,,,,,
null,,color_black,955630,,black_plus_sign,,,,null,,,,,,,,,,,,,,,,,,,,,,,,,,,
null,,learn_phase(without_color),958635,,black_plus_sign,,,,null,GW/peoria.png,GW/boulder.png,,,,,,,,,,,,,,,,,,,,,,,,,
null,,black_cross(without_color),959723,,yellow,,,,null,GW/peoria.png,GW/boulder.png,,,,,,,,,,,,,,,,,,,,,,,,,
490.90000000037253,,rt_plussign_withcolor,960227,,yellow,,,,50,GW/peoria.png,GW/boulder.png,,,,,,,,,,,,,,,,,,,,,,,,,
null,,rt_thecrossant_black,961158,,black_plus_sign,,,,null,,,1,0.976,,,,,,,,,,,,,,,,,,,,,,,
null,,color_black,961266,,black_plus_sign,,,,null,,,,,,,,,,,,,,,,,,,,,,,,,,,
null,,learn_phase(without_color),964276,,black_plus_sign,,,,null,GW/carmel.png,GW/gatlinburg.png,,,,,,,,,,,,,,,,,,,,,,,,,
null,,black_cross(without_color),965086,,blue,,,,null,GW/carmel.png,GW/gatlinburg.png,,,,,,,,,,,,,,,,,,,,,,,,,
null,,rt_plussign_withcolor,965591,,blue,,,,null,GW/carmel.png,GW/gatlinburg.png,,,,,,,,,,,,,,,,,,,,,,,,,
1262.5999999996275,,rt_thecrossant_black,966799,,black_plus_sign,,,,49,,,1,0.9761904761904762,,,,,,,,,,,,,,,,,,,,,,,
null,,color_black,966907,,black_plus_sign,,,,null,,,,,,,,,,,,,,,,,,,,,,,,,,,
null,,learn_break,1026915,,learn_break,,,,null,,,,,,,,,,,,,,,,,,,,,,,,,,,
35030.800000000745,,intro_1,1061952,,instruct,,0,Start,,,,,,,,,,,,,,,,,,,,,,,,,,,,
2680.5,,directmemory_phase,1064638,,GW/hotsprings.png,,,,49,,,1,1,GW/newhope.png,GW/westpalmbeach.png,GW/gatlinburg.png,GW/newhope.png,GW/gatlinburg.png,GW/westpalmbeach.png,1,,,,,,,,,,,,,,,,
null,,html-keyboard-response,1065650,,<p></p>,,,,null,,,,,,,,,,,,,,,,,,,,,,,,,,,
2768.199999999255,,directmemory_phase,1068424,,GW/peoria.png,,,,49,,,1,1,GW/boulder.png,GW/carmel.png,GW/hanover.png,GW/boulder.png,GW/hanover.png,GW/carmel.png,1,,,,,,,,,,,,,,,,
null,,html-keyboard-response,1069429,,<p></p>,,,,null,,,,,,,,,,,,,,,,,,,,,,,,,,,
2299.5999999996275,,directmemory_phase,1071735,,GW/carmel.png,,,,50,,,1,1,GW/leesburg.png,GW/cornwall.png,GW/hotsprings.png,GW/cornwall.png,GW/leesburg.png,GW/hotsprings.png,1,,,,,,,,,,,,,,,,
null,,html-keyboard-response,1072742,,<p></p>,,,,null,,,,,,,,,,,,,,,,,,,,,,,,,,,
2692.5999999996275,,directmemory_phase,1075441,,GW/peoria.png,,,,49,,,1,1,GW/westpalmbeach.png,GW/newhope.png,GW/cornwall.png,GW/westpalmbeach.png,GW/cornwall.png,GW/newhope.png,1,,,,,,,,,,,,,,,,
null,,html-keyboard-response,1076446,,<p></p>,,,,null,,,,,,,,,,,,,,,,,,,,,,,,,,,
1909.0999999996275,,directmemory_phase,1078361,,GW/newhope.png,,,,50,,,1,1,GW/shreveport.png,GW/gatlinburg.png,GW/westpalmbeach.png,GW/gatlinburg.png,GW/shreveport.png,GW/westpalmbeach.png,1,,,,,,,,,,,,,,,,
null,,html-keyboard-response,1079369,,<p></p>,,,,null,,,,,,,,,,,,,,,,,,,,,,,,,,,
1899.4000000003725,,directmemory_phase,1081275,,GW/hanover.png,,,,49,,,1,1,GW/cornwall.png,GW/leesburg.png,GW/westpalmbeach.png,GW/cornwall.png,GW/westpalmbeach.png,GW/leesburg.png,1,,,,,,,,,,,,,,,,
null,,html-keyboard-response,1082283,,<p></p>,,,,null,,,,,,,,,,,,,,,,,,,,,,,,,,,
3030.5,,directmemory_phase,1085319,,GW/westpalmbeach.png,,,,50,,,0,0.8571428571428571,GW/gatlinburg.png,GW/carmel.png,GW/shreveport.png,GW/shreveport.png,GW/carmel.png,GW/gatlinburg.png,0.5,closer,,,,,,,,,,,,,,,
null,,html-keyboard-response,1086327,,<p></p>,,,,null,,,,,,,,,,,,,,,,,,,,,,,,,,,
2491,,directmemory_phase,1088823,,GW/racine.png,,,,49,,,1,0.875,GW/peoria.png,GW/huntsville.png,GW/boulder.png,GW/peoria.png,GW/boulder.png,GW/huntsville.png,1,,,,,,,,,,,,,,,,
null,,html-keyboard-response,1089832,,<p></p>,,,,null,,,,,,,,,,,,,,,,,,,,,,,,,,,
2927.7000000011176,,directmemory_phase,1092766,,GW/gatlinburg.png,,,,49,,,1,0.8888888888888888,GW/leesburg.png,GW/peoria.png,GW/cornwall.png,GW/leesburg.png,GW/cornwall.png,GW/peoria.png,1,,,,,,,,,,,,,,,,
null,,html-keyboard-response,1093773,,<p></p>,,,,null,,,,,,,,,,,,,,,,,,,,,,,,,,,
3497.7000000011176,,directmemory_phase,1097277,,GW/peoria.png,,,,49,,,0,0.8,GW/carmel.png,GW/huntsville.png,GW/shreveport.png,GW/shreveport.png,GW/huntsville.png,GW/carmel.png,0.5,closer,,,,,,,,,,,,,,,
null,,html-keyboard-response,1098284,,<p></p>,,,,null,,,,,,,,,,,,,,,,,,,,,,,,,,,
2689,,directmemory_phase,1100980,,GW/newhope.png,,,,50,,,1,0.8181818181818182,GW/shreveport.png,GW/hanover.png,GW/racine.png,GW/hanover.png,GW/shreveport.png,GW/racine.png,1,,,,,,,,,,,,,,,,
null,,html-keyboard-response,1101987,,<p></p>,,,,null,,,,,,,,,,,,,,,,,,,,,,,,,,,
2057.2999999988824,,directmemory_phase,1104051,,GW/boulder.png,,,,51,,,1,0.8333333333333334,GW/gatlinburg.png,GW/shreveport.png,GW/westpalmbeach.png,GW/westpalmbeach.png,GW/shreveport.png,GW/gatlinburg.png,1,,,,,,,,,,,,,,,,
null,,html-keyboard-response,1105058,,<p></p>,,,,null,,,,,,,,,,,,,,,,,,,,,,,,,,,
3095.2999999988824,,directmemory_phase,1108160,,GW/gatlinburg.png,,,,49,,,1,0.8461538461538461,GW/newhope.png,GW/westpalmbeach.png,GW/hanover.png,GW/newhope.png,GW/hanover.png,GW/westpalmbeach.png,1,,,,,,,,,,,,,,,,
null,,html-keyboard-response,1109168,,<p></p>,,,,null,,,,,,,,,,,,,,,,,,,,,,,,,,,
3410.5999999996275,,directmemory_phase,1112584,,GW/shreveport.png,,,,51,,,1,0.8571428571428571,GW/carmel.png,GW/boulder.png,GW/peoria.png,GW/peoria.png,GW/boulder.png,GW/carmel.png,1,,,,,,,,,,,,,,,,
null,,html-keyboard-response,1113592,,<p></p>,,,,null,,,,,,,,,,,,,,,,,,,,,,,,,,,
1879.4000000003725,,directmemory_phase,1115476,,GW/boulder.png,,,,49,,,1,0.8666666666666667,GW/huntsville.png,GW/carmel.png,GW/racine.png,GW/huntsville.png,GW/racine.png,GW/carmel.png,1,,,,,,,,,,,,,,,,
null,,html-keyboard-response,1116483,,<p></p>,,,,null,,,,,,,,,,,,,,,,,,,,,,,,,,,
1732.9000000003725,,directmemory_phase,1118222,,GW/hanover.png,,,,51,,,1,0.875,GW/leesburg.png,GW/westpalmbeach.png,GW/newhope.png,GW/newhope.png,GW/westpalmbeach.png,GW/leesburg.png,1,,,,,,,,,,,,,,,,
null,,html-keyboard-response,1119230,,<p></p>,,,,null,,,,,,,,,,,,,,,,,,,,,,,,,,,
3299,,directmemory_phase,1122536,,GW/carmel.png,,,,51,,,1,0.8823529411764706,GW/hotsprings.png,GW/newhope.png,GW/gatlinburg.png,GW/gatlinburg.png,GW/newhope.png,GW/hotsprings.png,1,,,,,,,,,,,,,,,,
null,,html-keyboard-response,1123544,,<p></p>,,,,null,,,,,,,,,,,,,,,,,,,,,,,,,,,
1777.1000000014901,,directmemory_phase,1125328,,GW/cornwall.png,,,,51,,,1,0.8888888888888888,GW/huntsville.png,GW/shreveport.png,GW/hanover.png,GW/hanover.png,GW/shreveport.png,GW/huntsville.png,1,,,,,,,,,,,,,,,,
null,,html-keyboard-response,1126335,,<p></p>,,,,null,,,,,,,,,,,,,,,,,,,,,,,,,,,
2173.800000000745,,directmemory_phase,1128516,,GW/westpalmbeach.png,,,,51,,,1,0.8947368421052632,GW/leesburg.png,GW/carmel.png,GW/boulder.png,GW/boulder.png,GW/carmel.png,GW/leesburg.png,1,,,,,,,,,,,,,,,,
null,,html-keyboard-response,1129524,,<p></p>,,,,null,,,,,,,,,,,,,,,,,,,,,,,,,,,
1819.9000000003725,,directmemory_phase,1131350,,GW/hanover.png,,,,49,,,1,0.9,GW/shreveport.png,GW/racine.png,GW/hotsprings.png,GW/shreveport.png,GW/hotsprings.png,GW/racine.png,1,,,,,,,,,,,,,,,,
null,,html-keyboard-response,1132358,,<p></p>,,,,null,,,,,,,,,,,,,,,,,,,,,,,,,,,
1960.699999999255,,directmemory_phase,1134325,,GW/cornwall.png,,,,49,,,1,0.9047619047619048,GW/carmel.png,GW/hotsprings.png,GW/newhope.png,GW/carmel.png,GW/newhope.png,GW/hotsprings.png,1,,,,,,,,,,,,,,,,
null,,html-keyboard-response,1135332,,<p></p>,,,,null,,,,,,,,,,,,,,,,,,,,,,,,,,,
895.5999999996275,,directmemory_phase,1136235,,GW/peoria.png,,,,49,,,1,0.9090909090909091,GW/racine.png,GW/hotsprings.png,GW/hanover.png,GW/racine.png,GW/hanover.png,GW/hotsprings.png,1,,,,,,,,,,,,,,,,
null,,html-keyboard-response,1137242,,<p></p>,,,,null,,,,,,,,,,,,,,,,,,,,,,,,,,,
2038.1000000014901,,directmemory_phase,1139285,,GW/cornwall.png,,,,51,,,1,0.9130434782608695,GW/racine.png,GW/newhope.png,GW/westpalmbeach.png,GW/westpalmbeach.png,GW/newhope.png,GW/racine.png,1,,,,,,,,,,,,,,,,
null,,html-keyboard-response,1140293,,<p></p>,,,,null,,,,,,,,,,,,,,,,,,,,,,,,,,,
1451,,directmemory_phase,1141750,,GW/leesburg.png,,,,51,,,1,0.9166666666666666,GW/cornwall.png,GW/newhope.png,GW/gatlinburg.png,GW/gatlinburg.png,GW/newhope.png,GW/cornwall.png,1,,,,,,,,,,,,,,,,
null,,html-keyboard-response,1142758,,<p></p>,,,,null,,,,,,,,,,,,,,,,,,,,,,,,,,,
2980.7000000011176,,directmemory_phase,1145745,,GW/westpalmbeach.png,,,,50,,,1,0.92,GW/hanover.png,GW/peoria.png,GW/gatlinburg.png,GW/peoria.png,GW/hanover.png,GW/gatlinburg.png,1,,,,,,,,,,,,,,,,
null,,html-keyboard-response,1146753,,<p></p>,,,,null,,,,,,,,,,,,,,,,,,,,,,,,,,,
2852.89999999851,,directmemory_phase,1149613,,GW/newhope.png,,,,49,,,1,0.9230769230769231,GW/hotsprings.png,GW/peoria.png,GW/cornwall.png,GW/hotsprings.png,GW/cornwall.png,GW/peoria.png,1,,,,,,,,,,,,,,,,
null,,html-keyboard-response,1150622,,<p></p>,,,,null,,,,,,,,,,,,,,,,,,,,,,,,,,,
2049.699999999255,,directmemory_phase,1152677,,GW/huntsville.png,,,,50,,,1,0.9259259259259259,GW/peoria.png,GW/boulder.png,GW/hanover.png,GW/boulder.png,GW/peoria.png,GW/hanover.png,1,,,,,,,,,,,,,,,,
null,,html-keyboard-response,1153682,,<p></p>,,,,null,,,,,,,,,,,,,,,,,,,,,,,,,,,
2563.2000000011176,,directmemory_phase,1156252,,GW/westpalmbeach.png,,,,51,,,1,0.9285714285714286,GW/gatlinburg.png,GW/racine.png,GW/cornwall.png,GW/cornwall.png,GW/racine.png,GW/gatlinburg.png,1,,,,,,,,,,,,,,,,
null,,html-keyboard-response,1157260,,<p></p>,,,,null,,,,,,,,,,,,,,,,,,,,,,,,,,,
2450,,directmemory_phase,1159716,,GW/boulder.png,,,,51,,,1,0.9310344827586207,GW/carmel.png,GW/shreveport.png,GW/peoria.png,GW/peoria.png,GW/shreveport.png,GW/carmel.png,1,,,,,,,,,,,,,,,,
null,,html-keyboard-response,1160723,,<p></p>,,,,null,,,,,,,,,,,,,,,,,,,,,,,,,,,
1532,,directmemory_phase,1162263,,GW/shreveport.png,,,,50,,,1,0.9333333333333333,GW/racine.png,GW/hanover.png,GW/leesburg.png,GW/hanover.png,GW/racine.png,GW/leesburg.png,1,,,,,,,,,,,,,,,,
null,,html-keyboard-response,1163272,,<p></p>,,,,null,,,,,,,,,,,,,,,,,,,,,,,,,,,
2243.699999999255,,directmemory_phase,1165523,,GW/gatlinburg.png,,,,51,,,1,0.9354838709677419,GW/westpalmbeach.png,GW/cornwall.png,GW/carmel.png,GW/carmel.png,GW/cornwall.png,GW/westpalmbeach.png,1,,,,,,,,,,,,,,,,
null,,html-keyboard-response,1166531,,<p></p>,,,,null,,,,,,,,,,,,,,,,,,,,,,,,,,,
2434.39999999851,,directmemory_phase,1168972,,GW/shreveport.png,,,,49,,,1,0.9375,GW/westpalmbeach.png,GW/leesburg.png,GW/boulder.png,GW/westpalmbeach.png,GW/boulder.png,GW/leesburg.png,1,,,,,,,,,,,,,,,,
null,,html-keyboard-response,1169978,,<p></p>,,,,null,,,,,,,,,,,,,,,,,,,,,,,,,,,
60729.5,,intro_1,1230716,,instruct,,0,,,,,,,,,,,,,,,,,,,,,,,,,,,,,
9065.599999999627,,intro_2,1239795,,instruct,,1,Next,,,,,,,,,,,,,,,,,,,,,,,,,,,,
4810.10000000149,,intro_3,1244618,,instruct,,1,Next,,,,,,,,,,,,,,,,,,,,,,,,,,,,
5492.9000000003725,,intro_4,1250123,,instruct,,1,Next,,,,,,,,,,,,,,,,,,,,,,,,,,,,
20132,,intro_5,1270264,,instruct,,1,Next,,,,,,,,,,,,,,,,,,,,,,,,,,,,
25580.5,,intro_6,1295850,,instruct,,1,Next,,,,,,,,,,,,,,,,,,,,,,,,,,,,
23805.39999999851,,intro_7,1319663,,instruct,,1,Next,,,,,,,,,,,,,,,,,,,,,,,,,,,,
23360.199999999255,,intro_8,1343034,,instruct,,1,Next,,,,,,,,,,,,,,,,,,,,,,,,,,,,
4726,,shortestpath_phase,1347766,,GW/huntsville.png,,,,49,GW/shreveport.png,GW/carmel.png,1,1,,,,GW/shreveport.png,,,,,One Edge Diff,Three Edge Four Edge,,,,,,,,,,,,,
null,,html-keyboard-response,1348777,,<p></p>,,,,null,,,,,,,,,,,,,,,,,,,,,,,,,,,
4899.5,,shortestpath_phase,1353684,,GW/racine.png,,,,50,GW/leesburg.png,GW/gatlinburg.png,1,1,,,,GW/gatlinburg.png,,,,,One Edge Diff,Five Edge Six Edge,,,,,,,,,,,,,
null,,html-keyboard-response,1354688,,<p></p>,,,,null,,,,,,,,,,,,,,,,,,,,,,,,,,,
2792.5999999996275,,shortestpath_phase,1357485,,GW/huntsville.png,,,,50,GW/leesburg.png,GW/westpalmbeach.png,1,1,,,,GW/westpalmbeach.png,,,,,Four Edge Diff,Two Edge Six Edge,,,,,,,,,,,,,
null,,html-keyboard-response,1358494,,<p></p>,,,,null,,,,,,,,,,,,,,,,,,,,,,,,,,,
1485.5999999996275,,shortestpath_phase,1359988,,GW/gatlinburg.png,,,,50,GW/racine.png,GW/hotsprings.png,1,1,,,,GW/hotsprings.png,,,,,Three Edge Diff,Three Edge Six Edge,,,,,,,,,,,,,
null,,html-keyboard-response,1360998,,<p></p>,,,,null,,,,,,,,,,,,,,,,,,,,,,,,,,,
1095,,shortestpath_phase,1362100,,GW/huntsville.png,,,,49,GW/racine.png,GW/gatlinburg.png,1,1,,,,GW/racine.png,,,,,Two Edge Diff,Three Edge Five Edge,,,,,,,,,,,,,
null,,html-keyboard-response,1363108,,<p></p>,,,,null,,,,,,,,,,,,,,,,,,,,,,,,,,,
2736.5,,shortestpath_phase,1365850,,GW/hotsprings.png,,,,49,GW/boulder.png,GW/peoria.png,0,0.8333333333333334,,,,GW/peoria.png,,,,,One Edge Diff,Four Edge Five Edge,,,,,,,,,,,,,
null,,html-keyboard-response,1366857,,<p></p>,,,,null,,,,,,,,,,,,,,,,,,,,,,,,,,,
1769.5,,shortestpath_phase,1368634,,GW/racine.png,,,,50,GW/hotsprings.png,GW/westpalmbeach.png,1,0.8571428571428571,,,,GW/westpalmbeach.png,,,,,Three Edge Diff,Two Edge Five Edge,,,,,,,,,,,,,
null,,html-keyboard-response,1369643,,<p></p>,,,,null,,,,,,,,,,,,,,,,,,,,,,,,,,,
2640.800000000745,,shortestpath_phase,1372290,,GW/huntsville.png,,,,49,GW/newhope.png,GW/peoria.png,0,0.75,,,,GW/peoria.png,,,,,Three Edge Diff,Three Edge Six Edge,,,,,,,,,,,,,
null,,html-keyboard-response,1373298,,<p></p>,,,,null,,,,,,,,,,,,,,,,,,,,,,,,,,,
1479.800000000745,,shortestpath_phase,1374784,,GW/racine.png,,,,49,GW/gatlinburg.png,GW/westpalmbeach.png,0,0.6666666666666666,,,,GW/westpalmbeach.png,,,,,Three Edge Diff,Three Edge Six Edge,,,,,,,,,,,,,
null,,html-keyboard-response,1375792,,<p></p>,,,,null,,,,,,,,,,,,,,,,,,,,,,,,,,,
1170.7000000011176,,shortestpath_phase,1376970,,GW/huntsville.png,,,,50,GW/gatlinburg.png,GW/peoria.png,1,0.7,,,,GW/peoria.png,,,,,Three Edge Diff,Three Edge Six Edge,,,,,,,,,,,,,
null,,html-keyboard-response,1377978,,<p></p>,,,,null,,,,,,,,,,,,,,,,,,,,,,,,,,,
1668.1000000014901,,shortestpath_phase,1379653,,GW/racine.png,,,,50,GW/leesburg.png,GW/boulder.png,1,0.7272727272727273,,,,GW/boulder.png,,,,,Four Edge Diff,Two Edge Six Edge,,,,,,,,,,,,,
null,,html-keyboard-response,1380661,,<p></p>,,,,null,,,,,,,,,,,,,,,,,,,,,,,,,,,
1528.6000000014901,,shortestpath_phase,1382196,,GW/hotsprings.png,,,,50,GW/gatlinburg.png,GW/boulder.png,0,0.6666666666666666,,,,GW/gatlinburg.png,,,,,Three Edge Diff,Two Edge Five Edge,,,,,,,,,,,,,
null,,html-keyboard-response,1383205,,<p></p>,,,,null,,,,,,,,,,,,,,,,,,,,,,,,,,,
1761,,shortestpath_phase,1384977,,GW/racine.png,,,,49,GW/westpalmbeach.png,GW/hotsprings.png,1,0.6923076923076923,,,,GW/westpalmbeach.png,,,,,Three Edge Diff,Three Edge Six Edge,,,,,,,,,,,,,
null,,html-keyboard-response,1385985,,<p></p>,,,,null,,,,,,,,,,,,,,,,,,,,,,,,,,,
2155.199999999255,,shortestpath_phase,1388146,,GW/boulder.png,,,,49,GW/newhope.png,GW/leesburg.png,1,0.7142857142857143,,,,GW/newhope.png,,,,,One Edge Diff,Four Edge Five Edge,,,,,,,,,,,,,
null,,html-keyboard-response,1389156,,<p></p>,,,,null,,,,,,,,,,,,,,,,,,,,,,,,,,,
3728,,shortestpath_phase,1392890,,GW/racine.png,,,,49,GW/leesburg.png,GW/hotsprings.png,0,0.6666666666666666,,,,GW/hotsprings.png,,,,,One Edge Diff,Five Edge Six Edge,,,,,,,,,,,,,
null,,html-keyboard-response,1393898,,<p></p>,,,,null,,,,,,,,,,,,,,,,,,,,,,,,,,,
2380.199999999255,,shortestpath_phase,1396285,,GW/cornwall.png,,,,50,GW/peoria.png,GW/racine.png,0,0.625,,,,GW/peoria.png,,,,,One Edge Diff,Two Edge Three Edge,,,,,,,,,,,,,
null,,html-keyboard-response,1397292,,<p></p>,,,,null,,,,,,,,,,,,,,,,,,,,,,,,,,,
1753,,shortestpath_phase,1399052,,GW/racine.png,,,,49,GW/shreveport.png,GW/leesburg.png,1,0.6470588235294118,,,,GW/shreveport.png,,,,,Four Edge Diff,Two Edge Six Edge,,,,,,,,,,,,,
null,,html-keyboard-response,1400057,,<p></p>,,,,null,,,,,,,,,,,,,,,,,,,,,,,,,,,
1522.9000000003725,,shortestpath_phase,1401587,,GW/hotsprings.png,,,,50,GW/gatlinburg.png,GW/huntsville.png,0,0.6111111111111112,,,,GW/gatlinburg.png,,,,,Four Edge Diff,Two Edge Six Edge,,,,,,,,,,,,,
null,,html-keyboard-response,1402595,,<p></p>,,,,null,,,,,,,,,,,,,,,,,,,,,,,,,,,
1310.1000000014901,,shortestpath_phase,1403912,,GW/westpalmbeach.png,,,,49,GW/racine.png,GW/hotsprings.png,1,0.631578947368421,,,,GW/racine.png,,,,,Two Edge Diff,Two Edge Four Edge,,,,,,,,,,,,,
null,,html-keyboard-response,1404920,,<p></p>,,,,null,,,,,,,,,,,,,,,,,,,,,,,,,,,
1172.2999999988824,,shortestpath_phase,1406100,,GW/peoria.png,,,,50,GW/leesburg.png,GW/huntsville.png,1,0.65,,,,GW/huntsville.png,,,,,Three Edge Diff,Two Edge Five Edge,,,,,,,,,,,,,
null,,html-keyboard-response,1407108,,<p></p>,,,,null,,,,,,,,,,,,,,,,,,,,,,,,,,,
1698.2999999988824,,shortestpath_phase,1408812,,GW/westpalmbeach.png,,,,49,GW/carmel.png,GW/newhope.png,1,0.6666666666666666,,,,GW/carmel.png,,,,,One Edge Diff,Two Edge Three Edge,,,,,,,,,,,,,
null,,html-keyboard-response,1409820,,<p></p>,,,,null,,,,,,,,,,,,,,,,,,,,,,,,,,,
2761.5999999996275,,shortestpath_phase,1412589,,GW/racine.png,,,,49,GW/carmel.png,GW/huntsville.png,0,0.6363636363636364,,,,GW/huntsville.png,,,,,One Edge Diff,Three Edge Four Edge,,,,,,,,,,,,,
null,,html-keyboard-response,1413596,,<p></p>,,,,null,,,,,,,,,,,,,,,,,,,,,,,,,,,
1387.2000000011176,,shortestpath_phase,1414990,,GW/leesburg.png,,,,50,GW/racine.png,GW/shreveport.png,1,0.6521739130434783,,,,GW/shreveport.png,,,,,Two Edge Diff,Four Edge Six Edge,,,,,,,,,,,,,
null,,html-keyboard-response,1415998,,<p></p>,,,,null,,,,,,,,,,,,,,,,,,,,,,,,,,,
1835.8999999985099,,shortestpath_phase,1417841,,GW/gatlinburg.png,,,,50,GW/huntsville.png,GW/cornwall.png,1,0.6666666666666666,,,,GW/cornwall.png,,,,,Three Edge Diff,Two Edge Five Edge,,,,,,,,,,,,,
null,,html-keyboard-response,1418848,,<p></p>,,,,null,,,,,,,,,,,,,,,,,,,,,,,,,,,
1836.199999999255,,shortestpath_phase,1420688,,GW/boulder.png,,,,50,GW/shreveport.png,GW/hotsprings.png,0,0.64,,,,GW/shreveport.png,,,,,Three Edge Diff,Two Edge Five Edge,,,,,,,,,,,,,
null,,html-keyboard-response,1421697,,<p></p>,,,,null,,,,,,,,,,,,,,,,,,,,,,,,,,,
2172.199999999255,,shortestpath_phase,1423875,,GW/huntsville.png,,,,49,GW/leesburg.png,GW/newhope.png,0,0.6153846153846154,,,,GW/newhope.png,,,,,One Edge Diff,Five Edge Six Edge,,,,,,,,,,,,,
null,,html-keyboard-response,1424883,,<p></p>,,,,null,,,,,,,,,,,,,,,,,,,,,,,,,,,
1404.800000000745,,shortestpath_phase,1426295,,GW/leesburg.png,,,,49,GW/huntsville.png,GW/boulder.png,0,0.5925925925925926,,,,GW/boulder.png,,,,,One Edge Diff,Five Edge Six Edge,,,,,,,,,,,,,
null,,html-keyboard-response,1427302,,<p></p>,,,,null,,,,,,,,,,,,,,,,,,,,,,,,,,,
1012.0999999996275,,shortestpath_phase,1428320,,GW/racine.png,,,,49,GW/westpalmbeach.png,GW/leesburg.png,1,0.6071428571428571,,,,GW/westpalmbeach.png,,,,,Four Edge Diff,Two Edge Six Edge,,,,,,,,,,,,,
null,,html-keyboard-response,1429326,,<p></p>,,,,null,,,,,,,,,,,,,,,,,,,,,,,,,,,
1539.800000000745,,shortestpath_phase,1430870,,GW/huntsville.png,,,,50,GW/leesburg.png,GW/carmel.png,1,0.6206896551724138,,,,GW/carmel.png,,,,,Two Edge Diff,Four Edge Six Edge,,,,,,,,,,,,,
null,,html-keyboard-response,1431879,,<p></p>,,,,null,,,,,,,,,,,,,,,,,,,,,,,,,,,
1751.1000000014901,,shortestpath_phase,1433636,,GW/racine.png,,,,49,GW/hotsprings.png,GW/cornwall.png,0,0.6,,,,GW/cornwall.png,,,,,Two Edge Diff,Three Edge Five Edge,,,,,,,,,,,,,
null,,html-keyboard-response,1434645,,<p></p>,,,,null,,,,,,,,,,,,,,,,,,,,,,,,,,,
1305.0999999996275,,shortestpath_phase,1435956,,GW/leesburg.png,,,,49,GW/peoria.png,GW/huntsville.png,1,0.6129032258064516,,,,GW/peoria.png,,,,,One Edge Diff,Five Edge Six Edge,,,,,,,,,,,,,
null,,html-keyboard-response,1436967,,<p></p>,,,,null,,,,,,,,,,,,,,,,,,,,,,,,,,,
1411.9000000003725,,shortestpath_phase,1438386,,GW/shreveport.png,,,,49,GW/newhope.png,GW/hotsprings.png,1,0.625,,,,GW/newhope.png,,,,,One Edge Diff,Two Edge Three Edge,,,,,,,,,,,,,
null,,html-keyboard-response,1439393,,<p></p>,,,,null,,,,,,,,,,,,,,,,,,,,,,,,,,,
1252,,shortestpath_phase,1440652,,GW/huntsville.png,,,,49,GW/peoria.png,GW/hotsprings.png,1,0.6363636363636364,,,,GW/peoria.png,,,,,Four Edge Diff,Two Edge Six Edge,,,,,,,,,,,,,
null,,html-keyboard-response,1441662,,<p></p>,,,,null,,,,,,,,,,,,,,,,,,,,,,,,,,,
1585.4000000003725,,shortestpath_phase,1443253,,GW/leesburg.png,,,,50,GW/newhope.png,GW/boulder.png,0,0.6176470588235294,,,,GW/newhope.png,,,,,Three Edge Diff,Three Edge Six Edge,,,,,,,,,,,,,
null,,html-keyboard-response,1444258,,<p></p>,,,,null,,,,,,,,,,,,,,,,,,,,,,,,,,,
1990.199999999255,,shortestpath_phase,1446252,,GW/hotsprings.png,,,,49,GW/hanover.png,GW/huntsville.png,1,0.6285714285714286,,,,GW/hanover.png,,,,,Four Edge Diff,Two Edge Six Edge,,,,,,,,,,,,,
null,,html-keyboard-response,1447263,,<p></p>,,,,null,,,,,,,,,,,,,,,,,,,,,,,,,,,
3140.39999999851,,shortestpath_phase,1450410,,GW/newhope.png,,,,50,GW/leesburg.png,GW/peoria.png,0,0.6111111111111112,,,,GW/leesburg.png,,,,,One Edge Diff,Two Edge Three Edge,,,,,,,,,,,,,
null,,html-keyboard-response,1451419,,<p></p>,,,,null,,,,,,,,,,,,,,,,,,,,,,,,,,,
2011,,shortestpath_phase,1453437,,GW/boulder.png,,,,49,GW/newhope.png,GW/cornwall.png,0,0.5945945945945946,,,,GW/cornwall.png,,,,,Two Edge Diff,Two Edge Four Edge,,,,,,,,,,,,,
null,,html-keyboard-response,1454446,,<p></p>,,,,null,,,,,,,,,,,,,,,,,,,,,,,,,,,
1545.9000000003725,,shortestpath_phase,1455999,,GW/leesburg.png,,,,50,GW/carmel.png,GW/huntsville.png,0,0.5789473684210527,,,,GW/carmel.png,,,,,Four Edge Diff,Two Edge Six Edge,,,,,,,,,,,,,
null,,html-keyboard-response,1457012,,<p></p>,,,,null,,,,,,,,,,,,,,,,,,,,,,,,,,,
1434.2999999988824,,shortestpath_phase,1458453,,GW/peoria.png,,,,49,GW/newhope.png,GW/leesburg.png,1,0.5897435897435898,,,,GW/newhope.png,,,,,Two Edge Diff,Three Edge Five Edge,,,,,,,,,,,,,
null,,html-keyboard-response,1459462,,<p></p>,,,,null,,,,,,,,,,,,,,,,,,,,,,,,,,,
1155.5,,shortestpath_phase,1460625,,GW/racine.png,,,,49,GW/boulder.png,GW/hotsprings.png,1,0.6,,,,GW/boulder.png,,,,,Three Edge Diff,Three Edge Six Edge,,,,,,,,,,,,,
null,,html-keyboard-response,1461633,,<p></p>,,,,null,,,,,,,,,,,,,,,,,,,,,,,,,,,
1620.4000000003725,,shortestpath_phase,1463260,,GW/huntsville.png,,,,50,GW/carmel.png,GW/hotsprings.png,0,0.5853658536585366,,,,GW/carmel.png,,,,,Two Edge Diff,Four Edge Six Edge,,,,,,,,,,,,,
null,,html-keyboard-response,1464268,,<p></p>,,,,null,,,,,,,,,,,,,,,,,,,,,,,,,,,
1080.9000000003725,,shortestpath_phase,1465356,,GW/gatlinburg.png,,,,49,GW/racine.png,GW/westpalmbeach.png,0,0.5714285714285714,,,,GW/westpalmbeach.png,,,,,Two Edge Diff,Three Edge Five Edge,,,,,,,,,,,,,
null,,html-keyboard-response,1466364,,<p></p>,,,,null,,,,,,,,,,,,,,,,,,,,,,,,,,,
1171.300000000745,,shortestpath_phase,1467542,,GW/peoria.png,,,,50,GW/gatlinburg.png,GW/newhope.png,1,0.5813953488372093,,,,GW/newhope.png,,,,,One Edge Diff,Three Edge Four Edge,,,,,,,,,,,,,
null,,html-keyboard-response,1468548,,<p></p>,,,,null,,,,,,,,,,,,,,,,,,,,,,,,,,,
916.2000000011176,,shortestpath_phase,1469471,,GW/huntsville.png,,,,50,GW/westpalmbeach.png,GW/newhope.png,0,0.5681818181818182,,,,GW/westpalmbeach.png,,,,,Three Edge Diff,Two Edge Five Edge,,,,,,,,,,,,,
null,,html-keyboard-response,1470480,,<p></p>,,,,null,,,,,,,,,,,,,,,,,,,,,,,,,,,
788.3000000007451,,shortestpath_phase,1471275,,GW/newhope.png,,,,50,GW/shreveport.png,GW/huntsville.png,0,0.5555555555555556,,,,GW/shreveport.png,,,,,Three Edge Diff,Two Edge Five Edge,,,,,,,,,,,,,
null,,html-keyboard-response,1472283,,<p></p>,,,,null,,,,,,,,,,,,,,,,,,,,,,,,,,,
1988.9000000003725,,shortestpath_phase,1474279,,GW/boulder.png,,,,49,GW/hotsprings.png,GW/cornwall.png,0,0.5434782608695652,,,,GW/cornwall.png,,,,,Three Edge Diff,Two Edge Five Edge,,,,,,,,,,,,,
null,,html-keyboard-response,1475288,,<p></p>,,,,null,,,,,,,,,,,,,,,,,,,,,,,,,,,
1341,,shortestpath_phase,1476636,,GW/gatlinburg.png,,,,49,GW/westpalmbeach.png,GW/huntsville.png,1,0.5531914893617021,,,,GW/westpalmbeach.png,,,,,Two Edge Diff,Three Edge Five Edge,,,,,,,,,,,,,
null,,html-keyboard-response,1477645,,<p></p>,,,,null,,,,,,,,,,,,,,,,,,,,,,,,,,,
1511.2000000011176,,shortestpath_phase,1479163,,GW/leesburg.png,,,,50,GW/newhope.png,GW/racine.png,0,0.5416666666666666,,,,GW/newhope.png,,,,,Four Edge Diff,Two Edge Six Edge,,,,,,,,,,,,,
null,,html-keyboard-response,1480176,,<p></p>,,,,null,,,,,,,,,,,,,,,,,,,,,,,,,,,
1127.7999999988824,,shortestpath_phase,1481311,,GW/huntsville.png,,,,49,GW/shreveport.png,GW/gatlinburg.png,1,0.5510204081632653,,,,GW/shreveport.png,,,,,Two Edge Diff,Three Edge Five Edge,,,,,,,,,,,,,
null,,html-keyboard-response,1482320,,<p></p>,,,,null,,,,,,,,,,,,,,,,,,,,,,,,,,,
1044.1000000014901,,shortestpath_phase,1483371,,GW/peoria.png,,,,49,GW/leesburg.png,GW/carmel.png,0,0.54,,,,GW/carmel.png,,,,,Two Edge Diff,Three Edge Five Edge,,,,,,,,,,,,,
null,,html-keyboard-response,1484379,,<p></p>,,,,null,,,,,,,,,,,,,,,,,,,,,,,,,,,
1547,,shortestpath_phase,1485933,,GW/racine.png,,,,50,GW/gatlinburg.png,GW/boulder.png,1,0.5490196078431373,,,,GW/boulder.png,,,,,Three Edge Diff,Two Edge Five Edge,,,,,,,,,,,,,
null,,html-keyboard-response,1486941,,<p></p>,,,,null,,,,,,,,,,,,,,,,,,,,,,,,,,,
1539.300000000745,,shortestpath_phase,1488484,,GW/carmel.png,,,,50,GW/racine.png,GW/hanover.png,1,0.5576923076923077,,,,GW/hanover.png,,,,,Two Edge Diff,Two Edge Four Edge,,,,,,,,,,,,,
null,,html-keyboard-response,1489489,,<p></p>,,,,null,,,,,,,,,,,,,,,,,,,,,,,,,,,
1824.5,,shortestpath_phase,1491318,,GW/boulder.png,,,,49,GW/hotsprings.png,GW/newhope.png,0,0.5471698113207547,,,,GW/newhope.png,,,,,One Edge Diff,Four Edge Five Edge,,,,,,,,,,,,,
null,,html-keyboard-response,1492327,,<p></p>,,,,null,,,,,,,,,,,,,,,,,,,,,,,,,,,
1190.5,,shortestpath_phase,1493526,,GW/gatlinburg.png,,,,50,GW/huntsville.png,GW/cornwall.png,1,0.5555555555555556,,,,GW/cornwall.png,,,,,Three Edge Diff,Three Edge Six Edge,,,,,,,,,,,,,
null,,html-keyboard-response,1494535,,<p></p>,,,,null,,,,,,,,,,,,,,,,,,,,,,,,,,,
1594.2000000011176,,shortestpath_phase,1496138,,GW/leesburg.png,,,,50,GW/newhope.png,GW/peoria.png,0,0.5454545454545454,,,,GW/newhope.png,,,,,Three Edge Diff,Three Edge Six Edge,,,,,,,,,,,,,
null,,html-keyboard-response,1497147,,<p></p>,,,,null,,,,,,,,,,,,,,,,,,,,,,,,,,,
1099.4000000003725,,shortestpath_phase,1498253,,GW/racine.png,,,,50,GW/newhope.png,GW/westpalmbeach.png,1,0.5535714285714286,,,,GW/westpalmbeach.png,,,,,Two Edge Diff,Two Edge Four Edge,,,,,,,,,,,,,
null,,html-keyboard-response,1499262,,<p></p>,,,,null,,,,,,,,,,,,,,,,,,,,,,,,,,,
2593.2000000011176,,shortestpath_phase,1501861,,GW/leesburg.png,,,,49,GW/huntsville.png,GW/newhope.png,0,0.543859649122807,,,,GW/newhope.png,,,,,Four Edge Diff,Two Edge Six Edge,,,,,,,,,,,,,
null,,html-keyboard-response,1502867,,<p></p>,,,,null,,,,,,,,,,,,,,,,,,,,,,,,,,,
876.5999999996275,,shortestpath_phase,1503751,,GW/huntsville.png,,,,49,GW/leesburg.png,GW/peoria.png,0,0.5344827586206896,,,,GW/peoria.png,,,,,Four Edge Diff,Two Edge Six Edge,,,,,,,,,,,,,
null,,html-keyboard-response,1504760,,<p></p>,,,,null,,,,,,,,,,,,,,,,,,,,,,,,,,,
1890.5,,shortestpath_phase,1506657,,GW/leesburg.png,,,,50,GW/carmel.png,GW/peoria.png,0,0.5254237288135594,,,,GW/carmel.png,,,,,Three Edge Diff,Three Edge Six Edge,,,,,,,,,,,,,
null,,html-keyboard-response,1507670,,<p></p>,,,,null,,,,,,,,,,,,,,,,,,,,,,,,,,,
2218.7000000011176,,shortestpath_phase,1509896,,GW/huntsville.png,,,,49,GW/hanover.png,GW/westpalmbeach.png,0,0.5166666666666667,,,,GW/westpalmbeach.png,,,,,Two Edge Diff,Two Edge Four Edge,,,,,,,,,,,,,
null,,html-keyboard-response,1510905,,<p></p>,,,,null,,,,,,,,,,,,,,,,,,,,,,,,,,,
2002.8999999985099,,shortestpath_phase,1512915,,GW/leesburg.png,,,,50,GW/huntsville.png,GW/shreveport.png,1,0.5245901639344263,,,,GW/shreveport.png,,,,,Two Edge Diff,Four Edge Six Edge,,,,,,,,,,,,,
null,,html-keyboard-response,1513923,,<p></p>,,,,null,,,,,,,,,,,,,,,,,,,,,,,,,,,
1493.5999999996275,,shortestpath_phase,1515424,,GW/huntsville.png,,,,50,GW/carmel.png,GW/westpalmbeach.png,1,0.532258064516129,,,,GW/westpalmbeach.png,,,,,Two Edge Diff,Two Edge Four Edge,,,,,,,,,,,,,
null,,html-keyboard-response,1516433,,<p></p>,,,,null,,,,,,,,,,,,,,,,,,,,,,,,,,,
