rt,responses,trial_type,time_elapsed,sequence,stimulus,graphorder,button_pressed,response,key_press,stimulus_left,stimulus_right,accuracy,cumulative_accuracy,stimulus_down_left,stimulus_down_mid,stimulus_down_right,stimulus_correct,stimulus_short,stimulus_far,weighted_accuracy,missedtrial,condition,specific_pairs,imgL_ID,imgR_ID,linedress,linedressed,detour_trial,linedressed_detor,problems,smooth,distraction,strategies,easier,similar,comments
6774.60000000149,{worker_id:663170bb631c1b3b21b7828b},id_enter,6776,interleaved,replication,GW/cornwall.png; GW/newhope.png; GW/hanover.png; GW/westpalmbeach.png; GW/boulder.png; GW/leesburg.png; GW/carmel.png; GW/huntsville.png; GW/shreveport.png; GW/gatlinburg.png; GW/peoria.png; GW/racine.png; GW/hotsprings.png,,,,,,,,,,,,,,,,,,,,,,,,,,,,,,
18404.699999999255,,fullscreen,25184,,fullscreen,,0,,,,,,,,,,,,,,,,,,,,,,,,,,,,,
14830.800000000745,,intro_1,40016,,instruct,,0,,,,,,,,,,,,,,,,,,,,,,,,,,,,,
17830.900000002235,,intro_2,57848,,instruct,,1,Next,,,,,,,,,,,,,,,,,,,,,,,,,,,,
12942.89999999851,,intro_3,70792,,instruct,,1,Next,,,,,,,,,,,,,,,,,,,,,,,,,,,,
null,,learn_prac_1,73794,,lean_prac_1,,,,null,,,,,,,,,,,,,,,,,,,,,,,,,,,
null,,html-keyboard-response,74797,,<p></p>,,,,null,,,,,,,,,,,,,,,,,,,,,,,,,,,
3730.10000000149,,intro_1,78527,,instruct,,0,,,,,,,,,,,,,,,,,,,,,,,,,,,,,
5791.39999999851,,intro_2,84320,,instruct,,1,Next,,,,,,,,,,,,,,,,,,,,,,,,,,,,
null,,learn_prac_2,87322,,lean_prac_2,,,,null,,,,,,,,,,,,,,,,,,,,,,,,,,,
null,,html-keyboard-response,88323,,<p></p>,,,,null,,,,,,,,,,,,,,,,,,,,,,,,,,,
4107.60000000149,,intro_1,92432,,instruct,,0,,,,,,,,,,,,,,,,,,,,,,,,,,,,,
4303.20000000298,,intro_2,96736,,instruct,,1,Next,,,,,,,,,,,,,,,,,,,,,,,,,,,,
27398.89999999851,,intro_3,124136,,instruct,,1,Next,,,,,,,,,,,,,,,,,,,,,,,,,,,,
null,,prac_atten_color_black,124867,,black_plus_sign,,,,null,,,,,,,,,,,,,,,,,,,,,,,,,,,
null,,prac_atten_color,125541,,prac_stop_color,,,,null,,,,,,,,,,,,,,,,,,,,,,,,,,,
null,,prac_atten_color_black,127543,,black_plus_sign,,,,null,,,,,,,,,,,,,,,,,,,,,,,,,,,
13160.099999997765,,attentioncheck_help,140705,,instruct,,,,32,,,,,,,,,,,,,,,,,,,,,,,,,,,
null,,prac_atten_color_black,141434,,black_plus_sign,,,,null,,,,,,,,,,,,,,,,,,,,,,,,,,,
452,,prac_atten_color,142144,,prac_stop_color,,,,50,,,,,,,,,,,,,,,,,,,,,,,,,,,
null,,prac_atten_color_black,144146,,black_plus_sign,,,,null,,,,,,,,,,,,,,,,,,,,,,,,,,,
null,,prac_atten_color_black,144841,,black_plus_sign,,,,null,,,,,,,,,,,,,,,,,,,,,,,,,,,
null,,prac_atten_color,145475,,prac_stop_color,,,,null,,,,,,,,,,,,,,,,,,,,,,,,,,,
60,,prac_atten_color_black,147476,,black_plus_sign,,,,50,,,,,,,,,,,,,,,,,,,,,,,,,,,
null,,prac_atten_color_black,148246,,black_plus_sign,,,,null,,,,,,,,,,,,,,,,,,,,,,,,,,,
424,,prac_atten_color,148724,,prac_stop_color,,,,49,,,,,,,,,,,,,,,,,,,,,,,,,,,
null,,prac_atten_color_black,150726,,black_plus_sign,,,,null,,,,,,,,,,,,,,,,,,,,,,,,,,,
null,,prac_atten_color_black,151652,,black_plus_sign,,,,null,,,,,,,,,,,,,,,,,,,,,,,,,,,
523.2999999970198,,prac_atten_color,152564,,prac_stop_color,,,,50,,,,,,,,,,,,,,,,,,,,,,,,,,,
null,,prac_atten_color_black,154565,,black_plus_sign,,,,null,,,,,,,,,,,,,,,,,,,,,,,,,,,
null,,prac_atten_color_black,155059,,black_plus_sign,,,,null,,,,,,,,,,,,,,,,,,,,,,,,,,,
347.5,,prac_atten_color,155777,,prac_stop_color,,,,50,,,,,,,,,,,,,,,,,,,,,,,,,,,
null,,prac_atten_color_black,157778,,black_plus_sign,,,,null,,,,,,,,,,,,,,,,,,,,,,,,,,,
null,,prac_atten_color_black,158466,,black_plus_sign,,,,null,,,,,,,,,,,,,,,,,,,,,,,,,,,
364.5999999977648,,prac_atten_color,159475,,prac_stop_color,,,,49,,,,,,,,,,,,,,,,,,,,,,,,,,,
null,,prac_atten_color_black,161477,,black_plus_sign,,,,null,,,,,,,,,,,,,,,,,,,,,,,,,,,
null,,prac_atten_color_black,161872,,black_plus_sign,,,,null,,,,,,,,,,,,,,,,,,,,,,,,,,,
447.5,,prac_atten_color,162754,,prac_stop_color,,,,50,,,,,,,,,,,,,,,,,,,,,,,,,,,
null,,prac_atten_color_black,164756,,black_plus_sign,,,,null,,,,,,,,,,,,,,,,,,,,,,,,,,,
null,,prac_atten_color_black,165278,,black_plus_sign,,,,null,,,,,,,,,,,,,,,,,,,,,,,,,,,
465.0999999977648,,prac_atten_color,166363,,prac_stop_color,,,,49,,,,,,,,,,,,,,,,,,,,,,,,,,,
null,,prac_atten_color_black,168365,,black_plus_sign,,,,null,,,,,,,,,,,,,,,,,,,,,,,,,,,
null,,prac_atten_color_black,168683,,black_plus_sign,,,,null,,,,,,,,,,,,,,,,,,,,,,,,,,,
403,,prac_atten_color,169665,,prac_stop_color,,,,49,,,,,,,,,,,,,,,,,,,,,,,,,,,
null,,prac_atten_color_black,171668,,black_plus_sign,,,,null,,,,,,,,,,,,,,,,,,,,,,,,,,,
11731.10000000149,,attentioncheck_feedback,183400,,cross_check_feedback,,0,,,,,,,,,,,,,,,,,,,,,,,,,,,,,
42519.79999999702,,last_instruct,225920,,instruct,,,,32,,,,,,,,,,,,,,,,,,,,,,,,,,,
null,,learn_phase(without_color),228923,,black_plus_sign,,,,null,GW/leesburg.png,GW/carmel.png,,,,,,,,,,,,,,,,,,,,,,,,,
null,,black_cross(without_color),229628,,blue,,,,null,GW/leesburg.png,GW/carmel.png,,,,,,,,,,,,,,,,,,,,,,,,,
322.3999999985099,,rt_plussign_withcolor,230131,,blue,,,,50,GW/leesburg.png,GW/carmel.png,,,,,,,,,,,,,,,,,,,,,,,,,
null,,rt_thecrossant_black,231430,,black_plus_sign,,,,49,,,0,0,,,,,,,,,,,,,,,,,,,,,,,
null,,color_black,231532,,black_plus_sign,,,,null,,,,,,,,,,,,,,,,,,,,,,,,,,,
null,,learn_phase(without_color),234534,,black_plus_sign,,,,null,GW/shreveport.png,GW/leesburg.png,,,,,,,,,,,,,,,,,,,,,,,,,
null,,black_cross(without_color),235312,,blue,,,,null,GW/shreveport.png,GW/leesburg.png,,,,,,,,,,,,,,,,,,,,,,,,,
479,,rt_plussign_withcolor,235813,,blue,,,,49,GW/shreveport.png,GW/leesburg.png,,,,,,,,,,,,,,,,,,,,,,,,,
null,,rt_thecrossant_black,237040,,black_plus_sign,,,,null,,,1,0.5,,,,,,,,,,,,,,,,,,,,,,,
null,,color_black,237143,,black_plus_sign,,,,null,,,,,,,,,,,,,,,,,,,,,,,,,,,
null,,learn_phase(without_color),240156,,black_plus_sign,,,,null,GW/peoria.png,GW/shreveport.png,,,,,,,,,,,,,,,,,,,,,,,,,
null,,black_cross(without_color),240621,,yellow,,,,null,GW/peoria.png,GW/shreveport.png,,,,,,,,,,,,,,,,,,,,,,,,,
null,,rt_plussign_withcolor,241137,,yellow,,,,null,GW/peoria.png,GW/shreveport.png,,,,,,,,,,,,,,,,,,,,,,,,,
1049.6000000014901,,rt_thecrossant_black,242676,,black_plus_sign,,,,50,,,1,0.6666666666666666,,,,,,,,,,,,,,,,,,,,,,,
null,,color_black,242779,,black_plus_sign,,,,null,,,,,,,,,,,,,,,,,,,,,,,,,,,
null,,learn_phase(without_color),245781,,black_plus_sign,,,,null,GW/hotsprings.png,GW/carmel.png,,,,,,,,,,,,,,,,,,,,,,,,,
null,,black_cross(without_color),246283,,yellow,,,,null,GW/hotsprings.png,GW/carmel.png,,,,,,,,,,,,,,,,,,,,,,,,,
483.8999999985099,,rt_plussign_withcolor,246784,,yellow,,,,50,GW/hotsprings.png,GW/carmel.png,,,,,,,,,,,,,,,,,,,,,,,,,
null,,rt_thecrossant_black,248286,,black_plus_sign,,,,null,,,1,0.75,,,,,,,,,,,,,,,,,,,,,,,
null,,color_black,248397,,black_plus_sign,,,,null,,,,,,,,,,,,,,,,,,,,,,,,,,,
null,,learn_phase(without_color),251400,,black_plus_sign,,,,null,GW/peoria.png,GW/hanover.png,,,,,,,,,,,,,,,,,,,,,,,,,
null,,black_cross(without_color),252138,,blue,,,,null,GW/peoria.png,GW/hanover.png,,,,,,,,,,,,,,,,,,,,,,,,,
469,,rt_plussign_withcolor,252645,,blue,,,,49,GW/peoria.png,GW/hanover.png,,,,,,,,,,,,,,,,,,,,,,,,,
null,,rt_thecrossant_black,253910,,black_plus_sign,,,,null,,,1,0.8,,,,,,,,,,,,,,,,,,,,,,,
null,,color_black,254011,,black_plus_sign,,,,null,,,,,,,,,,,,,,,,,,,,,,,,,,,
null,,learn_phase(without_color),257020,,black_plus_sign,,,,null,GW/westpalmbeach.png,GW/newhope.png,,,,,,,,,,,,,,,,,,,,,,,,,
null,,black_cross(without_color),257822,,yellow,,,,null,GW/westpalmbeach.png,GW/newhope.png,,,,,,,,,,,,,,,,,,,,,,,,,
400.5999999977648,,rt_plussign_withcolor,258324,,yellow,,,,50,GW/westpalmbeach.png,GW/newhope.png,,,,,,,,,,,,,,,,,,,,,,,,,
null,,rt_thecrossant_black,259526,,black_plus_sign,,,,null,,,1,0.8333333333333334,,,,,,,,,,,,,,,,,,,,,,,
null,,color_black,259629,,black_plus_sign,,,,null,,,,,,,,,,,,,,,,,,,,,,,,,,,
null,,learn_phase(without_color),262632,,black_plus_sign,,,,null,GW/huntsville.png,GW/gatlinburg.png,,,,,,,,,,,,,,,,,,,,,,,,,
null,,black_cross(without_color),263141,,yellow,,,,null,GW/huntsville.png,GW/gatlinburg.png,,,,,,,,,,,,,,,,,,,,,,,,,
null,,rt_plussign_withcolor,263642,,yellow,,,,null,GW/huntsville.png,GW/gatlinburg.png,,,,,,,,,,,,,,,,,,,,,,,,,
1000.9000000022352,,rt_thecrossant_black,265137,,black_plus_sign,,,,50,,,1,0.8571428571428571,,,,,,,,,,,,,,,,,,,,,,,
null,,color_black,265240,,black_plus_sign,,,,null,,,,,,,,,,,,,,,,,,,,,,,,,,,
null,,learn_phase(without_color),268243,,black_plus_sign,,,,null,GW/peoria.png,GW/hanover.png,,,,,,,,,,,,,,,,,,,,,,,,,
null,,black_cross(without_color),269308,,blue,,,,null,GW/peoria.png,GW/hanover.png,,,,,,,,,,,,,,,,,,,,,,,,,
434.6000000014901,,rt_plussign_withcolor,269810,,blue,,,,50,GW/peoria.png,GW/hanover.png,,,,,,,,,,,,,,,,,,,,,,,,,
null,,rt_thecrossant_black,270748,,black_plus_sign,,,,49,,,0,0.75,,,,,,,,,,,,,,,,,,,,,,,
null,,color_black,270850,,black_plus_sign,,,,null,,,,,,,,,,,,,,,,,,,,,,,,,,,
null,,learn_phase(without_color),273852,,black_plus_sign,,,,null,GW/hanover.png,GW/leesburg.png,,,,,,,,,,,,,,,,,,,,,,,,,
null,,black_cross(without_color),274816,,blue,,,,null,GW/hanover.png,GW/leesburg.png,,,,,,,,,,,,,,,,,,,,,,,,,
463.5999999977648,,rt_plussign_withcolor,275317,,blue,,,,49,GW/hanover.png,GW/leesburg.png,,,,,,,,,,,,,,,,,,,,,,,,,
null,,rt_thecrossant_black,276358,,black_plus_sign,,,,null,,,1,0.7777777777777778,,,,,,,,,,,,,,,,,,,,,,,
null,,color_black,276461,,black_plus_sign,,,,null,,,,,,,,,,,,,,,,,,,,,,,,,,,
null,,learn_phase(without_color),279463,,black_plus_sign,,,,null,GW/carmel.png,GW/huntsville.png,,,,,,,,,,,,,,,,,,,,,,,,,
null,,black_cross(without_color),280315,,yellow,,,,null,GW/carmel.png,GW/huntsville.png,,,,,,,,,,,,,,,,,,,,,,,,,
null,,rt_plussign_withcolor,280816,,yellow,,,,null,GW/carmel.png,GW/huntsville.png,,,,,,,,,,,,,,,,,,,,,,,,,
1236.199999999255,,rt_thecrossant_black,281968,,black_plus_sign,,,,50,,,1,0.8,,,,,,,,,,,,,,,,,,,,,,,
null,,color_black,282070,,black_plus_sign,,,,null,,,,,,,,,,,,,,,,,,,,,,,,,,,
null,,learn_phase(without_color),285072,,black_plus_sign,,,,null,GW/hanover.png,GW/peoria.png,,,,,,,,,,,,,,,,,,,,,,,,,
null,,black_cross(without_color),286089,,blue,,,,null,GW/hanover.png,GW/peoria.png,,,,,,,,,,,,,,,,,,,,,,,,,
374.5,,rt_plussign_withcolor,286591,,blue,,,,49,GW/hanover.png,GW/peoria.png,,,,,,,,,,,,,,,,,,,,,,,,,
null,,rt_thecrossant_black,287590,,black_plus_sign,,,,null,,,1,0.8181818181818182,,,,,,,,,,,,,,,,,,,,,,,
null,,color_black,287692,,black_plus_sign,,,,null,,,,,,,,,,,,,,,,,,,,,,,,,,,
null,,learn_phase(without_color),290695,,black_plus_sign,,,,null,GW/westpalmbeach.png,GW/racine.png,,,,,,,,,,,,,,,,,,,,,,,,,
null,,black_cross(without_color),291237,,yellow,,,,null,GW/westpalmbeach.png,GW/racine.png,,,,,,,,,,,,,,,,,,,,,,,,,
473.69999999925494,,rt_plussign_withcolor,291739,,yellow,,,,50,GW/westpalmbeach.png,GW/racine.png,,,,,,,,,,,,,,,,,,,,,,,,,
null,,rt_thecrossant_black,293201,,black_plus_sign,,,,null,,,1,0.8333333333333334,,,,,,,,,,,,,,,,,,,,,,,
null,,color_black,293304,,black_plus_sign,,,,null,,,,,,,,,,,,,,,,,,,,,,,,,,,
null,,learn_phase(without_color),296305,,black_plus_sign,,,,null,GW/peoria.png,GW/hanover.png,,,,,,,,,,,,,,,,,,,,,,,,,
null,,black_cross(without_color),297155,,yellow,,,,null,GW/peoria.png,GW/hanover.png,,,,,,,,,,,,,,,,,,,,,,,,,
348.69999999925494,,rt_plussign_withcolor,297656,,yellow,,,,49,GW/peoria.png,GW/hanover.png,,,,,,,,,,,,,,,,,,,,,,,,,
null,,rt_thecrossant_black,298812,,black_plus_sign,,,,50,,,0,0.7692307692307693,,,,,,,,,,,,,,,,,,,,,,,
null,,color_black,298914,,black_plus_sign,,,,null,,,,,,,,,,,,,,,,,,,,,,,,,,,
null,,learn_phase(without_color),301917,,black_plus_sign,,,,null,GW/shreveport.png,GW/huntsville.png,,,,,,,,,,,,,,,,,,,,,,,,,
null,,black_cross(without_color),302722,,blue,,,,null,GW/shreveport.png,GW/huntsville.png,,,,,,,,,,,,,,,,,,,,,,,,,
null,,rt_plussign_withcolor,303224,,blue,,,,null,GW/shreveport.png,GW/huntsville.png,,,,,,,,,,,,,,,,,,,,,,,,,
969.8999999985099,,rt_thecrossant_black,304424,,black_plus_sign,,,,50,,,0,0.7142857142857143,,,,,,,,,,,,,,,,,,,,,,,
null,,warning_page,307426,,warning,,,,null,,,,,,,,,,,,,,,,,,,,,,,,,,,
null,,color_black,307528,,black_plus_sign,,,,null,,,,,,,,,,,,,,,,,,,,,,,,,,,
null,,learn_phase(without_color),310530,,black_plus_sign,,,,null,GW/huntsville.png,GW/carmel.png,,,,,,,,,,,,,,,,,,,,,,,,,
null,,black_cross(without_color),311175,,blue,,,,null,GW/huntsville.png,GW/carmel.png,,,,,,,,,,,,,,,,,,,,,,,,,
296.19999999925494,,rt_plussign_withcolor,311676,,blue,,,,49,GW/huntsville.png,GW/carmel.png,,,,,,,,,,,,,,,,,,,,,,,,,
null,,rt_thecrossant_black,313036,,black_plus_sign,,,,null,,,1,0.7333333333333333,,,,,,,,,,,,,,,,,,,,,,,
null,,color_black,313137,,black_plus_sign,,,,null,,,,,,,,,,,,,,,,,,,,,,,,,,,
null,,learn_phase(without_color),316139,,black_plus_sign,,,,null,GW/racine.png,GW/westpalmbeach.png,,,,,,,,,,,,,,,,,,,,,,,,,
null,,black_cross(without_color),316745,,yellow,,,,null,GW/racine.png,GW/westpalmbeach.png,,,,,,,,,,,,,,,,,,,,,,,,,
406.3999999985099,,rt_plussign_withcolor,317247,,yellow,,,,50,GW/racine.png,GW/westpalmbeach.png,,,,,,,,,,,,,,,,,,,,,,,,,
null,,rt_thecrossant_black,318646,,black_plus_sign,,,,null,,,1,0.75,,,,,,,,,,,,,,,,,,,,,,,
null,,color_black,318748,,black_plus_sign,,,,null,,,,,,,,,,,,,,,,,,,,,,,,,,,
null,,learn_phase(without_color),321750,,black_plus_sign,,,,null,GW/newhope.png,GW/westpalmbeach.png,,,,,,,,,,,,,,,,,,,,,,,,,
null,,black_cross(without_color),322505,,blue,,,,null,GW/newhope.png,GW/westpalmbeach.png,,,,,,,,,,,,,,,,,,,,,,,,,
470.0999999977648,,rt_plussign_withcolor,323007,,blue,,,,49,GW/newhope.png,GW/westpalmbeach.png,,,,,,,,,,,,,,,,,,,,,,,,,
null,,rt_thecrossant_black,324257,,black_plus_sign,,,,null,,,1,0.7647058823529411,,,,,,,,,,,,,,,,,,,,,,,
null,,color_black,324359,,black_plus_sign,,,,null,,,,,,,,,,,,,,,,,,,,,,,,,,,
null,,learn_phase(without_color),327362,,black_plus_sign,,,,null,GW/leesburg.png,GW/shreveport.png,,,,,,,,,,,,,,,,,,,,,,,,,
null,,black_cross(without_color),328431,,yellow,,,,null,GW/leesburg.png,GW/shreveport.png,,,,,,,,,,,,,,,,,,,,,,,,,
464.1000000014901,,rt_plussign_withcolor,328933,,yellow,,,,50,GW/leesburg.png,GW/shreveport.png,,,,,,,,,,,,,,,,,,,,,,,,,
null,,rt_thecrossant_black,329868,,black_plus_sign,,,,null,,,1,0.7777777777777778,,,,,,,,,,,,,,,,,,,,,,,
null,,color_black,329981,,black_plus_sign,,,,null,,,,,,,,,,,,,,,,,,,,,,,,,,,
null,,learn_phase(without_color),332996,,black_plus_sign,,,,null,GW/shreveport.png,GW/leesburg.png,,,,,,,,,,,,,,,,,,,,,,,,,
null,,black_cross(without_color),333663,,blue,,,,null,GW/shreveport.png,GW/leesburg.png,,,,,,,,,,,,,,,,,,,,,,,,,
336.69999999925494,,rt_plussign_withcolor,334179,,blue,,,,49,GW/shreveport.png,GW/leesburg.png,,,,,,,,,,,,,,,,,,,,,,,,,
null,,rt_thecrossant_black,335519,,black_plus_sign,,,,null,,,1,0.7894736842105263,,,,,,,,,,,,,,,,,,,,,,,
null,,color_black,335622,,black_plus_sign,,,,null,,,,,,,,,,,,,,,,,,,,,,,,,,,
null,,learn_phase(without_color),338625,,black_plus_sign,,,,null,GW/newhope.png,GW/westpalmbeach.png,,,,,,,,,,,,,,,,,,,,,,,,,
null,,black_cross(without_color),339052,,yellow,,,,null,GW/newhope.png,GW/westpalmbeach.png,,,,,,,,,,,,,,,,,,,,,,,,,
null,,rt_plussign_withcolor,339554,,yellow,,,,null,GW/newhope.png,GW/westpalmbeach.png,,,,,,,,,,,,,,,,,,,,,,,,,
790.5,,rt_thecrossant_black,341135,,black_plus_sign,,,,50,,,1,0.8,,,,,,,,,,,,,,,,,,,,,,,
null,,color_black,341236,,black_plus_sign,,,,null,,,,,,,,,,,,,,,,,,,,,,,,,,,
null,,learn_phase(without_color),344239,,black_plus_sign,,,,null,GW/leesburg.png,GW/hanover.png,,,,,,,,,,,,,,,,,,,,,,,,,
null,,black_cross(without_color),344783,,yellow,,,,null,GW/leesburg.png,GW/hanover.png,,,,,,,,,,,,,,,,,,,,,,,,,
null,,rt_plussign_withcolor,345285,,yellow,,,,null,GW/leesburg.png,GW/hanover.png,,,,,,,,,,,,,,,,,,,,,,,,,
552.1000000014901,,rt_thecrossant_black,346746,,black_plus_sign,,,,50,,,1,0.8095238095238095,,,,,,,,,,,,,,,,,,,,,,,
null,,color_black,346849,,black_plus_sign,,,,null,,,,,,,,,,,,,,,,,,,,,,,,,,,
null,,learn_phase(without_color),349853,,black_plus_sign,,,,null,GW/leesburg.png,GW/carmel.png,,,,,,,,,,,,,,,,,,,,,,,,,
null,,black_cross(without_color),350833,,yellow,,,,null,GW/leesburg.png,GW/carmel.png,,,,,,,,,,,,,,,,,,,,,,,,,
333.5999999977648,,rt_plussign_withcolor,351336,,yellow,,,,50,GW/leesburg.png,GW/carmel.png,,,,,,,,,,,,,,,,,,,,,,,,,
null,,rt_thecrossant_black,352360,,black_plus_sign,,,,null,,,1,0.8181818181818182,,,,,,,,,,,,,,,,,,,,,,,
null,,color_black,352462,,black_plus_sign,,,,null,,,,,,,,,,,,,,,,,,,,,,,,,,,
null,,learn_phase(without_color),355464,,black_plus_sign,,,,null,GW/gatlinburg.png,GW/huntsville.png,,,,,,,,,,,,,,,,,,,,,,,,,
null,,black_cross(without_color),356095,,yellow,,,,null,GW/gatlinburg.png,GW/huntsville.png,,,,,,,,,,,,,,,,,,,,,,,,,
null,,rt_plussign_withcolor,356596,,yellow,,,,null,GW/gatlinburg.png,GW/huntsville.png,,,,,,,,,,,,,,,,,,,,,,,,,
1409.5,,rt_thecrossant_black,357969,,black_plus_sign,,,,50,,,1,0.8260869565217391,,,,,,,,,,,,,,,,,,,,,,,
null,,color_black,358071,,black_plus_sign,,,,null,,,,,,,,,,,,,,,,,,,,,,,,,,,
null,,learn_phase(without_color),361073,,black_plus_sign,,,,null,GW/shreveport.png,GW/carmel.png,,,,,,,,,,,,,,,,,,,,,,,,,
null,,black_cross(without_color),361570,,yellow,,,,null,GW/shreveport.png,GW/carmel.png,,,,,,,,,,,,,,,,,,,,,,,,,
301.69999999925494,,rt_plussign_withcolor,362071,,yellow,,,,50,GW/shreveport.png,GW/carmel.png,,,,,,,,,,,,,,,,,,,,,,,,,
null,,rt_thecrossant_black,363579,,black_plus_sign,,,,null,,,1,0.8333333333333334,,,,,,,,,,,,,,,,,,,,,,,
null,,color_black,363681,,black_plus_sign,,,,null,,,,,,,,,,,,,,,,,,,,,,,,,,,
null,,learn_phase(without_color),366683,,black_plus_sign,,,,null,GW/westpalmbeach.png,GW/racine.png,,,,,,,,,,,,,,,,,,,,,,,,,
null,,black_cross(without_color),367689,,yellow,,,,null,GW/westpalmbeach.png,GW/racine.png,,,,,,,,,,,,,,,,,,,,,,,,,
422.5,,rt_plussign_withcolor,368190,,yellow,,,,50,GW/westpalmbeach.png,GW/racine.png,,,,,,,,,,,,,,,,,,,,,,,,,
null,,rt_thecrossant_black,369191,,black_plus_sign,,,,null,,,1,0.84,,,,,,,,,,,,,,,,,,,,,,,
null,,color_black,369293,,black_plus_sign,,,,null,,,,,,,,,,,,,,,,,,,,,,,,,,,
null,,learn_phase(without_color),372295,,black_plus_sign,,,,null,GW/peoria.png,GW/racine.png,,,,,,,,,,,,,,,,,,,,,,,,,
null,,black_cross(without_color),373112,,yellow,,,,null,GW/peoria.png,GW/racine.png,,,,,,,,,,,,,,,,,,,,,,,,,
279.69999999925494,,rt_plussign_withcolor,373613,,yellow,,,,50,GW/peoria.png,GW/racine.png,,,,,,,,,,,,,,,,,,,,,,,,,
null,,rt_thecrossant_black,374802,,black_plus_sign,,,,null,,,1,0.8461538461538461,,,,,,,,,,,,,,,,,,,,,,,
null,,color_black,374904,,black_plus_sign,,,,null,,,,,,,,,,,,,,,,,,,,,,,,,,,
null,,learn_phase(without_color),377907,,black_plus_sign,,,,null,GW/peoria.png,GW/shreveport.png,,,,,,,,,,,,,,,,,,,,,,,,,
null,,black_cross(without_color),378926,,yellow,,,,null,GW/peoria.png,GW/shreveport.png,,,,,,,,,,,,,,,,,,,,,,,,,
null,,rt_plussign_withcolor,379428,,yellow,,,,null,GW/peoria.png,GW/shreveport.png,,,,,,,,,,,,,,,,,,,,,,,,,
957.1999999992549,,rt_thecrossant_black,380412,,black_plus_sign,,,,50,,,1,0.8518518518518519,,,,,,,,,,,,,,,,,,,,,,,
null,,color_black,380514,,black_plus_sign,,,,null,,,,,,,,,,,,,,,,,,,,,,,,,,,
null,,learn_phase(without_color),383516,,black_plus_sign,,,,null,GW/shreveport.png,GW/huntsville.png,,,,,,,,,,,,,,,,,,,,,,,,,
null,,black_cross(without_color),384310,,yellow,,,,null,GW/shreveport.png,GW/huntsville.png,,,,,,,,,,,,,,,,,,,,,,,,,
297.19999999925494,,rt_plussign_withcolor,384811,,yellow,,,,50,GW/shreveport.png,GW/huntsville.png,,,,,,,,,,,,,,,,,,,,,,,,,
null,,rt_thecrossant_black,386023,,black_plus_sign,,,,null,,,1,0.8571428571428571,,,,,,,,,,,,,,,,,,,,,,,
null,,color_black,386126,,black_plus_sign,,,,null,,,,,,,,,,,,,,,,,,,,,,,,,,,
null,,learn_phase(without_color),389128,,black_plus_sign,,,,null,GW/racine.png,GW/peoria.png,,,,,,,,,,,,,,,,,,,,,,,,,
null,,black_cross(without_color),390122,,blue,,,,null,GW/racine.png,GW/peoria.png,,,,,,,,,,,,,,,,,,,,,,,,,
309.8999999985099,,rt_plussign_withcolor,390623,,blue,,,,50,GW/racine.png,GW/peoria.png,,,,,,,,,,,,,,,,,,,,,,,,,
null,,rt_thecrossant_black,391633,,black_plus_sign,,,,null,,,0,0.8275862068965517,,,,,,,,,,,,,,,,,,,,,,,
null,,color_black,391736,,black_plus_sign,,,,null,,,,,,,,,,,,,,,,,,,,,,,,,,,
null,,learn_phase(without_color),394738,,black_plus_sign,,,,null,GW/peoria.png,GW/racine.png,,,,,,,,,,,,,,,,,,,,,,,,,
null,,black_cross(without_color),395299,,yellow,,,,null,GW/peoria.png,GW/racine.png,,,,,,,,,,,,,,,,,,,,,,,,,
460.29999999701977,,rt_plussign_withcolor,395800,,yellow,,,,50,GW/peoria.png,GW/racine.png,,,,,,,,,,,,,,,,,,,,,,,,,
null,,rt_thecrossant_black,397244,,black_plus_sign,,,,null,,,1,0.8333333333333334,,,,,,,,,,,,,,,,,,,,,,,
null,,color_black,397345,,black_plus_sign,,,,null,,,,,,,,,,,,,,,,,,,,,,,,,,,
null,,learn_phase(without_color),400347,,black_plus_sign,,,,null,GW/hotsprings.png,GW/carmel.png,,,,,,,,,,,,,,,,,,,,,,,,,
null,,black_cross(without_color),400834,,blue,,,,null,GW/hotsprings.png,GW/carmel.png,,,,,,,,,,,,,,,,,,,,,,,,,
381.4000000022352,,rt_plussign_withcolor,401336,,blue,,,,49,GW/hotsprings.png,GW/carmel.png,,,,,,,,,,,,,,,,,,,,,,,,,
null,,rt_thecrossant_black,402853,,black_plus_sign,,,,null,,,1,0.8387096774193549,,,,,,,,,,,,,,,,,,,,,,,
null,,color_black,402956,,black_plus_sign,,,,null,,,,,,,,,,,,,,,,,,,,,,,,,,,
null,,learn_phase(without_color),405958,,black_plus_sign,,,,null,GW/newhope.png,GW/westpalmbeach.png,,,,,,,,,,,,,,,,,,,,,,,,,
null,,black_cross(without_color),406365,,yellow,,,,null,GW/newhope.png,GW/westpalmbeach.png,,,,,,,,,,,,,,,,,,,,,,,,,
371.1000000014901,,rt_plussign_withcolor,406866,,yellow,,,,50,GW/newhope.png,GW/westpalmbeach.png,,,,,,,,,,,,,,,,,,,,,,,,,
null,,rt_thecrossant_black,408463,,black_plus_sign,,,,null,,,1,0.84375,,,,,,,,,,,,,,,,,,,,,,,
null,,color_black,408565,,black_plus_sign,,,,null,,,,,,,,,,,,,,,,,,,,,,,,,,,
null,,learn_phase(without_color),411567,,black_plus_sign,,,,null,GW/hanover.png,GW/newhope.png,,,,,,,,,,,,,,,,,,,,,,,,,
null,,black_cross(without_color),412640,,blue,,,,null,GW/hanover.png,GW/newhope.png,,,,,,,,,,,,,,,,,,,,,,,,,
350.80000000074506,,rt_plussign_withcolor,413142,,blue,,,,50,GW/hanover.png,GW/newhope.png,,,,,,,,,,,,,,,,,,,,,,,,,
null,,rt_thecrossant_black,414074,,black_plus_sign,,,,null,,,0,0.8181818181818182,,,,,,,,,,,,,,,,,,,,,,,
null,,color_black,414175,,black_plus_sign,,,,null,,,,,,,,,,,,,,,,,,,,,,,,,,,
null,,learn_phase(without_color),417178,,black_plus_sign,,,,null,GW/newhope.png,GW/westpalmbeach.png,,,,,,,,,,,,,,,,,,,,,,,,,
null,,black_cross(without_color),417776,,yellow,,,,null,GW/newhope.png,GW/westpalmbeach.png,,,,,,,,,,,,,,,,,,,,,,,,,
null,,rt_plussign_withcolor,418278,,yellow,,,,null,GW/newhope.png,GW/westpalmbeach.png,,,,,,,,,,,,,,,,,,,,,,,,,
1178,,rt_thecrossant_black,419684,,black_plus_sign,,,,50,,,1,0.8235294117647058,,,,,,,,,,,,,,,,,,,,,,,
null,,color_black,419787,,black_plus_sign,,,,null,,,,,,,,,,,,,,,,,,,,,,,,,,,
null,,learn_phase(without_color),422790,,black_plus_sign,,,,null,GW/westpalmbeach.png,GW/boulder.png,,,,,,,,,,,,,,,,,,,,,,,,,
null,,black_cross(without_color),423343,,blue,,,,null,GW/westpalmbeach.png,GW/boulder.png,,,,,,,,,,,,,,,,,,,,,,,,,
null,,rt_plussign_withcolor,423853,,blue,,,,null,GW/westpalmbeach.png,GW/boulder.png,,,,,,,,,,,,,,,,,,,,,,,,,
905.7000000029802,,rt_thecrossant_black,425305,,black_plus_sign,,,,49,,,1,0.8285714285714286,,,,,,,,,,,,,,,,,,,,,,,
null,,color_black,425407,,black_plus_sign,,,,null,,,,,,,,,,,,,,,,,,,,,,,,,,,
null,,learn_phase(without_color),428409,,black_plus_sign,,,,null,GW/shreveport.png,GW/carmel.png,,,,,,,,,,,,,,,,,,,,,,,,,
null,,black_cross(without_color),429408,,yellow,,,,null,GW/shreveport.png,GW/carmel.png,,,,,,,,,,,,,,,,,,,,,,,,,
494.79999999701977,,rt_plussign_withcolor,429911,,yellow,,,,50,GW/shreveport.png,GW/carmel.png,,,,,,,,,,,,,,,,,,,,,,,,,
null,,rt_thecrossant_black,430915,,black_plus_sign,,,,null,,,1,0.8333333333333334,,,,,,,,,,,,,,,,,,,,,,,
null,,color_black,431017,,black_plus_sign,,,,null,,,,,,,,,,,,,,,,,,,,,,,,,,,
null,,learn_phase(without_color),434019,,black_plus_sign,,,,null,GW/hanover.png,GW/peoria.png,,,,,,,,,,,,,,,,,,,,,,,,,
null,,black_cross(without_color),434469,,yellow,,,,null,GW/hanover.png,GW/peoria.png,,,,,,,,,,,,,,,,,,,,,,,,,
null,,rt_plussign_withcolor,434971,,yellow,,,,null,GW/hanover.png,GW/peoria.png,,,,,,,,,,,,,,,,,,,,,,,,,
1150.300000000745,,rt_thecrossant_black,436525,,black_plus_sign,,,,50,,,1,0.8378378378378378,,,,,,,,,,,,,,,,,,,,,,,
null,,color_black,436627,,black_plus_sign,,,,null,,,,,,,,,,,,,,,,,,,,,,,,,,,
null,,learn_phase(without_color),439629,,black_plus_sign,,,,null,GW/peoria.png,GW/hanover.png,,,,,,,,,,,,,,,,,,,,,,,,,
null,,black_cross(without_color),440352,,blue,,,,null,GW/peoria.png,GW/hanover.png,,,,,,,,,,,,,,,,,,,,,,,,,
367.29999999701977,,rt_plussign_withcolor,440854,,blue,,,,49,GW/peoria.png,GW/hanover.png,,,,,,,,,,,,,,,,,,,,,,,,,
null,,rt_thecrossant_black,442134,,black_plus_sign,,,,null,,,1,0.8421052631578947,,,,,,,,,,,,,,,,,,,,,,,
null,,color_black,442237,,black_plus_sign,,,,null,,,,,,,,,,,,,,,,,,,,,,,,,,,
null,,learn_phase(without_color),445240,,black_plus_sign,,,,null,GW/huntsville.png,GW/gatlinburg.png,,,,,,,,,,,,,,,,,,,,,,,,,
null,,black_cross(without_color),446006,,blue,,,,null,GW/huntsville.png,GW/gatlinburg.png,,,,,,,,,,,,,,,,,,,,,,,,,
409.5,,rt_plussign_withcolor,446507,,blue,,,,49,GW/huntsville.png,GW/gatlinburg.png,,,,,,,,,,,,,,,,,,,,,,,,,
null,,rt_thecrossant_black,447745,,black_plus_sign,,,,null,,,1,0.8461538461538461,,,,,,,,,,,,,,,,,,,,,,,
null,,color_black,447859,,black_plus_sign,,,,null,,,,,,,,,,,,,,,,,,,,,,,,,,,
null,,learn_phase(without_color),450861,,black_plus_sign,,,,null,GW/shreveport.png,GW/peoria.png,,,,,,,,,,,,,,,,,,,,,,,,,
null,,black_cross(without_color),451541,,blue,,,,null,GW/shreveport.png,GW/peoria.png,,,,,,,,,,,,,,,,,,,,,,,,,
473.80000000074506,,rt_plussign_withcolor,452044,,blue,,,,49,GW/shreveport.png,GW/peoria.png,,,,,,,,,,,,,,,,,,,,,,,,,
null,,rt_thecrossant_black,453374,,black_plus_sign,,,,null,,,1,0.85,,,,,,,,,,,,,,,,,,,,,,,
null,,color_black,453476,,black_plus_sign,,,,null,,,,,,,,,,,,,,,,,,,,,,,,,,,
null,,learn_phase(without_color),456478,,black_plus_sign,,,,null,GW/hanover.png,GW/leesburg.png,,,,,,,,,,,,,,,,,,,,,,,,,
null,,black_cross(without_color),457559,,yellow,,,,null,GW/hanover.png,GW/leesburg.png,,,,,,,,,,,,,,,,,,,,,,,,,
296.0999999977648,,rt_plussign_withcolor,458060,,yellow,,,,50,GW/hanover.png,GW/leesburg.png,,,,,,,,,,,,,,,,,,,,,,,,,
null,,rt_thecrossant_black,458983,,black_plus_sign,,,,null,,,1,0.8536585365853658,,,,,,,,,,,,,,,,,,,,,,,
null,,color_black,459085,,black_plus_sign,,,,null,,,,,,,,,,,,,,,,,,,,,,,,,,,
null,,learn_phase(without_color),462089,,black_plus_sign,,,,null,GW/carmel.png,GW/hotsprings.png,,,,,,,,,,,,,,,,,,,,,,,,,
null,,black_cross(without_color),462718,,yellow,,,,null,GW/carmel.png,GW/hotsprings.png,,,,,,,,,,,,,,,,,,,,,,,,,
305.69999999925494,,rt_plussign_withcolor,463219,,yellow,,,,50,GW/carmel.png,GW/hotsprings.png,,,,,,,,,,,,,,,,,,,,,,,,,
null,,rt_thecrossant_black,464594,,black_plus_sign,,,,null,,,1,0.8571428571428571,,,,,,,,,,,,,,,,,,,,,,,
null,,color_black,464697,,black_plus_sign,,,,null,,,,,,,,,,,,,,,,,,,,,,,,,,,
null,,learn_phase(without_color),467700,,black_plus_sign,,,,null,GW/leesburg.png,GW/shreveport.png,,,,,,,,,,,,,,,,,,,,,,,,,
null,,black_cross(without_color),468257,,blue,,,,null,GW/leesburg.png,GW/shreveport.png,,,,,,,,,,,,,,,,,,,,,,,,,
334.30000000074506,,rt_plussign_withcolor,468758,,blue,,,,50,GW/leesburg.png,GW/shreveport.png,,,,,,,,,,,,,,,,,,,,,,,,,
null,,rt_thecrossant_black,470206,,black_plus_sign,,,,null,,,0,0.8372093023255814,,,,,,,,,,,,,,,,,,,,,,,
null,,color_black,470310,,black_plus_sign,,,,null,,,,,,,,,,,,,,,,,,,,,,,,,,,
null,,learn_phase(without_color),473312,,black_plus_sign,,,,null,GW/huntsville.png,GW/gatlinburg.png,,,,,,,,,,,,,,,,,,,,,,,,,
null,,black_cross(without_color),474048,,blue,,,,null,GW/huntsville.png,GW/gatlinburg.png,,,,,,,,,,,,,,,,,,,,,,,,,
366.6000000014901,,rt_plussign_withcolor,474550,,blue,,,,49,GW/huntsville.png,GW/gatlinburg.png,,,,,,,,,,,,,,,,,,,,,,,,,
null,,rt_thecrossant_black,475818,,black_plus_sign,,,,null,,,1,0.8409090909090909,,,,,,,,,,,,,,,,,,,,,,,
null,,color_black,475920,,black_plus_sign,,,,null,,,,,,,,,,,,,,,,,,,,,,,,,,,
null,,learn_phase(without_color),478922,,black_plus_sign,,,,null,GW/huntsville.png,GW/gatlinburg.png,,,,,,,,,,,,,,,,,,,,,,,,,
null,,black_cross(without_color),479498,,yellow,,,,null,GW/huntsville.png,GW/gatlinburg.png,,,,,,,,,,,,,,,,,,,,,,,,,
null,,rt_plussign_withcolor,480000,,yellow,,,,null,GW/huntsville.png,GW/gatlinburg.png,,,,,,,,,,,,,,,,,,,,,,,,,
865.3999999985099,,rt_thecrossant_black,481427,,black_plus_sign,,,,50,,,1,0.8444444444444444,,,,,,,,,,,,,,,,,,,,,,,
null,,color_black,481530,,black_plus_sign,,,,null,,,,,,,,,,,,,,,,,,,,,,,,,,,
null,,learn_phase(without_color),484533,,black_plus_sign,,,,null,GW/cornwall.png,GW/newhope.png,,,,,,,,,,,,,,,,,,,,,,,,,
null,,black_cross(without_color),485305,,yellow,,,,null,GW/cornwall.png,GW/newhope.png,,,,,,,,,,,,,,,,,,,,,,,,,
358,,rt_plussign_withcolor,485807,,yellow,,,,50,GW/cornwall.png,GW/newhope.png,,,,,,,,,,,,,,,,,,,,,,,,,
null,,rt_thecrossant_black,487038,,black_plus_sign,,,,null,,,1,0.8478260869565217,,,,,,,,,,,,,,,,,,,,,,,
null,,color_black,487139,,black_plus_sign,,,,null,,,,,,,,,,,,,,,,,,,,,,,,,,,
null,,learn_phase(without_color),490141,,black_plus_sign,,,,null,GW/carmel.png,GW/huntsville.png,,,,,,,,,,,,,,,,,,,,,,,,,
null,,black_cross(without_color),490946,,yellow,,,,null,GW/carmel.png,GW/huntsville.png,,,,,,,,,,,,,,,,,,,,,,,,,
477.30000000074506,,rt_plussign_withcolor,491447,,yellow,,,,50,GW/carmel.png,GW/huntsville.png,,,,,,,,,,,,,,,,,,,,,,,,,
null,,rt_thecrossant_black,492647,,black_plus_sign,,,,null,,,1,0.851063829787234,,,,,,,,,,,,,,,,,,,,,,,
null,,color_black,492750,,black_plus_sign,,,,null,,,,,,,,,,,,,,,,,,,,,,,,,,,
null,,learn_phase(without_color),495752,,black_plus_sign,,,,null,GW/newhope.png,GW/hanover.png,,,,,,,,,,,,,,,,,,,,,,,,,
null,,black_cross(without_color),496734,,yellow,,,,null,GW/newhope.png,GW/hanover.png,,,,,,,,,,,,,,,,,,,,,,,,,
433.3999999985099,,rt_plussign_withcolor,497236,,yellow,,,,50,GW/newhope.png,GW/hanover.png,,,,,,,,,,,,,,,,,,,,,,,,,
null,,rt_thecrossant_black,498258,,black_plus_sign,,,,null,,,1,0.8541666666666666,,,,,,,,,,,,,,,,,,,,,,,
null,,color_black,498361,,black_plus_sign,,,,null,,,,,,,,,,,,,,,,,,,,,,,,,,,
null,,learn_phase(without_color),501363,,black_plus_sign,,,,null,GW/hanover.png,GW/newhope.png,,,,,,,,,,,,,,,,,,,,,,,,,
null,,black_cross(without_color),501945,,blue,,,,null,GW/hanover.png,GW/newhope.png,,,,,,,,,,,,,,,,,,,,,,,,,
454.5999999977648,,rt_plussign_withcolor,502448,,blue,,,,49,GW/hanover.png,GW/newhope.png,,,,,,,,,,,,,,,,,,,,,,,,,
null,,rt_thecrossant_black,503870,,black_plus_sign,,,,null,,,1,0.8571428571428571,,,,,,,,,,,,,,,,,,,,,,,
null,,color_black,503971,,black_plus_sign,,,,null,,,,,,,,,,,,,,,,,,,,,,,,,,,
null,,learn_phase(without_color),506974,,black_plus_sign,,,,null,GW/huntsville.png,GW/gatlinburg.png,,,,,,,,,,,,,,,,,,,,,,,,,
null,,black_cross(without_color),507760,,yellow,,,,null,GW/huntsville.png,GW/gatlinburg.png,,,,,,,,,,,,,,,,,,,,,,,,,
447.4000000022352,,rt_plussign_withcolor,508262,,yellow,,,,50,GW/huntsville.png,GW/gatlinburg.png,,,,,,,,,,,,,,,,,,,,,,,,,
null,,rt_thecrossant_black,509481,,black_plus_sign,,,,null,,,1,0.86,,,,,,,,,,,,,,,,,,,,,,,
null,,color_black,509583,,black_plus_sign,,,,null,,,,,,,,,,,,,,,,,,,,,,,,,,,
null,,learn_phase(without_color),512585,,black_plus_sign,,,,null,GW/hanover.png,GW/newhope.png,,,,,,,,,,,,,,,,,,,,,,,,,
null,,black_cross(without_color),513460,,yellow,,,,null,GW/hanover.png,GW/newhope.png,,,,,,,,,,,,,,,,,,,,,,,,,
282.69999999925494,,rt_plussign_withcolor,513962,,yellow,,,,50,GW/hanover.png,GW/newhope.png,,,,,,,,,,,,,,,,,,,,,,,,,
null,,rt_thecrossant_black,515092,,black_plus_sign,,,,null,,,1,0.8627450980392157,,,,,,,,,,,,,,,,,,,,,,,
null,,color_black,515193,,black_plus_sign,,,,null,,,,,,,,,,,,,,,,,,,,,,,,,,,
null,,learn_phase(without_color),518195,,black_plus_sign,,,,null,GW/shreveport.png,GW/carmel.png,,,,,,,,,,,,,,,,,,,,,,,,,
null,,black_cross(without_color),519124,,blue,,,,null,GW/shreveport.png,GW/carmel.png,,,,,,,,,,,,,,,,,,,,,,,,,
426.6000000014901,,rt_plussign_withcolor,519625,,blue,,,,49,GW/shreveport.png,GW/carmel.png,,,,,,,,,,,,,,,,,,,,,,,,,
null,,rt_thecrossant_black,520701,,black_plus_sign,,,,null,,,1,0.8653846153846154,,,,,,,,,,,,,,,,,,,,,,,
null,,color_black,520803,,black_plus_sign,,,,null,,,,,,,,,,,,,,,,,,,,,,,,,,,
null,,learn_phase(without_color),523806,,black_plus_sign,,,,null,GW/racine.png,GW/peoria.png,,,,,,,,,,,,,,,,,,,,,,,,,
null,,black_cross(without_color),524888,,blue,,,,null,GW/racine.png,GW/peoria.png,,,,,,,,,,,,,,,,,,,,,,,,,
null,,rt_plussign_withcolor,525390,,blue,,,,null,GW/racine.png,GW/peoria.png,,,,,,,,,,,,,,,,,,,,,,,,,
1059.5999999977648,,rt_thecrossant_black,526312,,black_plus_sign,,,,49,,,1,0.8679245283018868,,,,,,,,,,,,,,,,,,,,,,,
null,,color_black,526414,,black_plus_sign,,,,null,,,,,,,,,,,,,,,,,,,,,,,,,,,
null,,learn_phase(without_color),529417,,black_plus_sign,,,,null,GW/westpalmbeach.png,GW/boulder.png,,,,,,,,,,,,,,,,,,,,,,,,,
null,,black_cross(without_color),530378,,yellow,,,,null,GW/westpalmbeach.png,GW/boulder.png,,,,,,,,,,,,,,,,,,,,,,,,,
357.4000000022352,,rt_plussign_withcolor,530880,,yellow,,,,50,GW/westpalmbeach.png,GW/boulder.png,,,,,,,,,,,,,,,,,,,,,,,,,
null,,rt_thecrossant_black,531923,,black_plus_sign,,,,null,,,1,0.8703703703703703,,,,,,,,,,,,,,,,,,,,,,,
null,,color_black,532025,,black_plus_sign,,,,null,,,,,,,,,,,,,,,,,,,,,,,,,,,
null,,learn_phase(without_color),535027,,black_plus_sign,,,,null,GW/westpalmbeach.png,GW/boulder.png,,,,,,,,,,,,,,,,,,,,,,,,,
null,,black_cross(without_color),535830,,yellow,,,,null,GW/westpalmbeach.png,GW/boulder.png,,,,,,,,,,,,,,,,,,,,,,,,,
345.79999999701977,,rt_plussign_withcolor,536332,,yellow,,,,50,GW/westpalmbeach.png,GW/boulder.png,,,,,,,,,,,,,,,,,,,,,,,,,
null,,rt_thecrossant_black,537534,,black_plus_sign,,,,null,,,1,0.8727272727272727,,,,,,,,,,,,,,,,,,,,,,,
null,,color_black,537636,,black_plus_sign,,,,null,,,,,,,,,,,,,,,,,,,,,,,,,,,
null,,learn_phase(without_color),540638,,black_plus_sign,,,,null,GW/shreveport.png,GW/carmel.png,,,,,,,,,,,,,,,,,,,,,,,,,
null,,black_cross(without_color),541632,,yellow,,,,null,GW/shreveport.png,GW/carmel.png,,,,,,,,,,,,,,,,,,,,,,,,,
null,,rt_plussign_withcolor,542133,,yellow,,,,null,GW/shreveport.png,GW/carmel.png,,,,,,,,,,,,,,,,,,,,,,,,,
909.7000000029802,,rt_thecrossant_black,543144,,black_plus_sign,,,,50,,,1,0.875,,,,,,,,,,,,,,,,,,,,,,,
null,,color_black,543245,,black_plus_sign,,,,null,,,,,,,,,,,,,,,,,,,,,,,,,,,
null,,learn_phase(without_color),546248,,black_plus_sign,,,,null,GW/hanover.png,GW/leesburg.png,,,,,,,,,,,,,,,,,,,,,,,,,
null,,black_cross(without_color),547280,,yellow,,,,null,GW/hanover.png,GW/leesburg.png,,,,,,,,,,,,,,,,,,,,,,,,,
432,,rt_plussign_withcolor,547782,,yellow,,,,50,GW/hanover.png,GW/leesburg.png,,,,,,,,,,,,,,,,,,,,,,,,,
null,,rt_thecrossant_black,548755,,black_plus_sign,,,,null,,,1,0.8771929824561403,,,,,,,,,,,,,,,,,,,,,,,
null,,color_black,548857,,black_plus_sign,,,,null,,,,,,,,,,,,,,,,,,,,,,,,,,,
null,,learn_phase(without_color),551860,,black_plus_sign,,,,null,GW/westpalmbeach.png,GW/racine.png,,,,,,,,,,,,,,,,,,,,,,,,,
null,,black_cross(without_color),552452,,blue,,,,null,GW/westpalmbeach.png,GW/racine.png,,,,,,,,,,,,,,,,,,,,,,,,,
null,,rt_plussign_withcolor,552954,,blue,,,,null,GW/westpalmbeach.png,GW/racine.png,,,,,,,,,,,,,,,,,,,,,,,,,
1391.199999999255,,rt_thecrossant_black,554364,,black_plus_sign,,,,49,,,1,0.8793103448275862,,,,,,,,,,,,,,,,,,,,,,,
null,,color_black,554466,,black_plus_sign,,,,null,,,,,,,,,,,,,,,,,,,,,,,,,,,
null,,learn_phase(without_color),557482,,black_plus_sign,,,,null,GW/newhope.png,GW/cornwall.png,,,,,,,,,,,,,,,,,,,,,,,,,
null,,black_cross(without_color),558327,,blue,,,,null,GW/newhope.png,GW/cornwall.png,,,,,,,,,,,,,,,,,,,,,,,,,
null,,rt_plussign_withcolor,558829,,blue,,,,null,GW/newhope.png,GW/cornwall.png,,,,,,,,,,,,,,,,,,,,,,,,,
724.8000000007451,,rt_thecrossant_black,559989,,black_plus_sign,,,,49,,,1,0.8813559322033898,,,,,,,,,,,,,,,,,,,,,,,
null,,color_black,560090,,black_plus_sign,,,,null,,,,,,,,,,,,,,,,,,,,,,,,,,,
null,,learn_phase(without_color),563093,,black_plus_sign,,,,null,GW/carmel.png,GW/shreveport.png,,,,,,,,,,,,,,,,,,,,,,,,,
null,,black_cross(without_color),564178,,blue,,,,null,GW/carmel.png,GW/shreveport.png,,,,,,,,,,,,,,,,,,,,,,,,,
381.0999999977648,,rt_plussign_withcolor,564679,,blue,,,,50,GW/carmel.png,GW/shreveport.png,,,,,,,,,,,,,,,,,,,,,,,,,
null,,rt_thecrossant_black,565598,,black_plus_sign,,,,null,,,0,0.8666666666666667,,,,,,,,,,,,,,,,,,,,,,,
null,,color_black,565700,,black_plus_sign,,,,null,,,,,,,,,,,,,,,,,,,,,,,,,,,
null,,learn_phase(without_color),568702,,black_plus_sign,,,,null,GW/hotsprings.png,GW/carmel.png,,,,,,,,,,,,,,,,,,,,,,,,,
null,,black_cross(without_color),569535,,blue,,,,null,GW/hotsprings.png,GW/carmel.png,,,,,,,,,,,,,,,,,,,,,,,,,
416.30000000074506,,rt_plussign_withcolor,570037,,blue,,,,49,GW/hotsprings.png,GW/carmel.png,,,,,,,,,,,,,,,,,,,,,,,,,
null,,rt_thecrossant_black,571208,,black_plus_sign,,,,null,,,1,0.8688524590163934,,,,,,,,,,,,,,,,,,,,,,,
null,,color_black,571310,,black_plus_sign,,,,null,,,,,,,,,,,,,,,,,,,,,,,,,,,
null,,learn_phase(without_color),574313,,black_plus_sign,,,,null,GW/shreveport.png,GW/huntsville.png,,,,,,,,,,,,,,,,,,,,,,,,,
null,,black_cross(without_color),574809,,blue,,,,null,GW/shreveport.png,GW/huntsville.png,,,,,,,,,,,,,,,,,,,,,,,,,
null,,rt_plussign_withcolor,575311,,blue,,,,null,GW/shreveport.png,GW/huntsville.png,,,,,,,,,,,,,,,,,,,,,,,,,
962.8000000007451,,rt_thecrossant_black,576820,,black_plus_sign,,,,49,,,1,0.8709677419354839,,,,,,,,,,,,,,,,,,,,,,,
null,,color_black,576923,,black_plus_sign,,,,null,,,,,,,,,,,,,,,,,,,,,,,,,,,
null,,learn_phase(without_color),579925,,black_plus_sign,,,,null,GW/carmel.png,GW/huntsville.png,,,,,,,,,,,,,,,,,,,,,,,,,
null,,black_cross(without_color),580650,,blue,,,,null,GW/carmel.png,GW/huntsville.png,,,,,,,,,,,,,,,,,,,,,,,,,
485.30000000074506,,rt_plussign_withcolor,581151,,blue,,,,49,GW/carmel.png,GW/huntsville.png,,,,,,,,,,,,,,,,,,,,,,,,,
null,,rt_thecrossant_black,582431,,black_plus_sign,,,,null,,,1,0.873015873015873,,,,,,,,,,,,,,,,,,,,,,,
null,,color_black,582532,,black_plus_sign,,,,null,,,,,,,,,,,,,,,,,,,,,,,,,,,
null,,learn_phase(without_color),585535,,black_plus_sign,,,,null,GW/westpalmbeach.png,GW/racine.png,,,,,,,,,,,,,,,,,,,,,,,,,
null,,black_cross(without_color),586537,,yellow,,,,null,GW/westpalmbeach.png,GW/racine.png,,,,,,,,,,,,,,,,,,,,,,,,,
470.19999999925494,,rt_plussign_withcolor,587040,,yellow,,,,50,GW/westpalmbeach.png,GW/racine.png,,,,,,,,,,,,,,,,,,,,,,,,,
null,,rt_thecrossant_black,588042,,black_plus_sign,,,,null,,,1,0.875,,,,,,,,,,,,,,,,,,,,,,,
null,,color_black,588144,,black_plus_sign,,,,null,,,,,,,,,,,,,,,,,,,,,,,,,,,
null,,learn_break,648147,,learn_break,,,,null,,,,,,,,,,,,,,,,,,,,,,,,,,,
null,,html-keyboard-response,649149,,<p></p>,,,,null,,,,,,,,,,,,,,,,,,,,,,,,,,,
null,,learn_phase(without_color),652152,,black_plus_sign,,,,null,GW/gatlinburg.png,GW/huntsville.png,,,,,,,,,,,,,,,,,,,,,,,,,
null,,black_cross(without_color),653085,,yellow,,,,null,GW/gatlinburg.png,GW/huntsville.png,,,,,,,,,,,,,,,,,,,,,,,,,
499,,rt_plussign_withcolor,653586,,yellow,,,,50,GW/gatlinburg.png,GW/huntsville.png,,,,,,,,,,,,,,,,,,,,,,,,,
null,,rt_thecrossant_black,654656,,black_plus_sign,,,,null,,,1,0.8769230769230769,,,,,,,,,,,,,,,,,,,,,,,
null,,color_black,654758,,black_plus_sign,,,,null,,,,,,,,,,,,,,,,,,,,,,,,,,,
null,,learn_phase(without_color),657760,,black_plus_sign,,,,null,GW/cornwall.png,GW/newhope.png,,,,,,,,,,,,,,,,,,,,,,,,,
null,,black_cross(without_color),658189,,blue,,,,null,GW/cornwall.png,GW/newhope.png,,,,,,,,,,,,,,,,,,,,,,,,,
null,,rt_plussign_withcolor,658691,,blue,,,,null,GW/cornwall.png,GW/newhope.png,,,,,,,,,,,,,,,,,,,,,,,,,
1140.1000000014901,,rt_thecrossant_black,660266,,black_plus_sign,,,,49,,,1,0.8787878787878788,,,,,,,,,,,,,,,,,,,,,,,
null,,color_black,660369,,black_plus_sign,,,,null,,,,,,,,,,,,,,,,,,,,,,,,,,,
null,,learn_phase(without_color),663372,,black_plus_sign,,,,null,GW/hanover.png,GW/leesburg.png,,,,,,,,,,,,,,,,,,,,,,,,,
null,,black_cross(without_color),664353,,blue,,,,null,GW/hanover.png,GW/leesburg.png,,,,,,,,,,,,,,,,,,,,,,,,,
398.5,,rt_plussign_withcolor,664855,,blue,,,,49,GW/hanover.png,GW/leesburg.png,,,,,,,,,,,,,,,,,,,,,,,,,
null,,rt_thecrossant_black,665878,,black_plus_sign,,,,null,,,1,0.8805970149253731,,,,,,,,,,,,,,,,,,,,,,,
null,,color_black,665981,,black_plus_sign,,,,null,,,,,,,,,,,,,,,,,,,,,,,,,,,
null,,learn_phase(without_color),668984,,black_plus_sign,,,,null,GW/westpalmbeach.png,GW/boulder.png,,,,,,,,,,,,,,,,,,,,,,,,,
null,,black_cross(without_color),669866,,yellow,,,,null,GW/westpalmbeach.png,GW/boulder.png,,,,,,,,,,,,,,,,,,,,,,,,,
437.19999999925494,,rt_plussign_withcolor,670368,,yellow,,,,50,GW/westpalmbeach.png,GW/boulder.png,,,,,,,,,,,,,,,,,,,,,,,,,
null,,rt_thecrossant_black,671500,,black_plus_sign,,,,null,,,1,0.8823529411764706,,,,,,,,,,,,,,,,,,,,,,,
null,,color_black,671602,,black_plus_sign,,,,null,,,,,,,,,,,,,,,,,,,,,,,,,,,
null,,learn_phase(without_color),674605,,black_plus_sign,,,,null,GW/shreveport.png,GW/huntsville.png,,,,,,,,,,,,,,,,,,,,,,,,,
null,,black_cross(without_color),675629,,blue,,,,null,GW/shreveport.png,GW/huntsville.png,,,,,,,,,,,,,,,,,,,,,,,,,
null,,rt_plussign_withcolor,676131,,blue,,,,null,GW/shreveport.png,GW/huntsville.png,,,,,,,,,,,,,,,,,,,,,,,,,
1024.1000000014901,,rt_thecrossant_black,677111,,black_plus_sign,,,,49,,,1,0.8840579710144928,,,,,,,,,,,,,,,,,,,,,,,
null,,color_black,677214,,black_plus_sign,,,,null,,,,,,,,,,,,,,,,,,,,,,,,,,,
null,,learn_phase(without_color),680216,,black_plus_sign,,,,null,GW/carmel.png,GW/hotsprings.png,,,,,,,,,,,,,,,,,,,,,,,,,
null,,black_cross(without_color),681210,,yellow,,,,null,GW/carmel.png,GW/hotsprings.png,,,,,,,,,,,,,,,,,,,,,,,,,
null,,rt_plussign_withcolor,681711,,yellow,,,,null,GW/carmel.png,GW/hotsprings.png,,,,,,,,,,,,,,,,,,,,,,,,,
1201.800000000745,,rt_thecrossant_black,682721,,black_plus_sign,,,,50,,,1,0.8857142857142857,,,,,,,,,,,,,,,,,,,,,,,
null,,color_black,682823,,black_plus_sign,,,,null,,,,,,,,,,,,,,,,,,,,,,,,,,,
null,,learn_phase(without_color),685826,,black_plus_sign,,,,null,GW/huntsville.png,GW/carmel.png,,,,,,,,,,,,,,,,,,,,,,,,,
null,,black_cross(without_color),686662,,yellow,,,,null,GW/huntsville.png,GW/carmel.png,,,,,,,,,,,,,,,,,,,,,,,,,
377.0999999977648,,rt_plussign_withcolor,687164,,yellow,,,,50,GW/huntsville.png,GW/carmel.png,,,,,,,,,,,,,,,,,,,,,,,,,
null,,rt_thecrossant_black,688332,,black_plus_sign,,,,null,,,1,0.8873239436619719,,,,,,,,,,,,,,,,,,,,,,,
null,,color_black,688434,,black_plus_sign,,,,null,,,,,,,,,,,,,,,,,,,,,,,,,,,
null,,learn_phase(without_color),691436,,black_plus_sign,,,,null,GW/newhope.png,GW/hanover.png,,,,,,,,,,,,,,,,,,,,,,,,,
null,,black_cross(without_color),692456,,blue,,,,null,GW/newhope.png,GW/hanover.png,,,,,,,,,,,,,,,,,,,,,,,,,
null,,rt_plussign_withcolor,692958,,blue,,,,null,GW/newhope.png,GW/hanover.png,,,,,,,,,,,,,,,,,,,,,,,,,
1143,,rt_thecrossant_black,693942,,black_plus_sign,,,,49,,,1,0.8888888888888888,,,,,,,,,,,,,,,,,,,,,,,
null,,color_black,694045,,black_plus_sign,,,,null,,,,,,,,,,,,,,,,,,,,,,,,,,,
null,,learn_phase(without_color),697047,,black_plus_sign,,,,null,GW/westpalmbeach.png,GW/boulder.png,,,,,,,,,,,,,,,,,,,,,,,,,
null,,black_cross(without_color),697488,,blue,,,,null,GW/westpalmbeach.png,GW/boulder.png,,,,,,,,,,,,,,,,,,,,,,,,,
335.69999999925494,,rt_plussign_withcolor,697989,,blue,,,,49,GW/westpalmbeach.png,GW/boulder.png,,,,,,,,,,,,,,,,,,,,,,,,,
null,,rt_thecrossant_black,699553,,black_plus_sign,,,,null,,,1,0.8904109589041096,,,,,,,,,,,,,,,,,,,,,,,
null,,color_black,699655,,black_plus_sign,,,,null,,,,,,,,,,,,,,,,,,,,,,,,,,,
null,,learn_phase(without_color),702657,,black_plus_sign,,,,null,GW/racine.png,GW/peoria.png,,,,,,,,,,,,,,,,,,,,,,,,,
null,,black_cross(without_color),703746,,yellow,,,,null,GW/racine.png,GW/peoria.png,,,,,,,,,,,,,,,,,,,,,,,,,
381.80000000074506,,rt_plussign_withcolor,704247,,yellow,,,,50,GW/racine.png,GW/peoria.png,,,,,,,,,,,,,,,,,,,,,,,,,
null,,rt_thecrossant_black,705162,,black_plus_sign,,,,null,,,1,0.8918918918918919,,,,,,,,,,,,,,,,,,,,,,,
null,,color_black,705265,,black_plus_sign,,,,null,,,,,,,,,,,,,,,,,,,,,,,,,,,
null,,learn_phase(without_color),708267,,black_plus_sign,,,,null,GW/shreveport.png,GW/huntsville.png,,,,,,,,,,,,,,,,,,,,,,,,,
null,,black_cross(without_color),709009,,yellow,,,,null,GW/shreveport.png,GW/huntsville.png,,,,,,,,,,,,,,,,,,,,,,,,,
null,,rt_plussign_withcolor,709511,,yellow,,,,null,GW/shreveport.png,GW/huntsville.png,,,,,,,,,,,,,,,,,,,,,,,,,
1274,,rt_thecrossant_black,710773,,black_plus_sign,,,,50,,,1,0.8933333333333333,,,,,,,,,,,,,,,,,,,,,,,
null,,color_black,710875,,black_plus_sign,,,,null,,,,,,,,,,,,,,,,,,,,,,,,,,,
null,,learn_phase(without_color),713877,,black_plus_sign,,,,null,GW/newhope.png,GW/cornwall.png,,,,,,,,,,,,,,,,,,,,,,,,,
null,,black_cross(without_color),714801,,blue,,,,null,GW/newhope.png,GW/cornwall.png,,,,,,,,,,,,,,,,,,,,,,,,,
429.3999999985099,,rt_plussign_withcolor,715303,,blue,,,,50,GW/newhope.png,GW/cornwall.png,,,,,,,,,,,,,,,,,,,,,,,,,
null,,rt_thecrossant_black,716384,,black_plus_sign,,,,null,,,0,0.881578947368421,,,,,,,,,,,,,,,,,,,,,,,
null,,color_black,716485,,black_plus_sign,,,,null,,,,,,,,,,,,,,,,,,,,,,,,,,,
null,,learn_phase(without_color),719488,,black_plus_sign,,,,null,GW/shreveport.png,GW/peoria.png,,,,,,,,,,,,,,,,,,,,,,,,,
null,,black_cross(without_color),720115,,blue,,,,null,GW/shreveport.png,GW/peoria.png,,,,,,,,,,,,,,,,,,,,,,,,,
null,,rt_plussign_withcolor,720616,,blue,,,,null,GW/shreveport.png,GW/peoria.png,,,,,,,,,,,,,,,,,,,,,,,,,
1220.3999999985099,,rt_thecrossant_black,721995,,black_plus_sign,,,,50,,,0,0.8701298701298701,,,,,,,,,,,,,,,,,,,,,,,
null,,warning_page,724997,,warning,,,,null,,,,,,,,,,,,,,,,,,,,,,,,,,,
null,,color_black,725099,,black_plus_sign,,,,null,,,,,,,,,,,,,,,,,,,,,,,,,,,
null,,learn_phase(without_color),728103,,black_plus_sign,,,,null,GW/peoria.png,GW/racine.png,,,,,,,,,,,,,,,,,,,,,,,,,
null,,black_cross(without_color),728537,,blue,,,,null,GW/peoria.png,GW/racine.png,,,,,,,,,,,,,,,,,,,,,,,,,
null,,rt_plussign_withcolor,729039,,blue,,,,null,GW/peoria.png,GW/racine.png,,,,,,,,,,,,,,,,,,,,,,,,,
772.5,,rt_thecrossant_black,730610,,black_plus_sign,,,,49,,,1,0.8717948717948718,,,,,,,,,,,,,,,,,,,,,,,
null,,color_black,730712,,black_plus_sign,,,,null,,,,,,,,,,,,,,,,,,,,,,,,,,,
null,,learn_phase(without_color),733715,,black_plus_sign,,,,null,GW/newhope.png,GW/cornwall.png,,,,,,,,,,,,,,,,,,,,,,,,,
null,,black_cross(without_color),734323,,blue,,,,null,GW/newhope.png,GW/cornwall.png,,,,,,,,,,,,,,,,,,,,,,,,,
null,,rt_plussign_withcolor,734825,,blue,,,,null,GW/newhope.png,GW/cornwall.png,,,,,,,,,,,,,,,,,,,,,,,,,
778.1999999992549,,rt_thecrossant_black,736223,,black_plus_sign,,,,49,,,1,0.8734177215189873,,,,,,,,,,,,,,,,,,,,,,,
null,,color_black,736325,,black_plus_sign,,,,null,,,,,,,,,,,,,,,,,,,,,,,,,,,
null,,learn_phase(without_color),739328,,black_plus_sign,,,,null,GW/gatlinburg.png,GW/huntsville.png,,,,,,,,,,,,,,,,,,,,,,,,,
null,,black_cross(without_color),739854,,blue,,,,null,GW/gatlinburg.png,GW/huntsville.png,,,,,,,,,,,,,,,,,,,,,,,,,
null,,rt_plussign_withcolor,740356,,blue,,,,null,GW/gatlinburg.png,GW/huntsville.png,,,,,,,,,,,,,,,,,,,,,,,,,
733.2000000029802,,rt_thecrossant_black,741834,,black_plus_sign,,,,49,,,1,0.875,,,,,,,,,,,,,,,,,,,,,,,
null,,color_black,741936,,black_plus_sign,,,,null,,,,,,,,,,,,,,,,,,,,,,,,,,,
null,,learn_phase(without_color),744939,,black_plus_sign,,,,null,GW/westpalmbeach.png,GW/newhope.png,,,,,,,,,,,,,,,,,,,,,,,,,
null,,black_cross(without_color),745488,,blue,,,,null,GW/westpalmbeach.png,GW/newhope.png,,,,,,,,,,,,,,,,,,,,,,,,,
null,,rt_plussign_withcolor,745990,,blue,,,,null,GW/westpalmbeach.png,GW/newhope.png,,,,,,,,,,,,,,,,,,,,,,,,,
649.6999999992549,,rt_thecrossant_black,747444,,black_plus_sign,,,,49,,,1,0.8765432098765432,,,,,,,,,,,,,,,,,,,,,,,
null,,color_black,747547,,black_plus_sign,,,,null,,,,,,,,,,,,,,,,,,,,,,,,,,,
null,,learn_phase(without_color),750549,,black_plus_sign,,,,null,GW/peoria.png,GW/hanover.png,,,,,,,,,,,,,,,,,,,,,,,,,
null,,black_cross(without_color),751427,,blue,,,,null,GW/peoria.png,GW/hanover.png,,,,,,,,,,,,,,,,,,,,,,,,,
460.19999999925494,,rt_plussign_withcolor,751928,,blue,,,,49,GW/peoria.png,GW/hanover.png,,,,,,,,,,,,,,,,,,,,,,,,,
null,,rt_thecrossant_black,753055,,black_plus_sign,,,,null,,,1,0.8780487804878049,,,,,,,,,,,,,,,,,,,,,,,
null,,color_black,753157,,black_plus_sign,,,,null,,,,,,,,,,,,,,,,,,,,,,,,,,,
null,,learn_phase(without_color),756160,,black_plus_sign,,,,null,GW/leesburg.png,GW/carmel.png,,,,,,,,,,,,,,,,,,,,,,,,,
null,,black_cross(without_color),757003,,yellow,,,,null,GW/leesburg.png,GW/carmel.png,,,,,,,,,,,,,,,,,,,,,,,,,
403.80000000074506,,rt_plussign_withcolor,757506,,yellow,,,,50,GW/leesburg.png,GW/carmel.png,,,,,,,,,,,,,,,,,,,,,,,,,
null,,rt_thecrossant_black,758666,,black_plus_sign,,,,null,,,1,0.8795180722891566,,,,,,,,,,,,,,,,,,,,,,,
null,,color_black,758769,,black_plus_sign,,,,null,,,,,,,,,,,,,,,,,,,,,,,,,,,
null,,learn_phase(without_color),761771,,black_plus_sign,,,,null,GW/shreveport.png,GW/leesburg.png,,,,,,,,,,,,,,,,,,,,,,,,,
null,,black_cross(without_color),762324,,blue,,,,null,GW/shreveport.png,GW/leesburg.png,,,,,,,,,,,,,,,,,,,,,,,,,
379.5,,rt_plussign_withcolor,762826,,blue,,,,49,GW/shreveport.png,GW/leesburg.png,,,,,,,,,,,,,,,,,,,,,,,,,
null,,rt_thecrossant_black,764277,,black_plus_sign,,,,null,,,1,0.8809523809523809,,,,,,,,,,,,,,,,,,,,,,,
null,,color_black,764379,,black_plus_sign,,,,null,,,,,,,,,,,,,,,,,,,,,,,,,,,
null,,learn_phase(without_color),767381,,black_plus_sign,,,,null,GW/peoria.png,GW/shreveport.png,,,,,,,,,,,,,,,,,,,,,,,,,
null,,black_cross(without_color),768278,,blue,,,,null,GW/peoria.png,GW/shreveport.png,,,,,,,,,,,,,,,,,,,,,,,,,
393.5,,rt_plussign_withcolor,768779,,blue,,,,49,GW/peoria.png,GW/shreveport.png,,,,,,,,,,,,,,,,,,,,,,,,,
null,,rt_thecrossant_black,769886,,black_plus_sign,,,,null,,,1,0.8823529411764706,,,,,,,,,,,,,,,,,,,,,,,
null,,color_black,769989,,black_plus_sign,,,,null,,,,,,,,,,,,,,,,,,,,,,,,,,,
null,,learn_phase(without_color),772993,,black_plus_sign,,,,null,GW/cornwall.png,GW/newhope.png,,,,,,,,,,,,,,,,,,,,,,,,,
null,,black_cross(without_color),773948,,yellow,,,,null,GW/cornwall.png,GW/newhope.png,,,,,,,,,,,,,,,,,,,,,,,,,
306.4000000022352,,rt_plussign_withcolor,774451,,yellow,,,,50,GW/cornwall.png,GW/newhope.png,,,,,,,,,,,,,,,,,,,,,,,,,
null,,rt_thecrossant_black,775499,,black_plus_sign,,,,null,,,1,0.8837209302325582,,,,,,,,,,,,,,,,,,,,,,,
null,,color_black,775601,,black_plus_sign,,,,null,,,,,,,,,,,,,,,,,,,,,,,,,,,
null,,learn_phase(without_color),778604,,black_plus_sign,,,,null,GW/carmel.png,GW/leesburg.png,,,,,,,,,,,,,,,,,,,,,,,,,
null,,black_cross(without_color),779263,,blue,,,,null,GW/carmel.png,GW/leesburg.png,,,,,,,,,,,,,,,,,,,,,,,,,
304.3999999985099,,rt_plussign_withcolor,779764,,blue,,,,49,GW/carmel.png,GW/leesburg.png,,,,,,,,,,,,,,,,,,,,,,,,,
null,,rt_thecrossant_black,781110,,black_plus_sign,,,,null,,,1,0.8850574712643678,,,,,,,,,,,,,,,,,,,,,,,
null,,color_black,781213,,black_plus_sign,,,,null,,,,,,,,,,,,,,,,,,,,,,,,,,,
null,,learn_phase(without_color),784215,,black_plus_sign,,,,null,GW/racine.png,GW/westpalmbeach.png,,,,,,,,,,,,,,,,,,,,,,,,,
null,,black_cross(without_color),784916,,blue,,,,null,GW/racine.png,GW/westpalmbeach.png,,,,,,,,,,,,,,,,,,,,,,,,,
363.1000000014901,,rt_plussign_withcolor,785418,,blue,,,,49,GW/racine.png,GW/westpalmbeach.png,,,,,,,,,,,,,,,,,,,,,,,,,
null,,rt_thecrossant_black,786721,,black_plus_sign,,,,null,,,1,0.8863636363636364,,,,,,,,,,,,,,,,,,,,,,,
null,,color_black,786823,,black_plus_sign,,,,null,,,,,,,,,,,,,,,,,,,,,,,,,,,
null,,learn_phase(without_color),789825,,black_plus_sign,,,,null,GW/hanover.png,GW/leesburg.png,,,,,,,,,,,,,,,,,,,,,,,,,
null,,black_cross(without_color),790880,,blue,,,,null,GW/hanover.png,GW/leesburg.png,,,,,,,,,,,,,,,,,,,,,,,,,
335.80000000074506,,rt_plussign_withcolor,791382,,blue,,,,49,GW/hanover.png,GW/leesburg.png,,,,,,,,,,,,,,,,,,,,,,,,,
null,,rt_thecrossant_black,792333,,black_plus_sign,,,,null,,,1,0.8876404494382022,,,,,,,,,,,,,,,,,,,,,,,
null,,color_black,792435,,black_plus_sign,,,,null,,,,,,,,,,,,,,,,,,,,,,,,,,,
null,,learn_phase(without_color),795439,,black_plus_sign,,,,null,GW/cornwall.png,GW/newhope.png,,,,,,,,,,,,,,,,,,,,,,,,,
null,,black_cross(without_color),795982,,yellow,,,,null,GW/cornwall.png,GW/newhope.png,,,,,,,,,,,,,,,,,,,,,,,,,
449.19999999925494,,rt_plussign_withcolor,796484,,yellow,,,,50,GW/cornwall.png,GW/newhope.png,,,,,,,,,,,,,,,,,,,,,,,,,
null,,rt_thecrossant_black,797946,,black_plus_sign,,,,null,,,1,0.8888888888888888,,,,,,,,,,,,,,,,,,,,,,,
null,,color_black,798048,,black_plus_sign,,,,null,,,,,,,,,,,,,,,,,,,,,,,,,,,
null,,learn_phase(without_color),801050,,black_plus_sign,,,,null,GW/carmel.png,GW/hotsprings.png,,,,,,,,,,,,,,,,,,,,,,,,,
null,,black_cross(without_color),801489,,blue,,,,null,GW/carmel.png,GW/hotsprings.png,,,,,,,,,,,,,,,,,,,,,,,,,
366.6000000014901,,rt_plussign_withcolor,801990,,blue,,,,49,GW/carmel.png,GW/hotsprings.png,,,,,,,,,,,,,,,,,,,,,,,,,
null,,rt_thecrossant_black,803556,,black_plus_sign,,,,null,,,1,0.8901098901098901,,,,,,,,,,,,,,,,,,,,,,,
null,,color_black,803659,,black_plus_sign,,,,null,,,,,,,,,,,,,,,,,,,,,,,,,,,
null,,learn_phase(without_color),806661,,black_plus_sign,,,,null,GW/carmel.png,GW/leesburg.png,,,,,,,,,,,,,,,,,,,,,,,,,
null,,black_cross(without_color),807448,,yellow,,,,null,GW/carmel.png,GW/leesburg.png,,,,,,,,,,,,,,,,,,,,,,,,,
486.8999999985099,,rt_plussign_withcolor,807954,,yellow,,,,50,GW/carmel.png,GW/leesburg.png,,,,,,,,,,,,,,,,,,,,,,,,,
null,,rt_thecrossant_black,809179,,black_plus_sign,,,,null,,,1,0.8913043478260869,,,,,,,,,,,,,,,,,,,,,,,
null,,color_black,809281,,black_plus_sign,,,,null,,,,,,,,,,,,,,,,,,,,,,,,,,,
null,,learn_phase(without_color),812296,,black_plus_sign,,,,null,GW/westpalmbeach.png,GW/racine.png,,,,,,,,,,,,,,,,,,,,,,,,,
null,,black_cross(without_color),812821,,blue,,,,null,GW/westpalmbeach.png,GW/racine.png,,,,,,,,,,,,,,,,,,,,,,,,,
363.20000000298023,,rt_plussign_withcolor,813322,,blue,,,,49,GW/westpalmbeach.png,GW/racine.png,,,,,,,,,,,,,,,,,,,,,,,,,
null,,rt_thecrossant_black,814801,,black_plus_sign,,,,null,,,1,0.8924731182795699,,,,,,,,,,,,,,,,,,,,,,,
null,,color_black,814903,,black_plus_sign,,,,null,,,,,,,,,,,,,,,,,,,,,,,,,,,
null,,learn_phase(without_color),817906,,black_plus_sign,,,,null,GW/shreveport.png,GW/huntsville.png,,,,,,,,,,,,,,,,,,,,,,,,,
null,,black_cross(without_color),818432,,blue,,,,null,GW/shreveport.png,GW/huntsville.png,,,,,,,,,,,,,,,,,,,,,,,,,
367.5999999977648,,rt_plussign_withcolor,818933,,blue,,,,49,GW/shreveport.png,GW/huntsville.png,,,,,,,,,,,,,,,,,,,,,,,,,
null,,rt_thecrossant_black,820411,,black_plus_sign,,,,null,,,1,0.8936170212765957,,,,,,,,,,,,,,,,,,,,,,,
null,,color_black,820514,,black_plus_sign,,,,null,,,,,,,,,,,,,,,,,,,,,,,,,,,
null,,learn_phase(without_color),823517,,black_plus_sign,,,,null,GW/carmel.png,GW/huntsville.png,,,,,,,,,,,,,,,,,,,,,,,,,
null,,black_cross(without_color),824350,,yellow,,,,null,GW/carmel.png,GW/huntsville.png,,,,,,,,,,,,,,,,,,,,,,,,,
449.1000000014901,,rt_plussign_withcolor,824852,,yellow,,,,50,GW/carmel.png,GW/huntsville.png,,,,,,,,,,,,,,,,,,,,,,,,,
null,,rt_thecrossant_black,826023,,black_plus_sign,,,,null,,,1,0.8947368421052632,,,,,,,,,,,,,,,,,,,,,,,
null,,color_black,826125,,black_plus_sign,,,,null,,,,,,,,,,,,,,,,,,,,,,,,,,,
null,,learn_phase(without_color),829127,,black_plus_sign,,,,null,GW/westpalmbeach.png,GW/boulder.png,,,,,,,,,,,,,,,,,,,,,,,,,
null,,black_cross(without_color),829980,,blue,,,,null,GW/westpalmbeach.png,GW/boulder.png,,,,,,,,,,,,,,,,,,,,,,,,,
467.5,,rt_plussign_withcolor,830481,,blue,,,,50,GW/westpalmbeach.png,GW/boulder.png,,,,,,,,,,,,,,,,,,,,,,,,,
null,,rt_thecrossant_black,831632,,black_plus_sign,,,,null,,,0,0.8854166666666666,,,,,,,,,,,,,,,,,,,,,,,
null,,color_black,831734,,black_plus_sign,,,,null,,,,,,,,,,,,,,,,,,,,,,,,,,,
null,,learn_phase(without_color),834737,,black_plus_sign,,,,null,GW/shreveport.png,GW/peoria.png,,,,,,,,,,,,,,,,,,,,,,,,,
null,,black_cross(without_color),835592,,blue,,,,null,GW/shreveport.png,GW/peoria.png,,,,,,,,,,,,,,,,,,,,,,,,,
311.4000000022352,,rt_plussign_withcolor,836094,,blue,,,,49,GW/shreveport.png,GW/peoria.png,,,,,,,,,,,,,,,,,,,,,,,,,
null,,rt_thecrossant_black,837244,,black_plus_sign,,,,null,,,1,0.8865979381443299,,,,,,,,,,,,,,,,,,,,,,,
null,,color_black,837345,,black_plus_sign,,,,null,,,,,,,,,,,,,,,,,,,,,,,,,,,
null,,learn_phase(without_color),840347,,black_plus_sign,,,,null,GW/shreveport.png,GW/huntsville.png,,,,,,,,,,,,,,,,,,,,,,,,,
null,,black_cross(without_color),841157,,blue,,,,null,GW/shreveport.png,GW/huntsville.png,,,,,,,,,,,,,,,,,,,,,,,,,
394.6000000014901,,rt_plussign_withcolor,841659,,blue,,,,49,GW/shreveport.png,GW/huntsville.png,,,,,,,,,,,,,,,,,,,,,,,,,
null,,rt_thecrossant_black,842853,,black_plus_sign,,,,null,,,1,0.8877551020408163,,,,,,,,,,,,,,,,,,,,,,,
null,,color_black,842955,,black_plus_sign,,,,null,,,,,,,,,,,,,,,,,,,,,,,,,,,
null,,learn_phase(without_color),845958,,black_plus_sign,,,,null,GW/hanover.png,GW/leesburg.png,,,,,,,,,,,,,,,,,,,,,,,,,
null,,black_cross(without_color),846708,,blue,,,,null,GW/hanover.png,GW/leesburg.png,,,,,,,,,,,,,,,,,,,,,,,,,
427.80000000074506,,rt_plussign_withcolor,847209,,blue,,,,49,GW/hanover.png,GW/leesburg.png,,,,,,,,,,,,,,,,,,,,,,,,,
null,,rt_thecrossant_black,848463,,black_plus_sign,,,,null,,,1,0.8888888888888888,,,,,,,,,,,,,,,,,,,,,,,
null,,color_black,848565,,black_plus_sign,,,,null,,,,,,,,,,,,,,,,,,,,,,,,,,,
null,,learn_phase(without_color),851568,,black_plus_sign,,,,null,GW/shreveport.png,GW/carmel.png,,,,,,,,,,,,,,,,,,,,,,,,,
null,,black_cross(without_color),851971,,blue,,,,null,GW/shreveport.png,GW/carmel.png,,,,,,,,,,,,,,,,,,,,,,,,,
380.0999999977648,,rt_plussign_withcolor,852473,,blue,,,,49,GW/shreveport.png,GW/carmel.png,,,,,,,,,,,,,,,,,,,,,,,,,
null,,rt_thecrossant_black,854073,,black_plus_sign,,,,null,,,1,0.89,,,,,,,,,,,,,,,,,,,,,,,
null,,color_black,854175,,black_plus_sign,,,,null,,,,,,,,,,,,,,,,,,,,,,,,,,,
null,,learn_phase(without_color),857178,,black_plus_sign,,,,null,GW/hotsprings.png,GW/carmel.png,,,,,,,,,,,,,,,,,,,,,,,,,
null,,black_cross(without_color),857933,,yellow,,,,null,GW/hotsprings.png,GW/carmel.png,,,,,,,,,,,,,,,,,,,,,,,,,
307.1000000014901,,rt_plussign_withcolor,858434,,yellow,,,,50,GW/hotsprings.png,GW/carmel.png,,,,,,,,,,,,,,,,,,,,,,,,,
null,,rt_thecrossant_black,859685,,black_plus_sign,,,,null,,,1,0.8910891089108911,,,,,,,,,,,,,,,,,,,,,,,
null,,color_black,859788,,black_plus_sign,,,,null,,,,,,,,,,,,,,,,,,,,,,,,,,,
null,,learn_phase(without_color),862790,,black_plus_sign,,,,null,GW/leesburg.png,GW/hanover.png,,,,,,,,,,,,,,,,,,,,,,,,,
null,,black_cross(without_color),863655,,yellow,,,,null,GW/leesburg.png,GW/hanover.png,,,,,,,,,,,,,,,,,,,,,,,,,
407.9000000022352,,rt_plussign_withcolor,864157,,yellow,,,,50,GW/leesburg.png,GW/hanover.png,,,,,,,,,,,,,,,,,,,,,,,,,
null,,rt_thecrossant_black,865297,,black_plus_sign,,,,null,,,1,0.8921568627450981,,,,,,,,,,,,,,,,,,,,,,,
null,,color_black,865409,,black_plus_sign,,,,null,,,,,,,,,,,,,,,,,,,,,,,,,,,
null,,learn_phase(without_color),868412,,black_plus_sign,,,,null,GW/racine.png,GW/westpalmbeach.png,,,,,,,,,,,,,,,,,,,,,,,,,
null,,black_cross(without_color),869117,,yellow,,,,null,GW/racine.png,GW/westpalmbeach.png,,,,,,,,,,,,,,,,,,,,,,,,,
353.8999999985099,,rt_plussign_withcolor,869619,,yellow,,,,50,GW/racine.png,GW/westpalmbeach.png,,,,,,,,,,,,,,,,,,,,,,,,,
null,,rt_thecrossant_black,870918,,black_plus_sign,,,,null,,,1,0.8932038834951457,,,,,,,,,,,,,,,,,,,,,,,
null,,color_black,871021,,black_plus_sign,,,,null,,,,,,,,,,,,,,,,,,,,,,,,,,,
null,,learn_phase(without_color),874024,,black_plus_sign,,,,null,GW/carmel.png,GW/hotsprings.png,,,,,,,,,,,,,,,,,,,,,,,,,
null,,black_cross(without_color),874517,,yellow,,,,null,GW/carmel.png,GW/hotsprings.png,,,,,,,,,,,,,,,,,,,,,,,,,
null,,rt_plussign_withcolor,875019,,yellow,,,,null,GW/carmel.png,GW/hotsprings.png,,,,,,,,,,,,,,,,,,,,,,,,,
806.8999999985099,,rt_thecrossant_black,876534,,black_plus_sign,,,,49,,,0,0.8846153846153846,,,,,,,,,,,,,,,,,,,,,,,
null,,color_black,876636,,black_plus_sign,,,,null,,,,,,,,,,,,,,,,,,,,,,,,,,,
null,,learn_phase(without_color),879639,,black_plus_sign,,,,null,GW/leesburg.png,GW/shreveport.png,,,,,,,,,,,,,,,,,,,,,,,,,
null,,black_cross(without_color),880275,,blue,,,,null,GW/leesburg.png,GW/shreveport.png,,,,,,,,,,,,,,,,,,,,,,,,,
412.20000000298023,,rt_plussign_withcolor,880790,,blue,,,,49,GW/leesburg.png,GW/shreveport.png,,,,,,,,,,,,,,,,,,,,,,,,,
null,,rt_thecrossant_black,882160,,black_plus_sign,,,,null,,,1,0.8857142857142857,,,,,,,,,,,,,,,,,,,,,,,
null,,color_black,882262,,black_plus_sign,,,,null,,,,,,,,,,,,,,,,,,,,,,,,,,,
null,,learn_phase(without_color),885279,,black_plus_sign,,,,null,GW/hanover.png,GW/newhope.png,,,,,,,,,,,,,,,,,,,,,,,,,
null,,black_cross(without_color),885982,,yellow,,,,null,GW/hanover.png,GW/newhope.png,,,,,,,,,,,,,,,,,,,,,,,,,
418,,rt_plussign_withcolor,886484,,yellow,,,,50,GW/hanover.png,GW/newhope.png,,,,,,,,,,,,,,,,,,,,,,,,,
null,,rt_thecrossant_black,887786,,black_plus_sign,,,,null,,,1,0.8867924528301887,,,,,,,,,,,,,,,,,,,,,,,
null,,color_black,887887,,black_plus_sign,,,,null,,,,,,,,,,,,,,,,,,,,,,,,,,,
null,,learn_phase(without_color),890890,,black_plus_sign,,,,null,GW/leesburg.png,GW/shreveport.png,,,,,,,,,,,,,,,,,,,,,,,,,
null,,black_cross(without_color),891735,,yellow,,,,null,GW/leesburg.png,GW/shreveport.png,,,,,,,,,,,,,,,,,,,,,,,,,
360.30000000074506,,rt_plussign_withcolor,892237,,yellow,,,,50,GW/leesburg.png,GW/shreveport.png,,,,,,,,,,,,,,,,,,,,,,,,,
null,,rt_thecrossant_black,893396,,black_plus_sign,,,,null,,,1,0.8878504672897196,,,,,,,,,,,,,,,,,,,,,,,
null,,color_black,893499,,black_plus_sign,,,,null,,,,,,,,,,,,,,,,,,,,,,,,,,,
null,,learn_phase(without_color),896501,,black_plus_sign,,,,null,GW/westpalmbeach.png,GW/newhope.png,,,,,,,,,,,,,,,,,,,,,,,,,
null,,black_cross(without_color),897091,,yellow,,,,null,GW/westpalmbeach.png,GW/newhope.png,,,,,,,,,,,,,,,,,,,,,,,,,
348.80000000074506,,rt_plussign_withcolor,897592,,yellow,,,,49,GW/westpalmbeach.png,GW/newhope.png,,,,,,,,,,,,,,,,,,,,,,,,,
null,,rt_thecrossant_black,899007,,black_plus_sign,,,,null,,,0,0.8796296296296297,,,,,,,,,,,,,,,,,,,,,,,
null,,color_black,899109,,black_plus_sign,,,,null,,,,,,,,,,,,,,,,,,,,,,,,,,,
null,,learn_phase(without_color),902114,,black_plus_sign,,,,null,GW/westpalmbeach.png,GW/newhope.png,,,,,,,,,,,,,,,,,,,,,,,,,
null,,black_cross(without_color),903115,,yellow,,,,null,GW/westpalmbeach.png,GW/newhope.png,,,,,,,,,,,,,,,,,,,,,,,,,
341.5,,rt_plussign_withcolor,903616,,yellow,,,,50,GW/westpalmbeach.png,GW/newhope.png,,,,,,,,,,,,,,,,,,,,,,,,,
null,,rt_thecrossant_black,904620,,black_plus_sign,,,,null,,,1,0.8807339449541285,,,,,,,,,,,,,,,,,,,,,,,
null,,color_black,904724,,black_plus_sign,,,,null,,,,,,,,,,,,,,,,,,,,,,,,,,,
null,,learn_phase(without_color),907726,,black_plus_sign,,,,null,GW/carmel.png,GW/leesburg.png,,,,,,,,,,,,,,,,,,,,,,,,,
null,,black_cross(without_color),908790,,yellow,,,,null,GW/carmel.png,GW/leesburg.png,,,,,,,,,,,,,,,,,,,,,,,,,
361.69999999925494,,rt_plussign_withcolor,909291,,yellow,,,,50,GW/carmel.png,GW/leesburg.png,,,,,,,,,,,,,,,,,,,,,,,,,
null,,rt_thecrossant_black,910232,,black_plus_sign,,,,null,,,1,0.8818181818181818,,,,,,,,,,,,,,,,,,,,,,,
null,,color_black,910335,,black_plus_sign,,,,null,,,,,,,,,,,,,,,,,,,,,,,,,,,
null,,learn_phase(without_color),913338,,black_plus_sign,,,,null,GW/racine.png,GW/peoria.png,,,,,,,,,,,,,,,,,,,,,,,,,
null,,black_cross(without_color),913978,,blue,,,,null,GW/racine.png,GW/peoria.png,,,,,,,,,,,,,,,,,,,,,,,,,
null,,rt_plussign_withcolor,914481,,blue,,,,null,GW/racine.png,GW/peoria.png,,,,,,,,,,,,,,,,,,,,,,,,,
1175,,rt_thecrossant_black,915845,,black_plus_sign,,,,49,,,1,0.8828828828828829,,,,,,,,,,,,,,,,,,,,,,,
null,,color_black,915947,,black_plus_sign,,,,null,,,,,,,,,,,,,,,,,,,,,,,,,,,
null,,learn_phase(without_color),918949,,black_plus_sign,,,,null,GW/carmel.png,GW/leesburg.png,,,,,,,,,,,,,,,,,,,,,,,,,
null,,black_cross(without_color),919636,,yellow,,,,null,GW/carmel.png,GW/leesburg.png,,,,,,,,,,,,,,,,,,,,,,,,,
null,,rt_plussign_withcolor,920138,,yellow,,,,null,GW/carmel.png,GW/leesburg.png,,,,,,,,,,,,,,,,,,,,,,,,,
775.1000000014901,,rt_thecrossant_black,921455,,black_plus_sign,,,,50,,,1,0.8839285714285714,,,,,,,,,,,,,,,,,,,,,,,
null,,color_black,921558,,black_plus_sign,,,,null,,,,,,,,,,,,,,,,,,,,,,,,,,,
null,,learn_phase(without_color),924560,,black_plus_sign,,,,null,GW/hanover.png,GW/peoria.png,,,,,,,,,,,,,,,,,,,,,,,,,
null,,black_cross(without_color),925589,,yellow,,,,null,GW/hanover.png,GW/peoria.png,,,,,,,,,,,,,,,,,,,,,,,,,
null,,rt_plussign_withcolor,926091,,yellow,,,,null,GW/hanover.png,GW/peoria.png,,,,,,,,,,,,,,,,,,,,,,,,,
1013,,rt_thecrossant_black,927068,,black_plus_sign,,,,50,,,1,0.8849557522123894,,,,,,,,,,,,,,,,,,,,,,,
null,,color_black,927170,,black_plus_sign,,,,null,,,,,,,,,,,,,,,,,,,,,,,,,,,
null,,learn_phase(without_color),930172,,black_plus_sign,,,,null,GW/peoria.png,GW/racine.png,,,,,,,,,,,,,,,,,,,,,,,,,
null,,black_cross(without_color),931200,,blue,,,,null,GW/peoria.png,GW/racine.png,,,,,,,,,,,,,,,,,,,,,,,,,
399.30000000074506,,rt_plussign_withcolor,931702,,blue,,,,49,GW/peoria.png,GW/racine.png,,,,,,,,,,,,,,,,,,,,,,,,,
null,,rt_thecrossant_black,932680,,black_plus_sign,,,,null,,,1,0.8859649122807017,,,,,,,,,,,,,,,,,,,,,,,
null,,color_black,932782,,black_plus_sign,,,,null,,,,,,,,,,,,,,,,,,,,,,,,,,,
null,,learn_phase(without_color),935784,,black_plus_sign,,,,null,GW/westpalmbeach.png,GW/boulder.png,,,,,,,,,,,,,,,,,,,,,,,,,
null,,black_cross(without_color),936695,,yellow,,,,null,GW/westpalmbeach.png,GW/boulder.png,,,,,,,,,,,,,,,,,,,,,,,,,
312.20000000298023,,rt_plussign_withcolor,937198,,yellow,,,,50,GW/westpalmbeach.png,GW/boulder.png,,,,,,,,,,,,,,,,,,,,,,,,,
null,,rt_thecrossant_black,938298,,black_plus_sign,,,,null,,,1,0.8869565217391304,,,,,,,,,,,,,,,,,,,,,,,
null,,color_black,938400,,black_plus_sign,,,,null,,,,,,,,,,,,,,,,,,,,,,,,,,,
null,,learn_phase(without_color),941402,,black_plus_sign,,,,null,GW/huntsville.png,GW/carmel.png,,,,,,,,,,,,,,,,,,,,,,,,,
null,,black_cross(without_color),942177,,yellow,,,,null,GW/huntsville.png,GW/carmel.png,,,,,,,,,,,,,,,,,,,,,,,,,
null,,rt_plussign_withcolor,942680,,yellow,,,,null,GW/huntsville.png,GW/carmel.png,,,,,,,,,,,,,,,,,,,,,,,,,
1241.199999999255,,rt_thecrossant_black,943909,,black_plus_sign,,,,50,,,1,0.8879310344827587,,,,,,,,,,,,,,,,,,,,,,,
null,,color_black,944011,,black_plus_sign,,,,null,,,,,,,,,,,,,,,,,,,,,,,,,,,
null,,learn_phase(without_color),947013,,black_plus_sign,,,,null,GW/newhope.png,GW/cornwall.png,,,,,,,,,,,,,,,,,,,,,,,,,
null,,black_cross(without_color),947670,,yellow,,,,null,GW/newhope.png,GW/cornwall.png,,,,,,,,,,,,,,,,,,,,,,,,,
null,,rt_plussign_withcolor,948173,,yellow,,,,null,GW/newhope.png,GW/cornwall.png,,,,,,,,,,,,,,,,,,,,,,,,,
955.4000000022352,,rt_thecrossant_black,949521,,black_plus_sign,,,,50,,,1,0.8888888888888888,,,,,,,,,,,,,,,,,,,,,,,
null,,color_black,949623,,black_plus_sign,,,,null,,,,,,,,,,,,,,,,,,,,,,,,,,,
null,,learn_phase(without_color),952625,,black_plus_sign,,,,null,GW/hanover.png,GW/newhope.png,,,,,,,,,,,,,,,,,,,,,,,,,
null,,black_cross(without_color),953168,,blue,,,,null,GW/hanover.png,GW/newhope.png,,,,,,,,,,,,,,,,,,,,,,,,,
null,,rt_plussign_withcolor,953669,,blue,,,,null,GW/hanover.png,GW/newhope.png,,,,,,,,,,,,,,,,,,,,,,,,,
797.3000000007451,,rt_thecrossant_black,955132,,black_plus_sign,,,,49,,,1,0.8898305084745762,,,,,,,,,,,,,,,,,,,,,,,
null,,color_black,955234,,black_plus_sign,,,,null,,,,,,,,,,,,,,,,,,,,,,,,,,,
null,,learn_phase(without_color),958237,,black_plus_sign,,,,null,GW/leesburg.png,GW/shreveport.png,,,,,,,,,,,,,,,,,,,,,,,,,
null,,black_cross(without_color),958731,,blue,,,,null,GW/leesburg.png,GW/shreveport.png,,,,,,,,,,,,,,,,,,,,,,,,,
404.30000000074506,,rt_plussign_withcolor,959233,,blue,,,,49,GW/leesburg.png,GW/shreveport.png,,,,,,,,,,,,,,,,,,,,,,,,,
null,,rt_thecrossant_black,960744,,black_plus_sign,,,,null,,,1,0.8907563025210085,,,,,,,,,,,,,,,,,,,,,,,
null,,color_black,960845,,black_plus_sign,,,,null,,,,,,,,,,,,,,,,,,,,,,,,,,,
null,,learn_phase(without_color),963847,,black_plus_sign,,,,null,GW/westpalmbeach.png,GW/boulder.png,,,,,,,,,,,,,,,,,,,,,,,,,
null,,black_cross(without_color),964549,,yellow,,,,null,GW/westpalmbeach.png,GW/boulder.png,,,,,,,,,,,,,,,,,,,,,,,,,
474.5,,rt_plussign_withcolor,965050,,yellow,,,,49,GW/westpalmbeach.png,GW/boulder.png,,,,,,,,,,,,,,,,,,,,,,,,,
null,,rt_thecrossant_black,966353,,black_plus_sign,,,,null,,,0,0.8833333333333333,,,,,,,,,,,,,,,,,,,,,,,
null,,color_black,966456,,black_plus_sign,,,,null,,,,,,,,,,,,,,,,,,,,,,,,,,,
null,,learn_phase(without_color),969458,,black_plus_sign,,,,null,GW/carmel.png,GW/shreveport.png,,,,,,,,,,,,,,,,,,,,,,,,,
null,,black_cross(without_color),969939,,yellow,,,,null,GW/carmel.png,GW/shreveport.png,,,,,,,,,,,,,,,,,,,,,,,,,
null,,rt_plussign_withcolor,970441,,yellow,,,,null,GW/carmel.png,GW/shreveport.png,,,,,,,,,,,,,,,,,,,,,,,,,
869.3000000007451,,rt_thecrossant_black,971965,,black_plus_sign,,,,49,,,0,0.8760330578512396,,,,,,,,,,,,,,,,,,,,,,,
null,,warning_page,974967,,warning,,,,null,,,,,,,,,,,,,,,,,,,,,,,,,,,
null,,color_black,975069,,black_plus_sign,,,,null,,,,,,,,,,,,,,,,,,,,,,,,,,,
null,,learn_phase(without_color),978073,,black_plus_sign,,,,null,GW/shreveport.png,GW/carmel.png,,,,,,,,,,,,,,,,,,,,,,,,,
null,,black_cross(without_color),978855,,yellow,,,,null,GW/shreveport.png,GW/carmel.png,,,,,,,,,,,,,,,,,,,,,,,,,
376.19999999925494,,rt_plussign_withcolor,979356,,yellow,,,,50,GW/shreveport.png,GW/carmel.png,,,,,,,,,,,,,,,,,,,,,,,,,
null,,rt_thecrossant_black,980580,,black_plus_sign,,,,null,,,1,0.8770491803278688,,,,,,,,,,,,,,,,,,,,,,,
null,,color_black,980682,,black_plus_sign,,,,null,,,,,,,,,,,,,,,,,,,,,,,,,,,
null,,learn_phase(without_color),983686,,black_plus_sign,,,,null,GW/peoria.png,GW/shreveport.png,,,,,,,,,,,,,,,,,,,,,,,,,
null,,black_cross(without_color),984478,,yellow,,,,null,GW/peoria.png,GW/shreveport.png,,,,,,,,,,,,,,,,,,,,,,,,,
369.5,,rt_plussign_withcolor,984980,,yellow,,,,49,GW/peoria.png,GW/shreveport.png,,,,,,,,,,,,,,,,,,,,,,,,,
null,,rt_thecrossant_black,986192,,black_plus_sign,,,,null,,,0,0.8699186991869918,,,,,,,,,,,,,,,,,,,,,,,
null,,color_black,986295,,black_plus_sign,,,,null,,,,,,,,,,,,,,,,,,,,,,,,,,,
null,,learn_phase(without_color),989297,,black_plus_sign,,,,null,GW/hanover.png,GW/newhope.png,,,,,,,,,,,,,,,,,,,,,,,,,
null,,black_cross(without_color),990149,,yellow,,,,null,GW/hanover.png,GW/newhope.png,,,,,,,,,,,,,,,,,,,,,,,,,
361.5999999977648,,rt_plussign_withcolor,990652,,yellow,,,,50,GW/hanover.png,GW/newhope.png,,,,,,,,,,,,,,,,,,,,,,,,,
null,,rt_thecrossant_black,991804,,black_plus_sign,,,,null,,,1,0.8709677419354839,,,,,,,,,,,,,,,,,,,,,,,
null,,color_black,991907,,black_plus_sign,,,,null,,,,,,,,,,,,,,,,,,,,,,,,,,,
null,,learn_phase(without_color),994909,,black_plus_sign,,,,null,GW/carmel.png,GW/huntsville.png,,,,,,,,,,,,,,,,,,,,,,,,,
null,,black_cross(without_color),995581,,yellow,,,,null,GW/carmel.png,GW/huntsville.png,,,,,,,,,,,,,,,,,,,,,,,,,
354.70000000298023,,rt_plussign_withcolor,996083,,yellow,,,,50,GW/carmel.png,GW/huntsville.png,,,,,,,,,,,,,,,,,,,,,,,,,
null,,rt_thecrossant_black,997416,,black_plus_sign,,,,null,,,1,0.872,,,,,,,,,,,,,,,,,,,,,,,
null,,color_black,997519,,black_plus_sign,,,,null,,,,,,,,,,,,,,,,,,,,,,,,,,,
null,,learn_phase(without_color),1000521,,black_plus_sign,,,,null,GW/peoria.png,GW/shreveport.png,,,,,,,,,,,,,,,,,,,,,,,,,
null,,black_cross(without_color),1001405,,yellow,,,,null,GW/peoria.png,GW/shreveport.png,,,,,,,,,,,,,,,,,,,,,,,,,
482,,rt_plussign_withcolor,1001906,,yellow,,,,50,GW/peoria.png,GW/shreveport.png,,,,,,,,,,,,,,,,,,,,,,,,,
null,,rt_thecrossant_black,1003027,,black_plus_sign,,,,null,,,1,0.873015873015873,,,,,,,,,,,,,,,,,,,,,,,
null,,color_black,1003129,,black_plus_sign,,,,null,,,,,,,,,,,,,,,,,,,,,,,,,,,
null,,learn_phase(without_color),1006133,,black_plus_sign,,,,null,GW/huntsville.png,GW/shreveport.png,,,,,,,,,,,,,,,,,,,,,,,,,
null,,black_cross(without_color),1006897,,blue,,,,null,GW/huntsville.png,GW/shreveport.png,,,,,,,,,,,,,,,,,,,,,,,,,
303,,rt_plussign_withcolor,1007399,,blue,,,,49,GW/huntsville.png,GW/shreveport.png,,,,,,,,,,,,,,,,,,,,,,,,,
null,,rt_thecrossant_black,1008651,,black_plus_sign,,,,null,,,1,0.8740157480314961,,,,,,,,,,,,,,,,,,,,,,,
null,,color_black,1008753,,black_plus_sign,,,,null,,,,,,,,,,,,,,,,,,,,,,,,,,,
null,,learn_phase(without_color),1011756,,black_plus_sign,,,,null,GW/leesburg.png,GW/carmel.png,,,,,,,,,,,,,,,,,,,,,,,,,
null,,black_cross(without_color),1012715,,yellow,,,,null,GW/leesburg.png,GW/carmel.png,,,,,,,,,,,,,,,,,,,,,,,,,
436.3999999985099,,rt_plussign_withcolor,1013217,,yellow,,,,50,GW/leesburg.png,GW/carmel.png,,,,,,,,,,,,,,,,,,,,,,,,,
null,,rt_thecrossant_black,1014263,,black_plus_sign,,,,null,,,1,0.875,,,,,,,,,,,,,,,,,,,,,,,
null,,color_black,1014365,,black_plus_sign,,,,null,,,,,,,,,,,,,,,,,,,,,,,,,,,
null,,learn_break,1074369,,learn_break,,,,null,,,,,,,,,,,,,,,,,,,,,,,,,,,
24229.70000000298,,intro_1,1098600,,instruct,,0,Start,,,,,,,,,,,,,,,,,,,,,,,,,,,,
4983.10000000149,,directmemory_phase,1103584,,GW/westpalmbeach.png,,,,51,,,1,1,GW/carmel.png,GW/peoria.png,GW/racine.png,GW/racine.png,GW/peoria.png,GW/carmel.png,1,,,,,,,,,,,,,,,,
null,,html-keyboard-response,1104588,,<p></p>,,,,null,,,,,,,,,,,,,,,,,,,,,,,,,,,
3186.89999999851,,directmemory_phase,1107776,,GW/newhope.png,,,,51,,,1,1,GW/hotsprings.png,GW/boulder.png,GW/hanover.png,GW/hanover.png,GW/boulder.png,GW/hotsprings.png,1,,,,,,,,,,,,,,,,
null,,html-keyboard-response,1108778,,<p></p>,,,,null,,,,,,,,,,,,,,,,,,,,,,,,,,,
2805,,directmemory_phase,1111584,,GW/leesburg.png,,,,49,,,1,1,GW/carmel.png,GW/boulder.png,GW/peoria.png,GW/carmel.png,GW/peoria.png,GW/boulder.png,1,,,,,,,,,,,,,,,,
null,,html-keyboard-response,1112587,,<p></p>,,,,null,,,,,,,,,,,,,,,,,,,,,,,,,,,
2227.900000002235,,directmemory_phase,1114816,,GW/newhope.png,,,,49,,,1,1,GW/cornwall.png,GW/shreveport.png,GW/racine.png,GW/cornwall.png,GW/racine.png,GW/shreveport.png,1,,,,,,,,,,,,,,,,
null,,html-keyboard-response,1115819,,<p></p>,,,,null,,,,,,,,,,,,,,,,,,,,,,,,,,,
1732.199999999255,,directmemory_phase,1117553,,GW/carmel.png,,,,49,,,1,1,GW/hotsprings.png,GW/newhope.png,GW/peoria.png,GW/hotsprings.png,GW/peoria.png,GW/newhope.png,1,,,,,,,,,,,,,,,,
null,,html-keyboard-response,1118556,,<p></p>,,,,null,,,,,,,,,,,,,,,,,,,,,,,,,,,
5187.20000000298,,directmemory_phase,1123744,,GW/newhope.png,,,,49,,,1,1,GW/westpalmbeach.png,GW/shreveport.png,GW/boulder.png,GW/westpalmbeach.png,GW/boulder.png,GW/shreveport.png,1,,,,,,,,,,,,,,,,
null,,html-keyboard-response,1124747,,<p></p>,,,,null,,,,,,,,,,,,,,,,,,,,,,,,,,,
2835.89999999851,,directmemory_phase,1127584,,GW/leesburg.png,,,,51,,,1,1,GW/gatlinburg.png,GW/huntsville.png,GW/shreveport.png,GW/shreveport.png,GW/huntsville.png,GW/gatlinburg.png,1,,,,,,,,,,,,,,,,
null,,html-keyboard-response,1128587,,<p></p>,,,,null,,,,,,,,,,,,,,,,,,,,,,,,,,,
1988.1000000014901,,directmemory_phase,1130576,,GW/racine.png,,,,49,,,1,1,GW/peoria.png,GW/gatlinburg.png,GW/newhope.png,GW/peoria.png,GW/newhope.png,GW/gatlinburg.png,1,,,,,,,,,,,,,,,,
null,,html-keyboard-response,1131579,,<p></p>,,,,null,,,,,,,,,,,,,,,,,,,,,,,,,,,
1555.5999999977648,,directmemory_phase,1133136,,GW/gatlinburg.png,,,,49,,,1,1,GW/huntsville.png,GW/racine.png,GW/carmel.png,GW/huntsville.png,GW/carmel.png,GW/racine.png,1,,,,,,,,,,,,,,,,
null,,html-keyboard-response,1134149,,<p></p>,,,,null,,,,,,,,,,,,,,,,,,,,,,,,,,,
2361.800000000745,,directmemory_phase,1136513,,GW/boulder.png,,,,50,,,1,1,GW/racine.png,GW/westpalmbeach.png,GW/hanover.png,GW/westpalmbeach.png,GW/racine.png,GW/hanover.png,1,,,,,,,,,,,,,,,,
null,,html-keyboard-response,1137526,,<p></p>,,,,null,,,,,,,,,,,,,,,,,,,,,,,,,,,
2633.300000000745,,directmemory_phase,1140161,,GW/shreveport.png,,,,49,,,1,1,GW/leesburg.png,GW/westpalmbeach.png,GW/hotsprings.png,GW/leesburg.png,GW/hotsprings.png,GW/westpalmbeach.png,1,,,,,,,,,,,,,,,,
null,,html-keyboard-response,1141165,,<p></p>,,,,null,,,,,,,,,,,,,,,,,,,,,,,,,,,
3842.89999999851,,directmemory_phase,1145009,,GW/westpalmbeach.png,,,,50,,,0,0.9166666666666666,GW/huntsville.png,GW/peoria.png,GW/newhope.png,GW/newhope.png,GW/peoria.png,GW/huntsville.png,0.5,closer,,,,,,,,,,,,,,,
null,,html-keyboard-response,1146011,,<p></p>,,,,null,,,,,,,,,,,,,,,,,,,,,,,,,,,
3572.199999999255,,directmemory_phase,1149584,,GW/carmel.png,,,,51,,,1,0.9230769230769231,GW/cornwall.png,GW/peoria.png,GW/shreveport.png,GW/shreveport.png,GW/peoria.png,GW/cornwall.png,1,,,,,,,,,,,,,,,,
null,,html-keyboard-response,1150588,,<p></p>,,,,null,,,,,,,,,,,,,,,,,,,,,,,,,,,
2162.89999999851,,directmemory_phase,1152752,,GW/racine.png,,,,50,,,1,0.9285714285714286,GW/newhope.png,GW/westpalmbeach.png,GW/carmel.png,GW/westpalmbeach.png,GW/newhope.png,GW/carmel.png,1,,,,,,,,,,,,,,,,
null,,html-keyboard-response,1153754,,<p></p>,,,,null,,,,,,,,,,,,,,,,,,,,,,,,,,,
3268.400000002235,,directmemory_phase,1157024,,GW/huntsville.png,,,,51,,,1,0.9333333333333333,GW/newhope.png,GW/hotsprings.png,GW/carmel.png,GW/carmel.png,GW/hotsprings.png,GW/newhope.png,1,,,,,,,,,,,,,,,,
null,,html-keyboard-response,1158026,,<p></p>,,,,null,,,,,,,,,,,,,,,,,,,,,,,,,,,
1748.800000000745,,directmemory_phase,1159776,,GW/peoria.png,,,,51,,,1,0.9375,GW/boulder.png,GW/newhope.png,GW/racine.png,GW/racine.png,GW/newhope.png,GW/boulder.png,1,,,,,,,,,,,,,,,,
null,,html-keyboard-response,1160780,,<p></p>,,,,null,,,,,,,,,,,,,,,,,,,,,,,,,,,
3315.400000002235,,directmemory_phase,1164096,,GW/carmel.png,,,,49,,,1,0.9411764705882353,GW/huntsville.png,GW/racine.png,GW/gatlinburg.png,GW/huntsville.png,GW/gatlinburg.png,GW/racine.png,1,,,,,,,,,,,,,,,,
null,,html-keyboard-response,1165098,,<p></p>,,,,null,,,,,,,,,,,,,,,,,,,,,,,,,,,
3076.300000000745,,directmemory_phase,1168176,,GW/hanover.png,,,,51,,,1,0.9444444444444444,GW/boulder.png,GW/westpalmbeach.png,GW/peoria.png,GW/peoria.png,GW/westpalmbeach.png,GW/boulder.png,1,,,,,,,,,,,,,,,,
null,,html-keyboard-response,1169178,,<p></p>,,,,null,,,,,,,,,,,,,,,,,,,,,,,,,,,
2437.60000000149,,directmemory_phase,1171616,,GW/shreveport.png,,,,51,,,1,0.9473684210526315,GW/boulder.png,GW/racine.png,GW/carmel.png,GW/carmel.png,GW/racine.png,GW/boulder.png,1,,,,,,,,,,,,,,,,
null,,html-keyboard-response,1172619,,<p></p>,,,,null,,,,,,,,,,,,,,,,,,,,,,,,,,,
2451.900000002235,,directmemory_phase,1175072,,GW/hanover.png,,,,51,,,1,0.95,GW/huntsville.png,GW/shreveport.png,GW/newhope.png,GW/newhope.png,GW/shreveport.png,GW/huntsville.png,1,,,,,,,,,,,,,,,,
null,,html-keyboard-response,1176076,,<p></p>,,,,null,,,,,,,,,,,,,,,,,,,,,,,,,,,
1795.2999999970198,,directmemory_phase,1177872,,GW/shreveport.png,,,,51,,,0,0.9047619047619048,GW/peoria.png,GW/westpalmbeach.png,GW/hanover.png,GW/peoria.png,GW/hanover.png,GW/westpalmbeach.png,0.5,closer,,,,,,,,,,,,,,,
null,,html-keyboard-response,1178874,,<p></p>,,,,null,,,,,,,,,,,,,,,,,,,,,,,,,,,
2692.599999997765,,directmemory_phase,1181568,,GW/hanover.png,,,,50,,,0,0.8636363636363636,GW/huntsville.png,GW/shreveport.png,GW/leesburg.png,GW/leesburg.png,GW/shreveport.png,GW/huntsville.png,0.5,closer,,,,,,,,,,,,,,,
null,,html-keyboard-response,1182571,,<p></p>,,,,null,,,,,,,,,,,,,,,,,,,,,,,,,,,
3252.60000000149,,directmemory_phase,1185825,,GW/peoria.png,,,,50,,,1,0.8695652173913043,GW/huntsville.png,GW/shreveport.png,GW/gatlinburg.png,GW/shreveport.png,GW/huntsville.png,GW/gatlinburg.png,1,,,,,,,,,,,,,,,,
null,,html-keyboard-response,1186827,,<p></p>,,,,null,,,,,,,,,,,,,,,,,,,,,,,,,,,
3427.60000000149,,directmemory_phase,1190256,,GW/leesburg.png,,,,49,,,1,0.875,GW/hanover.png,GW/boulder.png,GW/hotsprings.png,GW/hanover.png,GW/hotsprings.png,GW/boulder.png,1,,,,,,,,,,,,,,,,
null,,html-keyboard-response,1191258,,<p></p>,,,,null,,,,,,,,,,,,,,,,,,,,,,,,,,,
2052.89999999851,,directmemory_phase,1193312,,GW/huntsville.png,,,,50,,,1,0.88,GW/peoria.png,GW/gatlinburg.png,GW/westpalmbeach.png,GW/gatlinburg.png,GW/peoria.png,GW/westpalmbeach.png,1,,,,,,,,,,,,,,,,
null,,html-keyboard-response,1194314,,<p></p>,,,,null,,,,,,,,,,,,,,,,,,,,,,,,,,,
3093.099999997765,,directmemory_phase,1197409,,GW/peoria.png,,,,49,,,1,0.8846153846153846,GW/hanover.png,GW/gatlinburg.png,GW/huntsville.png,GW/hanover.png,GW/huntsville.png,GW/gatlinburg.png,1,,,,,,,,,,,,,,,,
null,,html-keyboard-response,1198411,,<p></p>,,,,null,,,,,,,,,,,,,,,,,,,,,,,,,,,
5395.60000000149,,directmemory_phase,1203809,,GW/carmel.png,,,,50,,,0,0.8518518518518519,GW/newhope.png,GW/peoria.png,GW/leesburg.png,GW/leesburg.png,GW/peoria.png,GW/newhope.png,0.5,closer,,,,,,,,,,,,,,,
null,,html-keyboard-response,1204811,,<p></p>,,,,null,,,,,,,,,,,,,,,,,,,,,,,,,,,
5828.300000000745,,directmemory_phase,1210641,,GW/shreveport.png,,,,49,,,0,0.8214285714285714,GW/cornwall.png,GW/hanover.png,GW/huntsville.png,GW/huntsville.png,GW/hanover.png,GW/cornwall.png,0.5,closer,,,,,,,,,,,,,,,
null,,html-keyboard-response,1211643,,<p></p>,,,,null,,,,,,,,,,,,,,,,,,,,,,,,,,,
2211.599999997765,,directmemory_phase,1213856,,GW/hotsprings.png,,,,49,,,1,0.8275862068965517,GW/carmel.png,GW/racine.png,GW/huntsville.png,GW/carmel.png,GW/huntsville.png,GW/racine.png,1,,,,,,,,,,,,,,,,
null,,html-keyboard-response,1214858,,<p></p>,,,,null,,,,,,,,,,,,,,,,,,,,,,,,,,,
3236.7999999970198,,directmemory_phase,1218096,,GW/huntsville.png,,,,51,,,1,0.8333333333333334,GW/racine.png,GW/hotsprings.png,GW/shreveport.png,GW/shreveport.png,GW/hotsprings.png,GW/racine.png,1,,,,,,,,,,,,,,,,
null,,html-keyboard-response,1219098,,<p></p>,,,,null,,,,,,,,,,,,,,,,,,,,,,,,,,,
1525.1000000014901,,directmemory_phase,1220624,,GW/cornwall.png,,,,49,,,1,0.8387096774193549,GW/newhope.png,GW/peoria.png,GW/hanover.png,GW/newhope.png,GW/hanover.png,GW/peoria.png,1,,,,,,,,,,,,,,,,
null,,html-keyboard-response,1221627,,<p></p>,,,,null,,,,,,,,,,,,,,,,,,,,,,,,,,,
1748.7999999970198,,directmemory_phase,1223376,,GW/westpalmbeach.png,,,,50,,,1,0.84375,GW/peoria.png,GW/boulder.png,GW/leesburg.png,GW/boulder.png,GW/peoria.png,GW/leesburg.png,1,,,,,,,,,,,,,,,,
null,,html-keyboard-response,1224379,,<p></p>,,,,null,,,,,,,,,,,,,,,,,,,,,,,,,,,
42379.39999999851,,intro_1,1266760,,instruct,,0,,,,,,,,,,,,,,,,,,,,,,,,,,,,,
12006.699999999255,,intro_2,1278768,,instruct,,1,Next,,,,,,,,,,,,,,,,,,,,,,,,,,,,
4510.800000000745,,intro_3,1283280,,instruct,,1,Next,,,,,,,,,,,,,,,,,,,,,,,,,,,,
7918.60000000149,,intro_4,1291200,,instruct,,1,Next,,,,,,,,,,,,,,,,,,,,,,,,,,,,
11038.900000002235,,intro_5,1302240,,instruct,,1,Next,,,,,,,,,,,,,,,,,,,,,,,,,,,,
12550.900000002235,,intro_6,1314792,,instruct,,1,Next,,,,,,,,,,,,,,,,,,,,,,,,,,,,
21734.900000002235,,intro_7,1336528,,instruct,,1,Next,,,,,,,,,,,,,,,,,,,,,,,,,,,,
10911.10000000149,,intro_8,1347440,,instruct,,1,Next,,,,,,,,,,,,,,,,,,,,,,,,,,,,
3182,,shortestpath_phase,1350624,,GW/shreveport.png,,,,50,GW/boulder.png,GW/hotsprings.png,1,1,,,,GW/hotsprings.png,,,,,Two Edge Diff,Two Edge Four Edge,,,,,,,,,,,,,
null,,html-keyboard-response,1351627,,<p></p>,,,,null,,,,,,,,,,,,,,,,,,,,,,,,,,,
2787.89999999851,,shortestpath_phase,1354417,,GW/newhope.png,,,,49,GW/leesburg.png,GW/huntsville.png,1,1,,,,GW/leesburg.png,,,,,Two Edge Diff,Two Edge Four Edge,,,,,,,,,,,,,
null,,html-keyboard-response,1355420,,<p></p>,,,,null,,,,,,,,,,,,,,,,,,,,,,,,,,,
2275.099999997765,,shortestpath_phase,1357696,,GW/hotsprings.png,,,,49,GW/westpalmbeach.png,GW/racine.png,0,0.6666666666666666,,,,GW/racine.png,,,,,One Edge Diff,Four Edge Five Edge,,,,,,,,,,,,,
null,,html-keyboard-response,1358699,,<p></p>,,,,null,,,,,,,,,,,,,,,,,,,,,,,,,,,
2595.699999999255,,shortestpath_phase,1361296,,GW/carmel.png,,,,49,GW/boulder.png,GW/gatlinburg.png,0,0.5,,,,GW/gatlinburg.png,,,,,Three Edge Diff,Two Edge Five Edge,,,,,,,,,,,,,
null,,html-keyboard-response,1362299,,<p></p>,,,,null,,,,,,,,,,,,,,,,,,,,,,,,,,,
2595.60000000149,,shortestpath_phase,1364896,,GW/huntsville.png,,,,49,GW/racine.png,GW/cornwall.png,1,0.6,,,,GW/racine.png,,,,,Two Edge Diff,Three Edge Five Edge,,,,,,,,,,,,,
null,,html-keyboard-response,1365898,,<p></p>,,,,null,,,,,,,,,,,,,,,,,,,,,,,,,,,
1348.8999999985099,,shortestpath_phase,1367248,,GW/hotsprings.png,,,,50,GW/shreveport.png,GW/boulder.png,0,0.5,,,,GW/shreveport.png,,,,,Four Edge Diff,Two Edge Six Edge,,,,,,,,,,,,,
null,,html-keyboard-response,1368250,,<p></p>,,,,null,,,,,,,,,,,,,,,,,,,,,,,,,,,
2580.699999999255,,shortestpath_phase,1370833,,GW/gatlinburg.png,,,,50,GW/boulder.png,GW/racine.png,1,0.5714285714285714,,,,GW/racine.png,,,,,Two Edge Diff,Four Edge Six Edge,,,,,,,,,,,,,
null,,html-keyboard-response,1371835,,<p></p>,,,,null,,,,,,,,,,,,,,,,,,,,,,,,,,,
3139.89999999851,,shortestpath_phase,1374976,,GW/cornwall.png,,,,50,GW/hotsprings.png,GW/shreveport.png,1,0.625,,,,GW/shreveport.png,,,,,One Edge Diff,Four Edge Five Edge,,,,,,,,,,,,,
null,,html-keyboard-response,1375979,,<p></p>,,,,null,,,,,,,,,,,,,,,,,,,,,,,,,,,
2996.199999999255,,shortestpath_phase,1378976,,GW/huntsville.png,,,,50,GW/hotsprings.png,GW/cornwall.png,0,0.5555555555555556,,,,GW/hotsprings.png,,,,,Three Edge Diff,Two Edge Five Edge,,,,,,,,,,,,,
null,,html-keyboard-response,1379980,,<p></p>,,,,null,,,,,,,,,,,,,,,,,,,,,,,,,,,
2322.800000000745,,shortestpath_phase,1382304,,GW/boulder.png,,,,49,GW/leesburg.png,GW/gatlinburg.png,1,0.6,,,,GW/leesburg.png,,,,,Two Edge Diff,Four Edge Six Edge,,,,,,,,,,,,,
null,,html-keyboard-response,1383306,,<p></p>,,,,null,,,,,,,,,,,,,,,,,,,,,,,,,,,
2548.400000002235,,shortestpath_phase,1385856,,GW/cornwall.png,,,,50,GW/huntsville.png,GW/gatlinburg.png,0,0.5454545454545454,,,,GW/huntsville.png,,,,,One Edge Diff,Five Edge Six Edge,,,,,,,,,,,,,
null,,html-keyboard-response,1386860,,<p></p>,,,,null,,,,,,,,,,,,,,,,,,,,,,,,,,,
1714.800000000745,,shortestpath_phase,1388577,,GW/westpalmbeach.png,,,,49,GW/hotsprings.png,GW/peoria.png,0,0.5,,,,GW/peoria.png,,,,,Three Edge Diff,Three Edge Six Edge,,,,,,,,,,,,,
null,,html-keyboard-response,1389580,,<p></p>,,,,null,,,,,,,,,,,,,,,,,,,,,,,,,,,
1618.8999999985099,,shortestpath_phase,1391200,,GW/hotsprings.png,,,,49,GW/leesburg.png,GW/cornwall.png,1,0.5384615384615384,,,,GW/leesburg.png,,,,,Three Edge Diff,Two Edge Five Edge,,,,,,,,,,,,,
null,,html-keyboard-response,1392203,,<p></p>,,,,null,,,,,,,,,,,,,,,,,,,,,,,,,,,
1476.199999999255,,shortestpath_phase,1393680,,GW/cornwall.png,,,,50,GW/gatlinburg.png,GW/westpalmbeach.png,1,0.5714285714285714,,,,GW/westpalmbeach.png,,,,,Four Edge Diff,Two Edge Six Edge,,,,,,,,,,,,,
null,,html-keyboard-response,1394682,,<p></p>,,,,null,,,,,,,,,,,,,,,,,,,,,,,,,,,
1780.199999999255,,shortestpath_phase,1396464,,GW/leesburg.png,,,,49,GW/racine.png,GW/newhope.png,0,0.5333333333333333,,,,GW/newhope.png,,,,,One Edge Diff,Two Edge Three Edge,,,,,,,,,,,,,
null,,html-keyboard-response,1397467,,<p></p>,,,,null,,,,,,,,,,,,,,,,,,,,,,,,,,,
1443.699999999255,,shortestpath_phase,1398912,,GW/hotsprings.png,,,,49,GW/racine.png,GW/boulder.png,1,0.5625,,,,GW/racine.png,,,,,Two Edge Diff,Four Edge Six Edge,,,,,,,,,,,,,
null,,html-keyboard-response,1399914,,<p></p>,,,,null,,,,,,,,,,,,,,,,,,,,,,,,,,,
2100.5,,shortestpath_phase,1402016,,GW/boulder.png,,,,50,GW/hotsprings.png,GW/leesburg.png,1,0.5882352941176471,,,,GW/leesburg.png,,,,,Two Edge Diff,Four Edge Six Edge,,,,,,,,,,,,,
null,,html-keyboard-response,1403019,,<p></p>,,,,null,,,,,,,,,,,,,,,,,,,,,,,,,,,
2260.2000000029802,,shortestpath_phase,1405280,,GW/cornwall.png,,,,49,GW/gatlinburg.png,GW/hanover.png,0,0.5555555555555556,,,,GW/hanover.png,,,,,Four Edge Diff,Two Edge Six Edge,,,,,,,,,,,,,
null,,html-keyboard-response,1406283,,<p></p>,,,,null,,,,,,,,,,,,,,,,,,,,,,,,,,,
1844.1000000014901,,shortestpath_phase,1408128,,GW/boulder.png,,,,50,GW/huntsville.png,GW/newhope.png,1,0.5789473684210527,,,,GW/newhope.png,,,,,Three Edge Diff,Three Edge Six Edge,,,,,,,,,,,,,
null,,html-keyboard-response,1409131,,<p></p>,,,,null,,,,,,,,,,,,,,,,,,,,,,,,,,,
1315.5999999977648,,shortestpath_phase,1410448,,GW/gatlinburg.png,,,,49,GW/newhope.png,GW/carmel.png,0,0.55,,,,GW/carmel.png,,,,,Three Edge Diff,Two Edge Five Edge,,,,,,,,,,,,,
null,,html-keyboard-response,1411451,,<p></p>,,,,null,,,,,,,,,,,,,,,,,,,,,,,,,,,
1891.8999999985099,,shortestpath_phase,1413344,,GW/boulder.png,,,,50,GW/gatlinburg.png,GW/shreveport.png,1,0.5714285714285714,,,,GW/shreveport.png,,,,,Two Edge Diff,Four Edge Six Edge,,,,,,,,,,,,,
null,,html-keyboard-response,1414347,,<p></p>,,,,null,,,,,,,,,,,,,,,,,,,,,,,,,,,
1908.7999999970198,,shortestpath_phase,1416257,,GW/hotsprings.png,,,,49,GW/peoria.png,GW/leesburg.png,0,0.5454545454545454,,,,GW/leesburg.png,,,,,One Edge Diff,Two Edge Three Edge,,,,,,,,,,,,,
null,,html-keyboard-response,1417260,,<p></p>,,,,null,,,,,,,,,,,,,,,,,,,,,,,,,,,
1651,,shortestpath_phase,1418912,,GW/boulder.png,,,,50,GW/shreveport.png,GW/hotsprings.png,0,0.5217391304347826,,,,GW/shreveport.png,,,,,Two Edge Diff,Four Edge Six Edge,,,,,,,,,,,,,
null,,html-keyboard-response,1419914,,<p></p>,,,,null,,,,,,,,,,,,,,,,,,,,,,,,,,,
1972.6000000014901,,shortestpath_phase,1421888,,GW/cornwall.png,,,,50,GW/carmel.png,GW/westpalmbeach.png,1,0.5416666666666666,,,,GW/westpalmbeach.png,,,,,Two Edge Diff,Two Edge Four Edge,,,,,,,,,,,,,
null,,html-keyboard-response,1422891,,<p></p>,,,,null,,,,,,,,,,,,,,,,,,,,,,,,,,,
2133.099999997765,,shortestpath_phase,1425025,,GW/shreveport.png,,,,49,GW/boulder.png,GW/gatlinburg.png,0,0.52,,,,GW/gatlinburg.png,,,,,Two Edge Diff,Two Edge Four Edge,,,,,,,,,,,,,
null,,html-keyboard-response,1426027,,<p></p>,,,,null,,,,,,,,,,,,,,,,,,,,,,,,,,,
1764,,shortestpath_phase,1427793,,GW/hotsprings.png,,,,50,GW/cornwall.png,GW/leesburg.png,1,0.5384615384615384,,,,GW/leesburg.png,,,,,Three Edge Diff,Three Edge Six Edge,,,,,,,,,,,,,
null,,html-keyboard-response,1428795,,<p></p>,,,,null,,,,,,,,,,,,,,,,,,,,,,,,,,,
2356,,shortestpath_phase,1431152,,GW/boulder.png,,,,49,GW/newhope.png,GW/gatlinburg.png,1,0.5555555555555556,,,,GW/newhope.png,,,,,Four Edge Diff,Two Edge Six Edge,,,,,,,,,,,,,
null,,html-keyboard-response,1432155,,<p></p>,,,,null,,,,,,,,,,,,,,,,,,,,,,,,,,,
2259.89999999851,,shortestpath_phase,1434416,,GW/hotsprings.png,,,,49,GW/huntsville.png,GW/cornwall.png,1,0.5714285714285714,,,,GW/huntsville.png,,,,,Three Edge Diff,Three Edge Six Edge,,,,,,,,,,,,,
null,,html-keyboard-response,1435419,,<p></p>,,,,null,,,,,,,,,,,,,,,,,,,,,,,,,,,
2420.599999997765,,shortestpath_phase,1437841,,GW/westpalmbeach.png,,,,50,GW/leesburg.png,GW/hotsprings.png,0,0.5517241379310345,,,,GW/leesburg.png,,,,,Two Edge Diff,Three Edge Five Edge,,,,,,,,,,,,,
null,,html-keyboard-response,1438843,,<p></p>,,,,null,,,,,,,,,,,,,,,,,,,,,,,,,,,
2115.699999999255,,shortestpath_phase,1440960,,GW/hotsprings.png,,,,49,GW/racine.png,GW/shreveport.png,0,0.5333333333333333,,,,GW/shreveport.png,,,,,Two Edge Diff,Two Edge Four Edge,,,,,,,,,,,,,
null,,html-keyboard-response,1441962,,<p></p>,,,,null,,,,,,,,,,,,,,,,,,,,,,,,,,,
2869,,shortestpath_phase,1444833,,GW/cornwall.png,,,,49,GW/boulder.png,GW/hanover.png,0,0.5161290322580645,,,,GW/hanover.png,,,,,One Edge Diff,Two Edge Three Edge,,,,,,,,,,,,,
null,,html-keyboard-response,1445835,,<p></p>,,,,null,,,,,,,,,,,,,,,,,,,,,,,,,,,
1203.699999999255,,shortestpath_phase,1447040,,GW/westpalmbeach.png,,,,50,GW/huntsville.png,GW/peoria.png,1,0.53125,,,,GW/peoria.png,,,,,Two Edge Diff,Two Edge Four Edge,,,,,,,,,,,,,
null,,html-keyboard-response,1448044,,<p></p>,,,,null,,,,,,,,,,,,,,,,,,,,,,,,,,,
1987.5,,shortestpath_phase,1450033,,GW/hotsprings.png,,,,50,GW/hanover.png,GW/westpalmbeach.png,0,0.5151515151515151,,,,GW/hanover.png,,,,,Two Edge Diff,Three Edge Five Edge,,,,,,,,,,,,,
null,,html-keyboard-response,1451036,,<p></p>,,,,null,,,,,,,,,,,,,,,,,,,,,,,,,,,
1410.9000000022352,,shortestpath_phase,1452448,,GW/newhope.png,,,,50,GW/gatlinburg.png,GW/peoria.png,1,0.5294117647058824,,,,GW/peoria.png,,,,,Three Edge Diff,Three Edge Six Edge,,,,,,,,,,,,,
null,,html-keyboard-response,1453451,,<p></p>,,,,null,,,,,,,,,,,,,,,,,,,,,,,,,,,
1044.2000000029802,,shortestpath_phase,1454496,,GW/hotsprings.png,,,,49,GW/westpalmbeach.png,GW/shreveport.png,0,0.5142857142857142,,,,GW/shreveport.png,,,,,Three Edge Diff,Two Edge Five Edge,,,,,,,,,,,,,
null,,html-keyboard-response,1455500,,<p></p>,,,,null,,,,,,,,,,,,,,,,,,,,,,,,,,,
1747.1000000014901,,shortestpath_phase,1457248,,GW/huntsville.png,,,,49,GW/westpalmbeach.png,GW/leesburg.png,0,0.5,,,,GW/leesburg.png,,,,,Two Edge Diff,Two Edge Four Edge,,,,,,,,,,,,,
null,,html-keyboard-response,1458251,,<p></p>,,,,null,,,,,,,,,,,,,,,,,,,,,,,,,,,
1348.199999999255,,shortestpath_phase,1459601,,GW/hotsprings.png,,,,49,GW/peoria.png,GW/newhope.png,1,0.5135135135135135,,,,GW/peoria.png,,,,,One Edge Diff,Three Edge Four Edge,,,,,,,,,,,,,
null,,html-keyboard-response,1460603,,<p></p>,,,,null,,,,,,,,,,,,,,,,,,,,,,,,,,,
1524.8999999985099,,shortestpath_phase,1462130,,GW/gatlinburg.png,,,,49,GW/cornwall.png,GW/carmel.png,0,0.5,,,,GW/carmel.png,,,,,Four Edge Diff,Two Edge Six Edge,,,,,,,,,,,,,
null,,html-keyboard-response,1463131,,<p></p>,,,,null,,,,,,,,,,,,,,,,,,,,,,,,,,,
2963.5,,shortestpath_phase,1466096,,GW/hotsprings.png,,,,49,GW/newhope.png,GW/cornwall.png,1,0.5128205128205128,,,,GW/newhope.png,,,,,One Edge Diff,Four Edge Five Edge,,,,,,,,,,,,,
null,,html-keyboard-response,1467098,,<p></p>,,,,null,,,,,,,,,,,,,,,,,,,,,,,,,,,
2613,,shortestpath_phase,1469713,,GW/boulder.png,,,,49,GW/huntsville.png,GW/gatlinburg.png,1,0.525,,,,GW/huntsville.png,,,,,One Edge Diff,Five Edge Six Edge,,,,,,,,,,,,,
null,,html-keyboard-response,1470715,,<p></p>,,,,null,,,,,,,,,,,,,,,,,,,,,,,,,,,
2324.5,,shortestpath_phase,1473040,,GW/newhope.png,,,,50,GW/carmel.png,GW/gatlinburg.png,0,0.5121951219512195,,,,GW/carmel.png,,,,,Two Edge Diff,Three Edge Five Edge,,,,,,,,,,,,,
null,,html-keyboard-response,1474042,,<p></p>,,,,null,,,,,,,,,,,,,,,,,,,,,,,,,,,
2821,,shortestpath_phase,1476864,,GW/hotsprings.png,,,,50,GW/cornwall.png,GW/racine.png,1,0.5238095238095238,,,,GW/racine.png,,,,,One Edge Diff,Four Edge Five Edge,,,,,,,,,,,,,
null,,html-keyboard-response,1477867,,<p></p>,,,,null,,,,,,,,,,,,,,,,,,,,,,,,,,,
2516.199999999255,,shortestpath_phase,1480385,,GW/huntsville.png,,,,50,GW/cornwall.png,GW/leesburg.png,1,0.5348837209302325,,,,GW/leesburg.png,,,,,Three Edge Diff,Two Edge Five Edge,,,,,,,,,,,,,
null,,html-keyboard-response,1481388,,<p></p>,,,,null,,,,,,,,,,,,,,,,,,,,,,,,,,,
3187,,shortestpath_phase,1484576,,GW/gatlinburg.png,,,,49,GW/shreveport.png,GW/westpalmbeach.png,1,0.5454545454545454,,,,GW/shreveport.png,,,,,Three Edge Diff,Three Edge Six Edge,,,,,,,,,,,,,
null,,html-keyboard-response,1485579,,<p></p>,,,,null,,,,,,,,,,,,,,,,,,,,,,,,,,,
3252.099999997765,,shortestpath_phase,1488832,,GW/cornwall.png,,,,49,GW/gatlinburg.png,GW/hotsprings.png,0,0.5333333333333333,,,,GW/hotsprings.png,,,,,One Edge Diff,Five Edge Six Edge,,,,,,,,,,,,,
null,,html-keyboard-response,1489835,,<p></p>,,,,null,,,,,,,,,,,,,,,,,,,,,,,,,,,
2292.199999999255,,shortestpath_phase,1492128,,GW/gatlinburg.png,,,,49,GW/newhope.png,GW/shreveport.png,0,0.5217391304347826,,,,GW/shreveport.png,,,,,Three Edge Diff,Two Edge Five Edge,,,,,,,,,,,,,
null,,html-keyboard-response,1493132,,<p></p>,,,,null,,,,,,,,,,,,,,,,,,,,,,,,,,,
3507.39999999851,,shortestpath_phase,1496641,,GW/huntsville.png,,,,49,GW/boulder.png,GW/hotsprings.png,0,0.5106382978723404,,,,GW/hotsprings.png,,,,,Three Edge Diff,Three Edge Six Edge,,,,,,,,,,,,,
null,,html-keyboard-response,1497644,,<p></p>,,,,null,,,,,,,,,,,,,,,,,,,,,,,,,,,
1090.800000000745,,shortestpath_phase,1498737,,GW/cornwall.png,,,,49,GW/westpalmbeach.png,GW/huntsville.png,1,0.5208333333333334,,,,GW/westpalmbeach.png,,,,,Three Edge Diff,Three Edge Six Edge,,,,,,,,,,,,,
null,,html-keyboard-response,1499739,,<p></p>,,,,null,,,,,,,,,,,,,,,,,,,,,,,,,,,
949.8000000007451,,shortestpath_phase,1500690,,GW/hotsprings.png,,,,50,GW/gatlinburg.png,GW/racine.png,0,0.5102040816326531,,,,GW/gatlinburg.png,,,,,One Edge Diff,Three Edge Four Edge,,,,,,,,,,,,,
null,,html-keyboard-response,1501692,,<p></p>,,,,null,,,,,,,,,,,,,,,,,,,,,,,,,,,
1250.5,,shortestpath_phase,1502944,,GW/boulder.png,,,,50,GW/huntsville.png,GW/hotsprings.png,0,0.5,,,,GW/huntsville.png,,,,,One Edge Diff,Five Edge Six Edge,,,,,,,,,,,,,
null,,html-keyboard-response,1503947,,<p></p>,,,,null,,,,,,,,,,,,,,,,,,,,,,,,,,,
1683.8999999985099,,shortestpath_phase,1505632,,GW/racine.png,,,,49,GW/newhope.png,GW/huntsville.png,1,0.5098039215686274,,,,GW/newhope.png,,,,,One Edge Diff,Two Edge Three Edge,,,,,,,,,,,,,
null,,html-keyboard-response,1506634,,<p></p>,,,,null,,,,,,,,,,,,,,,,,,,,,,,,,,,
2773,,shortestpath_phase,1509408,,GW/cornwall.png,,,,49,GW/hotsprings.png,GW/westpalmbeach.png,0,0.5,,,,GW/westpalmbeach.png,,,,,Three Edge Diff,Two Edge Five Edge,,,,,,,,,,,,,
null,,html-keyboard-response,1510410,,<p></p>,,,,null,,,,,,,,,,,,,,,,,,,,,,,,,,,
3988.60000000149,,shortestpath_phase,1514400,,GW/boulder.png,,,,49,GW/hotsprings.png,GW/racine.png,0,0.49056603773584906,,,,GW/racine.png,,,,,Four Edge Diff,Two Edge Six Edge,,,,,,,,,,,,,
null,,html-keyboard-response,1515404,,<p></p>,,,,null,,,,,,,,,,,,,,,,,,,,,,,,,,,
1283.1000000014901,,shortestpath_phase,1516688,,GW/westpalmbeach.png,,,,50,GW/hotsprings.png,GW/carmel.png,1,0.5,,,,GW/carmel.png,,,,,One Edge Diff,Four Edge Five Edge,,,,,,,,,,,,,
null,,html-keyboard-response,1517690,,<p></p>,,,,null,,,,,,,,,,,,,,,,,,,,,,,,,,,
3220.60000000149,,shortestpath_phase,1520913,,GW/boulder.png,,,,49,GW/hotsprings.png,GW/newhope.png,0,0.4909090909090909,,,,GW/newhope.png,,,,,Four Edge Diff,Two Edge Six Edge,,,,,,,,,,,,,
null,,html-keyboard-response,1521915,,<p></p>,,,,null,,,,,,,,,,,,,,,,,,,,,,,,,,,
4259.699999999255,,shortestpath_phase,1526176,,GW/gatlinburg.png,,,,49,GW/carmel.png,GW/boulder.png,1,0.5,,,,GW/carmel.png,,,,,Four Edge Diff,Two Edge Six Edge,,,,,,,,,,,,,
null,,html-keyboard-response,1527179,,<p></p>,,,,null,,,,,,,,,,,,,,,,,,,,,,,,,,,
4932.39999999851,,shortestpath_phase,1532112,,GW/boulder.png,,,,50,GW/cornwall.png,GW/carmel.png,0,0.49122807017543857,,,,GW/cornwall.png,,,,,Two Edge Diff,Three Edge Five Edge,,,,,,,,,,,,,
null,,html-keyboard-response,1533116,,<p></p>,,,,null,,,,,,,,,,,,,,,,,,,,,,,,,,,
1955.5,,shortestpath_phase,1535072,,GW/hotsprings.png,,,,49,GW/westpalmbeach.png,GW/newhope.png,0,0.4827586206896552,,,,GW/newhope.png,,,,,One Edge Diff,Four Edge Five Edge,,,,,,,,,,,,,
null,,html-keyboard-response,1536075,,<p></p>,,,,null,,,,,,,,,,,,,,,,,,,,,,,,,,,
3445.2999999970198,,shortestpath_phase,1539521,,GW/boulder.png,,,,49,GW/hotsprings.png,GW/carmel.png,0,0.4745762711864407,,,,GW/carmel.png,,,,,One Edge Diff,Five Edge Six Edge,,,,,,,,,,,,,
null,,html-keyboard-response,1540526,,<p></p>,,,,null,,,,,,,,,,,,,,,,,,,,,,,,,,,
2545.39999999851,,shortestpath_phase,1543072,,GW/westpalmbeach.png,,,,49,GW/shreveport.png,GW/gatlinburg.png,1,0.48333333333333334,,,,GW/shreveport.png,,,,,Two Edge Diff,Three Edge Five Edge,,,,,,,,,,,,,
null,,html-keyboard-response,1544076,,<p></p>,,,,null,,,,,,,,,,,,,,,,,,,,,,,,,,,
