rt,responses,trial_type,time_elapsed,sequence,stimulus,graphorder,button_pressed,response,key_press,stimulus_left,stimulus_right,accuracy,cumulative_accuracy,stimulus_down_left,stimulus_down_mid,stimulus_down_right,stimulus_correct,stimulus_short,stimulus_far,weighted_accuracy,missedtrial,condition,specific_pairs,imgL_ID,imgR_ID,linedress,linedressed,linedressed_detor,detour_trial,problems,smooth,distraction,strategies,easier,similar,comments
3984,{worker_id:64cf9d38c6677895238e9ef5},id_enter,3987,interleaved,replication,GW/newhope.png; GW/hotsprings.png; GW/carmel.png; GW/cornwall.png; GW/leesburg.png; GW/huntsville.png; GW/westpalmbeach.png; GW/gatlinburg.png; GW/peoria.png; GW/shreveport.png; GW/hanover.png; GW/boulder.png; GW/racine.png,,,,,,,,,,,,,,,,,,,,,,,,,,,,,,
17834.59999999986,,fullscreen,21829,,fullscreen,,0,,,,,,,,,,,,,,,,,,,,,,,,,,,,,
14147.800000000047,,intro_1,35979,,instruct,,0,,,,,,,,,,,,,,,,,,,,,,,,,,,,,
21574.40000000014,,intro_2,57558,,instruct,,1,Next,,,,,,,,,,,,,,,,,,,,,,,,,,,,
9056.09999999986,,intro_3,66616,,instruct,,1,Next,,,,,,,,,,,,,,,,,,,,,,,,,,,,
null,,learn_prac_1,69621,,lean_prac_1,,,,null,,,,,,,,,,,,,,,,,,,,,,,,,,,
null,,html-keyboard-response,70628,,<p></p>,,,,null,,,,,,,,,,,,,,,,,,,,,,,,,,,
5606.899999999907,,intro_1,76236,,instruct,,0,,,,,,,,,,,,,,,,,,,,,,,,,,,,,
6654.699999999953,,intro_2,82893,,instruct,,1,Next,,,,,,,,,,,,,,,,,,,,,,,,,,,,
null,,learn_prac_2,85910,,lean_prac_2,,,,null,,,,,,,,,,,,,,,,,,,,,,,,,,,
null,,html-keyboard-response,86914,,<p></p>,,,,null,,,,,,,,,,,,,,,,,,,,,,,,,,,
2749.600000000093,,intro_1,89665,,instruct,,0,,,,,,,,,,,,,,,,,,,,,,,,,,,,,
6763.199999999953,,intro_2,96431,,instruct,,1,Next,,,,,,,,,,,,,,,,,,,,,,,,,,,,
23282.800000000047,,intro_3,119715,,instruct,,1,Next,,,,,,,,,,,,,,,,,,,,,,,,,,,,
null,,prac_atten_color_black,120416,,black_plus_sign,,,,null,,,,,,,,,,,,,,,,,,,,,,,,,,,
null,,prac_atten_color,121137,,prac_stop_color,,,,null,,,,,,,,,,,,,,,,,,,,,,,,,,,
430.29999999981374,,prac_atten_color_black,123139,,black_plus_sign,,,,49,,,,,,,,,,,,,,,,,,,,,,,,,,,
null,,prac_atten_color_black,123839,,black_plus_sign,,,,null,,,,,,,,,,,,,,,,,,,,,,,,,,,
393.19999999995343,,prac_atten_color,124631,,prac_stop_color,,,,50,,,,,,,,,,,,,,,,,,,,,,,,,,,
null,,prac_atten_color_black,126649,,black_plus_sign,,,,null,,,,,,,,,,,,,,,,,,,,,,,,,,,
null,,prac_atten_color_black,127276,,black_plus_sign,,,,null,,,,,,,,,,,,,,,,,,,,,,,,,,,
457.69999999995343,,prac_atten_color,128116,,prac_stop_color,,,,50,,,,,,,,,,,,,,,,,,,,,,,,,,,
null,,prac_atten_color_black,130125,,black_plus_sign,,,,null,,,,,,,,,,,,,,,,,,,,,,,,,,,
null,,prac_atten_color_black,130702,,black_plus_sign,,,,null,,,,,,,,,,,,,,,,,,,,,,,,,,,
545.4000000001397,,prac_atten_color,131743,,prac_stop_color,,,,49,,,,,,,,,,,,,,,,,,,,,,,,,,,
null,,prac_atten_color_black,133750,,black_plus_sign,,,,null,,,,,,,,,,,,,,,,,,,,,,,,,,,
null,,prac_atten_color_black,134127,,black_plus_sign,,,,null,,,,,,,,,,,,,,,,,,,,,,,,,,,
null,,prac_atten_color,134641,,prac_stop_color,,,,null,,,,,,,,,,,,,,,,,,,,,,,,,,,
33.700000000186265,,prac_atten_color_black,136652,,black_plus_sign,,,,50,,,,,,,,,,,,,,,,,,,,,,,,,,,
null,,prac_atten_color_black,137559,,black_plus_sign,,,,null,,,,,,,,,,,,,,,,,,,,,,,,,,,
360.70000000018626,,prac_atten_color,138134,,prac_stop_color,,,,50,,,,,,,,,,,,,,,,,,,,,,,,,,,
null,,prac_atten_color_black,140149,,black_plus_sign,,,,null,,,,,,,,,,,,,,,,,,,,,,,,,,,
null,,prac_atten_color_black,140983,,black_plus_sign,,,,null,,,,,,,,,,,,,,,,,,,,,,,,,,,
379.89999999990687,,prac_atten_color,141790,,prac_stop_color,,,,49,,,,,,,,,,,,,,,,,,,,,,,,,,,
null,,prac_atten_color_black,143801,,black_plus_sign,,,,null,,,,,,,,,,,,,,,,,,,,,,,,,,,
null,,prac_atten_color_black,144411,,black_plus_sign,,,,null,,,,,,,,,,,,,,,,,,,,,,,,,,,
374,,prac_atten_color,145209,,prac_stop_color,,,,50,,,,,,,,,,,,,,,,,,,,,,,,,,,
null,,prac_atten_color_black,147212,,black_plus_sign,,,,null,,,,,,,,,,,,,,,,,,,,,,,,,,,
null,,prac_atten_color_black,147824,,black_plus_sign,,,,null,,,,,,,,,,,,,,,,,,,,,,,,,,,
454.89999999990687,,prac_atten_color,148822,,prac_stop_color,,,,49,,,,,,,,,,,,,,,,,,,,,,,,,,,
null,,prac_atten_color_black,150830,,black_plus_sign,,,,null,,,,,,,,,,,,,,,,,,,,,,,,,,,
null,,prac_atten_color_black,151255,,black_plus_sign,,,,null,,,,,,,,,,,,,,,,,,,,,,,,,,,
537.5,,prac_atten_color,152007,,prac_stop_color,,,,49,,,,,,,,,,,,,,,,,,,,,,,,,,,
null,,prac_atten_color_black,154016,,black_plus_sign,,,,null,,,,,,,,,,,,,,,,,,,,,,,,,,,
6142,,attentioncheck_feedback,160161,,cross_check_feedback,,0,,,,,,,,,,,,,,,,,,,,,,,,,,,,,
18524.799999999814,,last_instruct,178687,,instruct,,,,32,,,,,,,,,,,,,,,,,,,,,,,,,,,
null,,learn_phase(without_color),181689,,black_plus_sign,,,,null,GW/peoria.png,GW/huntsville.png,,,,,,,,,,,,,,,,,,,,,,,,,
null,,black_cross(without_color),182300,,blue,,,,null,GW/peoria.png,GW/huntsville.png,,,,,,,,,,,,,,,,,,,,,,,,,
null,,rt_plussign_withcolor,182808,,blue,,,,null,GW/peoria.png,GW/huntsville.png,,,,,,,,,,,,,,,,,,,,,,,,,
902.0999999998603,,rt_thecrossant_black,184209,,black_plus_sign,,,,49,,,1,1,,,,,,,,,,,,,,,,,,,,,,,
null,,color_black,184317,,black_plus_sign,,,,null,,,,,,,,,,,,,,,,,,,,,,,,,,,
null,,learn_phase(without_color),187324,,black_plus_sign,,,,null,GW/racine.png,GW/westpalmbeach.png,,,,,,,,,,,,,,,,,,,,,,,,,
null,,black_cross(without_color),188097,,yellow,,,,null,GW/racine.png,GW/westpalmbeach.png,,,,,,,,,,,,,,,,,,,,,,,,,
453.69999999995343,,rt_plussign_withcolor,188615,,yellow,,,,50,GW/racine.png,GW/westpalmbeach.png,,,,,,,,,,,,,,,,,,,,,,,,,
null,,rt_thecrossant_black,189855,,black_plus_sign,,,,null,,,1,1,,,,,,,,,,,,,,,,,,,,,,,
null,,color_black,189964,,black_plus_sign,,,,null,,,,,,,,,,,,,,,,,,,,,,,,,,,
null,,learn_phase(without_color),192967,,black_plus_sign,,,,null,GW/cornwall.png,GW/boulder.png,,,,,,,,,,,,,,,,,,,,,,,,,
null,,black_cross(without_color),193755,,yellow,,,,null,GW/cornwall.png,GW/boulder.png,,,,,,,,,,,,,,,,,,,,,,,,,
null,,rt_plussign_withcolor,194270,,yellow,,,,null,GW/cornwall.png,GW/boulder.png,,,,,,,,,,,,,,,,,,,,,,,,,
883.2000000001863,,rt_thecrossant_black,195496,,black_plus_sign,,,,50,,,1,1,,,,,,,,,,,,,,,,,,,,,,,
null,,color_black,195599,,black_plus_sign,,,,null,,,,,,,,,,,,,,,,,,,,,,,,,,,
null,,learn_phase(without_color),198610,,black_plus_sign,,,,null,GW/hanover.png,GW/boulder.png,,,,,,,,,,,,,,,,,,,,,,,,,
null,,black_cross(without_color),199214,,blue,,,,null,GW/hanover.png,GW/boulder.png,,,,,,,,,,,,,,,,,,,,,,,,,
null,,rt_plussign_withcolor,199729,,blue,,,,null,GW/hanover.png,GW/boulder.png,,,,,,,,,,,,,,,,,,,,,,,,,
896.6999999999534,,rt_thecrossant_black,201135,,black_plus_sign,,,,49,,,1,1,,,,,,,,,,,,,,,,,,,,,,,
null,,color_black,201242,,black_plus_sign,,,,null,,,,,,,,,,,,,,,,,,,,,,,,,,,
null,,learn_phase(without_color),204252,,black_plus_sign,,,,null,GW/racine.png,GW/westpalmbeach.png,,,,,,,,,,,,,,,,,,,,,,,,,
null,,black_cross(without_color),205144,,yellow,,,,null,GW/racine.png,GW/westpalmbeach.png,,,,,,,,,,,,,,,,,,,,,,,,,
null,,rt_plussign_withcolor,205656,,yellow,,,,null,GW/racine.png,GW/westpalmbeach.png,,,,,,,,,,,,,,,,,,,,,,,,,
797.3999999999069,,rt_thecrossant_black,206785,,black_plus_sign,,,,50,,,1,1,,,,,,,,,,,,,,,,,,,,,,,
null,,color_black,206893,,black_plus_sign,,,,null,,,,,,,,,,,,,,,,,,,,,,,,,,,
null,,learn_phase(without_color),209897,,black_plus_sign,,,,null,GW/peoria.png,GW/westpalmbeach.png,,,,,,,,,,,,,,,,,,,,,,,,,
null,,black_cross(without_color),210657,,yellow,,,,null,GW/peoria.png,GW/westpalmbeach.png,,,,,,,,,,,,,,,,,,,,,,,,,
496.69999999995343,,rt_plussign_withcolor,211166,,yellow,,,,50,GW/peoria.png,GW/westpalmbeach.png,,,,,,,,,,,,,,,,,,,,,,,,,
null,,rt_thecrossant_black,212427,,black_plus_sign,,,,null,,,1,1,,,,,,,,,,,,,,,,,,,,,,,
null,,color_black,212536,,black_plus_sign,,,,null,,,,,,,,,,,,,,,,,,,,,,,,,,,
null,,learn_phase(without_color),215546,,black_plus_sign,,,,null,GW/boulder.png,GW/hanover.png,,,,,,,,,,,,,,,,,,,,,,,,,
null,,black_cross(without_color),216464,,blue,,,,null,GW/boulder.png,GW/hanover.png,,,,,,,,,,,,,,,,,,,,,,,,,
null,,rt_plussign_withcolor,216973,,blue,,,,null,GW/boulder.png,GW/hanover.png,,,,,,,,,,,,,,,,,,,,,,,,,
906.9000000001397,,rt_thecrossant_black,218073,,black_plus_sign,,,,49,,,1,1,,,,,,,,,,,,,,,,,,,,,,,
null,,color_black,218190,,black_plus_sign,,,,null,,,,,,,,,,,,,,,,,,,,,,,,,,,
null,,learn_phase(without_color),221199,,black_plus_sign,,,,null,GW/peoria.png,GW/huntsville.png,,,,,,,,,,,,,,,,,,,,,,,,,
null,,black_cross(without_color),221858,,blue,,,,null,GW/peoria.png,GW/huntsville.png,,,,,,,,,,,,,,,,,,,,,,,,,
null,,rt_plussign_withcolor,222366,,blue,,,,null,GW/peoria.png,GW/huntsville.png,,,,,,,,,,,,,,,,,,,,,,,,,
1015.1999999999534,,rt_thecrossant_black,223719,,black_plus_sign,,,,49,,,1,1,,,,,,,,,,,,,,,,,,,,,,,
null,,color_black,223836,,black_plus_sign,,,,null,,,,,,,,,,,,,,,,,,,,,,,,,,,
null,,learn_phase(without_color),226846,,black_plus_sign,,,,null,GW/westpalmbeach.png,GW/gatlinburg.png,,,,,,,,,,,,,,,,,,,,,,,,,
null,,black_cross(without_color),227472,,yellow,,,,null,GW/westpalmbeach.png,GW/gatlinburg.png,,,,,,,,,,,,,,,,,,,,,,,,,
490,,rt_plussign_withcolor,227981,,yellow,,,,50,GW/westpalmbeach.png,GW/gatlinburg.png,,,,,,,,,,,,,,,,,,,,,,,,,
null,,rt_thecrossant_black,229366,,black_plus_sign,,,,null,,,1,1,,,,,,,,,,,,,,,,,,,,,,,
null,,color_black,229473,,black_plus_sign,,,,null,,,,,,,,,,,,,,,,,,,,,,,,,,,
null,,learn_phase(without_color),232478,,black_plus_sign,,,,null,GW/gatlinburg.png,GW/shreveport.png,,,,,,,,,,,,,,,,,,,,,,,,,
null,,black_cross(without_color),233511,,yellow,,,,null,GW/gatlinburg.png,GW/shreveport.png,,,,,,,,,,,,,,,,,,,,,,,,,
501.29999999981374,,rt_plussign_withcolor,234015,,yellow,,,,50,GW/gatlinburg.png,GW/shreveport.png,,,,,,,,,,,,,,,,,,,,,,,,,
null,,rt_thecrossant_black,235005,,black_plus_sign,,,,null,,,1,1,,,,,,,,,,,,,,,,,,,,,,,
null,,color_black,235113,,black_plus_sign,,,,null,,,,,,,,,,,,,,,,,,,,,,,,,,,
null,,learn_phase(without_color),238118,,black_plus_sign,,,,null,GW/peoria.png,GW/huntsville.png,,,,,,,,,,,,,,,,,,,,,,,,,
null,,black_cross(without_color),238652,,yellow,,,,null,GW/peoria.png,GW/huntsville.png,,,,,,,,,,,,,,,,,,,,,,,,,
499.70000000018626,,rt_plussign_withcolor,239153,,yellow,,,,50,GW/peoria.png,GW/huntsville.png,,,,,,,,,,,,,,,,,,,,,,,,,
null,,rt_thecrossant_black,240641,,black_plus_sign,,,,null,,,1,1,,,,,,,,,,,,,,,,,,,,,,,
null,,color_black,240749,,black_plus_sign,,,,null,,,,,,,,,,,,,,,,,,,,,,,,,,,
null,,learn_phase(without_color),243753,,black_plus_sign,,,,null,GW/westpalmbeach.png,GW/huntsville.png,,,,,,,,,,,,,,,,,,,,,,,,,
null,,black_cross(without_color),244631,,blue,,,,null,GW/westpalmbeach.png,GW/huntsville.png,,,,,,,,,,,,,,,,,,,,,,,,,
382.9000000001397,,rt_plussign_withcolor,245135,,blue,,,,49,GW/westpalmbeach.png,GW/huntsville.png,,,,,,,,,,,,,,,,,,,,,,,,,
null,,rt_thecrossant_black,246266,,black_plus_sign,,,,null,,,1,1,,,,,,,,,,,,,,,,,,,,,,,
null,,color_black,246374,,black_plus_sign,,,,null,,,,,,,,,,,,,,,,,,,,,,,,,,,
null,,learn_phase(without_color),249387,,black_plus_sign,,,,null,GW/hotsprings.png,GW/cornwall.png,,,,,,,,,,,,,,,,,,,,,,,,,
null,,black_cross(without_color),250096,,blue,,,,null,GW/hotsprings.png,GW/cornwall.png,,,,,,,,,,,,,,,,,,,,,,,,,
null,,rt_plussign_withcolor,250605,,blue,,,,null,GW/hotsprings.png,GW/cornwall.png,,,,,,,,,,,,,,,,,,,,,,,,,
1084.5,,rt_thecrossant_black,251916,,black_plus_sign,,,,49,,,1,1,,,,,,,,,,,,,,,,,,,,,,,
null,,color_black,252020,,black_plus_sign,,,,null,,,,,,,,,,,,,,,,,,,,,,,,,,,
null,,learn_phase(without_color),255038,,black_plus_sign,,,,null,GW/gatlinburg.png,GW/shreveport.png,,,,,,,,,,,,,,,,,,,,,,,,,
null,,black_cross(without_color),255670,,blue,,,,null,GW/gatlinburg.png,GW/shreveport.png,,,,,,,,,,,,,,,,,,,,,,,,,
471.10000000009313,,rt_plussign_withcolor,256177,,blue,,,,49,GW/gatlinburg.png,GW/shreveport.png,,,,,,,,,,,,,,,,,,,,,,,,,
null,,rt_thecrossant_black,257558,,black_plus_sign,,,,null,,,1,1,,,,,,,,,,,,,,,,,,,,,,,
null,,color_black,257667,,black_plus_sign,,,,null,,,,,,,,,,,,,,,,,,,,,,,,,,,
null,,learn_phase(without_color),260680,,black_plus_sign,,,,null,GW/peoria.png,GW/huntsville.png,,,,,,,,,,,,,,,,,,,,,,,,,
null,,black_cross(without_color),261395,,blue,,,,null,GW/peoria.png,GW/huntsville.png,,,,,,,,,,,,,,,,,,,,,,,,,
null,,rt_plussign_withcolor,261905,,blue,,,,null,GW/peoria.png,GW/huntsville.png,,,,,,,,,,,,,,,,,,,,,,,,,
830.6000000000931,,rt_thecrossant_black,263215,,black_plus_sign,,,,49,,,1,1,,,,,,,,,,,,,,,,,,,,,,,
null,,color_black,263323,,black_plus_sign,,,,null,,,,,,,,,,,,,,,,,,,,,,,,,,,
null,,learn_phase(without_color),266326,,black_plus_sign,,,,null,GW/huntsville.png,GW/peoria.png,,,,,,,,,,,,,,,,,,,,,,,,,
null,,black_cross(without_color),266769,,yellow,,,,null,GW/huntsville.png,GW/peoria.png,,,,,,,,,,,,,,,,,,,,,,,,,
369.80000000004657,,rt_plussign_withcolor,267275,,yellow,,,,50,GW/huntsville.png,GW/peoria.png,,,,,,,,,,,,,,,,,,,,,,,,,
null,,rt_thecrossant_black,268857,,black_plus_sign,,,,null,,,1,1,,,,,,,,,,,,,,,,,,,,,,,
null,,color_black,268966,,black_plus_sign,,,,null,,,,,,,,,,,,,,,,,,,,,,,,,,,
null,,learn_phase(without_color),271974,,black_plus_sign,,,,null,GW/westpalmbeach.png,GW/gatlinburg.png,,,,,,,,,,,,,,,,,,,,,,,,,
null,,black_cross(without_color),272678,,blue,,,,null,GW/westpalmbeach.png,GW/gatlinburg.png,,,,,,,,,,,,,,,,,,,,,,,,,
null,,rt_plussign_withcolor,273194,,blue,,,,null,GW/westpalmbeach.png,GW/gatlinburg.png,,,,,,,,,,,,,,,,,,,,,,,,,
593.6999999999534,,rt_thecrossant_black,274506,,black_plus_sign,,,,49,,,1,1,,,,,,,,,,,,,,,,,,,,,,,
null,,color_black,274617,,black_plus_sign,,,,null,,,,,,,,,,,,,,,,,,,,,,,,,,,
null,,learn_phase(without_color),277619,,black_plus_sign,,,,null,GW/hotsprings.png,GW/newhope.png,,,,,,,,,,,,,,,,,,,,,,,,,
null,,black_cross(without_color),278145,,yellow,,,,null,GW/hotsprings.png,GW/newhope.png,,,,,,,,,,,,,,,,,,,,,,,,,
459.10000000009313,,rt_plussign_withcolor,278646,,yellow,,,,50,GW/hotsprings.png,GW/newhope.png,,,,,,,,,,,,,,,,,,,,,,,,,
null,,rt_thecrossant_black,280146,,black_plus_sign,,,,null,,,1,1,,,,,,,,,,,,,,,,,,,,,,,
null,,color_black,280255,,black_plus_sign,,,,null,,,,,,,,,,,,,,,,,,,,,,,,,,,
null,,learn_phase(without_color),283263,,black_plus_sign,,,,null,GW/hanover.png,GW/carmel.png,,,,,,,,,,,,,,,,,,,,,,,,,
null,,black_cross(without_color),284206,,blue,,,,null,GW/hanover.png,GW/carmel.png,,,,,,,,,,,,,,,,,,,,,,,,,
470.80000000004657,,rt_plussign_withcolor,284711,,blue,,,,49,GW/hanover.png,GW/carmel.png,,,,,,,,,,,,,,,,,,,,,,,,,
null,,rt_thecrossant_black,285792,,black_plus_sign,,,,null,,,1,1,,,,,,,,,,,,,,,,,,,,,,,
null,,color_black,285899,,black_plus_sign,,,,null,,,,,,,,,,,,,,,,,,,,,,,,,,,
null,,learn_phase(without_color),288909,,black_plus_sign,,,,null,GW/westpalmbeach.png,GW/peoria.png,,,,,,,,,,,,,,,,,,,,,,,,,
null,,black_cross(without_color),289467,,yellow,,,,null,GW/westpalmbeach.png,GW/peoria.png,,,,,,,,,,,,,,,,,,,,,,,,,
null,,rt_plussign_withcolor,289985,,yellow,,,,null,GW/westpalmbeach.png,GW/peoria.png,,,,,,,,,,,,,,,,,,,,,,,,,
1045.1000000000931,,rt_thecrossant_black,291439,,black_plus_sign,,,,50,,,1,1,,,,,,,,,,,,,,,,,,,,,,,
null,,color_black,291555,,black_plus_sign,,,,null,,,,,,,,,,,,,,,,,,,,,,,,,,,
null,,learn_phase(without_color),294560,,black_plus_sign,,,,null,GW/hotsprings.png,GW/cornwall.png,,,,,,,,,,,,,,,,,,,,,,,,,
null,,black_cross(without_color),295635,,yellow,,,,null,GW/hotsprings.png,GW/cornwall.png,,,,,,,,,,,,,,,,,,,,,,,,,
486.5,,rt_plussign_withcolor,296144,,yellow,,,,50,GW/hotsprings.png,GW/cornwall.png,,,,,,,,,,,,,,,,,,,,,,,,,
null,,rt_thecrossant_black,297079,,black_plus_sign,,,,null,,,1,1,,,,,,,,,,,,,,,,,,,,,,,
null,,color_black,297196,,black_plus_sign,,,,null,,,,,,,,,,,,,,,,,,,,,,,,,,,
null,,learn_phase(without_color),300201,,black_plus_sign,,,,null,GW/gatlinburg.png,GW/westpalmbeach.png,,,,,,,,,,,,,,,,,,,,,,,,,
null,,black_cross(without_color),301239,,blue,,,,null,GW/gatlinburg.png,GW/westpalmbeach.png,,,,,,,,,,,,,,,,,,,,,,,,,
494.60000000009313,,rt_plussign_withcolor,301741,,blue,,,,49,GW/gatlinburg.png,GW/westpalmbeach.png,,,,,,,,,,,,,,,,,,,,,,,,,
null,,rt_thecrossant_black,302719,,black_plus_sign,,,,null,,,1,1,,,,,,,,,,,,,,,,,,,,,,,
null,,color_black,302826,,black_plus_sign,,,,null,,,,,,,,,,,,,,,,,,,,,,,,,,,
null,,learn_phase(without_color),305830,,black_plus_sign,,,,null,GW/carmel.png,GW/huntsville.png,,,,,,,,,,,,,,,,,,,,,,,,,
null,,black_cross(without_color),306690,,yellow,,,,null,GW/carmel.png,GW/huntsville.png,,,,,,,,,,,,,,,,,,,,,,,,,
null,,rt_plussign_withcolor,307206,,yellow,,,,null,GW/carmel.png,GW/huntsville.png,,,,,,,,,,,,,,,,,,,,,,,,,
1211.1999999999534,,rt_thecrossant_black,308354,,black_plus_sign,,,,50,,,1,1,,,,,,,,,,,,,,,,,,,,,,,
null,,color_black,308464,,black_plus_sign,,,,null,,,,,,,,,,,,,,,,,,,,,,,,,,,
null,,learn_phase(without_color),311473,,black_plus_sign,,,,null,GW/hanover.png,GW/peoria.png,,,,,,,,,,,,,,,,,,,,,,,,,
null,,black_cross(without_color),312259,,yellow,,,,null,GW/hanover.png,GW/peoria.png,,,,,,,,,,,,,,,,,,,,,,,,,
null,,rt_plussign_withcolor,312769,,yellow,,,,null,GW/hanover.png,GW/peoria.png,,,,,,,,,,,,,,,,,,,,,,,,,
1084.2000000001863,,rt_thecrossant_black,314007,,black_plus_sign,,,,49,,,0,0.9583333333333334,,,,,,,,,,,,,,,,,,,,,,,
null,,color_black,314115,,black_plus_sign,,,,null,,,,,,,,,,,,,,,,,,,,,,,,,,,
null,,learn_phase(without_color),317119,,black_plus_sign,,,,null,GW/hanover.png,GW/boulder.png,,,,,,,,,,,,,,,,,,,,,,,,,
null,,black_cross(without_color),318195,,yellow,,,,null,GW/hanover.png,GW/boulder.png,,,,,,,,,,,,,,,,,,,,,,,,,
null,,rt_plussign_withcolor,318704,,yellow,,,,null,GW/hanover.png,GW/boulder.png,,,,,,,,,,,,,,,,,,,,,,,,,
945.9000000001397,,rt_thecrossant_black,319645,,black_plus_sign,,,,50,,,1,0.96,,,,,,,,,,,,,,,,,,,,,,,
null,,color_black,319752,,black_plus_sign,,,,null,,,,,,,,,,,,,,,,,,,,,,,,,,,
null,,learn_phase(without_color),322758,,black_plus_sign,,,,null,GW/hanover.png,GW/carmel.png,,,,,,,,,,,,,,,,,,,,,,,,,
null,,black_cross(without_color),323692,,blue,,,,null,GW/hanover.png,GW/carmel.png,,,,,,,,,,,,,,,,,,,,,,,,,
425.70000000018626,,rt_plussign_withcolor,324194,,blue,,,,49,GW/hanover.png,GW/carmel.png,,,,,,,,,,,,,,,,,,,,,,,,,
null,,rt_thecrossant_black,325270,,black_plus_sign,,,,null,,,1,0.9615384615384616,,,,,,,,,,,,,,,,,,,,,,,
null,,color_black,325378,,black_plus_sign,,,,null,,,,,,,,,,,,,,,,,,,,,,,,,,,
null,,learn_phase(without_color),328381,,black_plus_sign,,,,null,GW/hanover.png,GW/boulder.png,,,,,,,,,,,,,,,,,,,,,,,,,
null,,black_cross(without_color),328875,,blue,,,,null,GW/hanover.png,GW/boulder.png,,,,,,,,,,,,,,,,,,,,,,,,,
null,,rt_plussign_withcolor,329390,,blue,,,,null,GW/hanover.png,GW/boulder.png,,,,,,,,,,,,,,,,,,,,,,,,,
1214.4000000001397,,rt_thecrossant_black,330914,,black_plus_sign,,,,49,,,1,0.9629629629629629,,,,,,,,,,,,,,,,,,,,,,,
null,,color_black,331019,,black_plus_sign,,,,null,,,,,,,,,,,,,,,,,,,,,,,,,,,
null,,learn_phase(without_color),334022,,black_plus_sign,,,,null,GW/carmel.png,GW/hotsprings.png,,,,,,,,,,,,,,,,,,,,,,,,,
null,,black_cross(without_color),335109,,blue,,,,null,GW/carmel.png,GW/hotsprings.png,,,,,,,,,,,,,,,,,,,,,,,,,
481.80000000004657,,rt_plussign_withcolor,335616,,blue,,,,49,GW/carmel.png,GW/hotsprings.png,,,,,,,,,,,,,,,,,,,,,,,,,
null,,rt_thecrossant_black,336541,,black_plus_sign,,,,null,,,1,0.9642857142857143,,,,,,,,,,,,,,,,,,,,,,,
null,,color_black,336649,,black_plus_sign,,,,null,,,,,,,,,,,,,,,,,,,,,,,,,,,
null,,learn_phase(without_color),339656,,black_plus_sign,,,,null,GW/westpalmbeach.png,GW/peoria.png,,,,,,,,,,,,,,,,,,,,,,,,,
null,,black_cross(without_color),340091,,blue,,,,null,GW/westpalmbeach.png,GW/peoria.png,,,,,,,,,,,,,,,,,,,,,,,,,
null,,rt_plussign_withcolor,340599,,blue,,,,null,GW/westpalmbeach.png,GW/peoria.png,,,,,,,,,,,,,,,,,,,,,,,,,
1419.3000000000466,,rt_thecrossant_black,342177,,black_plus_sign,,,,49,,,1,0.9655172413793104,,,,,,,,,,,,,,,,,,,,,,,
null,,color_black,342295,,black_plus_sign,,,,null,,,,,,,,,,,,,,,,,,,,,,,,,,,
null,,learn_phase(without_color),345306,,black_plus_sign,,,,null,GW/gatlinburg.png,GW/shreveport.png,,,,,,,,,,,,,,,,,,,,,,,,,
null,,black_cross(without_color),346399,,yellow,,,,null,GW/gatlinburg.png,GW/shreveport.png,,,,,,,,,,,,,,,,,,,,,,,,,
null,,rt_plussign_withcolor,346916,,yellow,,,,null,GW/gatlinburg.png,GW/shreveport.png,,,,,,,,,,,,,,,,,,,,,,,,,
540.2999999998137,,rt_thecrossant_black,347834,,black_plus_sign,,,,50,,,1,0.9666666666666667,,,,,,,,,,,,,,,,,,,,,,,
null,,color_black,347942,,black_plus_sign,,,,null,,,,,,,,,,,,,,,,,,,,,,,,,,,
null,,learn_phase(without_color),350951,,black_plus_sign,,,,null,GW/hanover.png,GW/peoria.png,,,,,,,,,,,,,,,,,,,,,,,,,
null,,black_cross(without_color),351832,,yellow,,,,null,GW/hanover.png,GW/peoria.png,,,,,,,,,,,,,,,,,,,,,,,,,
null,,rt_plussign_withcolor,352341,,yellow,,,,null,GW/hanover.png,GW/peoria.png,,,,,,,,,,,,,,,,,,,,,,,,,
1390,,rt_thecrossant_black,353475,,black_plus_sign,,,,50,,,1,0.967741935483871,,,,,,,,,,,,,,,,,,,,,,,
null,,color_black,353585,,black_plus_sign,,,,null,,,,,,,,,,,,,,,,,,,,,,,,,,,
null,,learn_phase(without_color),356591,,black_plus_sign,,,,null,GW/gatlinburg.png,GW/peoria.png,,,,,,,,,,,,,,,,,,,,,,,,,
null,,black_cross(without_color),357500,,blue,,,,null,GW/gatlinburg.png,GW/peoria.png,,,,,,,,,,,,,,,,,,,,,,,,,
null,,rt_plussign_withcolor,358009,,blue,,,,null,GW/gatlinburg.png,GW/peoria.png,,,,,,,,,,,,,,,,,,,,,,,,,
1172.2000000001863,,rt_thecrossant_black,359118,,black_plus_sign,,,,49,,,1,0.96875,,,,,,,,,,,,,,,,,,,,,,,
null,,color_black,359231,,black_plus_sign,,,,null,,,,,,,,,,,,,,,,,,,,,,,,,,,
null,,learn_phase(without_color),362240,,black_plus_sign,,,,null,GW/hotsprings.png,GW/carmel.png,,,,,,,,,,,,,,,,,,,,,,,,,
null,,black_cross(without_color),362649,,yellow,,,,null,GW/hotsprings.png,GW/carmel.png,,,,,,,,,,,,,,,,,,,,,,,,,
null,,rt_plussign_withcolor,363161,,yellow,,,,null,GW/hotsprings.png,GW/carmel.png,,,,,,,,,,,,,,,,,,,,,,,,,
1020.8000000000466,,rt_thecrossant_black,364763,,black_plus_sign,,,,50,,,1,0.9696969696969697,,,,,,,,,,,,,,,,,,,,,,,
null,,color_black,364872,,black_plus_sign,,,,null,,,,,,,,,,,,,,,,,,,,,,,,,,,
null,,learn_phase(without_color),367874,,black_plus_sign,,,,null,GW/carmel.png,GW/hotsprings.png,,,,,,,,,,,,,,,,,,,,,,,,,
null,,black_cross(without_color),368430,,yellow,,,,null,GW/carmel.png,GW/hotsprings.png,,,,,,,,,,,,,,,,,,,,,,,,,
null,,rt_plussign_withcolor,368938,,yellow,,,,null,GW/carmel.png,GW/hotsprings.png,,,,,,,,,,,,,,,,,,,,,,,,,
653.9000000001397,,rt_thecrossant_black,370411,,black_plus_sign,,,,50,,,1,0.9705882352941176,,,,,,,,,,,,,,,,,,,,,,,
null,,color_black,370529,,black_plus_sign,,,,null,,,,,,,,,,,,,,,,,,,,,,,,,,,
null,,learn_phase(without_color),373539,,black_plus_sign,,,,null,GW/peoria.png,GW/huntsville.png,,,,,,,,,,,,,,,,,,,,,,,,,
null,,black_cross(without_color),374533,,yellow,,,,null,GW/peoria.png,GW/huntsville.png,,,,,,,,,,,,,,,,,,,,,,,,,
null,,rt_plussign_withcolor,375035,,yellow,,,,null,GW/peoria.png,GW/huntsville.png,,,,,,,,,,,,,,,,,,,,,,,,,
666.8999999999069,,rt_thecrossant_black,376049,,black_plus_sign,,,,50,,,1,0.9714285714285714,,,,,,,,,,,,,,,,,,,,,,,
null,,color_black,376166,,black_plus_sign,,,,null,,,,,,,,,,,,,,,,,,,,,,,,,,,
null,,learn_phase(without_color),379179,,black_plus_sign,,,,null,GW/hanover.png,GW/carmel.png,,,,,,,,,,,,,,,,,,,,,,,,,
null,,black_cross(without_color),380236,,yellow,,,,null,GW/hanover.png,GW/carmel.png,,,,,,,,,,,,,,,,,,,,,,,,,
501.5,,rt_plussign_withcolor,380740,,yellow,,,,50,GW/hanover.png,GW/carmel.png,,,,,,,,,,,,,,,,,,,,,,,,,
null,,rt_thecrossant_black,381696,,black_plus_sign,,,,null,,,1,0.9722222222222222,,,,,,,,,,,,,,,,,,,,,,,
null,,color_black,381805,,black_plus_sign,,,,null,,,,,,,,,,,,,,,,,,,,,,,,,,,
null,,learn_phase(without_color),384815,,black_plus_sign,,,,null,GW/peoria.png,GW/gatlinburg.png,,,,,,,,,,,,,,,,,,,,,,,,,
null,,black_cross(without_color),385452,,yellow,,,,null,GW/peoria.png,GW/gatlinburg.png,,,,,,,,,,,,,,,,,,,,,,,,,
null,,rt_plussign_withcolor,385960,,yellow,,,,null,GW/peoria.png,GW/gatlinburg.png,,,,,,,,,,,,,,,,,,,,,,,,,
1269.4000000001397,,rt_thecrossant_black,387344,,black_plus_sign,,,,50,,,1,0.972972972972973,,,,,,,,,,,,,,,,,,,,,,,
null,,color_black,387461,,black_plus_sign,,,,null,,,,,,,,,,,,,,,,,,,,,,,,,,,
null,,learn_phase(without_color),390465,,black_plus_sign,,,,null,GW/hanover.png,GW/peoria.png,,,,,,,,,,,,,,,,,,,,,,,,,
null,,black_cross(without_color),391333,,blue,,,,null,GW/hanover.png,GW/peoria.png,,,,,,,,,,,,,,,,,,,,,,,,,
null,,rt_plussign_withcolor,391847,,blue,,,,null,GW/hanover.png,GW/peoria.png,,,,,,,,,,,,,,,,,,,,,,,,,
916.1000000000931,,rt_thecrossant_black,392993,,black_plus_sign,,,,49,,,1,0.9736842105263158,,,,,,,,,,,,,,,,,,,,,,,
null,,color_black,393102,,black_plus_sign,,,,null,,,,,,,,,,,,,,,,,,,,,,,,,,,
null,,learn_phase(without_color),396104,,black_plus_sign,,,,null,GW/leesburg.png,GW/cornwall.png,,,,,,,,,,,,,,,,,,,,,,,,,
null,,black_cross(without_color),397010,,yellow,,,,null,GW/leesburg.png,GW/cornwall.png,,,,,,,,,,,,,,,,,,,,,,,,,
null,,rt_plussign_withcolor,397522,,yellow,,,,null,GW/leesburg.png,GW/cornwall.png,,,,,,,,,,,,,,,,,,,,,,,,,
1057.1000000000931,,rt_thecrossant_black,398633,,black_plus_sign,,,,50,,,1,0.9743589743589743,,,,,,,,,,,,,,,,,,,,,,,
null,,color_black,398744,,black_plus_sign,,,,null,,,,,,,,,,,,,,,,,,,,,,,,,,,
null,,learn_phase(without_color),401756,,black_plus_sign,,,,null,GW/peoria.png,GW/westpalmbeach.png,,,,,,,,,,,,,,,,,,,,,,,,,
null,,black_cross(without_color),402420,,blue,,,,null,GW/peoria.png,GW/westpalmbeach.png,,,,,,,,,,,,,,,,,,,,,,,,,
null,,rt_plussign_withcolor,402937,,blue,,,,null,GW/peoria.png,GW/westpalmbeach.png,,,,,,,,,,,,,,,,,,,,,,,,,
1103.2999999998137,,rt_thecrossant_black,404289,,black_plus_sign,,,,49,,,1,0.975,,,,,,,,,,,,,,,,,,,,,,,
null,,color_black,404396,,black_plus_sign,,,,null,,,,,,,,,,,,,,,,,,,,,,,,,,,
null,,learn_phase(without_color),407402,,black_plus_sign,,,,null,GW/hotsprings.png,GW/carmel.png,,,,,,,,,,,,,,,,,,,,,,,,,
null,,black_cross(without_color),408056,,yellow,,,,null,GW/hotsprings.png,GW/carmel.png,,,,,,,,,,,,,,,,,,,,,,,,,
null,,rt_plussign_withcolor,408563,,yellow,,,,null,GW/hotsprings.png,GW/carmel.png,,,,,,,,,,,,,,,,,,,,,,,,,
766.1999999999534,,rt_thecrossant_black,409932,,black_plus_sign,,,,50,,,1,0.975609756097561,,,,,,,,,,,,,,,,,,,,,,,
null,,color_black,410040,,black_plus_sign,,,,null,,,,,,,,,,,,,,,,,,,,,,,,,,,
null,,learn_phase(without_color),413046,,black_plus_sign,,,,null,GW/cornwall.png,GW/leesburg.png,,,,,,,,,,,,,,,,,,,,,,,,,
null,,black_cross(without_color),413971,,blue,,,,null,GW/cornwall.png,GW/leesburg.png,,,,,,,,,,,,,,,,,,,,,,,,,
null,,rt_plussign_withcolor,414481,,blue,,,,null,GW/cornwall.png,GW/leesburg.png,,,,,,,,,,,,,,,,,,,,,,,,,
865,,rt_thecrossant_black,415575,,black_plus_sign,,,,49,,,1,0.9761904761904762,,,,,,,,,,,,,,,,,,,,,,,
null,,color_black,415682,,black_plus_sign,,,,null,,,,,,,,,,,,,,,,,,,,,,,,,,,
null,,learn_phase(without_color),418692,,black_plus_sign,,,,null,GW/huntsville.png,GW/carmel.png,,,,,,,,,,,,,,,,,,,,,,,,,
null,,black_cross(without_color),419743,,yellow,,,,null,GW/huntsville.png,GW/carmel.png,,,,,,,,,,,,,,,,,,,,,,,,,
500,,rt_plussign_withcolor,420246,,yellow,,,,50,GW/huntsville.png,GW/carmel.png,,,,,,,,,,,,,,,,,,,,,,,,,
null,,rt_thecrossant_black,421213,,black_plus_sign,,,,null,,,1,0.9767441860465116,,,,,,,,,,,,,,,,,,,,,,,
null,,color_black,421320,,black_plus_sign,,,,null,,,,,,,,,,,,,,,,,,,,,,,,,,,
null,,learn_phase(without_color),424325,,black_plus_sign,,,,null,GW/hanover.png,GW/peoria.png,,,,,,,,,,,,,,,,,,,,,,,,,
null,,black_cross(without_color),425220,,blue,,,,null,GW/hanover.png,GW/peoria.png,,,,,,,,,,,,,,,,,,,,,,,,,
null,,rt_plussign_withcolor,425728,,blue,,,,null,GW/hanover.png,GW/peoria.png,,,,,,,,,,,,,,,,,,,,,,,,,
1325.6000000000931,,rt_thecrossant_black,426851,,black_plus_sign,,,,49,,,1,0.9772727272727273,,,,,,,,,,,,,,,,,,,,,,,
null,,color_black,426959,,black_plus_sign,,,,null,,,,,,,,,,,,,,,,,,,,,,,,,,,
null,,learn_phase(without_color),429976,,black_plus_sign,,,,null,GW/peoria.png,GW/westpalmbeach.png,,,,,,,,,,,,,,,,,,,,,,,,,
null,,black_cross(without_color),430589,,yellow,,,,null,GW/peoria.png,GW/westpalmbeach.png,,,,,,,,,,,,,,,,,,,,,,,,,
491.10000000009313,,rt_plussign_withcolor,431095,,yellow,,,,50,GW/peoria.png,GW/westpalmbeach.png,,,,,,,,,,,,,,,,,,,,,,,,,
null,,rt_thecrossant_black,432490,,black_plus_sign,,,,null,,,1,0.9777777777777777,,,,,,,,,,,,,,,,,,,,,,,
null,,color_black,432607,,black_plus_sign,,,,null,,,,,,,,,,,,,,,,,,,,,,,,,,,
null,,learn_phase(without_color),435612,,black_plus_sign,,,,null,GW/hotsprings.png,GW/carmel.png,,,,,,,,,,,,,,,,,,,,,,,,,
null,,black_cross(without_color),436613,,blue,,,,null,GW/hotsprings.png,GW/carmel.png,,,,,,,,,,,,,,,,,,,,,,,,,
460.5,,rt_plussign_withcolor,437122,,blue,,,,49,GW/hotsprings.png,GW/carmel.png,,,,,,,,,,,,,,,,,,,,,,,,,
null,,rt_thecrossant_black,438132,,black_plus_sign,,,,null,,,1,0.9782608695652174,,,,,,,,,,,,,,,,,,,,,,,
null,,color_black,438239,,black_plus_sign,,,,null,,,,,,,,,,,,,,,,,,,,,,,,,,,
null,,learn_phase(without_color),441246,,black_plus_sign,,,,null,GW/westpalmbeach.png,GW/racine.png,,,,,,,,,,,,,,,,,,,,,,,,,
null,,black_cross(without_color),442214,,yellow,,,,null,GW/westpalmbeach.png,GW/racine.png,,,,,,,,,,,,,,,,,,,,,,,,,
null,,rt_plussign_withcolor,442721,,yellow,,,,null,GW/westpalmbeach.png,GW/racine.png,,,,,,,,,,,,,,,,,,,,,,,,,
1149.9000000001397,,rt_thecrossant_black,443762,,black_plus_sign,,,,50,,,1,0.9787234042553191,,,,,,,,,,,,,,,,,,,,,,,
null,,color_black,443869,,black_plus_sign,,,,null,,,,,,,,,,,,,,,,,,,,,,,,,,,
null,,learn_phase(without_color),446886,,black_plus_sign,,,,null,GW/leesburg.png,GW/cornwall.png,,,,,,,,,,,,,,,,,,,,,,,,,
null,,black_cross(without_color),447671,,blue,,,,null,GW/leesburg.png,GW/cornwall.png,,,,,,,,,,,,,,,,,,,,,,,,,
null,,rt_plussign_withcolor,448175,,blue,,,,null,GW/leesburg.png,GW/cornwall.png,,,,,,,,,,,,,,,,,,,,,,,,,
1255,,rt_thecrossant_black,449401,,black_plus_sign,,,,49,,,1,0.9791666666666666,,,,,,,,,,,,,,,,,,,,,,,
null,,color_black,449509,,black_plus_sign,,,,null,,,,,,,,,,,,,,,,,,,,,,,,,,,
null,,learn_phase(without_color),452522,,black_plus_sign,,,,null,GW/carmel.png,GW/hanover.png,,,,,,,,,,,,,,,,,,,,,,,,,
null,,black_cross(without_color),453434,,blue,,,,null,GW/carmel.png,GW/hanover.png,,,,,,,,,,,,,,,,,,,,,,,,,
null,,rt_plussign_withcolor,453942,,blue,,,,null,GW/carmel.png,GW/hanover.png,,,,,,,,,,,,,,,,,,,,,,,,,
1048.5999999998603,,rt_thecrossant_black,455037,,black_plus_sign,,,,49,,,1,0.9795918367346939,,,,,,,,,,,,,,,,,,,,,,,
null,,color_black,455148,,black_plus_sign,,,,null,,,,,,,,,,,,,,,,,,,,,,,,,,,
null,,learn_phase(without_color),458152,,black_plus_sign,,,,null,GW/boulder.png,GW/cornwall.png,,,,,,,,,,,,,,,,,,,,,,,,,
null,,black_cross(without_color),458830,,blue,,,,null,GW/boulder.png,GW/cornwall.png,,,,,,,,,,,,,,,,,,,,,,,,,
null,,rt_plussign_withcolor,459333,,blue,,,,null,GW/boulder.png,GW/cornwall.png,,,,,,,,,,,,,,,,,,,,,,,,,
1038.1000000000931,,rt_thecrossant_black,460675,,black_plus_sign,,,,49,,,1,0.98,,,,,,,,,,,,,,,,,,,,,,,
null,,color_black,460786,,black_plus_sign,,,,null,,,,,,,,,,,,,,,,,,,,,,,,,,,
null,,learn_phase(without_color),463793,,black_plus_sign,,,,null,GW/carmel.png,GW/huntsville.png,,,,,,,,,,,,,,,,,,,,,,,,,
null,,black_cross(without_color),464619,,blue,,,,null,GW/carmel.png,GW/huntsville.png,,,,,,,,,,,,,,,,,,,,,,,,,
null,,rt_plussign_withcolor,465129,,blue,,,,null,GW/carmel.png,GW/huntsville.png,,,,,,,,,,,,,,,,,,,,,,,,,
994.3000000000466,,rt_thecrossant_black,466322,,black_plus_sign,,,,49,,,1,0.9803921568627451,,,,,,,,,,,,,,,,,,,,,,,
null,,color_black,466424,,black_plus_sign,,,,null,,,,,,,,,,,,,,,,,,,,,,,,,,,
null,,learn_phase(without_color),469428,,black_plus_sign,,,,null,GW/newhope.png,GW/hotsprings.png,,,,,,,,,,,,,,,,,,,,,,,,,
null,,black_cross(without_color),470228,,yellow,,,,null,GW/newhope.png,GW/hotsprings.png,,,,,,,,,,,,,,,,,,,,,,,,,
null,,rt_plussign_withcolor,470736,,yellow,,,,null,GW/newhope.png,GW/hotsprings.png,,,,,,,,,,,,,,,,,,,,,,,,,
1019.4000000001397,,rt_thecrossant_black,471946,,black_plus_sign,,,,50,,,1,0.9807692307692307,,,,,,,,,,,,,,,,,,,,,,,
null,,color_black,472062,,black_plus_sign,,,,null,,,,,,,,,,,,,,,,,,,,,,,,,,,
null,,learn_phase(without_color),475073,,black_plus_sign,,,,null,GW/hanover.png,GW/peoria.png,,,,,,,,,,,,,,,,,,,,,,,,,
null,,black_cross(without_color),475665,,blue,,,,null,GW/hanover.png,GW/peoria.png,,,,,,,,,,,,,,,,,,,,,,,,,
null,,rt_plussign_withcolor,476169,,blue,,,,null,GW/hanover.png,GW/peoria.png,,,,,,,,,,,,,,,,,,,,,,,,,
901.3000000000466,,rt_thecrossant_black,477600,,black_plus_sign,,,,49,,,1,0.9811320754716981,,,,,,,,,,,,,,,,,,,,,,,
null,,color_black,477708,,black_plus_sign,,,,null,,,,,,,,,,,,,,,,,,,,,,,,,,,
null,,learn_phase(without_color),480715,,black_plus_sign,,,,null,GW/hotsprings.png,GW/cornwall.png,,,,,,,,,,,,,,,,,,,,,,,,,
null,,black_cross(without_color),481667,,yellow,,,,null,GW/hotsprings.png,GW/cornwall.png,,,,,,,,,,,,,,,,,,,,,,,,,
null,,rt_plussign_withcolor,482176,,yellow,,,,null,GW/hotsprings.png,GW/cornwall.png,,,,,,,,,,,,,,,,,,,,,,,,,
936.8999999999069,,rt_thecrossant_black,483237,,black_plus_sign,,,,50,,,1,0.9814814814814815,,,,,,,,,,,,,,,,,,,,,,,
null,,color_black,483353,,black_plus_sign,,,,null,,,,,,,,,,,,,,,,,,,,,,,,,,,
null,,learn_phase(without_color),486369,,black_plus_sign,,,,null,GW/hotsprings.png,GW/cornwall.png,,,,,,,,,,,,,,,,,,,,,,,,,
null,,black_cross(without_color),487191,,blue,,,,null,GW/hotsprings.png,GW/cornwall.png,,,,,,,,,,,,,,,,,,,,,,,,,
null,,rt_plussign_withcolor,487697,,blue,,,,null,GW/hotsprings.png,GW/cornwall.png,,,,,,,,,,,,,,,,,,,,,,,,,
1111.6999999999534,,rt_thecrossant_black,488882,,black_plus_sign,,,,49,,,1,0.9818181818181818,,,,,,,,,,,,,,,,,,,,,,,
null,,color_black,488991,,black_plus_sign,,,,null,,,,,,,,,,,,,,,,,,,,,,,,,,,
null,,learn_phase(without_color),491994,,black_plus_sign,,,,null,GW/gatlinburg.png,GW/peoria.png,,,,,,,,,,,,,,,,,,,,,,,,,
null,,black_cross(without_color),492821,,blue,,,,null,GW/gatlinburg.png,GW/peoria.png,,,,,,,,,,,,,,,,,,,,,,,,,
null,,rt_plussign_withcolor,493330,,blue,,,,null,GW/gatlinburg.png,GW/peoria.png,,,,,,,,,,,,,,,,,,,,,,,,,
1004.1000000000931,,rt_thecrossant_black,494514,,black_plus_sign,,,,49,,,1,0.9821428571428571,,,,,,,,,,,,,,,,,,,,,,,
null,,color_black,494623,,black_plus_sign,,,,null,,,,,,,,,,,,,,,,,,,,,,,,,,,
null,,learn_phase(without_color),497625,,black_plus_sign,,,,null,GW/newhope.png,GW/hotsprings.png,,,,,,,,,,,,,,,,,,,,,,,,,
null,,black_cross(without_color),498569,,blue,,,,null,GW/newhope.png,GW/hotsprings.png,,,,,,,,,,,,,,,,,,,,,,,,,
null,,rt_plussign_withcolor,499079,,blue,,,,null,GW/newhope.png,GW/hotsprings.png,,,,,,,,,,,,,,,,,,,,,,,,,
1067.3000000000466,,rt_thecrossant_black,500144,,black_plus_sign,,,,49,,,1,0.9824561403508771,,,,,,,,,,,,,,,,,,,,,,,
null,,color_black,500247,,black_plus_sign,,,,null,,,,,,,,,,,,,,,,,,,,,,,,,,,
null,,learn_phase(without_color),503256,,black_plus_sign,,,,null,GW/peoria.png,GW/gatlinburg.png,,,,,,,,,,,,,,,,,,,,,,,,,
null,,black_cross(without_color),504228,,yellow,,,,null,GW/peoria.png,GW/gatlinburg.png,,,,,,,,,,,,,,,,,,,,,,,,,
null,,rt_plussign_withcolor,504737,,yellow,,,,null,GW/peoria.png,GW/gatlinburg.png,,,,,,,,,,,,,,,,,,,,,,,,,
1742.5,,rt_thecrossant_black,505779,,black_plus_sign,,,,50,,,1,0.9827586206896551,,,,,,,,,,,,,,,,,,,,,,,
null,,color_black,505886,,black_plus_sign,,,,null,,,,,,,,,,,,,,,,,,,,,,,,,,,
null,,learn_phase(without_color),508892,,black_plus_sign,,,,null,GW/carmel.png,GW/hanover.png,,,,,,,,,,,,,,,,,,,,,,,,,
null,,black_cross(without_color),510002,,blue,,,,null,GW/carmel.png,GW/hanover.png,,,,,,,,,,,,,,,,,,,,,,,,,
null,,rt_plussign_withcolor,510506,,blue,,,,null,GW/carmel.png,GW/hanover.png,,,,,,,,,,,,,,,,,,,,,,,,,
1284.6999999999534,,rt_thecrossant_black,511420,,black_plus_sign,,,,49,,,1,0.9830508474576272,,,,,,,,,,,,,,,,,,,,,,,
null,,color_black,511525,,black_plus_sign,,,,null,,,,,,,,,,,,,,,,,,,,,,,,,,,
null,,learn_phase(without_color),514529,,black_plus_sign,,,,null,GW/huntsville.png,GW/peoria.png,,,,,,,,,,,,,,,,,,,,,,,,,
null,,black_cross(without_color),515403,,blue,,,,null,GW/huntsville.png,GW/peoria.png,,,,,,,,,,,,,,,,,,,,,,,,,
null,,rt_plussign_withcolor,515913,,blue,,,,null,GW/huntsville.png,GW/peoria.png,,,,,,,,,,,,,,,,,,,,,,,,,
1316.1000000000931,,rt_thecrossant_black,517051,,black_plus_sign,,,,49,,,1,0.9833333333333333,,,,,,,,,,,,,,,,,,,,,,,
null,,color_black,517161,,black_plus_sign,,,,null,,,,,,,,,,,,,,,,,,,,,,,,,,,
null,,learn_phase(without_color),520172,,black_plus_sign,,,,null,GW/cornwall.png,GW/hotsprings.png,,,,,,,,,,,,,,,,,,,,,,,,,
null,,black_cross(without_color),521167,,yellow,,,,null,GW/cornwall.png,GW/hotsprings.png,,,,,,,,,,,,,,,,,,,,,,,,,
null,,rt_plussign_withcolor,521681,,yellow,,,,null,GW/cornwall.png,GW/hotsprings.png,,,,,,,,,,,,,,,,,,,,,,,,,
1259.5,,rt_thecrossant_black,522708,,black_plus_sign,,,,50,,,1,0.9836065573770492,,,,,,,,,,,,,,,,,,,,,,,
null,,color_black,522825,,black_plus_sign,,,,null,,,,,,,,,,,,,,,,,,,,,,,,,,,
null,,learn_phase(without_color),525835,,black_plus_sign,,,,null,GW/westpalmbeach.png,GW/huntsville.png,,,,,,,,,,,,,,,,,,,,,,,,,
null,,black_cross(without_color),526536,,blue,,,,null,GW/westpalmbeach.png,GW/huntsville.png,,,,,,,,,,,,,,,,,,,,,,,,,
null,,rt_plussign_withcolor,527045,,blue,,,,null,GW/westpalmbeach.png,GW/huntsville.png,,,,,,,,,,,,,,,,,,,,,,,,,
1426,,rt_thecrossant_black,528360,,black_plus_sign,,,,49,,,1,0.9838709677419355,,,,,,,,,,,,,,,,,,,,,,,
null,,color_black,528471,,black_plus_sign,,,,null,,,,,,,,,,,,,,,,,,,,,,,,,,,
null,,learn_phase(without_color),531474,,black_plus_sign,,,,null,GW/westpalmbeach.png,GW/peoria.png,,,,,,,,,,,,,,,,,,,,,,,,,
null,,black_cross(without_color),532151,,blue,,,,null,GW/westpalmbeach.png,GW/peoria.png,,,,,,,,,,,,,,,,,,,,,,,,,
null,,rt_plussign_withcolor,532660,,blue,,,,null,GW/westpalmbeach.png,GW/peoria.png,,,,,,,,,,,,,,,,,,,,,,,,,
891.1999999999534,,rt_thecrossant_black,533994,,black_plus_sign,,,,49,,,1,0.9841269841269841,,,,,,,,,,,,,,,,,,,,,,,
null,,color_black,534101,,black_plus_sign,,,,null,,,,,,,,,,,,,,,,,,,,,,,,,,,
null,,learn_phase(without_color),537106,,black_plus_sign,,,,null,GW/boulder.png,GW/cornwall.png,,,,,,,,,,,,,,,,,,,,,,,,,
null,,black_cross(without_color),537760,,yellow,,,,null,GW/boulder.png,GW/cornwall.png,,,,,,,,,,,,,,,,,,,,,,,,,
null,,rt_plussign_withcolor,538269,,yellow,,,,null,GW/boulder.png,GW/cornwall.png,,,,,,,,,,,,,,,,,,,,,,,,,
1320.8000000000466,,rt_thecrossant_black,539622,,black_plus_sign,,,,50,,,1,0.984375,,,,,,,,,,,,,,,,,,,,,,,
null,,color_black,539731,,black_plus_sign,,,,null,,,,,,,,,,,,,,,,,,,,,,,,,,,
14055.799999999814,,learn_break,553789,,learn_break,,,,32,,,,,,,,,,,,,,,,,,,,,,,,,,,
null,,html-keyboard-response,554795,,<p></p>,,,,null,,,,,,,,,,,,,,,,,,,,,,,,,,,
null,,learn_phase(without_color),557799,,black_plus_sign,,,,null,GW/gatlinburg.png,GW/westpalmbeach.png,,,,,,,,,,,,,,,,,,,,,,,,,
null,,black_cross(without_color),558282,,yellow,,,,null,GW/gatlinburg.png,GW/westpalmbeach.png,,,,,,,,,,,,,,,,,,,,,,,,,
null,,rt_plussign_withcolor,558796,,yellow,,,,null,GW/gatlinburg.png,GW/westpalmbeach.png,,,,,,,,,,,,,,,,,,,,,,,,,
949.0999999998603,,rt_thecrossant_black,560322,,black_plus_sign,,,,50,,,1,0.9846153846153847,,,,,,,,,,,,,,,,,,,,,,,
null,,color_black,560431,,black_plus_sign,,,,null,,,,,,,,,,,,,,,,,,,,,,,,,,,
null,,learn_phase(without_color),563437,,black_plus_sign,,,,null,GW/boulder.png,GW/cornwall.png,,,,,,,,,,,,,,,,,,,,,,,,,
null,,black_cross(without_color),564500,,yellow,,,,null,GW/boulder.png,GW/cornwall.png,,,,,,,,,,,,,,,,,,,,,,,,,
null,,rt_plussign_withcolor,565007,,yellow,,,,null,GW/boulder.png,GW/cornwall.png,,,,,,,,,,,,,,,,,,,,,,,,,
775.1999999999534,,rt_thecrossant_black,565969,,black_plus_sign,,,,50,,,1,0.9848484848484849,,,,,,,,,,,,,,,,,,,,,,,
null,,color_black,566084,,black_plus_sign,,,,null,,,,,,,,,,,,,,,,,,,,,,,,,,,
null,,learn_phase(without_color),569095,,black_plus_sign,,,,null,GW/carmel.png,GW/huntsville.png,,,,,,,,,,,,,,,,,,,,,,,,,
null,,black_cross(without_color),569637,,blue,,,,null,GW/carmel.png,GW/huntsville.png,,,,,,,,,,,,,,,,,,,,,,,,,
null,,rt_plussign_withcolor,570142,,blue,,,,null,GW/carmel.png,GW/huntsville.png,,,,,,,,,,,,,,,,,,,,,,,,,
1317.4000000001397,,rt_thecrossant_black,571616,,black_plus_sign,,,,49,,,1,0.9850746268656716,,,,,,,,,,,,,,,,,,,,,,,
null,,color_black,571719,,black_plus_sign,,,,null,,,,,,,,,,,,,,,,,,,,,,,,,,,
null,,learn_phase(without_color),574728,,black_plus_sign,,,,null,GW/peoria.png,GW/gatlinburg.png,,,,,,,,,,,,,,,,,,,,,,,,,
null,,black_cross(without_color),575780,,yellow,,,,null,GW/peoria.png,GW/gatlinburg.png,,,,,,,,,,,,,,,,,,,,,,,,,
null,,rt_plussign_withcolor,576288,,yellow,,,,null,GW/peoria.png,GW/gatlinburg.png,,,,,,,,,,,,,,,,,,,,,,,,,
704,,rt_thecrossant_black,577251,,black_plus_sign,,,,50,,,1,0.9852941176470589,,,,,,,,,,,,,,,,,,,,,,,
null,,color_black,577353,,black_plus_sign,,,,null,,,,,,,,,,,,,,,,,,,,,,,,,,,
null,,learn_phase(without_color),580365,,black_plus_sign,,,,null,GW/westpalmbeach.png,GW/huntsville.png,,,,,,,,,,,,,,,,,,,,,,,,,
null,,black_cross(without_color),580841,,blue,,,,null,GW/westpalmbeach.png,GW/huntsville.png,,,,,,,,,,,,,,,,,,,,,,,,,
null,,rt_plussign_withcolor,581346,,blue,,,,null,GW/westpalmbeach.png,GW/huntsville.png,,,,,,,,,,,,,,,,,,,,,,,,,
1272.6999999999534,,rt_thecrossant_black,582893,,black_plus_sign,,,,49,,,1,0.9855072463768116,,,,,,,,,,,,,,,,,,,,,,,
null,,color_black,582999,,black_plus_sign,,,,null,,,,,,,,,,,,,,,,,,,,,,,,,,,
null,,learn_phase(without_color),586009,,black_plus_sign,,,,null,GW/leesburg.png,GW/cornwall.png,,,,,,,,,,,,,,,,,,,,,,,,,
null,,black_cross(without_color),586764,,blue,,,,null,GW/leesburg.png,GW/cornwall.png,,,,,,,,,,,,,,,,,,,,,,,,,
463.9000000001397,,rt_plussign_withcolor,587267,,blue,,,,50,GW/leesburg.png,GW/cornwall.png,,,,,,,,,,,,,,,,,,,,,,,,,
null,,rt_thecrossant_black,588543,,black_plus_sign,,,,49,,,0,0.9714285714285714,,,,,,,,,,,,,,,,,,,,,,,
null,,color_black,588655,,black_plus_sign,,,,null,,,,,,,,,,,,,,,,,,,,,,,,,,,
null,,learn_phase(without_color),591668,,black_plus_sign,,,,null,GW/shreveport.png,GW/gatlinburg.png,,,,,,,,,,,,,,,,,,,,,,,,,
null,,black_cross(without_color),592402,,blue,,,,null,GW/shreveport.png,GW/gatlinburg.png,,,,,,,,,,,,,,,,,,,,,,,,,
null,,rt_plussign_withcolor,592912,,blue,,,,null,GW/shreveport.png,GW/gatlinburg.png,,,,,,,,,,,,,,,,,,,,,,,,,
982.5,,rt_thecrossant_black,594185,,black_plus_sign,,,,49,,,1,0.971830985915493,,,,,,,,,,,,,,,,,,,,,,,
null,,color_black,594294,,black_plus_sign,,,,null,,,,,,,,,,,,,,,,,,,,,,,,,,,
null,,learn_phase(without_color),597301,,black_plus_sign,,,,null,GW/carmel.png,GW/huntsville.png,,,,,,,,,,,,,,,,,,,,,,,,,
null,,black_cross(without_color),598168,,yellow,,,,null,GW/carmel.png,GW/huntsville.png,,,,,,,,,,,,,,,,,,,,,,,,,
501.69999999995343,,rt_plussign_withcolor,598672,,yellow,,,,50,GW/carmel.png,GW/huntsville.png,,,,,,,,,,,,,,,,,,,,,,,,,
null,,rt_thecrossant_black,599823,,black_plus_sign,,,,null,,,1,0.9722222222222222,,,,,,,,,,,,,,,,,,,,,,,
null,,color_black,599931,,black_plus_sign,,,,null,,,,,,,,,,,,,,,,,,,,,,,,,,,
null,,learn_phase(without_color),602949,,black_plus_sign,,,,null,GW/westpalmbeach.png,GW/gatlinburg.png,,,,,,,,,,,,,,,,,,,,,,,,,
null,,black_cross(without_color),603755,,yellow,,,,null,GW/westpalmbeach.png,GW/gatlinburg.png,,,,,,,,,,,,,,,,,,,,,,,,,
null,,rt_plussign_withcolor,604273,,yellow,,,,null,GW/westpalmbeach.png,GW/gatlinburg.png,,,,,,,,,,,,,,,,,,,,,,,,,
1088.2999999998137,,rt_thecrossant_black,605491,,black_plus_sign,,,,50,,,1,0.9726027397260274,,,,,,,,,,,,,,,,,,,,,,,
null,,color_black,605598,,black_plus_sign,,,,null,,,,,,,,,,,,,,,,,,,,,,,,,,,
null,,learn_phase(without_color),608607,,black_plus_sign,,,,null,GW/leesburg.png,GW/cornwall.png,,,,,,,,,,,,,,,,,,,,,,,,,
null,,black_cross(without_color),609400,,yellow,,,,null,GW/leesburg.png,GW/cornwall.png,,,,,,,,,,,,,,,,,,,,,,,,,
null,,rt_plussign_withcolor,609908,,yellow,,,,null,GW/leesburg.png,GW/cornwall.png,,,,,,,,,,,,,,,,,,,,,,,,,
1321.3999999999069,,rt_thecrossant_black,611143,,black_plus_sign,,,,50,,,1,0.972972972972973,,,,,,,,,,,,,,,,,,,,,,,
null,,color_black,611252,,black_plus_sign,,,,null,,,,,,,,,,,,,,,,,,,,,,,,,,,
null,,learn_phase(without_color),614259,,black_plus_sign,,,,null,GW/hotsprings.png,GW/newhope.png,,,,,,,,,,,,,,,,,,,,,,,,,
null,,black_cross(without_color),615125,,yellow,,,,null,GW/hotsprings.png,GW/newhope.png,,,,,,,,,,,,,,,,,,,,,,,,,
493.70000000018626,,rt_plussign_withcolor,615638,,yellow,,,,50,GW/hotsprings.png,GW/newhope.png,,,,,,,,,,,,,,,,,,,,,,,,,
null,,rt_thecrossant_black,616783,,black_plus_sign,,,,null,,,1,0.9733333333333334,,,,,,,,,,,,,,,,,,,,,,,
null,,color_black,616893,,black_plus_sign,,,,null,,,,,,,,,,,,,,,,,,,,,,,,,,,
null,,learn_phase(without_color),619900,,black_plus_sign,,,,null,GW/hotsprings.png,GW/cornwall.png,,,,,,,,,,,,,,,,,,,,,,,,,
null,,black_cross(without_color),620321,,yellow,,,,null,GW/hotsprings.png,GW/cornwall.png,,,,,,,,,,,,,,,,,,,,,,,,,
null,,rt_plussign_withcolor,620827,,yellow,,,,null,GW/hotsprings.png,GW/cornwall.png,,,,,,,,,,,,,,,,,,,,,,,,,
1140.6000000000931,,rt_thecrossant_black,622419,,black_plus_sign,,,,50,,,1,0.9736842105263158,,,,,,,,,,,,,,,,,,,,,,,
null,,color_black,622527,,black_plus_sign,,,,null,,,,,,,,,,,,,,,,,,,,,,,,,,,
null,,learn_phase(without_color),625540,,black_plus_sign,,,,null,GW/leesburg.png,GW/cornwall.png,,,,,,,,,,,,,,,,,,,,,,,,,
null,,black_cross(without_color),626629,,yellow,,,,null,GW/leesburg.png,GW/cornwall.png,,,,,,,,,,,,,,,,,,,,,,,,,
490.5,,rt_plussign_withcolor,627134,,yellow,,,,50,GW/leesburg.png,GW/cornwall.png,,,,,,,,,,,,,,,,,,,,,,,,,
null,,rt_thecrossant_black,628063,,black_plus_sign,,,,null,,,1,0.974025974025974,,,,,,,,,,,,,,,,,,,,,,,
null,,color_black,628170,,black_plus_sign,,,,null,,,,,,,,,,,,,,,,,,,,,,,,,,,
null,,learn_phase(without_color),631179,,black_plus_sign,,,,null,GW/huntsville.png,GW/carmel.png,,,,,,,,,,,,,,,,,,,,,,,,,
null,,black_cross(without_color),632045,,blue,,,,null,GW/huntsville.png,GW/carmel.png,,,,,,,,,,,,,,,,,,,,,,,,,
null,,rt_plussign_withcolor,632554,,blue,,,,null,GW/huntsville.png,GW/carmel.png,,,,,,,,,,,,,,,,,,,,,,,,,
1186.1999999999534,,rt_thecrossant_black,633705,,black_plus_sign,,,,49,,,1,0.9743589743589743,,,,,,,,,,,,,,,,,,,,,,,
null,,color_black,633816,,black_plus_sign,,,,null,,,,,,,,,,,,,,,,,,,,,,,,,,,
null,,learn_phase(without_color),636830,,black_plus_sign,,,,null,GW/peoria.png,GW/hanover.png,,,,,,,,,,,,,,,,,,,,,,,,,
null,,black_cross(without_color),637703,,yellow,,,,null,GW/peoria.png,GW/hanover.png,,,,,,,,,,,,,,,,,,,,,,,,,
null,,rt_plussign_withcolor,638205,,yellow,,,,null,GW/peoria.png,GW/hanover.png,,,,,,,,,,,,,,,,,,,,,,,,,
1046.4000000001397,,rt_thecrossant_black,639345,,black_plus_sign,,,,50,,,1,0.9746835443037974,,,,,,,,,,,,,,,,,,,,,,,
null,,color_black,639451,,black_plus_sign,,,,null,,,,,,,,,,,,,,,,,,,,,,,,,,,
null,,learn_phase(without_color),642455,,black_plus_sign,,,,null,GW/westpalmbeach.png,GW/racine.png,,,,,,,,,,,,,,,,,,,,,,,,,
null,,black_cross(without_color),643531,,blue,,,,null,GW/westpalmbeach.png,GW/racine.png,,,,,,,,,,,,,,,,,,,,,,,,,
443.19999999995343,,rt_plussign_withcolor,644036,,blue,,,,49,GW/westpalmbeach.png,GW/racine.png,,,,,,,,,,,,,,,,,,,,,,,,,
null,,rt_thecrossant_black,644982,,black_plus_sign,,,,null,,,1,0.975,,,,,,,,,,,,,,,,,,,,,,,
null,,color_black,645089,,black_plus_sign,,,,null,,,,,,,,,,,,,,,,,,,,,,,,,,,
null,,learn_phase(without_color),648092,,black_plus_sign,,,,null,GW/leesburg.png,GW/cornwall.png,,,,,,,,,,,,,,,,,,,,,,,,,
null,,black_cross(without_color),648827,,blue,,,,null,GW/leesburg.png,GW/cornwall.png,,,,,,,,,,,,,,,,,,,,,,,,,
null,,rt_plussign_withcolor,649330,,blue,,,,null,GW/leesburg.png,GW/cornwall.png,,,,,,,,,,,,,,,,,,,,,,,,,
1230,,rt_thecrossant_black,650612,,black_plus_sign,,,,49,,,1,0.9753086419753086,,,,,,,,,,,,,,,,,,,,,,,
null,,color_black,650720,,black_plus_sign,,,,null,,,,,,,,,,,,,,,,,,,,,,,,,,,
null,,learn_phase(without_color),653731,,black_plus_sign,,,,null,GW/gatlinburg.png,GW/shreveport.png,,,,,,,,,,,,,,,,,,,,,,,,,
null,,black_cross(without_color),654514,,blue,,,,null,GW/gatlinburg.png,GW/shreveport.png,,,,,,,,,,,,,,,,,,,,,,,,,
445.60000000009313,,rt_plussign_withcolor,655015,,blue,,,,49,GW/gatlinburg.png,GW/shreveport.png,,,,,,,,,,,,,,,,,,,,,,,,,
null,,rt_thecrossant_black,656259,,black_plus_sign,,,,null,,,1,0.975609756097561,,,,,,,,,,,,,,,,,,,,,,,
null,,color_black,656376,,black_plus_sign,,,,null,,,,,,,,,,,,,,,,,,,,,,,,,,,
null,,learn_phase(without_color),659381,,black_plus_sign,,,,null,GW/boulder.png,GW/cornwall.png,,,,,,,,,,,,,,,,,,,,,,,,,
null,,black_cross(without_color),660087,,blue,,,,null,GW/boulder.png,GW/cornwall.png,,,,,,,,,,,,,,,,,,,,,,,,,
null,,rt_plussign_withcolor,660604,,blue,,,,null,GW/boulder.png,GW/cornwall.png,,,,,,,,,,,,,,,,,,,,,,,,,
882.6000000000931,,rt_thecrossant_black,661907,,black_plus_sign,,,,49,,,1,0.9759036144578314,,,,,,,,,,,,,,,,,,,,,,,
null,,color_black,662014,,black_plus_sign,,,,null,,,,,,,,,,,,,,,,,,,,,,,,,,,
null,,learn_phase(without_color),665020,,black_plus_sign,,,,null,GW/gatlinburg.png,GW/westpalmbeach.png,,,,,,,,,,,,,,,,,,,,,,,,,
null,,black_cross(without_color),665439,,yellow,,,,null,GW/gatlinburg.png,GW/westpalmbeach.png,,,,,,,,,,,,,,,,,,,,,,,,,
null,,rt_plussign_withcolor,665941,,yellow,,,,null,GW/gatlinburg.png,GW/westpalmbeach.png,,,,,,,,,,,,,,,,,,,,,,,,,
841.5,,rt_thecrossant_black,667545,,black_plus_sign,,,,50,,,1,0.9761904761904762,,,,,,,,,,,,,,,,,,,,,,,
null,,color_black,667653,,black_plus_sign,,,,null,,,,,,,,,,,,,,,,,,,,,,,,,,,
null,,learn_phase(without_color),670663,,black_plus_sign,,,,null,GW/carmel.png,GW/hanover.png,,,,,,,,,,,,,,,,,,,,,,,,,
null,,black_cross(without_color),671745,,blue,,,,null,GW/carmel.png,GW/hanover.png,,,,,,,,,,,,,,,,,,,,,,,,,
null,,rt_plussign_withcolor,672262,,blue,,,,null,GW/carmel.png,GW/hanover.png,,,,,,,,,,,,,,,,,,,,,,,,,
729.3000000000466,,rt_thecrossant_black,673199,,black_plus_sign,,,,50,,,0,0.9647058823529412,,,,,,,,,,,,,,,,,,,,,,,
null,,color_black,673313,,black_plus_sign,,,,null,,,,,,,,,,,,,,,,,,,,,,,,,,,
null,,learn_phase(without_color),676319,,black_plus_sign,,,,null,GW/leesburg.png,GW/cornwall.png,,,,,,,,,,,,,,,,,,,,,,,,,
null,,black_cross(without_color),677266,,blue,,,,null,GW/leesburg.png,GW/cornwall.png,,,,,,,,,,,,,,,,,,,,,,,,,
null,,rt_plussign_withcolor,677780,,blue,,,,null,GW/leesburg.png,GW/cornwall.png,,,,,,,,,,,,,,,,,,,,,,,,,
1420,,rt_thecrossant_black,678847,,black_plus_sign,,,,49,,,1,0.9651162790697675,,,,,,,,,,,,,,,,,,,,,,,
null,,color_black,678964,,black_plus_sign,,,,null,,,,,,,,,,,,,,,,,,,,,,,,,,,
null,,learn_phase(without_color),681969,,black_plus_sign,,,,null,GW/huntsville.png,GW/peoria.png,,,,,,,,,,,,,,,,,,,,,,,,,
null,,black_cross(without_color),682871,,yellow,,,,null,GW/huntsville.png,GW/peoria.png,,,,,,,,,,,,,,,,,,,,,,,,,
null,,rt_plussign_withcolor,683379,,yellow,,,,null,GW/huntsville.png,GW/peoria.png,,,,,,,,,,,,,,,,,,,,,,,,,
1254.1999999999534,,rt_thecrossant_black,684491,,black_plus_sign,,,,50,,,1,0.9655172413793104,,,,,,,,,,,,,,,,,,,,,,,
null,,color_black,684599,,black_plus_sign,,,,null,,,,,,,,,,,,,,,,,,,,,,,,,,,
null,,learn_phase(without_color),687617,,black_plus_sign,,,,null,GW/gatlinburg.png,GW/peoria.png,,,,,,,,,,,,,,,,,,,,,,,,,
null,,black_cross(without_color),688611,,yellow,,,,null,GW/gatlinburg.png,GW/peoria.png,,,,,,,,,,,,,,,,,,,,,,,,,
null,,rt_plussign_withcolor,689121,,yellow,,,,null,GW/gatlinburg.png,GW/peoria.png,,,,,,,,,,,,,,,,,,,,,,,,,
1186.1999999999534,,rt_thecrossant_black,690136,,black_plus_sign,,,,50,,,1,0.9659090909090909,,,,,,,,,,,,,,,,,,,,,,,
null,,color_black,690253,,black_plus_sign,,,,null,,,,,,,,,,,,,,,,,,,,,,,,,,,
null,,learn_phase(without_color),693262,,black_plus_sign,,,,null,GW/peoria.png,GW/westpalmbeach.png,,,,,,,,,,,,,,,,,,,,,,,,,
null,,black_cross(without_color),693726,,blue,,,,null,GW/peoria.png,GW/westpalmbeach.png,,,,,,,,,,,,,,,,,,,,,,,,,
null,,rt_plussign_withcolor,694236,,blue,,,,null,GW/peoria.png,GW/westpalmbeach.png,,,,,,,,,,,,,,,,,,,,,,,,,
1345.1000000000931,,rt_thecrossant_black,695781,,black_plus_sign,,,,49,,,1,0.9662921348314607,,,,,,,,,,,,,,,,,,,,,,,
null,,color_black,695890,,black_plus_sign,,,,null,,,,,,,,,,,,,,,,,,,,,,,,,,,
null,,learn_phase(without_color),698892,,black_plus_sign,,,,null,GW/hotsprings.png,GW/newhope.png,,,,,,,,,,,,,,,,,,,,,,,,,
null,,black_cross(without_color),699784,,yellow,,,,null,GW/hotsprings.png,GW/newhope.png,,,,,,,,,,,,,,,,,,,,,,,,,
null,,rt_plussign_withcolor,700293,,yellow,,,,null,GW/hotsprings.png,GW/newhope.png,,,,,,,,,,,,,,,,,,,,,,,,,
964.6999999999534,,rt_thecrossant_black,701422,,black_plus_sign,,,,50,,,1,0.9666666666666667,,,,,,,,,,,,,,,,,,,,,,,
null,,color_black,701530,,black_plus_sign,,,,null,,,,,,,,,,,,,,,,,,,,,,,,,,,
null,,learn_phase(without_color),704540,,black_plus_sign,,,,null,GW/racine.png,GW/westpalmbeach.png,,,,,,,,,,,,,,,,,,,,,,,,,
null,,black_cross(without_color),705483,,yellow,,,,null,GW/racine.png,GW/westpalmbeach.png,,,,,,,,,,,,,,,,,,,,,,,,,
null,,rt_plussign_withcolor,705996,,yellow,,,,null,GW/racine.png,GW/westpalmbeach.png,,,,,,,,,,,,,,,,,,,,,,,,,
1055.8000000000466,,rt_thecrossant_black,707068,,black_plus_sign,,,,50,,,1,0.967032967032967,,,,,,,,,,,,,,,,,,,,,,,
null,,color_black,707176,,black_plus_sign,,,,null,,,,,,,,,,,,,,,,,,,,,,,,,,,
null,,learn_phase(without_color),710182,,black_plus_sign,,,,null,GW/peoria.png,GW/gatlinburg.png,,,,,,,,,,,,,,,,,,,,,,,,,
null,,black_cross(without_color),711289,,blue,,,,null,GW/peoria.png,GW/gatlinburg.png,,,,,,,,,,,,,,,,,,,,,,,,,
null,,rt_plussign_withcolor,711798,,blue,,,,null,GW/peoria.png,GW/gatlinburg.png,,,,,,,,,,,,,,,,,,,,,,,,,
1180,,rt_thecrossant_black,712710,,black_plus_sign,,,,49,,,1,0.967391304347826,,,,,,,,,,,,,,,,,,,,,,,
null,,color_black,712829,,black_plus_sign,,,,null,,,,,,,,,,,,,,,,,,,,,,,,,,,
null,,learn_phase(without_color),715832,,black_plus_sign,,,,null,GW/peoria.png,GW/westpalmbeach.png,,,,,,,,,,,,,,,,,,,,,,,,,
null,,black_cross(without_color),716724,,yellow,,,,null,GW/peoria.png,GW/westpalmbeach.png,,,,,,,,,,,,,,,,,,,,,,,,,
null,,rt_plussign_withcolor,717246,,yellow,,,,null,GW/peoria.png,GW/westpalmbeach.png,,,,,,,,,,,,,,,,,,,,,,,,,
1427.5999999998603,,rt_thecrossant_black,718360,,black_plus_sign,,,,50,,,1,0.967741935483871,,,,,,,,,,,,,,,,,,,,,,,
null,,color_black,718478,,black_plus_sign,,,,null,,,,,,,,,,,,,,,,,,,,,,,,,,,
null,,learn_phase(without_color),721486,,black_plus_sign,,,,null,GW/cornwall.png,GW/boulder.png,,,,,,,,,,,,,,,,,,,,,,,,,
null,,black_cross(without_color),721971,,yellow,,,,null,GW/cornwall.png,GW/boulder.png,,,,,,,,,,,,,,,,,,,,,,,,,
null,,rt_plussign_withcolor,722476,,yellow,,,,null,GW/cornwall.png,GW/boulder.png,,,,,,,,,,,,,,,,,,,,,,,,,
1092.7000000001863,,rt_thecrossant_black,724016,,black_plus_sign,,,,50,,,1,0.9680851063829787,,,,,,,,,,,,,,,,,,,,,,,
null,,color_black,724136,,black_plus_sign,,,,null,,,,,,,,,,,,,,,,,,,,,,,,,,,
null,,learn_phase(without_color),727147,,black_plus_sign,,,,null,GW/cornwall.png,GW/boulder.png,,,,,,,,,,,,,,,,,,,,,,,,,
null,,black_cross(without_color),727763,,yellow,,,,null,GW/cornwall.png,GW/boulder.png,,,,,,,,,,,,,,,,,,,,,,,,,
null,,rt_plussign_withcolor,728280,,yellow,,,,null,GW/cornwall.png,GW/boulder.png,,,,,,,,,,,,,,,,,,,,,,,,,
579.8999999999069,,rt_thecrossant_black,729690,,black_plus_sign,,,,50,,,1,0.968421052631579,,,,,,,,,,,,,,,,,,,,,,,
null,,color_black,729799,,black_plus_sign,,,,null,,,,,,,,,,,,,,,,,,,,,,,,,,,
null,,learn_phase(without_color),732805,,black_plus_sign,,,,null,GW/hotsprings.png,GW/cornwall.png,,,,,,,,,,,,,,,,,,,,,,,,,
null,,black_cross(without_color),733776,,yellow,,,,null,GW/hotsprings.png,GW/cornwall.png,,,,,,,,,,,,,,,,,,,,,,,,,
null,,rt_plussign_withcolor,734282,,yellow,,,,null,GW/hotsprings.png,GW/cornwall.png,,,,,,,,,,,,,,,,,,,,,,,,,
866.1999999999534,,rt_thecrossant_black,735323,,black_plus_sign,,,,50,,,1,0.96875,,,,,,,,,,,,,,,,,,,,,,,
null,,color_black,735432,,black_plus_sign,,,,null,,,,,,,,,,,,,,,,,,,,,,,,,,,
null,,learn_phase(without_color),738439,,black_plus_sign,,,,null,GW/westpalmbeach.png,GW/huntsville.png,,,,,,,,,,,,,,,,,,,,,,,,,
null,,black_cross(without_color),739311,,blue,,,,null,GW/westpalmbeach.png,GW/huntsville.png,,,,,,,,,,,,,,,,,,,,,,,,,
null,,rt_plussign_withcolor,739820,,blue,,,,null,GW/westpalmbeach.png,GW/huntsville.png,,,,,,,,,,,,,,,,,,,,,,,,,
1195,,rt_thecrossant_black,740956,,black_plus_sign,,,,49,,,1,0.9690721649484536,,,,,,,,,,,,,,,,,,,,,,,
null,,color_black,741071,,black_plus_sign,,,,null,,,,,,,,,,,,,,,,,,,,,,,,,,,
null,,learn_phase(without_color),744080,,black_plus_sign,,,,null,GW/carmel.png,GW/hanover.png,,,,,,,,,,,,,,,,,,,,,,,,,
null,,black_cross(without_color),744611,,yellow,,,,null,GW/carmel.png,GW/hanover.png,,,,,,,,,,,,,,,,,,,,,,,,,
null,,rt_plussign_withcolor,745114,,yellow,,,,null,GW/carmel.png,GW/hanover.png,,,,,,,,,,,,,,,,,,,,,,,,,
1055.5,,rt_thecrossant_black,746603,,black_plus_sign,,,,50,,,1,0.9693877551020408,,,,,,,,,,,,,,,,,,,,,,,
null,,color_black,746713,,black_plus_sign,,,,null,,,,,,,,,,,,,,,,,,,,,,,,,,,
null,,learn_phase(without_color),749723,,black_plus_sign,,,,null,GW/boulder.png,GW/cornwall.png,,,,,,,,,,,,,,,,,,,,,,,,,
null,,black_cross(without_color),750526,,blue,,,,null,GW/boulder.png,GW/cornwall.png,,,,,,,,,,,,,,,,,,,,,,,,,
null,,rt_plussign_withcolor,751033,,blue,,,,null,GW/boulder.png,GW/cornwall.png,,,,,,,,,,,,,,,,,,,,,,,,,
744.3999999999069,,rt_thecrossant_black,752252,,black_plus_sign,,,,49,,,1,0.9696969696969697,,,,,,,,,,,,,,,,,,,,,,,
null,,color_black,752360,,black_plus_sign,,,,null,,,,,,,,,,,,,,,,,,,,,,,,,,,
null,,learn_phase(without_color),755367,,black_plus_sign,,,,null,GW/gatlinburg.png,GW/peoria.png,,,,,,,,,,,,,,,,,,,,,,,,,
null,,black_cross(without_color),756092,,blue,,,,null,GW/gatlinburg.png,GW/peoria.png,,,,,,,,,,,,,,,,,,,,,,,,,
null,,rt_plussign_withcolor,756602,,blue,,,,null,GW/gatlinburg.png,GW/peoria.png,,,,,,,,,,,,,,,,,,,,,,,,,
959.8000000000466,,rt_thecrossant_black,757896,,black_plus_sign,,,,49,,,1,0.97,,,,,,,,,,,,,,,,,,,,,,,
null,,color_black,758003,,black_plus_sign,,,,null,,,,,,,,,,,,,,,,,,,,,,,,,,,
null,,learn_phase(without_color),761009,,black_plus_sign,,,,null,GW/carmel.png,GW/hotsprings.png,,,,,,,,,,,,,,,,,,,,,,,,,
null,,black_cross(without_color),762077,,yellow,,,,null,GW/carmel.png,GW/hotsprings.png,,,,,,,,,,,,,,,,,,,,,,,,,
null,,rt_plussign_withcolor,762586,,yellow,,,,null,GW/carmel.png,GW/hotsprings.png,,,,,,,,,,,,,,,,,,,,,,,,,
941.8000000000466,,rt_thecrossant_black,763530,,black_plus_sign,,,,50,,,1,0.9702970297029703,,,,,,,,,,,,,,,,,,,,,,,
null,,color_black,763645,,black_plus_sign,,,,null,,,,,,,,,,,,,,,,,,,,,,,,,,,
null,,learn_phase(without_color),766648,,black_plus_sign,,,,null,GW/hotsprings.png,GW/newhope.png,,,,,,,,,,,,,,,,,,,,,,,,,
null,,black_cross(without_color),767724,,yellow,,,,null,GW/hotsprings.png,GW/newhope.png,,,,,,,,,,,,,,,,,,,,,,,,,
null,,rt_plussign_withcolor,768234,,yellow,,,,null,GW/hotsprings.png,GW/newhope.png,,,,,,,,,,,,,,,,,,,,,,,,,
1281.8999999999069,,rt_thecrossant_black,769176,,black_plus_sign,,,,50,,,1,0.9705882352941176,,,,,,,,,,,,,,,,,,,,,,,
null,,color_black,769285,,black_plus_sign,,,,null,,,,,,,,,,,,,,,,,,,,,,,,,,,
null,,learn_phase(without_color),772290,,black_plus_sign,,,,null,GW/shreveport.png,GW/gatlinburg.png,,,,,,,,,,,,,,,,,,,,,,,,,
null,,black_cross(without_color),773209,,blue,,,,null,GW/shreveport.png,GW/gatlinburg.png,,,,,,,,,,,,,,,,,,,,,,,,,
null,,rt_plussign_withcolor,773714,,blue,,,,null,GW/shreveport.png,GW/gatlinburg.png,,,,,,,,,,,,,,,,,,,,,,,,,
1653.6999999999534,,rt_thecrossant_black,774812,,black_plus_sign,,,,49,,,1,0.970873786407767,,,,,,,,,,,,,,,,,,,,,,,
null,,color_black,774915,,black_plus_sign,,,,null,,,,,,,,,,,,,,,,,,,,,,,,,,,
null,,learn_phase(without_color),777920,,black_plus_sign,,,,null,GW/boulder.png,GW/hanover.png,,,,,,,,,,,,,,,,,,,,,,,,,
null,,black_cross(without_color),778789,,blue,,,,null,GW/boulder.png,GW/hanover.png,,,,,,,,,,,,,,,,,,,,,,,,,
null,,rt_plussign_withcolor,779302,,blue,,,,null,GW/boulder.png,GW/hanover.png,,,,,,,,,,,,,,,,,,,,,,,,,
1338.6000000000931,,rt_thecrossant_black,780446,,black_plus_sign,,,,49,,,1,0.9711538461538461,,,,,,,,,,,,,,,,,,,,,,,
null,,color_black,780549,,black_plus_sign,,,,null,,,,,,,,,,,,,,,,,,,,,,,,,,,
null,,learn_phase(without_color),783559,,black_plus_sign,,,,null,GW/hotsprings.png,GW/newhope.png,,,,,,,,,,,,,,,,,,,,,,,,,
null,,black_cross(without_color),784136,,blue,,,,null,GW/hotsprings.png,GW/newhope.png,,,,,,,,,,,,,,,,,,,,,,,,,
null,,rt_plussign_withcolor,784640,,blue,,,,null,GW/hotsprings.png,GW/newhope.png,,,,,,,,,,,,,,,,,,,,,,,,,
1035.2999999998137,,rt_thecrossant_black,786087,,black_plus_sign,,,,49,,,1,0.9714285714285714,,,,,,,,,,,,,,,,,,,,,,,
null,,color_black,786196,,black_plus_sign,,,,null,,,,,,,,,,,,,,,,,,,,,,,,,,,
null,,learn_phase(without_color),789200,,black_plus_sign,,,,null,GW/boulder.png,GW/hanover.png,,,,,,,,,,,,,,,,,,,,,,,,,
null,,black_cross(without_color),790060,,blue,,,,null,GW/boulder.png,GW/hanover.png,,,,,,,,,,,,,,,,,,,,,,,,,
null,,rt_plussign_withcolor,790571,,blue,,,,null,GW/boulder.png,GW/hanover.png,,,,,,,,,,,,,,,,,,,,,,,,,
797.5,,rt_thecrossant_black,791722,,black_plus_sign,,,,49,,,1,0.9716981132075472,,,,,,,,,,,,,,,,,,,,,,,
null,,color_black,791829,,black_plus_sign,,,,null,,,,,,,,,,,,,,,,,,,,,,,,,,,
null,,learn_phase(without_color),794840,,black_plus_sign,,,,null,GW/huntsville.png,GW/westpalmbeach.png,,,,,,,,,,,,,,,,,,,,,,,,,
null,,black_cross(without_color),795323,,blue,,,,null,GW/huntsville.png,GW/westpalmbeach.png,,,,,,,,,,,,,,,,,,,,,,,,,
null,,rt_plussign_withcolor,795831,,blue,,,,null,GW/huntsville.png,GW/westpalmbeach.png,,,,,,,,,,,,,,,,,,,,,,,,,
1147.8000000000466,,rt_thecrossant_black,797364,,black_plus_sign,,,,49,,,1,0.9719626168224299,,,,,,,,,,,,,,,,,,,,,,,
null,,color_black,797481,,black_plus_sign,,,,null,,,,,,,,,,,,,,,,,,,,,,,,,,,
null,,learn_phase(without_color),800491,,black_plus_sign,,,,null,GW/racine.png,GW/westpalmbeach.png,,,,,,,,,,,,,,,,,,,,,,,,,
null,,black_cross(without_color),800919,,blue,,,,null,GW/racine.png,GW/westpalmbeach.png,,,,,,,,,,,,,,,,,,,,,,,,,
null,,rt_plussign_withcolor,801429,,blue,,,,null,GW/racine.png,GW/westpalmbeach.png,,,,,,,,,,,,,,,,,,,,,,,,,
722.5,,rt_thecrossant_black,803017,,black_plus_sign,,,,49,,,1,0.9722222222222222,,,,,,,,,,,,,,,,,,,,,,,
null,,color_black,803120,,black_plus_sign,,,,null,,,,,,,,,,,,,,,,,,,,,,,,,,,
null,,learn_phase(without_color),806135,,black_plus_sign,,,,null,GW/peoria.png,GW/hanover.png,,,,,,,,,,,,,,,,,,,,,,,,,
null,,black_cross(without_color),806639,,yellow,,,,null,GW/peoria.png,GW/hanover.png,,,,,,,,,,,,,,,,,,,,,,,,,
null,,rt_plussign_withcolor,807148,,yellow,,,,null,GW/peoria.png,GW/hanover.png,,,,,,,,,,,,,,,,,,,,,,,,,
846.3999999999069,,rt_thecrossant_black,808670,,black_plus_sign,,,,50,,,1,0.9724770642201835,,,,,,,,,,,,,,,,,,,,,,,
null,,color_black,808778,,black_plus_sign,,,,null,,,,,,,,,,,,,,,,,,,,,,,,,,,
null,,learn_phase(without_color),811783,,black_plus_sign,,,,null,GW/westpalmbeach.png,GW/racine.png,,,,,,,,,,,,,,,,,,,,,,,,,
null,,black_cross(without_color),812279,,blue,,,,null,GW/westpalmbeach.png,GW/racine.png,,,,,,,,,,,,,,,,,,,,,,,,,
null,,rt_plussign_withcolor,812797,,blue,,,,null,GW/westpalmbeach.png,GW/racine.png,,,,,,,,,,,,,,,,,,,,,,,,,
880,,rt_thecrossant_black,814312,,black_plus_sign,,,,49,,,1,0.9727272727272728,,,,,,,,,,,,,,,,,,,,,,,
null,,color_black,814421,,black_plus_sign,,,,null,,,,,,,,,,,,,,,,,,,,,,,,,,,
null,,learn_phase(without_color),817424,,black_plus_sign,,,,null,GW/gatlinburg.png,GW/westpalmbeach.png,,,,,,,,,,,,,,,,,,,,,,,,,
null,,black_cross(without_color),818192,,blue,,,,null,GW/gatlinburg.png,GW/westpalmbeach.png,,,,,,,,,,,,,,,,,,,,,,,,,
null,,rt_plussign_withcolor,818710,,blue,,,,null,GW/gatlinburg.png,GW/westpalmbeach.png,,,,,,,,,,,,,,,,,,,,,,,,,
836.7999999998137,,rt_thecrossant_black,819956,,black_plus_sign,,,,49,,,1,0.972972972972973,,,,,,,,,,,,,,,,,,,,,,,
null,,color_black,820066,,black_plus_sign,,,,null,,,,,,,,,,,,,,,,,,,,,,,,,,,
null,,learn_phase(without_color),823073,,black_plus_sign,,,,null,GW/westpalmbeach.png,GW/huntsville.png,,,,,,,,,,,,,,,,,,,,,,,,,
null,,black_cross(without_color),823847,,blue,,,,null,GW/westpalmbeach.png,GW/huntsville.png,,,,,,,,,,,,,,,,,,,,,,,,,
null,,rt_plussign_withcolor,824351,,blue,,,,null,GW/westpalmbeach.png,GW/huntsville.png,,,,,,,,,,,,,,,,,,,,,,,,,
984.2000000001863,,rt_thecrossant_black,825603,,black_plus_sign,,,,49,,,1,0.9732142857142857,,,,,,,,,,,,,,,,,,,,,,,
null,,color_black,825706,,black_plus_sign,,,,null,,,,,,,,,,,,,,,,,,,,,,,,,,,
null,,learn_phase(without_color),828713,,black_plus_sign,,,,null,GW/racine.png,GW/westpalmbeach.png,,,,,,,,,,,,,,,,,,,,,,,,,
null,,black_cross(without_color),829442,,blue,,,,null,GW/racine.png,GW/westpalmbeach.png,,,,,,,,,,,,,,,,,,,,,,,,,
null,,rt_plussign_withcolor,829953,,blue,,,,null,GW/racine.png,GW/westpalmbeach.png,,,,,,,,,,,,,,,,,,,,,,,,,
917,,rt_thecrossant_black,831242,,black_plus_sign,,,,49,,,1,0.9734513274336283,,,,,,,,,,,,,,,,,,,,,,,
null,,color_black,831350,,black_plus_sign,,,,null,,,,,,,,,,,,,,,,,,,,,,,,,,,
null,,learn_phase(without_color),834362,,black_plus_sign,,,,null,GW/huntsville.png,GW/carmel.png,,,,,,,,,,,,,,,,,,,,,,,,,
null,,black_cross(without_color),835255,,yellow,,,,null,GW/huntsville.png,GW/carmel.png,,,,,,,,,,,,,,,,,,,,,,,,,
null,,rt_plussign_withcolor,835759,,yellow,,,,null,GW/huntsville.png,GW/carmel.png,,,,,,,,,,,,,,,,,,,,,,,,,
868.8000000000466,,rt_thecrossant_black,836880,,black_plus_sign,,,,50,,,1,0.9736842105263158,,,,,,,,,,,,,,,,,,,,,,,
null,,color_black,836988,,black_plus_sign,,,,null,,,,,,,,,,,,,,,,,,,,,,,,,,,
null,,learn_phase(without_color),839996,,black_plus_sign,,,,null,GW/peoria.png,GW/hanover.png,,,,,,,,,,,,,,,,,,,,,,,,,
null,,black_cross(without_color),840944,,blue,,,,null,GW/peoria.png,GW/hanover.png,,,,,,,,,,,,,,,,,,,,,,,,,
424.80000000004657,,rt_plussign_withcolor,841458,,blue,,,,49,GW/peoria.png,GW/hanover.png,,,,,,,,,,,,,,,,,,,,,,,,,
null,,rt_thecrossant_black,842525,,black_plus_sign,,,,null,,,1,0.9739130434782609,,,,,,,,,,,,,,,,,,,,,,,
null,,color_black,842639,,black_plus_sign,,,,null,,,,,,,,,,,,,,,,,,,,,,,,,,,
null,,learn_phase(without_color),845647,,black_plus_sign,,,,null,GW/gatlinburg.png,GW/shreveport.png,,,,,,,,,,,,,,,,,,,,,,,,,
null,,black_cross(without_color),846535,,blue,,,,null,GW/gatlinburg.png,GW/shreveport.png,,,,,,,,,,,,,,,,,,,,,,,,,
null,,rt_plussign_withcolor,847037,,blue,,,,null,GW/gatlinburg.png,GW/shreveport.png,,,,,,,,,,,,,,,,,,,,,,,,,
1357.3999999999069,,rt_thecrossant_black,848164,,black_plus_sign,,,,49,,,1,0.9741379310344828,,,,,,,,,,,,,,,,,,,,,,,
null,,color_black,848271,,black_plus_sign,,,,null,,,,,,,,,,,,,,,,,,,,,,,,,,,
null,,learn_phase(without_color),851281,,black_plus_sign,,,,null,GW/shreveport.png,GW/gatlinburg.png,,,,,,,,,,,,,,,,,,,,,,,,,
null,,black_cross(without_color),852064,,yellow,,,,null,GW/shreveport.png,GW/gatlinburg.png,,,,,,,,,,,,,,,,,,,,,,,,,
null,,rt_plussign_withcolor,852566,,yellow,,,,null,GW/shreveport.png,GW/gatlinburg.png,,,,,,,,,,,,,,,,,,,,,,,,,
1432.1999999999534,,rt_thecrossant_black,853791,,black_plus_sign,,,,50,,,1,0.9743589743589743,,,,,,,,,,,,,,,,,,,,,,,
null,,color_black,853899,,black_plus_sign,,,,null,,,,,,,,,,,,,,,,,,,,,,,,,,,
null,,learn_phase(without_color),856910,,black_plus_sign,,,,null,GW/cornwall.png,GW/hotsprings.png,,,,,,,,,,,,,,,,,,,,,,,,,
null,,black_cross(without_color),857342,,blue,,,,null,GW/cornwall.png,GW/hotsprings.png,,,,,,,,,,,,,,,,,,,,,,,,,
null,,rt_plussign_withcolor,857860,,blue,,,,null,GW/cornwall.png,GW/hotsprings.png,,,,,,,,,,,,,,,,,,,,,,,,,
1442.7000000001863,,rt_thecrossant_black,859450,,black_plus_sign,,,,49,,,1,0.9745762711864406,,,,,,,,,,,,,,,,,,,,,,,
null,,color_black,859558,,black_plus_sign,,,,null,,,,,,,,,,,,,,,,,,,,,,,,,,,
null,,learn_phase(without_color),862569,,black_plus_sign,,,,null,GW/huntsville.png,GW/westpalmbeach.png,,,,,,,,,,,,,,,,,,,,,,,,,
null,,black_cross(without_color),863020,,yellow,,,,null,GW/huntsville.png,GW/westpalmbeach.png,,,,,,,,,,,,,,,,,,,,,,,,,
null,,rt_plussign_withcolor,863533,,yellow,,,,null,GW/huntsville.png,GW/westpalmbeach.png,,,,,,,,,,,,,,,,,,,,,,,,,
831.9000000001397,,rt_thecrossant_black,865101,,black_plus_sign,,,,50,,,1,0.9747899159663865,,,,,,,,,,,,,,,,,,,,,,,
null,,color_black,865206,,black_plus_sign,,,,null,,,,,,,,,,,,,,,,,,,,,,,,,,,
null,,learn_phase(without_color),868221,,black_plus_sign,,,,null,GW/hotsprings.png,GW/carmel.png,,,,,,,,,,,,,,,,,,,,,,,,,
null,,black_cross(without_color),868751,,yellow,,,,null,GW/hotsprings.png,GW/carmel.png,,,,,,,,,,,,,,,,,,,,,,,,,
null,,rt_plussign_withcolor,869261,,yellow,,,,null,GW/hotsprings.png,GW/carmel.png,,,,,,,,,,,,,,,,,,,,,,,,,
961.5,,rt_thecrossant_black,870756,,black_plus_sign,,,,50,,,1,0.975,,,,,,,,,,,,,,,,,,,,,,,
null,,color_black,870871,,black_plus_sign,,,,null,,,,,,,,,,,,,,,,,,,,,,,,,,,
null,,learn_phase(without_color),873887,,black_plus_sign,,,,null,GW/hotsprings.png,GW/newhope.png,,,,,,,,,,,,,,,,,,,,,,,,,
null,,black_cross(without_color),874631,,yellow,,,,null,GW/hotsprings.png,GW/newhope.png,,,,,,,,,,,,,,,,,,,,,,,,,
null,,rt_plussign_withcolor,875135,,yellow,,,,null,GW/hotsprings.png,GW/newhope.png,,,,,,,,,,,,,,,,,,,,,,,,,
858.2000000001863,,rt_thecrossant_black,876406,,black_plus_sign,,,,50,,,1,0.9752066115702479,,,,,,,,,,,,,,,,,,,,,,,
null,,color_black,876515,,black_plus_sign,,,,null,,,,,,,,,,,,,,,,,,,,,,,,,,,
null,,learn_phase(without_color),879526,,black_plus_sign,,,,null,GW/hanover.png,GW/boulder.png,,,,,,,,,,,,,,,,,,,,,,,,,
null,,black_cross(without_color),880383,,yellow,,,,null,GW/hanover.png,GW/boulder.png,,,,,,,,,,,,,,,,,,,,,,,,,
null,,rt_plussign_withcolor,880889,,yellow,,,,null,GW/hanover.png,GW/boulder.png,,,,,,,,,,,,,,,,,,,,,,,,,
1099.1999999999534,,rt_thecrossant_black,882055,,black_plus_sign,,,,50,,,1,0.9754098360655737,,,,,,,,,,,,,,,,,,,,,,,
null,,color_black,882164,,black_plus_sign,,,,null,,,,,,,,,,,,,,,,,,,,,,,,,,,
null,,learn_phase(without_color),885173,,black_plus_sign,,,,null,GW/hanover.png,GW/boulder.png,,,,,,,,,,,,,,,,,,,,,,,,,
null,,black_cross(without_color),886133,,yellow,,,,null,GW/hanover.png,GW/boulder.png,,,,,,,,,,,,,,,,,,,,,,,,,
null,,rt_plussign_withcolor,886641,,yellow,,,,null,GW/hanover.png,GW/boulder.png,,,,,,,,,,,,,,,,,,,,,,,,,
1052.3000000000466,,rt_thecrossant_black,887693,,black_plus_sign,,,,50,,,1,0.975609756097561,,,,,,,,,,,,,,,,,,,,,,,
null,,color_black,887800,,black_plus_sign,,,,null,,,,,,,,,,,,,,,,,,,,,,,,,,,
null,,learn_phase(without_color),890819,,black_plus_sign,,,,null,GW/huntsville.png,GW/westpalmbeach.png,,,,,,,,,,,,,,,,,,,,,,,,,
null,,black_cross(without_color),891247,,blue,,,,null,GW/huntsville.png,GW/westpalmbeach.png,,,,,,,,,,,,,,,,,,,,,,,,,
null,,rt_plussign_withcolor,891756,,blue,,,,null,GW/huntsville.png,GW/westpalmbeach.png,,,,,,,,,,,,,,,,,,,,,,,,,
1213.5999999998603,,rt_thecrossant_black,893344,,black_plus_sign,,,,49,,,1,0.9758064516129032,,,,,,,,,,,,,,,,,,,,,,,
null,,color_black,893452,,black_plus_sign,,,,null,,,,,,,,,,,,,,,,,,,,,,,,,,,
null,,learn_phase(without_color),896457,,black_plus_sign,,,,null,GW/westpalmbeach.png,GW/gatlinburg.png,,,,,,,,,,,,,,,,,,,,,,,,,
null,,black_cross(without_color),897281,,yellow,,,,null,GW/westpalmbeach.png,GW/gatlinburg.png,,,,,,,,,,,,,,,,,,,,,,,,,
null,,rt_plussign_withcolor,897796,,yellow,,,,null,GW/westpalmbeach.png,GW/gatlinburg.png,,,,,,,,,,,,,,,,,,,,,,,,,
1165.5,,rt_thecrossant_black,898999,,black_plus_sign,,,,50,,,1,0.976,,,,,,,,,,,,,,,,,,,,,,,
null,,color_black,899108,,black_plus_sign,,,,null,,,,,,,,,,,,,,,,,,,,,,,,,,,
null,,learn_phase(without_color),902125,,black_plus_sign,,,,null,GW/carmel.png,GW/huntsville.png,,,,,,,,,,,,,,,,,,,,,,,,,
null,,black_cross(without_color),902736,,yellow,,,,null,GW/carmel.png,GW/huntsville.png,,,,,,,,,,,,,,,,,,,,,,,,,
null,,rt_plussign_withcolor,903244,,yellow,,,,null,GW/carmel.png,GW/huntsville.png,,,,,,,,,,,,,,,,,,,,,,,,,
1266.8999999999069,,rt_thecrossant_black,904649,,black_plus_sign,,,,50,,,1,0.9761904761904762,,,,,,,,,,,,,,,,,,,,,,,
null,,color_black,904766,,black_plus_sign,,,,null,,,,,,,,,,,,,,,,,,,,,,,,,,,
null,,learn_phase(without_color),907772,,black_plus_sign,,,,null,GW/carmel.png,GW/hanover.png,,,,,,,,,,,,,,,,,,,,,,,,,
null,,black_cross(without_color),908644,,yellow,,,,null,GW/carmel.png,GW/hanover.png,,,,,,,,,,,,,,,,,,,,,,,,,
null,,rt_plussign_withcolor,909152,,yellow,,,,null,GW/carmel.png,GW/hanover.png,,,,,,,,,,,,,,,,,,,,,,,,,
984.2000000001863,,rt_thecrossant_black,910285,,black_plus_sign,,,,50,,,1,0.9763779527559056,,,,,,,,,,,,,,,,,,,,,,,
null,,color_black,910394,,black_plus_sign,,,,null,,,,,,,,,,,,,,,,,,,,,,,,,,,
null,,learn_phase(without_color),913402,,black_plus_sign,,,,null,GW/hotsprings.png,GW/carmel.png,,,,,,,,,,,,,,,,,,,,,,,,,
null,,black_cross(without_color),914260,,yellow,,,,null,GW/hotsprings.png,GW/carmel.png,,,,,,,,,,,,,,,,,,,,,,,,,
null,,rt_plussign_withcolor,914769,,yellow,,,,null,GW/hotsprings.png,GW/carmel.png,,,,,,,,,,,,,,,,,,,,,,,,,
1246.7999999998137,,rt_thecrossant_black,915922,,black_plus_sign,,,,50,,,1,0.9765625,,,,,,,,,,,,,,,,,,,,,,,
null,,color_black,916029,,black_plus_sign,,,,null,,,,,,,,,,,,,,,,,,,,,,,,,,,
30200.199999999953,,learn_break,946232,,learn_break,,,,32,,,,,,,,,,,,,,,,,,,,,,,,,,,
27719.799999999814,,intro_1,973953,,instruct,,0,Start,,,,,,,,,,,,,,,,,,,,,,,,,,,,
4002.7999999998137,,directmemory_phase,977958,,GW/huntsville.png,,,,50,,,1,1,GW/gatlinburg.png,GW/peoria.png,GW/shreveport.png,GW/peoria.png,GW/gatlinburg.png,GW/shreveport.png,1,,,,,,,,,,,,,,,,
null,,html-keyboard-response,978966,,<p></p>,,,,null,,,,,,,,,,,,,,,,,,,,,,,,,,,
3018.600000000093,,directmemory_phase,981986,,GW/westpalmbeach.png,,,,51,,,1,1,GW/boulder.png,GW/carmel.png,GW/racine.png,GW/racine.png,GW/carmel.png,GW/boulder.png,1,,,,,,,,,,,,,,,,
null,,html-keyboard-response,982991,,<p></p>,,,,null,,,,,,,,,,,,,,,,,,,,,,,,,,,
2257.2999999998137,,directmemory_phase,985250,,GW/hanover.png,,,,51,,,1,1,GW/racine.png,GW/huntsville.png,GW/peoria.png,GW/peoria.png,GW/huntsville.png,GW/racine.png,1,,,,,,,,,,,,,,,,
null,,html-keyboard-response,986254,,<p></p>,,,,null,,,,,,,,,,,,,,,,,,,,,,,,,,,
2276.399999999907,,directmemory_phase,988532,,GW/westpalmbeach.png,,,,51,,,1,1,GW/hotsprings.png,GW/hanover.png,GW/huntsville.png,GW/huntsville.png,GW/hanover.png,GW/hotsprings.png,1,,,,,,,,,,,,,,,,
null,,html-keyboard-response,989544,,<p></p>,,,,null,,,,,,,,,,,,,,,,,,,,,,,,,,,
2414.899999999907,,directmemory_phase,991961,,GW/carmel.png,,,,51,,,1,1,GW/shreveport.png,GW/boulder.png,GW/hanover.png,GW/hanover.png,GW/boulder.png,GW/shreveport.png,1,,,,,,,,,,,,,,,,
null,,html-keyboard-response,992969,,<p></p>,,,,null,,,,,,,,,,,,,,,,,,,,,,,,,,,
2811,,directmemory_phase,995781,,GW/peoria.png,,,,50,,,1,1,GW/boulder.png,GW/huntsville.png,GW/hotsprings.png,GW/huntsville.png,GW/boulder.png,GW/hotsprings.png,1,,,,,,,,,,,,,,,,
null,,html-keyboard-response,996794,,<p></p>,,,,null,,,,,,,,,,,,,,,,,,,,,,,,,,,
2490.100000000093,,directmemory_phase,999285,,GW/boulder.png,,,,51,,,1,1,GW/westpalmbeach.png,GW/leesburg.png,GW/hanover.png,GW/hanover.png,GW/leesburg.png,GW/westpalmbeach.png,1,,,,,,,,,,,,,,,,
null,,html-keyboard-response,1000293,,<p></p>,,,,null,,,,,,,,,,,,,,,,,,,,,,,,,,,
2730,,directmemory_phase,1003024,,GW/peoria.png,,,,49,,,0,0.875,GW/boulder.png,GW/westpalmbeach.png,GW/cornwall.png,GW/westpalmbeach.png,GW/boulder.png,GW/cornwall.png,0.5,closer,,,,,,,,,,,,,,,
null,,html-keyboard-response,1004034,,<p></p>,,,,null,,,,,,,,,,,,,,,,,,,,,,,,,,,
4660,,directmemory_phase,1008695,,GW/carmel.png,,,,51,,,1,0.8888888888888888,GW/shreveport.png,GW/newhope.png,GW/huntsville.png,GW/huntsville.png,GW/newhope.png,GW/shreveport.png,1,,,,,,,,,,,,,,,,
null,,html-keyboard-response,1009698,,<p></p>,,,,null,,,,,,,,,,,,,,,,,,,,,,,,,,,
2813.7999999998137,,directmemory_phase,1012514,,GW/westpalmbeach.png,,,,51,,,1,0.9,GW/cornwall.png,GW/shreveport.png,GW/peoria.png,GW/peoria.png,GW/shreveport.png,GW/cornwall.png,1,,,,,,,,,,,,,,,,
null,,html-keyboard-response,1013526,,<p></p>,,,,null,,,,,,,,,,,,,,,,,,,,,,,,,,,
1792.2999999998137,,directmemory_phase,1015320,,GW/carmel.png,,,,49,,,1,0.9090909090909091,GW/hotsprings.png,GW/shreveport.png,GW/peoria.png,GW/hotsprings.png,GW/peoria.png,GW/shreveport.png,1,,,,,,,,,,,,,,,,
null,,html-keyboard-response,1016327,,<p></p>,,,,null,,,,,,,,,,,,,,,,,,,,,,,,,,,
2261.600000000093,,directmemory_phase,1018590,,GW/peoria.png,,,,51,,,1,0.9166666666666666,GW/hotsprings.png,GW/shreveport.png,GW/gatlinburg.png,GW/gatlinburg.png,GW/shreveport.png,GW/hotsprings.png,1,,,,,,,,,,,,,,,,
null,,html-keyboard-response,1019598,,<p></p>,,,,null,,,,,,,,,,,,,,,,,,,,,,,,,,,
2248.7999999998137,,directmemory_phase,1021849,,GW/hotsprings.png,,,,51,,,1,0.9230769230769231,GW/peoria.png,GW/boulder.png,GW/newhope.png,GW/newhope.png,GW/boulder.png,GW/peoria.png,1,,,,,,,,,,,,,,,,
null,,html-keyboard-response,1022860,,<p></p>,,,,null,,,,,,,,,,,,,,,,,,,,,,,,,,,
3013.5,,directmemory_phase,1025875,,GW/peoria.png,,,,51,,,1,0.9285714285714286,GW/hotsprings.png,GW/boulder.png,GW/hanover.png,GW/hanover.png,GW/boulder.png,GW/hotsprings.png,1,,,,,,,,,,,,,,,,
null,,html-keyboard-response,1026885,,<p></p>,,,,null,,,,,,,,,,,,,,,,,,,,,,,,,,,
1770.3999999999069,,directmemory_phase,1028656,,GW/hotsprings.png,,,,49,,,1,0.9333333333333333,GW/carmel.png,GW/gatlinburg.png,GW/leesburg.png,GW/carmel.png,GW/leesburg.png,GW/gatlinburg.png,1,,,,,,,,,,,,,,,,
null,,html-keyboard-response,1029664,,<p></p>,,,,null,,,,,,,,,,,,,,,,,,,,,,,,,,,
2684.6999999997206,,directmemory_phase,1032351,,GW/gatlinburg.png,,,,49,,,1,0.9375,GW/peoria.png,GW/cornwall.png,GW/racine.png,GW/peoria.png,GW/racine.png,GW/cornwall.png,1,,,,,,,,,,,,,,,,
null,,html-keyboard-response,1033363,,<p></p>,,,,null,,,,,,,,,,,,,,,,,,,,,,,,,,,
2342.5,,directmemory_phase,1035707,,GW/huntsville.png,,,,50,,,1,0.9411764705882353,GW/gatlinburg.png,GW/westpalmbeach.png,GW/leesburg.png,GW/westpalmbeach.png,GW/gatlinburg.png,GW/leesburg.png,1,,,,,,,,,,,,,,,,
null,,html-keyboard-response,1036710,,<p></p>,,,,null,,,,,,,,,,,,,,,,,,,,,,,,,,,
2111.600000000093,,directmemory_phase,1038823,,GW/hanover.png,,,,51,,,1,0.9444444444444444,GW/newhope.png,GW/hotsprings.png,GW/carmel.png,GW/carmel.png,GW/hotsprings.png,GW/newhope.png,1,,,,,,,,,,,,,,,,
null,,html-keyboard-response,1039843,,<p></p>,,,,null,,,,,,,,,,,,,,,,,,,,,,,,,,,
2006.3000000002794,,directmemory_phase,1041851,,GW/hotsprings.png,,,,51,,,1,0.9473684210526315,GW/racine.png,GW/huntsville.png,GW/cornwall.png,GW/cornwall.png,GW/huntsville.png,GW/racine.png,1,,,,,,,,,,,,,,,,
null,,html-keyboard-response,1042859,,<p></p>,,,,null,,,,,,,,,,,,,,,,,,,,,,,,,,,
1539.8000000002794,,directmemory_phase,1044400,,GW/hanover.png,,,,51,,,1,0.95,GW/shreveport.png,GW/huntsville.png,GW/boulder.png,GW/boulder.png,GW/huntsville.png,GW/shreveport.png,1,,,,,,,,,,,,,,,,
null,,html-keyboard-response,1045412,,<p></p>,,,,null,,,,,,,,,,,,,,,,,,,,,,,,,,,
1836.1999999997206,,directmemory_phase,1047249,,GW/cornwall.png,,,,51,,,1,0.9523809523809523,GW/gatlinburg.png,GW/hanover.png,GW/leesburg.png,GW/leesburg.png,GW/hanover.png,GW/gatlinburg.png,1,,,,,,,,,,,,,,,,
null,,html-keyboard-response,1048260,,<p></p>,,,,null,,,,,,,,,,,,,,,,,,,,,,,,,,,
1726.3999999999069,,directmemory_phase,1049988,,GW/gatlinburg.png,,,,49,,,1,0.9545454545454546,GW/shreveport.png,GW/boulder.png,GW/hanover.png,GW/shreveport.png,GW/hanover.png,GW/boulder.png,1,,,,,,,,,,,,,,,,
null,,html-keyboard-response,1050991,,<p></p>,,,,null,,,,,,,,,,,,,,,,,,,,,,,,,,,
1565,,directmemory_phase,1052558,,GW/leesburg.png,,,,49,,,1,0.9565217391304348,GW/cornwall.png,GW/hanover.png,GW/boulder.png,GW/cornwall.png,GW/boulder.png,GW/hanover.png,1,,,,,,,,,,,,,,,,
null,,html-keyboard-response,1053573,,<p></p>,,,,null,,,,,,,,,,,,,,,,,,,,,,,,,,,
2279.8000000002794,,directmemory_phase,1055855,,GW/gatlinburg.png,,,,49,,,1,0.9583333333333334,GW/westpalmbeach.png,GW/hotsprings.png,GW/hanover.png,GW/westpalmbeach.png,GW/hanover.png,GW/hotsprings.png,1,,,,,,,,,,,,,,,,
null,,html-keyboard-response,1056869,,<p></p>,,,,null,,,,,,,,,,,,,,,,,,,,,,,,,,,
3428.100000000093,,directmemory_phase,1060299,,GW/cornwall.png,,,,49,,,1,0.96,GW/boulder.png,GW/westpalmbeach.png,GW/newhope.png,GW/boulder.png,GW/newhope.png,GW/westpalmbeach.png,1,,,,,,,,,,,,,,,,
null,,html-keyboard-response,1061305,,<p></p>,,,,null,,,,,,,,,,,,,,,,,,,,,,,,,,,
1557.5,,directmemory_phase,1062864,,GW/racine.png,,,,49,,,1,0.9615384615384616,GW/westpalmbeach.png,GW/boulder.png,GW/gatlinburg.png,GW/westpalmbeach.png,GW/gatlinburg.png,GW/boulder.png,1,,,,,,,,,,,,,,,,
null,,html-keyboard-response,1063883,,<p></p>,,,,null,,,,,,,,,,,,,,,,,,,,,,,,,,,
1532.5999999996275,,directmemory_phase,1065418,,GW/shreveport.png,,,,51,,,1,0.9629629629629629,GW/racine.png,GW/peoria.png,GW/gatlinburg.png,GW/gatlinburg.png,GW/peoria.png,GW/racine.png,1,,,,,,,,,,,,,,,,
null,,html-keyboard-response,1066424,,<p></p>,,,,null,,,,,,,,,,,,,,,,,,,,,,,,,,,
1278.5,,directmemory_phase,1067704,,GW/newhope.png,,,,49,,,1,0.9642857142857143,GW/hotsprings.png,GW/leesburg.png,GW/cornwall.png,GW/hotsprings.png,GW/cornwall.png,GW/leesburg.png,1,,,,,,,,,,,,,,,,
null,,html-keyboard-response,1068711,,<p></p>,,,,null,,,,,,,,,,,,,,,,,,,,,,,,,,,
2024.5,,directmemory_phase,1070738,,GW/westpalmbeach.png,,,,51,,,1,0.9655172413793104,GW/hotsprings.png,GW/hanover.png,GW/gatlinburg.png,GW/gatlinburg.png,GW/hanover.png,GW/hotsprings.png,1,,,,,,,,,,,,,,,,
null,,html-keyboard-response,1071740,,<p></p>,,,,null,,,,,,,,,,,,,,,,,,,,,,,,,,,
2102,,directmemory_phase,1073844,,GW/cornwall.png,,,,50,,,1,0.9666666666666667,GW/carmel.png,GW/hotsprings.png,GW/gatlinburg.png,GW/hotsprings.png,GW/carmel.png,GW/gatlinburg.png,1,,,,,,,,,,,,,,,,
null,,html-keyboard-response,1074853,,<p></p>,,,,null,,,,,,,,,,,,,,,,,,,,,,,,,,,
2352.100000000093,,directmemory_phase,1077206,,GW/huntsville.png,,,,51,,,1,0.967741935483871,GW/cornwall.png,GW/gatlinburg.png,GW/carmel.png,GW/carmel.png,GW/gatlinburg.png,GW/cornwall.png,1,,,,,,,,,,,,,,,,
null,,html-keyboard-response,1078222,,<p></p>,,,,null,,,,,,,,,,,,,,,,,,,,,,,,,,,
3931.899999999907,,directmemory_phase,1082156,,GW/boulder.png,,,,51,,,1,0.96875,GW/newhope.png,GW/carmel.png,GW/cornwall.png,GW/cornwall.png,GW/carmel.png,GW/newhope.png,1,,,,,,,,,,,,,,,,
null,,html-keyboard-response,1083165,,<p></p>,,,,null,,,,,,,,,,,,,,,,,,,,,,,,,,,
15439.5,,intro_1,1098606,,instruct,,0,,,,,,,,,,,,,,,,,,,,,,,,,,,,,
12619.899999999907,,intro_2,1111228,,instruct,,1,Next,,,,,,,,,,,,,,,,,,,,,,,,,,,,
6717.5,,intro_3,1117949,,instruct,,1,Next,,,,,,,,,,,,,,,,,,,,,,,,,,,,
7724.5999999996275,,intro_4,1125676,,instruct,,1,Next,,,,,,,,,,,,,,,,,,,,,,,,,,,,
15612.799999999814,,intro_5,1141291,,instruct,,1,Next,,,,,,,,,,,,,,,,,,,,,,,,,,,,
13942.100000000093,,intro_6,1155236,,instruct,,1,Next,,,,,,,,,,,,,,,,,,,,,,,,,,,,
13268.899999999907,,intro_7,1168507,,instruct,,1,Next,,,,,,,,,,,,,,,,,,,,,,,,,,,,
8245.799999999814,,intro_8,1176756,,instruct,,1,Next,,,,,,,,,,,,,,,,,,,,,,,,,,,,
7202.299999999814,,shortestpath_phase,1183961,,GW/leesburg.png,,,,50,GW/peoria.png,GW/boulder.png,1,1,,,,GW/boulder.png,,,,,Two Edge Diff,Two Edge Four Edge,,,,,,,,,,,,,
null,,html-keyboard-response,1184969,,<p></p>,,,,null,,,,,,,,,,,,,,,,,,,,,,,,,,,
7043.600000000093,,shortestpath_phase,1192015,,GW/newhope.png,,,,49,GW/cornwall.png,GW/shreveport.png,1,1,,,,GW/cornwall.png,,,,,Four Edge Diff,Two Edge Six Edge,,,,,,,,,,,,,
null,,html-keyboard-response,1193025,,<p></p>,,,,null,,,,,,,,,,,,,,,,,,,,,,,,,,,
3311.8000000002794,,shortestpath_phase,1196339,,GW/leesburg.png,,,,49,GW/hotsprings.png,GW/racine.png,1,1,,,,GW/hotsprings.png,,,,,Four Edge Diff,Two Edge Six Edge,,,,,,,,,,,,,
null,,html-keyboard-response,1197356,,<p></p>,,,,null,,,,,,,,,,,,,,,,,,,,,,,,,,,
null,,shortestpath_phase,1204866,,GW/peoria.png,,,,null,GW/shreveport.png,GW/newhope.png,0,0.75,,,,GW/shreveport.png,,,,,Two Edge Diff,Two Edge Four Edge,,,,,,,,,,,,,
null,,warning_page,1207872,,warning,,,,null,,,,,,,,,,,,,,,,,,,,,,,,,,,
null,,html-keyboard-response,1208880,,<p></p>,,,,null,,,,,,,,,,,,,,,,,,,,,,,,,,,
2530.2999999998137,,shortestpath_phase,1211412,,GW/leesburg.png,,,,49,GW/huntsville.png,GW/hanover.png,0,0.6,,,,GW/hanover.png,,,,,One Edge Diff,Three Edge Four Edge,,,,,,,,,,,,,
null,,html-keyboard-response,1212422,,<p></p>,,,,null,,,,,,,,,,,,,,,,,,,,,,,,,,,
3590.3000000002794,,shortestpath_phase,1216014,,GW/racine.png,,,,50,GW/cornwall.png,GW/gatlinburg.png,1,0.6666666666666666,,,,GW/gatlinburg.png,,,,,Three Edge Diff,Three Edge Six Edge,,,,,,,,,,,,,
null,,html-keyboard-response,1217030,,<p></p>,,,,null,,,,,,,,,,,,,,,,,,,,,,,,,,,
3103.8000000002794,,shortestpath_phase,1220136,,GW/shreveport.png,,,,50,GW/hotsprings.png,GW/westpalmbeach.png,1,0.7142857142857143,,,,GW/westpalmbeach.png,,,,,Three Edge Diff,Three Edge Six Edge,,,,,,,,,,,,,
null,,html-keyboard-response,1221145,,<p></p>,,,,null,,,,,,,,,,,,,,,,,,,,,,,,,,,
2827.6999999997206,,shortestpath_phase,1223974,,GW/gatlinburg.png,,,,49,GW/hotsprings.png,GW/carmel.png,0,0.625,,,,GW/carmel.png,,,,,One Edge Diff,Three Edge Four Edge,,,,,,,,,,,,,
null,,html-keyboard-response,1224981,,<p></p>,,,,null,,,,,,,,,,,,,,,,,,,,,,,,,,,
3130.7999999998137,,shortestpath_phase,1228113,,GW/shreveport.png,,,,49,GW/boulder.png,GW/newhope.png,1,0.6666666666666666,,,,GW/boulder.png,,,,,Two Edge Diff,Four Edge Six Edge,,,,,,,,,,,,,
null,,html-keyboard-response,1229127,,<p></p>,,,,null,,,,,,,,,,,,,,,,,,,,,,,,,,,
3458.7000000001863,,shortestpath_phase,1232588,,GW/westpalmbeach.png,,,,50,GW/leesburg.png,GW/carmel.png,1,0.7,,,,GW/carmel.png,,,,,Three Edge Diff,Three Edge Six Edge,,,,,,,,,,,,,
null,,html-keyboard-response,1233593,,<p></p>,,,,null,,,,,,,,,,,,,,,,,,,,,,,,,,,
3745,,shortestpath_phase,1237340,,GW/newhope.png,,,,49,GW/peoria.png,GW/gatlinburg.png,1,0.7272727272727273,,,,GW/peoria.png,,,,,One Edge Diff,Four Edge Five Edge,,,,,,,,,,,,,
null,,html-keyboard-response,1238349,,<p></p>,,,,null,,,,,,,,,,,,,,,,,,,,,,,,,,,
3931.399999999907,,shortestpath_phase,1242282,,GW/boulder.png,,,,50,GW/carmel.png,GW/huntsville.png,0,0.6666666666666666,,,,GW/carmel.png,,,,,One Edge Diff,Two Edge Three Edge,,,,,,,,,,,,,
null,,html-keyboard-response,1243293,,<p></p>,,,,null,,,,,,,,,,,,,,,,,,,,,,,,,,,
4445.100000000093,,shortestpath_phase,1247739,,GW/leesburg.png,,,,50,GW/huntsville.png,GW/shreveport.png,0,0.6153846153846154,,,,GW/huntsville.png,,,,,Two Edge Diff,Four Edge Six Edge,,,,,,,,,,,,,
null,,html-keyboard-response,1248756,,<p></p>,,,,null,,,,,,,,,,,,,,,,,,,,,,,,,,,
3849.100000000093,,shortestpath_phase,1252607,,GW/boulder.png,,,,50,GW/newhope.png,GW/peoria.png,1,0.6428571428571429,,,,GW/peoria.png,,,,,One Edge Diff,Two Edge Three Edge,,,,,,,,,,,,,
null,,html-keyboard-response,1253611,,<p></p>,,,,null,,,,,,,,,,,,,,,,,,,,,,,,,,,
4908.800000000279,,shortestpath_phase,1258521,,GW/shreveport.png,,,,50,GW/cornwall.png,GW/leesburg.png,0,0.6,,,,GW/cornwall.png,,,,,One Edge Diff,Five Edge Six Edge,,,,,,,,,,,,,
null,,html-keyboard-response,1259539,,<p></p>,,,,null,,,,,,,,,,,,,,,,,,,,,,,,,,,
5182.5,,shortestpath_phase,1264723,,GW/leesburg.png,,,,49,GW/boulder.png,GW/gatlinburg.png,1,0.625,,,,GW/boulder.png,,,,,Three Edge Diff,Three Edge Six Edge,,,,,,,,,,,,,
null,,html-keyboard-response,1265728,,<p></p>,,,,null,,,,,,,,,,,,,,,,,,,,,,,,,,,
4521.4000000003725,,shortestpath_phase,1270251,,GW/cornwall.png,,,,50,GW/racine.png,GW/peoria.png,1,0.6470588235294118,,,,GW/peoria.png,,,,,Two Edge Diff,Three Edge Five Edge,,,,,,,,,,,,,
null,,html-keyboard-response,1271268,,<p></p>,,,,null,,,,,,,,,,,,,,,,,,,,,,,,,,,
4394.0999999996275,,shortestpath_phase,1275663,,GW/shreveport.png,,,,49,GW/leesburg.png,GW/carmel.png,0,0.6111111111111112,,,,GW/carmel.png,,,,,Two Edge Diff,Four Edge Six Edge,,,,,,,,,,,,,
null,,html-keyboard-response,1276676,,<p></p>,,,,null,,,,,,,,,,,,,,,,,,,,,,,,,,,
5111.399999999907,,shortestpath_phase,1281790,,GW/racine.png,,,,49,GW/peoria.png,GW/leesburg.png,1,0.631578947368421,,,,GW/peoria.png,,,,,Four Edge Diff,Two Edge Six Edge,,,,,,,,,,,,,
null,,html-keyboard-response,1282796,,<p></p>,,,,null,,,,,,,,,,,,,,,,,,,,,,,,,,,
2527.5,,shortestpath_phase,1285325,,GW/gatlinburg.png,,,,50,GW/hotsprings.png,GW/newhope.png,0,0.6,,,,GW/hotsprings.png,,,,,One Edge Diff,Four Edge Five Edge,,,,,,,,,,,,,
null,,html-keyboard-response,1286329,,<p></p>,,,,null,,,,,,,,,,,,,,,,,,,,,,,,,,,
3204.100000000093,,shortestpath_phase,1289535,,GW/peoria.png,,,,50,GW/leesburg.png,GW/shreveport.png,1,0.6190476190476191,,,,GW/shreveport.png,,,,,Two Edge Diff,Two Edge Four Edge,,,,,,,,,,,,,
null,,html-keyboard-response,1290543,,<p></p>,,,,null,,,,,,,,,,,,,,,,,,,,,,,,,,,
3146.7000000001863,,shortestpath_phase,1293692,,GW/racine.png,,,,50,GW/leesburg.png,GW/boulder.png,1,0.6363636363636364,,,,GW/boulder.png,,,,,Two Edge Diff,Four Edge Six Edge,,,,,,,,,,,,,
null,,html-keyboard-response,1294706,,<p></p>,,,,null,,,,,,,,,,,,,,,,,,,,,,,,,,,
4679.799999999814,,shortestpath_phase,1299388,,GW/cornwall.png,,,,49,GW/carmel.png,GW/shreveport.png,1,0.6521739130434783,,,,GW/carmel.png,,,,,Three Edge Diff,Two Edge Five Edge,,,,,,,,,,,,,
null,,html-keyboard-response,1300403,,<p></p>,,,,null,,,,,,,,,,,,,,,,,,,,,,,,,,,
2385.5,,shortestpath_phase,1302791,,GW/racine.png,,,,49,GW/huntsville.png,GW/newhope.png,1,0.6666666666666666,,,,GW/huntsville.png,,,,,Three Edge Diff,Two Edge Five Edge,,,,,,,,,,,,,
null,,html-keyboard-response,1303797,,<p></p>,,,,null,,,,,,,,,,,,,,,,,,,,,,,,,,,
3618.899999999907,,shortestpath_phase,1307418,,GW/newhope.png,,,,49,GW/westpalmbeach.png,GW/shreveport.png,1,0.68,,,,GW/westpalmbeach.png,,,,,Two Edge Diff,Four Edge Six Edge,,,,,,,,,,,,,
null,,html-keyboard-response,1308425,,<p></p>,,,,null,,,,,,,,,,,,,,,,,,,,,,,,,,,
3371,,shortestpath_phase,1311798,,GW/shreveport.png,,,,49,GW/peoria.png,GW/leesburg.png,1,0.6923076923076923,,,,GW/peoria.png,,,,,Four Edge Diff,Two Edge Six Edge,,,,,,,,,,,,,
null,,html-keyboard-response,1312807,,<p></p>,,,,null,,,,,,,,,,,,,,,,,,,,,,,,,,,
5177.200000000186,,shortestpath_phase,1317986,,GW/leesburg.png,,,,50,GW/racine.png,GW/westpalmbeach.png,1,0.7037037037037037,,,,GW/westpalmbeach.png,,,,,One Edge Diff,Five Edge Six Edge,,,,,,,,,,,,,
null,,html-keyboard-response,1318997,,<p></p>,,,,null,,,,,,,,,,,,,,,,,,,,,,,,,,,
3460.7999999998137,,shortestpath_phase,1322459,,GW/peoria.png,,,,49,GW/carmel.png,GW/newhope.png,1,0.7142857142857143,,,,GW/carmel.png,,,,,Two Edge Diff,Two Edge Four Edge,,,,,,,,,,,,,
null,,html-keyboard-response,1323467,,<p></p>,,,,null,,,,,,,,,,,,,,,,,,,,,,,,,,,
3490,,shortestpath_phase,1326959,,GW/cornwall.png,,,,50,GW/shreveport.png,GW/newhope.png,1,0.7241379310344828,,,,GW/newhope.png,,,,,Three Edge Diff,Two Edge Five Edge,,,,,,,,,,,,,
null,,html-keyboard-response,1327966,,<p></p>,,,,null,,,,,,,,,,,,,,,,,,,,,,,,,,,
4366.0999999996275,,shortestpath_phase,1332334,,GW/leesburg.png,,,,50,GW/shreveport.png,GW/peoria.png,1,0.7333333333333333,,,,GW/peoria.png,,,,,Two Edge Diff,Four Edge Six Edge,,,,,,,,,,,,,
null,,html-keyboard-response,1333350,,<p></p>,,,,null,,,,,,,,,,,,,,,,,,,,,,,,,,,
4123.600000000093,,shortestpath_phase,1337475,,GW/newhope.png,,,,50,GW/shreveport.png,GW/gatlinburg.png,1,0.7419354838709677,,,,GW/gatlinburg.png,,,,,One Edge Diff,Five Edge Six Edge,,,,,,,,,,,,,
null,,html-keyboard-response,1338480,,<p></p>,,,,null,,,,,,,,,,,,,,,,,,,,,,,,,,,
5040.199999999721,,shortestpath_phase,1343522,,GW/peoria.png,,,,49,GW/newhope.png,GW/boulder.png,0,0.71875,,,,GW/boulder.png,,,,,Two Edge Diff,Two Edge Four Edge,,,,,,,,,,,,,
null,,html-keyboard-response,1344525,,<p></p>,,,,null,,,,,,,,,,,,,,,,,,,,,,,,,,,
2749.899999999907,,shortestpath_phase,1347276,,GW/shreveport.png,,,,49,GW/westpalmbeach.png,GW/boulder.png,1,0.7272727272727273,,,,GW/westpalmbeach.png,,,,,Two Edge Diff,Two Edge Four Edge,,,,,,,,,,,,,
null,,html-keyboard-response,1348284,,<p></p>,,,,null,,,,,,,,,,,,,,,,,,,,,,,,,,,
4998.0999999996275,,shortestpath_phase,1353283,,GW/cornwall.png,,,,50,GW/racine.png,GW/hanover.png,1,0.7352941176470589,,,,GW/hanover.png,,,,,Three Edge Diff,Three Edge Six Edge,,,,,,,,,,,,,
null,,html-keyboard-response,1354288,,<p></p>,,,,null,,,,,,,,,,,,,,,,,,,,,,,,,,,
3588.399999999907,,shortestpath_phase,1357878,,GW/leesburg.png,,,,49,GW/peoria.png,GW/racine.png,1,0.7428571428571429,,,,GW/peoria.png,,,,,Two Edge Diff,Four Edge Six Edge,,,,,,,,,,,,,
null,,html-keyboard-response,1358886,,<p></p>,,,,null,,,,,,,,,,,,,,,,,,,,,,,,,,,
2630.100000000093,,shortestpath_phase,1361517,,GW/hotsprings.png,,,,49,GW/boulder.png,GW/gatlinburg.png,1,0.75,,,,GW/boulder.png,,,,,Two Edge Diff,Two Edge Four Edge,,,,,,,,,,,,,
null,,html-keyboard-response,1362528,,<p></p>,,,,null,,,,,,,,,,,,,,,,,,,,,,,,,,,
2568.7999999998137,,shortestpath_phase,1365099,,GW/shreveport.png,,,,50,GW/cornwall.png,GW/peoria.png,1,0.7567567567567568,,,,GW/peoria.png,,,,,Three Edge Diff,Three Edge Six Edge,,,,,,,,,,,,,
null,,html-keyboard-response,1366106,,<p></p>,,,,null,,,,,,,,,,,,,,,,,,,,,,,,,,,
2060.100000000093,,shortestpath_phase,1368168,,GW/leesburg.png,,,,50,GW/gatlinburg.png,GW/hotsprings.png,1,0.7631578947368421,,,,GW/hotsprings.png,,,,,Three Edge Diff,Three Edge Six Edge,,,,,,,,,,,,,
null,,html-keyboard-response,1369177,,<p></p>,,,,null,,,,,,,,,,,,,,,,,,,,,,,,,,,
1743.5,,shortestpath_phase,1370922,,GW/shreveport.png,,,,49,GW/hotsprings.png,GW/boulder.png,0,0.7435897435897436,,,,GW/boulder.png,,,,,One Edge Diff,Four Edge Five Edge,,,,,,,,,,,,,
null,,html-keyboard-response,1371935,,<p></p>,,,,null,,,,,,,,,,,,,,,,,,,,,,,,,,,
4742.600000000093,,shortestpath_phase,1376680,,GW/newhope.png,,,,50,GW/boulder.png,GW/cornwall.png,1,0.75,,,,GW/cornwall.png,,,,,One Edge Diff,Two Edge Three Edge,,,,,,,,,,,,,
null,,html-keyboard-response,1377688,,<p></p>,,,,null,,,,,,,,,,,,,,,,,,,,,,,,,,,
2819.899999999907,,shortestpath_phase,1380509,,GW/shreveport.png,,,,49,GW/westpalmbeach.png,GW/newhope.png,1,0.7560975609756098,,,,GW/westpalmbeach.png,,,,,Four Edge Diff,Two Edge Six Edge,,,,,,,,,,,,,
null,,html-keyboard-response,1381516,,<p></p>,,,,null,,,,,,,,,,,,,,,,,,,,,,,,,,,
3578.2999999998137,,shortestpath_phase,1385096,,GW/newhope.png,,,,50,GW/racine.png,GW/leesburg.png,1,0.7619047619047619,,,,GW/leesburg.png,,,,,Two Edge Diff,Three Edge Five Edge,,,,,,,,,,,,,
null,,html-keyboard-response,1386101,,<p></p>,,,,null,,,,,,,,,,,,,,,,,,,,,,,,,,,
3475.6999999997206,,shortestpath_phase,1389579,,GW/shreveport.png,,,,50,GW/hotsprings.png,GW/newhope.png,0,0.7441860465116279,,,,GW/hotsprings.png,,,,,One Edge Diff,Five Edge Six Edge,,,,,,,,,,,,,
null,,html-keyboard-response,1390585,,<p></p>,,,,null,,,,,,,,,,,,,,,,,,,,,,,,,,,
2541.1999999997206,,shortestpath_phase,1393128,,GW/newhope.png,,,,50,GW/racine.png,GW/cornwall.png,1,0.75,,,,GW/cornwall.png,,,,,Three Edge Diff,Three Edge Six Edge,,,,,,,,,,,,,
null,,html-keyboard-response,1394138,,<p></p>,,,,null,,,,,,,,,,,,,,,,,,,,,,,,,,,
2525.5,,shortestpath_phase,1396665,,GW/shreveport.png,,,,50,GW/leesburg.png,GW/westpalmbeach.png,1,0.7555555555555555,,,,GW/westpalmbeach.png,,,,,Four Edge Diff,Two Edge Six Edge,,,,,,,,,,,,,
null,,html-keyboard-response,1397677,,<p></p>,,,,null,,,,,,,,,,,,,,,,,,,,,,,,,,,
2437.399999999907,,shortestpath_phase,1400116,,GW/hotsprings.png,,,,49,GW/shreveport.png,GW/hanover.png,0,0.7391304347826086,,,,GW/hanover.png,,,,,Three Edge Diff,Two Edge Five Edge,,,,,,,,,,,,,
null,,html-keyboard-response,1401127,,<p></p>,,,,null,,,,,,,,,,,,,,,,,,,,,,,,,,,
4603,,shortestpath_phase,1405732,,GW/shreveport.png,,,,49,GW/boulder.png,GW/leesburg.png,1,0.7446808510638298,,,,GW/boulder.png,,,,,Two Edge Diff,Four Edge Six Edge,,,,,,,,,,,,,
null,,html-keyboard-response,1406748,,<p></p>,,,,null,,,,,,,,,,,,,,,,,,,,,,,,,,,
2181.8000000002794,,shortestpath_phase,1408931,,GW/racine.png,,,,49,GW/huntsville.png,GW/leesburg.png,1,0.75,,,,GW/huntsville.png,,,,,Four Edge Diff,Two Edge Six Edge,,,,,,,,,,,,,
null,,html-keyboard-response,1409936,,<p></p>,,,,null,,,,,,,,,,,,,,,,,,,,,,,,,,,
3139.7000000001863,,shortestpath_phase,1413077,,GW/boulder.png,,,,49,GW/racine.png,GW/leesburg.png,0,0.7346938775510204,,,,GW/leesburg.png,,,,,Two Edge Diff,Two Edge Four Edge,,,,,,,,,,,,,
null,,html-keyboard-response,1414081,,<p></p>,,,,null,,,,,,,,,,,,,,,,,,,,,,,,,,,
3786.600000000093,,shortestpath_phase,1417870,,GW/huntsville.png,,,,49,GW/leesburg.png,GW/shreveport.png,0,0.72,,,,GW/shreveport.png,,,,,One Edge Diff,Three Edge Four Edge,,,,,,,,,,,,,
null,,html-keyboard-response,1418879,,<p></p>,,,,null,,,,,,,,,,,,,,,,,,,,,,,,,,,
2857,,shortestpath_phase,1421738,,GW/gatlinburg.png,,,,50,GW/newhope.png,GW/racine.png,1,0.7254901960784313,,,,GW/racine.png,,,,,Three Edge Diff,Three Edge Six Edge,,,,,,,,,,,,,
null,,html-keyboard-response,1422744,,<p></p>,,,,null,,,,,,,,,,,,,,,,,,,,,,,,,,,
2583.100000000093,,shortestpath_phase,1425329,,GW/cornwall.png,,,,49,GW/peoria.png,GW/westpalmbeach.png,1,0.7307692307692307,,,,GW/peoria.png,,,,,One Edge Diff,Three Edge Four Edge,,,,,,,,,,,,,
null,,html-keyboard-response,1426346,,<p></p>,,,,null,,,,,,,,,,,,,,,,,,,,,,,,,,,
3749.6999999997206,,shortestpath_phase,1430098,,GW/racine.png,,,,50,GW/newhope.png,GW/hanover.png,1,0.7358490566037735,,,,GW/hanover.png,,,,,Two Edge Diff,Three Edge Five Edge,,,,,,,,,,,,,
null,,html-keyboard-response,1431105,,<p></p>,,,,null,,,,,,,,,,,,,,,,,,,,,,,,,,,
4915.600000000093,,shortestpath_phase,1436022,,GW/cornwall.png,,,,50,GW/racine.png,GW/huntsville.png,1,0.7407407407407407,,,,GW/huntsville.png,,,,,Two Edge Diff,Three Edge Five Edge,,,,,,,,,,,,,
null,,html-keyboard-response,1437027,,<p></p>,,,,null,,,,,,,,,,,,,,,,,,,,,,,,,,,
2411.2000000001863,,shortestpath_phase,1439439,,GW/hotsprings.png,,,,50,GW/shreveport.png,GW/leesburg.png,1,0.7454545454545455,,,,GW/leesburg.png,,,,,Three Edge Diff,Two Edge Five Edge,,,,,,,,,,,,,
null,,html-keyboard-response,1440449,,<p></p>,,,,null,,,,,,,,,,,,,,,,,,,,,,,,,,,
3257.399999999907,,shortestpath_phase,1443708,,GW/gatlinburg.png,,,,49,GW/huntsville.png,GW/leesburg.png,1,0.75,,,,GW/huntsville.png,,,,,Three Edge Diff,Two Edge Five Edge,,,,,,,,,,,,,
null,,html-keyboard-response,1444726,,<p></p>,,,,null,,,,,,,,,,,,,,,,,,,,,,,,,,,
4135.399999999907,,shortestpath_phase,1448864,,GW/leesburg.png,,,,49,GW/boulder.png,GW/racine.png,1,0.7543859649122807,,,,GW/boulder.png,,,,,Four Edge Diff,Two Edge Six Edge,,,,,,,,,,,,,
null,,html-keyboard-response,1449871,,<p></p>,,,,null,,,,,,,,,,,,,,,,,,,,,,,,,,,
3495,,shortestpath_phase,1453368,,GW/cornwall.png,,,,49,GW/racine.png,GW/gatlinburg.png,0,0.7413793103448276,,,,GW/gatlinburg.png,,,,,One Edge Diff,Four Edge Five Edge,,,,,,,,,,,,,
null,,html-keyboard-response,1454375,,<p></p>,,,,null,,,,,,,,,,,,,,,,,,,,,,,,,,,
3354.899999999907,,shortestpath_phase,1457732,,GW/leesburg.png,,,,50,GW/shreveport.png,GW/boulder.png,1,0.7457627118644068,,,,GW/boulder.png,,,,,Four Edge Diff,Two Edge Six Edge,,,,,,,,,,,,,
null,,html-keyboard-response,1458742,,<p></p>,,,,null,,,,,,,,,,,,,,,,,,,,,,,,,,,
2454.100000000093,,shortestpath_phase,1461198,,GW/gatlinburg.png,,,,49,GW/racine.png,GW/leesburg.png,1,0.75,,,,GW/racine.png,,,,,Three Edge Diff,Two Edge Five Edge,,,,,,,,,,,,,
null,,html-keyboard-response,1462202,,<p></p>,,,,null,,,,,,,,,,,,,,,,,,,,,,,,,,,
4759.100000000093,,shortestpath_phase,1466963,,GW/hotsprings.png,,,,50,GW/huntsville.png,GW/shreveport.png,0,0.7377049180327869,,,,GW/huntsville.png,,,,,Three Edge Diff,Two Edge Five Edge,,,,,,,,,,,,,
null,,html-keyboard-response,1467971,,<p></p>,,,,null,,,,,,,,,,,,,,,,,,,,,,,,,,,
3700.600000000093,,shortestpath_phase,1471673,,GW/racine.png,,,,49,GW/leesburg.png,GW/gatlinburg.png,0,0.7258064516129032,,,,GW/gatlinburg.png,,,,,Four Edge Diff,Two Edge Six Edge,,,,,,,,,,,,,
