rt,responses,trial_type,time_elapsed,sequence,stimulus,graphorder,button_pressed,response,key_press,stimulus_left,stimulus_right,accuracy,cumulative_accuracy,stimulus_down_left,stimulus_down_mid,stimulus_down_right,stimulus_correct,stimulus_short,stimulus_far,weighted_accuracy,missedtrial,condition,specific_pairs,imgL_ID,imgR_ID,linedress,linedressed,detour_trial,linedressed_detor,problems,smooth,distraction,strategies,easier,similar,comments
22706.599999904633,{worker_id:626976d0dfd20d6832fc92aa},id_enter,22708,blocked,replication,GW/boulder.png; GW/leesburg.png; GW/hotsprings.png; GW/cornwall.png; GW/racine.png; GW/peoria.png; GW/newhope.png; GW/carmel.png; GW/huntsville.png; GW/hanover.png; GW/shreveport.png; GW/gatlinburg.png; GW/westpalmbeach.png,,,,,,,,,,,,,,,,,,,,,,,,,,,,,,
40238.199999928474,,fullscreen,62945,,fullscreen,,0,,,,,,,,,,,,,,,,,,,,,,,,,,,,,
39538.300000071526,,intro_1,102485,,instruct,,0,,,,,,,,,,,,,,,,,,,,,,,,,,,,,
35662.5,,intro_2,138145,,instruct,,1,Next,,,,,,,,,,,,,,,,,,,,,,,,,,,,
24048.799999952316,,intro_3,162195,,instruct,,1,Next,,,,,,,,,,,,,,,,,,,,,,,,,,,,
null,,learn_prac_1,165197,,lean_prac_1,,,,null,,,,,,,,,,,,,,,,,,,,,,,,,,,
null,,html-keyboard-response,166199,,<p></p>,,,,null,,,,,,,,,,,,,,,,,,,,,,,,,,,
9170.700000047684,,intro_1,175371,,instruct,,0,,,,,,,,,,,,,,,,,,,,,,,,,,,,,
17046.800000071526,,intro_2,192416,,instruct,,1,Next,,,,,,,,,,,,,,,,,,,,,,,,,,,,
null,,learn_prac_2,195418,,lean_prac_2,,,,null,,,,,,,,,,,,,,,,,,,,,,,,,,,
null,,html-keyboard-response,196419,,<p></p>,,,,null,,,,,,,,,,,,,,,,,,,,,,,,,,,
6186.5,,intro_1,202607,,instruct,,0,,,,,,,,,,,,,,,,,,,,,,,,,,,,,
8675,,intro_2,211283,,instruct,,1,Next,,,,,,,,,,,,,,,,,,,,,,,,,,,,
83308.70000004768,,intro_3,294591,,instruct,,1,Next,,,,,,,,,,,,,,,,,,,,,,,,,,,,
null,,prac_atten_color_black,294925,,black_plus_sign,,,,null,,,,,,,,,,,,,,,,,,,,,,,,,,,
667,,prac_atten_color,295994,,prac_stop_color,,,,49,,,,,,,,,,,,,,,,,,,,,,,,,,,
null,,prac_atten_color_black,297996,,black_plus_sign,,,,null,,,,,,,,,,,,,,,,,,,,,,,,,,,
null,,prac_atten_color_black,298331,,black_plus_sign,,,,null,,,,,,,,,,,,,,,,,,,,,,,,,,,
null,,prac_atten_color,299049,,prac_stop_color,,,,null,,,,,,,,,,,,,,,,,,,,,,,,,,,
15,,prac_atten_color_black,301050,,black_plus_sign,,,,50,,,,,,,,,,,,,,,,,,,,,,,,,,,
null,,prac_atten_color_black,301736,,black_plus_sign,,,,null,,,,,,,,,,,,,,,,,,,,,,,,,,,
624.1000000238419,,prac_atten_color,302742,,prac_stop_color,,,,50,,,,,,,,,,,,,,,,,,,,,,,,,,,
null,,prac_atten_color_black,304744,,black_plus_sign,,,,null,,,,,,,,,,,,,,,,,,,,,,,,,,,
null,,prac_atten_color_black,305140,,black_plus_sign,,,,null,,,,,,,,,,,,,,,,,,,,,,,,,,,
498.60000002384186,,prac_atten_color,305849,,prac_stop_color,,,,49,,,,,,,,,,,,,,,,,,,,,,,,,,,
null,,prac_atten_color_black,307851,,black_plus_sign,,,,null,,,,,,,,,,,,,,,,,,,,,,,,,,,
null,,prac_atten_color_black,308545,,black_plus_sign,,,,null,,,,,,,,,,,,,,,,,,,,,,,,,,,
678,,prac_atten_color,309363,,prac_stop_color,,,,50,,,,,,,,,,,,,,,,,,,,,,,,,,,
null,,prac_atten_color_black,311364,,black_plus_sign,,,,null,,,,,,,,,,,,,,,,,,,,,,,,,,,
null,,prac_atten_color_black,311949,,black_plus_sign,,,,null,,,,,,,,,,,,,,,,,,,,,,,,,,,
561.7000000476837,,prac_atten_color,312847,,prac_stop_color,,,,50,,,,,,,,,,,,,,,,,,,,,,,,,,,
null,,prac_atten_color_black,314848,,black_plus_sign,,,,null,,,,,,,,,,,,,,,,,,,,,,,,,,,
null,,prac_atten_color_black,315354,,black_plus_sign,,,,null,,,,,,,,,,,,,,,,,,,,,,,,,,,
477.2000000476837,,prac_atten_color,316253,,prac_stop_color,,,,49,,,,,,,,,,,,,,,,,,,,,,,,,,,
null,,prac_atten_color_black,318254,,black_plus_sign,,,,null,,,,,,,,,,,,,,,,,,,,,,,,,,,
null,,prac_atten_color_black,318760,,black_plus_sign,,,,null,,,,,,,,,,,,,,,,,,,,,,,,,,,
686.6000000238419,,prac_atten_color,319793,,prac_stop_color,,,,50,,,,,,,,,,,,,,,,,,,,,,,,,,,
null,,prac_atten_color_black,321794,,black_plus_sign,,,,null,,,,,,,,,,,,,,,,,,,,,,,,,,,
null,,prac_atten_color_black,322164,,black_plus_sign,,,,null,,,,,,,,,,,,,,,,,,,,,,,,,,,
null,,prac_atten_color,323138,,prac_stop_color,,,,null,,,,,,,,,,,,,,,,,,,,,,,,,,,
null,,prac_atten_color_black,325140,,black_plus_sign,,,,null,,,,,,,,,,,,,,,,,,,,,,,,,,,
17459.300000071526,,attentioncheck_help,342600,,instruct,,,,32,,,,,,,,,,,,,,,,,,,,,,,,,,,
null,,prac_atten_color_black,343028,,black_plus_sign,,,,null,,,,,,,,,,,,,,,,,,,,,,,,,,,
null,,prac_atten_color,343816,,prac_stop_color,,,,null,,,,,,,,,,,,,,,,,,,,,,,,,,,
47.39999997615814,,prac_atten_color_black,345817,,black_plus_sign,,,,49,,,,,,,,,,,,,,,,,,,,,,,,,,,
9952,,attentioncheck_feedback,355770,,cross_check_feedback,,0,,,,,,,,,,,,,,,,,,,,,,,,,,,,,
99725.19999992847,,last_instruct,455493,,instruct,,,,32,,,,,,,,,,,,,,,,,,,,,,,,,,,
null,,learn_phase(without_color),458494,,black_plus_sign,,,,null,GW/newhope.png,GW/peoria.png,,,,,,,,,,,,,,,,,,,,,,,,,
null,,black_cross(without_color),459327,,yellow,,,,null,GW/newhope.png,GW/peoria.png,,,,,,,,,,,,,,,,,,,,,,,,,
null,,rt_plussign_withcolor,459829,,yellow,,,,null,GW/newhope.png,GW/peoria.png,,,,,,,,,,,,,,,,,,,,,,,,,
1146.6999999284744,,rt_thecrossant_black,460999,,black_plus_sign,,,,50,,,1,1,,,,,,,,,,,,,,,,,,,,,,,
null,,color_black,461101,,black_plus_sign,,,,null,,,,,,,,,,,,,,,,,,,,,,,,,,,
null,,learn_phase(without_color),464102,,black_plus_sign,,,,null,GW/cornwall.png,GW/leesburg.png,,,,,,,,,,,,,,,,,,,,,,,,,
null,,black_cross(without_color),465066,,yellow,,,,null,GW/cornwall.png,GW/leesburg.png,,,,,,,,,,,,,,,,,,,,,,,,,
null,,rt_plussign_withcolor,465567,,yellow,,,,null,GW/cornwall.png,GW/leesburg.png,,,,,,,,,,,,,,,,,,,,,,,,,
761.6999999284744,,rt_thecrossant_black,466605,,black_plus_sign,,,,50,,,1,1,,,,,,,,,,,,,,,,,,,,,,,
null,,color_black,466707,,black_plus_sign,,,,null,,,,,,,,,,,,,,,,,,,,,,,,,,,
null,,learn_phase(without_color),469708,,black_plus_sign,,,,null,GW/huntsville.png,GW/carmel.png,,,,,,,,,,,,,,,,,,,,,,,,,
null,,black_cross(without_color),470371,,yellow,,,,null,GW/huntsville.png,GW/carmel.png,,,,,,,,,,,,,,,,,,,,,,,,,
null,,rt_plussign_withcolor,470872,,yellow,,,,null,GW/huntsville.png,GW/carmel.png,,,,,,,,,,,,,,,,,,,,,,,,,
1123.1000000238419,,rt_thecrossant_black,472211,,black_plus_sign,,,,50,,,1,1,,,,,,,,,,,,,,,,,,,,,,,
null,,color_black,472313,,black_plus_sign,,,,null,,,,,,,,,,,,,,,,,,,,,,,,,,,
null,,learn_phase(without_color),475314,,black_plus_sign,,,,null,GW/peoria.png,GW/newhope.png,,,,,,,,,,,,,,,,,,,,,,,,,
null,,black_cross(without_color),475969,,yellow,,,,null,GW/peoria.png,GW/newhope.png,,,,,,,,,,,,,,,,,,,,,,,,,
null,,rt_plussign_withcolor,476471,,yellow,,,,null,GW/peoria.png,GW/newhope.png,,,,,,,,,,,,,,,,,,,,,,,,,
863.3999999761581,,rt_thecrossant_black,477819,,black_plus_sign,,,,50,,,1,1,,,,,,,,,,,,,,,,,,,,,,,
null,,color_black,477921,,black_plus_sign,,,,null,,,,,,,,,,,,,,,,,,,,,,,,,,,
null,,learn_phase(without_color),480923,,black_plus_sign,,,,null,GW/shreveport.png,GW/hotsprings.png,,,,,,,,,,,,,,,,,,,,,,,,,
null,,black_cross(without_color),481698,,blue,,,,null,GW/shreveport.png,GW/hotsprings.png,,,,,,,,,,,,,,,,,,,,,,,,,
490.09999990463257,,rt_plussign_withcolor,482199,,blue,,,,49,GW/shreveport.png,GW/hotsprings.png,,,,,,,,,,,,,,,,,,,,,,,,,
null,,rt_thecrossant_black,483428,,black_plus_sign,,,,null,,,1,1,,,,,,,,,,,,,,,,,,,,,,,
null,,color_black,483529,,black_plus_sign,,,,null,,,,,,,,,,,,,,,,,,,,,,,,,,,
null,,learn_phase(without_color),486531,,black_plus_sign,,,,null,GW/peoria.png,GW/newhope.png,,,,,,,,,,,,,,,,,,,,,,,,,
null,,black_cross(without_color),487307,,yellow,,,,null,GW/peoria.png,GW/newhope.png,,,,,,,,,,,,,,,,,,,,,,,,,
null,,rt_plussign_withcolor,487809,,yellow,,,,null,GW/peoria.png,GW/newhope.png,,,,,,,,,,,,,,,,,,,,,,,,,
915.7999999523163,,rt_thecrossant_black,489036,,black_plus_sign,,,,50,,,1,1,,,,,,,,,,,,,,,,,,,,,,,
null,,color_black,489138,,black_plus_sign,,,,null,,,,,,,,,,,,,,,,,,,,,,,,,,,
null,,learn_phase(without_color),492140,,black_plus_sign,,,,null,GW/leesburg.png,GW/cornwall.png,,,,,,,,,,,,,,,,,,,,,,,,,
null,,black_cross(without_color),493208,,blue,,,,null,GW/leesburg.png,GW/cornwall.png,,,,,,,,,,,,,,,,,,,,,,,,,
null,,rt_plussign_withcolor,493709,,blue,,,,null,GW/leesburg.png,GW/cornwall.png,,,,,,,,,,,,,,,,,,,,,,,,,
1361.7999999523163,,rt_thecrossant_black,494645,,black_plus_sign,,,,49,,,1,1,,,,,,,,,,,,,,,,,,,,,,,
null,,color_black,494746,,black_plus_sign,,,,null,,,,,,,,,,,,,,,,,,,,,,,,,,,
null,,learn_phase(without_color),497748,,black_plus_sign,,,,null,GW/newhope.png,GW/peoria.png,,,,,,,,,,,,,,,,,,,,,,,,,
null,,black_cross(without_color),498498,,yellow,,,,null,GW/newhope.png,GW/peoria.png,,,,,,,,,,,,,,,,,,,,,,,,,
474.2999999523163,,rt_plussign_withcolor,498999,,yellow,,,,50,GW/newhope.png,GW/peoria.png,,,,,,,,,,,,,,,,,,,,,,,,,
null,,rt_thecrossant_black,500251,,black_plus_sign,,,,null,,,1,1,,,,,,,,,,,,,,,,,,,,,,,
null,,color_black,500353,,black_plus_sign,,,,null,,,,,,,,,,,,,,,,,,,,,,,,,,,
null,,learn_phase(without_color),503355,,black_plus_sign,,,,null,GW/huntsville.png,GW/carmel.png,,,,,,,,,,,,,,,,,,,,,,,,,
null,,black_cross(without_color),503821,,yellow,,,,null,GW/huntsville.png,GW/carmel.png,,,,,,,,,,,,,,,,,,,,,,,,,
350.89999997615814,,rt_plussign_withcolor,504323,,yellow,,,,50,GW/huntsville.png,GW/carmel.png,,,,,,,,,,,,,,,,,,,,,,,,,
null,,rt_thecrossant_black,505872,,black_plus_sign,,,,null,,,1,1,,,,,,,,,,,,,,,,,,,,,,,
null,,color_black,505974,,black_plus_sign,,,,null,,,,,,,,,,,,,,,,,,,,,,,,,,,
null,,learn_phase(without_color),508974,,black_plus_sign,,,,null,GW/peoria.png,GW/newhope.png,,,,,,,,,,,,,,,,,,,,,,,,,
null,,black_cross(without_color),509458,,yellow,,,,null,GW/peoria.png,GW/newhope.png,,,,,,,,,,,,,,,,,,,,,,,,,
489.10000002384186,,rt_plussign_withcolor,509959,,yellow,,,,50,GW/peoria.png,GW/newhope.png,,,,,,,,,,,,,,,,,,,,,,,,,
null,,rt_thecrossant_black,511478,,black_plus_sign,,,,null,,,1,1,,,,,,,,,,,,,,,,,,,,,,,
null,,color_black,511579,,black_plus_sign,,,,null,,,,,,,,,,,,,,,,,,,,,,,,,,,
null,,learn_phase(without_color),514581,,black_plus_sign,,,,null,GW/shreveport.png,GW/hotsprings.png,,,,,,,,,,,,,,,,,,,,,,,,,
null,,black_cross(without_color),515318,,yellow,,,,null,GW/shreveport.png,GW/hotsprings.png,,,,,,,,,,,,,,,,,,,,,,,,,
null,,rt_plussign_withcolor,515820,,yellow,,,,null,GW/shreveport.png,GW/hotsprings.png,,,,,,,,,,,,,,,,,,,,,,,,,
677,,rt_thecrossant_black,517086,,black_plus_sign,,,,50,,,1,1,,,,,,,,,,,,,,,,,,,,,,,
null,,color_black,517188,,black_plus_sign,,,,null,,,,,,,,,,,,,,,,,,,,,,,,,,,
null,,learn_phase(without_color),520189,,black_plus_sign,,,,null,GW/huntsville.png,GW/carmel.png,,,,,,,,,,,,,,,,,,,,,,,,,
null,,black_cross(without_color),521011,,yellow,,,,null,GW/huntsville.png,GW/carmel.png,,,,,,,,,,,,,,,,,,,,,,,,,
487.5,,rt_plussign_withcolor,521513,,yellow,,,,50,GW/huntsville.png,GW/carmel.png,,,,,,,,,,,,,,,,,,,,,,,,,
null,,rt_thecrossant_black,522692,,black_plus_sign,,,,null,,,1,1,,,,,,,,,,,,,,,,,,,,,,,
null,,color_black,522794,,black_plus_sign,,,,null,,,,,,,,,,,,,,,,,,,,,,,,,,,
null,,learn_phase(without_color),525796,,black_plus_sign,,,,null,GW/shreveport.png,GW/hotsprings.png,,,,,,,,,,,,,,,,,,,,,,,,,
null,,black_cross(without_color),526708,,blue,,,,null,GW/shreveport.png,GW/hotsprings.png,,,,,,,,,,,,,,,,,,,,,,,,,
null,,rt_plussign_withcolor,527210,,blue,,,,null,GW/shreveport.png,GW/hotsprings.png,,,,,,,,,,,,,,,,,,,,,,,,,
993.7000000476837,,rt_thecrossant_black,528300,,black_plus_sign,,,,49,,,1,1,,,,,,,,,,,,,,,,,,,,,,,
null,,color_black,528402,,black_plus_sign,,,,null,,,,,,,,,,,,,,,,,,,,,,,,,,,
null,,learn_phase(without_color),531403,,black_plus_sign,,,,null,GW/carmel.png,GW/huntsville.png,,,,,,,,,,,,,,,,,,,,,,,,,
null,,black_cross(without_color),532169,,yellow,,,,null,GW/carmel.png,GW/huntsville.png,,,,,,,,,,,,,,,,,,,,,,,,,
null,,rt_plussign_withcolor,532670,,yellow,,,,null,GW/carmel.png,GW/huntsville.png,,,,,,,,,,,,,,,,,,,,,,,,,
1175.3999999761581,,rt_thecrossant_black,533908,,black_plus_sign,,,,50,,,1,1,,,,,,,,,,,,,,,,,,,,,,,
null,,color_black,534009,,black_plus_sign,,,,null,,,,,,,,,,,,,,,,,,,,,,,,,,,
null,,learn_phase(without_color),537011,,black_plus_sign,,,,null,GW/peoria.png,GW/newhope.png,,,,,,,,,,,,,,,,,,,,,,,,,
null,,black_cross(without_color),537988,,yellow,,,,null,GW/peoria.png,GW/newhope.png,,,,,,,,,,,,,,,,,,,,,,,,,
null,,rt_plussign_withcolor,538489,,yellow,,,,null,GW/peoria.png,GW/newhope.png,,,,,,,,,,,,,,,,,,,,,,,,,
905.3999999761581,,rt_thecrossant_black,539516,,black_plus_sign,,,,50,,,1,1,,,,,,,,,,,,,,,,,,,,,,,
null,,color_black,539617,,black_plus_sign,,,,null,,,,,,,,,,,,,,,,,,,,,,,,,,,
null,,learn_phase(without_color),542619,,black_plus_sign,,,,null,GW/huntsville.png,GW/carmel.png,,,,,,,,,,,,,,,,,,,,,,,,,
null,,black_cross(without_color),543699,,yellow,,,,null,GW/huntsville.png,GW/carmel.png,,,,,,,,,,,,,,,,,,,,,,,,,
399.8000000715256,,rt_plussign_withcolor,544200,,yellow,,,,50,GW/huntsville.png,GW/carmel.png,,,,,,,,,,,,,,,,,,,,,,,,,
null,,rt_thecrossant_black,545123,,black_plus_sign,,,,null,,,1,1,,,,,,,,,,,,,,,,,,,,,,,
null,,color_black,545225,,black_plus_sign,,,,null,,,,,,,,,,,,,,,,,,,,,,,,,,,
null,,learn_phase(without_color),548227,,black_plus_sign,,,,null,GW/leesburg.png,GW/cornwall.png,,,,,,,,,,,,,,,,,,,,,,,,,
null,,black_cross(without_color),548669,,blue,,,,null,GW/leesburg.png,GW/cornwall.png,,,,,,,,,,,,,,,,,,,,,,,,,
null,,rt_plussign_withcolor,549170,,blue,,,,null,GW/leesburg.png,GW/cornwall.png,,,,,,,,,,,,,,,,,,,,,,,,,
1483.1999999284744,,rt_thecrossant_black,550730,,black_plus_sign,,,,49,,,1,1,,,,,,,,,,,,,,,,,,,,,,,
null,,color_black,550832,,black_plus_sign,,,,null,,,,,,,,,,,,,,,,,,,,,,,,,,,
null,,learn_phase(without_color),553834,,black_plus_sign,,,,null,GW/peoria.png,GW/newhope.png,,,,,,,,,,,,,,,,,,,,,,,,,
null,,black_cross(without_color),554646,,blue,,,,null,GW/peoria.png,GW/newhope.png,,,,,,,,,,,,,,,,,,,,,,,,,
null,,rt_plussign_withcolor,555146,,blue,,,,null,GW/peoria.png,GW/newhope.png,,,,,,,,,,,,,,,,,,,,,,,,,
566.3999999761581,,rt_thecrossant_black,556337,,black_plus_sign,,,,49,,,1,1,,,,,,,,,,,,,,,,,,,,,,,
null,,color_black,556440,,black_plus_sign,,,,null,,,,,,,,,,,,,,,,,,,,,,,,,,,
null,,learn_phase(without_color),559442,,black_plus_sign,,,,null,GW/hotsprings.png,GW/shreveport.png,,,,,,,,,,,,,,,,,,,,,,,,,
null,,black_cross(without_color),560457,,blue,,,,null,GW/hotsprings.png,GW/shreveport.png,,,,,,,,,,,,,,,,,,,,,,,,,
null,,rt_plussign_withcolor,560958,,blue,,,,null,GW/hotsprings.png,GW/shreveport.png,,,,,,,,,,,,,,,,,,,,,,,,,
971.7000000476837,,rt_thecrossant_black,561945,,black_plus_sign,,,,49,,,1,1,,,,,,,,,,,,,,,,,,,,,,,
null,,color_black,562048,,black_plus_sign,,,,null,,,,,,,,,,,,,,,,,,,,,,,,,,,
null,,learn_phase(without_color),565050,,black_plus_sign,,,,null,GW/leesburg.png,GW/cornwall.png,,,,,,,,,,,,,,,,,,,,,,,,,
null,,black_cross(without_color),566054,,yellow,,,,null,GW/leesburg.png,GW/cornwall.png,,,,,,,,,,,,,,,,,,,,,,,,,
461.3000000715256,,rt_plussign_withcolor,566555,,yellow,,,,50,GW/leesburg.png,GW/cornwall.png,,,,,,,,,,,,,,,,,,,,,,,,,
null,,rt_thecrossant_black,567554,,black_plus_sign,,,,null,,,1,1,,,,,,,,,,,,,,,,,,,,,,,
null,,color_black,567655,,black_plus_sign,,,,null,,,,,,,,,,,,,,,,,,,,,,,,,,,
null,,learn_phase(without_color),570655,,black_plus_sign,,,,null,GW/huntsville.png,GW/carmel.png,,,,,,,,,,,,,,,,,,,,,,,,,
null,,black_cross(without_color),571300,,yellow,,,,null,GW/huntsville.png,GW/carmel.png,,,,,,,,,,,,,,,,,,,,,,,,,
null,,rt_plussign_withcolor,571801,,yellow,,,,null,GW/huntsville.png,GW/carmel.png,,,,,,,,,,,,,,,,,,,,,,,,,
1215.2999999523163,,rt_thecrossant_black,573160,,black_plus_sign,,,,50,,,1,1,,,,,,,,,,,,,,,,,,,,,,,
null,,color_black,573261,,black_plus_sign,,,,null,,,,,,,,,,,,,,,,,,,,,,,,,,,
null,,learn_phase(without_color),576263,,black_plus_sign,,,,null,GW/leesburg.png,GW/cornwall.png,,,,,,,,,,,,,,,,,,,,,,,,,
null,,black_cross(without_color),577021,,yellow,,,,null,GW/leesburg.png,GW/cornwall.png,,,,,,,,,,,,,,,,,,,,,,,,,
null,,rt_plussign_withcolor,577523,,yellow,,,,null,GW/leesburg.png,GW/cornwall.png,,,,,,,,,,,,,,,,,,,,,,,,,
925.5,,rt_thecrossant_black,578773,,black_plus_sign,,,,50,,,1,1,,,,,,,,,,,,,,,,,,,,,,,
null,,color_black,578875,,black_plus_sign,,,,null,,,,,,,,,,,,,,,,,,,,,,,,,,,
null,,learn_phase(without_color),581877,,black_plus_sign,,,,null,GW/huntsville.png,GW/carmel.png,,,,,,,,,,,,,,,,,,,,,,,,,
null,,black_cross(without_color),582914,,blue,,,,null,GW/huntsville.png,GW/carmel.png,,,,,,,,,,,,,,,,,,,,,,,,,
null,,rt_plussign_withcolor,583415,,blue,,,,null,GW/huntsville.png,GW/carmel.png,,,,,,,,,,,,,,,,,,,,,,,,,
963.1000000238419,,rt_thecrossant_black,584381,,black_plus_sign,,,,49,,,1,1,,,,,,,,,,,,,,,,,,,,,,,
null,,color_black,584482,,black_plus_sign,,,,null,,,,,,,,,,,,,,,,,,,,,,,,,,,
null,,learn_phase(without_color),587483,,black_plus_sign,,,,null,GW/hotsprings.png,GW/shreveport.png,,,,,,,,,,,,,,,,,,,,,,,,,
null,,black_cross(without_color),588394,,blue,,,,null,GW/hotsprings.png,GW/shreveport.png,,,,,,,,,,,,,,,,,,,,,,,,,
null,,rt_plussign_withcolor,588896,,blue,,,,null,GW/hotsprings.png,GW/shreveport.png,,,,,,,,,,,,,,,,,,,,,,,,,
1161.4000000953674,,rt_thecrossant_black,589988,,black_plus_sign,,,,49,,,1,1,,,,,,,,,,,,,,,,,,,,,,,
null,,color_black,590090,,black_plus_sign,,,,null,,,,,,,,,,,,,,,,,,,,,,,,,,,
null,,learn_phase(without_color),593092,,black_plus_sign,,,,null,GW/cornwall.png,GW/leesburg.png,,,,,,,,,,,,,,,,,,,,,,,,,
null,,black_cross(without_color),593591,,yellow,,,,null,GW/cornwall.png,GW/leesburg.png,,,,,,,,,,,,,,,,,,,,,,,,,
null,,rt_plussign_withcolor,594093,,yellow,,,,null,GW/cornwall.png,GW/leesburg.png,,,,,,,,,,,,,,,,,,,,,,,,,
1029.5,,rt_thecrossant_black,595597,,black_plus_sign,,,,50,,,1,1,,,,,,,,,,,,,,,,,,,,,,,
null,,color_black,595698,,black_plus_sign,,,,null,,,,,,,,,,,,,,,,,,,,,,,,,,,
null,,learn_phase(without_color),598699,,black_plus_sign,,,,null,GW/huntsville.png,GW/carmel.png,,,,,,,,,,,,,,,,,,,,,,,,,
null,,black_cross(without_color),599605,,yellow,,,,null,GW/huntsville.png,GW/carmel.png,,,,,,,,,,,,,,,,,,,,,,,,,
null,,rt_plussign_withcolor,600107,,yellow,,,,null,GW/huntsville.png,GW/carmel.png,,,,,,,,,,,,,,,,,,,,,,,,,
612.9000000953674,,rt_thecrossant_black,601205,,black_plus_sign,,,,50,,,1,1,,,,,,,,,,,,,,,,,,,,,,,
null,,color_black,601307,,black_plus_sign,,,,null,,,,,,,,,,,,,,,,,,,,,,,,,,,
null,,learn_phase(without_color),604309,,black_plus_sign,,,,null,GW/cornwall.png,GW/leesburg.png,,,,,,,,,,,,,,,,,,,,,,,,,
null,,black_cross(without_color),604759,,yellow,,,,null,GW/cornwall.png,GW/leesburg.png,,,,,,,,,,,,,,,,,,,,,,,,,
402.7999999523163,,rt_plussign_withcolor,605261,,yellow,,,,50,GW/cornwall.png,GW/leesburg.png,,,,,,,,,,,,,,,,,,,,,,,,,
null,,rt_thecrossant_black,606814,,black_plus_sign,,,,null,,,1,1,,,,,,,,,,,,,,,,,,,,,,,
null,,color_black,606915,,black_plus_sign,,,,null,,,,,,,,,,,,,,,,,,,,,,,,,,,
null,,learn_phase(without_color),609918,,black_plus_sign,,,,null,GW/hotsprings.png,GW/shreveport.png,,,,,,,,,,,,,,,,,,,,,,,,,
null,,black_cross(without_color),610598,,blue,,,,null,GW/hotsprings.png,GW/shreveport.png,,,,,,,,,,,,,,,,,,,,,,,,,
483.5,,rt_plussign_withcolor,611099,,blue,,,,49,GW/hotsprings.png,GW/shreveport.png,,,,,,,,,,,,,,,,,,,,,,,,,
null,,rt_thecrossant_black,612422,,black_plus_sign,,,,null,,,1,1,,,,,,,,,,,,,,,,,,,,,,,
null,,color_black,612524,,black_plus_sign,,,,null,,,,,,,,,,,,,,,,,,,,,,,,,,,
null,,learn_phase(without_color),615525,,black_plus_sign,,,,null,GW/cornwall.png,GW/leesburg.png,,,,,,,,,,,,,,,,,,,,,,,,,
null,,black_cross(without_color),616620,,yellow,,,,null,GW/cornwall.png,GW/leesburg.png,,,,,,,,,,,,,,,,,,,,,,,,,
null,,rt_plussign_withcolor,617122,,yellow,,,,null,GW/cornwall.png,GW/leesburg.png,,,,,,,,,,,,,,,,,,,,,,,,,
802.5,,rt_thecrossant_black,618042,,black_plus_sign,,,,50,,,1,1,,,,,,,,,,,,,,,,,,,,,,,
null,,color_black,618143,,black_plus_sign,,,,null,,,,,,,,,,,,,,,,,,,,,,,,,,,
null,,learn_phase(without_color),621145,,black_plus_sign,,,,null,GW/shreveport.png,GW/hotsprings.png,,,,,,,,,,,,,,,,,,,,,,,,,
null,,black_cross(without_color),622198,,yellow,,,,null,GW/shreveport.png,GW/hotsprings.png,,,,,,,,,,,,,,,,,,,,,,,,,
null,,rt_plussign_withcolor,622699,,yellow,,,,null,GW/shreveport.png,GW/hotsprings.png,,,,,,,,,,,,,,,,,,,,,,,,,
1248.5,,rt_thecrossant_black,623650,,black_plus_sign,,,,50,,,1,1,,,,,,,,,,,,,,,,,,,,,,,
null,,color_black,623751,,black_plus_sign,,,,null,,,,,,,,,,,,,,,,,,,,,,,,,,,
null,,learn_phase(without_color),626753,,black_plus_sign,,,,null,GW/newhope.png,GW/peoria.png,,,,,,,,,,,,,,,,,,,,,,,,,
null,,black_cross(without_color),627662,,yellow,,,,null,GW/newhope.png,GW/peoria.png,,,,,,,,,,,,,,,,,,,,,,,,,
451.39999997615814,,rt_plussign_withcolor,628164,,yellow,,,,50,GW/newhope.png,GW/peoria.png,,,,,,,,,,,,,,,,,,,,,,,,,
null,,rt_thecrossant_black,629258,,black_plus_sign,,,,null,,,1,1,,,,,,,,,,,,,,,,,,,,,,,
null,,color_black,629360,,black_plus_sign,,,,null,,,,,,,,,,,,,,,,,,,,,,,,,,,
null,,learn_phase(without_color),632359,,black_plus_sign,,,,null,GW/hotsprings.png,GW/shreveport.png,,,,,,,,,,,,,,,,,,,,,,,,,
null,,black_cross(without_color),633394,,yellow,,,,null,GW/hotsprings.png,GW/shreveport.png,,,,,,,,,,,,,,,,,,,,,,,,,
406.3000000715256,,rt_plussign_withcolor,633895,,yellow,,,,50,GW/hotsprings.png,GW/shreveport.png,,,,,,,,,,,,,,,,,,,,,,,,,
null,,rt_thecrossant_black,634864,,black_plus_sign,,,,null,,,1,1,,,,,,,,,,,,,,,,,,,,,,,
null,,color_black,634965,,black_plus_sign,,,,null,,,,,,,,,,,,,,,,,,,,,,,,,,,
null,,learn_phase(without_color),637969,,black_plus_sign,,,,null,GW/racine.png,GW/cornwall.png,,,,,,,,,,,,,,,,,,,,,,,,,
null,,black_cross(without_color),638824,,yellow,,,,null,GW/racine.png,GW/cornwall.png,,,,,,,,,,,,,,,,,,,,,,,,,
null,,rt_plussign_withcolor,639325,,yellow,,,,null,GW/racine.png,GW/cornwall.png,,,,,,,,,,,,,,,,,,,,,,,,,
1235.8999999761581,,rt_thecrossant_black,640474,,black_plus_sign,,,,50,,,1,1,,,,,,,,,,,,,,,,,,,,,,,
null,,color_black,640584,,black_plus_sign,,,,null,,,,,,,,,,,,,,,,,,,,,,,,,,,
null,,learn_phase(without_color),643587,,black_plus_sign,,,,null,GW/hotsprings.png,GW/leesburg.png,,,,,,,,,,,,,,,,,,,,,,,,,
null,,black_cross(without_color),644624,,yellow,,,,null,GW/hotsprings.png,GW/leesburg.png,,,,,,,,,,,,,,,,,,,,,,,,,
384.2999999523163,,rt_plussign_withcolor,645126,,yellow,,,,50,GW/hotsprings.png,GW/leesburg.png,,,,,,,,,,,,,,,,,,,,,,,,,
null,,rt_thecrossant_black,646092,,black_plus_sign,,,,null,,,1,1,,,,,,,,,,,,,,,,,,,,,,,
null,,color_black,646193,,black_plus_sign,,,,null,,,,,,,,,,,,,,,,,,,,,,,,,,,
null,,learn_phase(without_color),649195,,black_plus_sign,,,,null,GW/westpalmbeach.png,GW/newhope.png,,,,,,,,,,,,,,,,,,,,,,,,,
null,,black_cross(without_color),649661,,yellow,,,,null,GW/westpalmbeach.png,GW/newhope.png,,,,,,,,,,,,,,,,,,,,,,,,,
null,,rt_plussign_withcolor,650162,,yellow,,,,null,GW/westpalmbeach.png,GW/newhope.png,,,,,,,,,,,,,,,,,,,,,,,,,
1237.7000000476837,,rt_thecrossant_black,651700,,black_plus_sign,,,,50,,,1,1,,,,,,,,,,,,,,,,,,,,,,,
null,,color_black,651801,,black_plus_sign,,,,null,,,,,,,,,,,,,,,,,,,,,,,,,,,
null,,learn_phase(without_color),654803,,black_plus_sign,,,,null,GW/racine.png,GW/cornwall.png,,,,,,,,,,,,,,,,,,,,,,,,,
null,,black_cross(without_color),655545,,yellow,,,,null,GW/racine.png,GW/cornwall.png,,,,,,,,,,,,,,,,,,,,,,,,,
null,,rt_plussign_withcolor,656047,,yellow,,,,null,GW/racine.png,GW/cornwall.png,,,,,,,,,,,,,,,,,,,,,,,,,
669.5,,rt_thecrossant_black,657308,,black_plus_sign,,,,50,,,1,1,,,,,,,,,,,,,,,,,,,,,,,
null,,color_black,657409,,black_plus_sign,,,,null,,,,,,,,,,,,,,,,,,,,,,,,,,,
null,,learn_phase(without_color),660411,,black_plus_sign,,,,null,GW/hotsprings.png,GW/leesburg.png,,,,,,,,,,,,,,,,,,,,,,,,,
null,,black_cross(without_color),661049,,blue,,,,null,GW/hotsprings.png,GW/leesburg.png,,,,,,,,,,,,,,,,,,,,,,,,,
null,,rt_plussign_withcolor,661550,,blue,,,,null,GW/hotsprings.png,GW/leesburg.png,,,,,,,,,,,,,,,,,,,,,,,,,
1018.8000000715256,,rt_thecrossant_black,662914,,black_plus_sign,,,,49,,,1,1,,,,,,,,,,,,,,,,,,,,,,,
null,,color_black,663017,,black_plus_sign,,,,null,,,,,,,,,,,,,,,,,,,,,,,,,,,
null,,learn_phase(without_color),666018,,black_plus_sign,,,,null,GW/shreveport.png,GW/huntsville.png,,,,,,,,,,,,,,,,,,,,,,,,,
null,,black_cross(without_color),667041,,blue,,,,null,GW/shreveport.png,GW/huntsville.png,,,,,,,,,,,,,,,,,,,,,,,,,
439.1999999284744,,rt_plussign_withcolor,667542,,blue,,,,49,GW/shreveport.png,GW/huntsville.png,,,,,,,,,,,,,,,,,,,,,,,,,
null,,rt_thecrossant_black,668522,,black_plus_sign,,,,null,,,1,1,,,,,,,,,,,,,,,,,,,,,,,
null,,color_black,668623,,black_plus_sign,,,,null,,,,,,,,,,,,,,,,,,,,,,,,,,,
null,,learn_phase(without_color),671625,,black_plus_sign,,,,null,GW/cornwall.png,GW/racine.png,,,,,,,,,,,,,,,,,,,,,,,,,
null,,black_cross(without_color),672534,,yellow,,,,null,GW/cornwall.png,GW/racine.png,,,,,,,,,,,,,,,,,,,,,,,,,
null,,rt_plussign_withcolor,673035,,yellow,,,,null,GW/cornwall.png,GW/racine.png,,,,,,,,,,,,,,,,,,,,,,,,,
1150.9000000953674,,rt_thecrossant_black,674130,,black_plus_sign,,,,50,,,1,1,,,,,,,,,,,,,,,,,,,,,,,
null,,color_black,674232,,black_plus_sign,,,,null,,,,,,,,,,,,,,,,,,,,,,,,,,,
null,,learn_phase(without_color),677234,,black_plus_sign,,,,null,GW/huntsville.png,GW/shreveport.png,,,,,,,,,,,,,,,,,,,,,,,,,
null,,black_cross(without_color),678133,,blue,,,,null,GW/huntsville.png,GW/shreveport.png,,,,,,,,,,,,,,,,,,,,,,,,,
428.09999990463257,,rt_plussign_withcolor,678635,,blue,,,,49,GW/huntsville.png,GW/shreveport.png,,,,,,,,,,,,,,,,,,,,,,,,,
null,,rt_thecrossant_black,679738,,black_plus_sign,,,,null,,,1,1,,,,,,,,,,,,,,,,,,,,,,,
null,,color_black,679839,,black_plus_sign,,,,null,,,,,,,,,,,,,,,,,,,,,,,,,,,
null,,learn_phase(without_color),682841,,black_plus_sign,,,,null,GW/westpalmbeach.png,GW/newhope.png,,,,,,,,,,,,,,,,,,,,,,,,,
null,,black_cross(without_color),683534,,yellow,,,,null,GW/westpalmbeach.png,GW/newhope.png,,,,,,,,,,,,,,,,,,,,,,,,,
null,,rt_plussign_withcolor,684035,,yellow,,,,null,GW/westpalmbeach.png,GW/newhope.png,,,,,,,,,,,,,,,,,,,,,,,,,
1202.7000000476837,,rt_thecrossant_black,685351,,black_plus_sign,,,,50,,,1,1,,,,,,,,,,,,,,,,,,,,,,,
null,,color_black,685452,,black_plus_sign,,,,null,,,,,,,,,,,,,,,,,,,,,,,,,,,
null,,learn_phase(without_color),688454,,black_plus_sign,,,,null,GW/racine.png,GW/cornwall.png,,,,,,,,,,,,,,,,,,,,,,,,,
null,,black_cross(without_color),689107,,yellow,,,,null,GW/racine.png,GW/cornwall.png,,,,,,,,,,,,,,,,,,,,,,,,,
null,,rt_plussign_withcolor,689608,,yellow,,,,null,GW/racine.png,GW/cornwall.png,,,,,,,,,,,,,,,,,,,,,,,,,
1087.3999999761581,,rt_thecrossant_black,690958,,black_plus_sign,,,,50,,,1,1,,,,,,,,,,,,,,,,,,,,,,,
null,,color_black,691059,,black_plus_sign,,,,null,,,,,,,,,,,,,,,,,,,,,,,,,,,
null,,learn_phase(without_color),694060,,black_plus_sign,,,,null,GW/huntsville.png,GW/shreveport.png,,,,,,,,,,,,,,,,,,,,,,,,,
null,,black_cross(without_color),694860,,yellow,,,,null,GW/huntsville.png,GW/shreveport.png,,,,,,,,,,,,,,,,,,,,,,,,,
null,,rt_plussign_withcolor,695361,,yellow,,,,null,GW/huntsville.png,GW/shreveport.png,,,,,,,,,,,,,,,,,,,,,,,,,
758,,rt_thecrossant_black,696563,,black_plus_sign,,,,50,,,1,1,,,,,,,,,,,,,,,,,,,,,,,
null,,color_black,696665,,black_plus_sign,,,,null,,,,,,,,,,,,,,,,,,,,,,,,,,,
null,,learn_phase(without_color),699667,,black_plus_sign,,,,null,GW/cornwall.png,GW/racine.png,,,,,,,,,,,,,,,,,,,,,,,,,
null,,black_cross(without_color),700611,,blue,,,,null,GW/cornwall.png,GW/racine.png,,,,,,,,,,,,,,,,,,,,,,,,,
null,,rt_plussign_withcolor,701113,,blue,,,,null,GW/cornwall.png,GW/racine.png,,,,,,,,,,,,,,,,,,,,,,,,,
1041.1999999284744,,rt_thecrossant_black,702171,,black_plus_sign,,,,49,,,1,1,,,,,,,,,,,,,,,,,,,,,,,
null,,color_black,702273,,black_plus_sign,,,,null,,,,,,,,,,,,,,,,,,,,,,,,,,,
null,,learn_phase(without_color),705275,,black_plus_sign,,,,null,GW/shreveport.png,GW/huntsville.png,,,,,,,,,,,,,,,,,,,,,,,,,
null,,black_cross(without_color),705995,,yellow,,,,null,GW/shreveport.png,GW/huntsville.png,,,,,,,,,,,,,,,,,,,,,,,,,
null,,rt_plussign_withcolor,706497,,yellow,,,,null,GW/shreveport.png,GW/huntsville.png,,,,,,,,,,,,,,,,,,,,,,,,,
1048.8000000715256,,rt_thecrossant_black,707780,,black_plus_sign,,,,50,,,1,1,,,,,,,,,,,,,,,,,,,,,,,
null,,color_black,707882,,black_plus_sign,,,,null,,,,,,,,,,,,,,,,,,,,,,,,,,,
null,,learn_phase(without_color),710884,,black_plus_sign,,,,null,GW/newhope.png,GW/westpalmbeach.png,,,,,,,,,,,,,,,,,,,,,,,,,
null,,black_cross(without_color),711407,,blue,,,,null,GW/newhope.png,GW/westpalmbeach.png,,,,,,,,,,,,,,,,,,,,,,,,,
432.2999999523163,,rt_plussign_withcolor,711908,,blue,,,,49,GW/newhope.png,GW/westpalmbeach.png,,,,,,,,,,,,,,,,,,,,,,,,,
null,,rt_thecrossant_black,713387,,black_plus_sign,,,,null,,,1,1,,,,,,,,,,,,,,,,,,,,,,,
null,,color_black,713489,,black_plus_sign,,,,null,,,,,,,,,,,,,,,,,,,,,,,,,,,
null,,learn_phase(without_color),716490,,black_plus_sign,,,,null,GW/hotsprings.png,GW/leesburg.png,,,,,,,,,,,,,,,,,,,,,,,,,
null,,black_cross(without_color),716954,,blue,,,,null,GW/hotsprings.png,GW/leesburg.png,,,,,,,,,,,,,,,,,,,,,,,,,
421,,rt_plussign_withcolor,717455,,blue,,,,50,GW/hotsprings.png,GW/leesburg.png,,,,,,,,,,,,,,,,,,,,,,,,,
null,,rt_thecrossant_black,719005,,black_plus_sign,,,,null,,,0,0.9787234042553191,,,,,,,,,,,,,,,,,,,,,,,
null,,color_black,719106,,black_plus_sign,,,,null,,,,,,,,,,,,,,,,,,,,,,,,,,,
null,,learn_phase(without_color),722108,,black_plus_sign,,,,null,GW/newhope.png,GW/westpalmbeach.png,,,,,,,,,,,,,,,,,,,,,,,,,
null,,black_cross(without_color),722881,,yellow,,,,null,GW/newhope.png,GW/westpalmbeach.png,,,,,,,,,,,,,,,,,,,,,,,,,
null,,rt_plussign_withcolor,723383,,yellow,,,,null,GW/newhope.png,GW/westpalmbeach.png,,,,,,,,,,,,,,,,,,,,,,,,,
626.5,,rt_thecrossant_black,724611,,black_plus_sign,,,,50,,,1,0.9791666666666666,,,,,,,,,,,,,,,,,,,,,,,
null,,color_black,724717,,black_plus_sign,,,,null,,,,,,,,,,,,,,,,,,,,,,,,,,,
null,,learn_phase(without_color),727719,,black_plus_sign,,,,null,GW/leesburg.png,GW/hotsprings.png,,,,,,,,,,,,,,,,,,,,,,,,,
null,,black_cross(without_color),728662,,blue,,,,null,GW/leesburg.png,GW/hotsprings.png,,,,,,,,,,,,,,,,,,,,,,,,,
null,,rt_plussign_withcolor,729164,,blue,,,,null,GW/leesburg.png,GW/hotsprings.png,,,,,,,,,,,,,,,,,,,,,,,,,
954.6999999284744,,rt_thecrossant_black,730224,,black_plus_sign,,,,49,,,1,0.9795918367346939,,,,,,,,,,,,,,,,,,,,,,,
null,,color_black,730325,,black_plus_sign,,,,null,,,,,,,,,,,,,,,,,,,,,,,,,,,
null,,learn_phase(without_color),733327,,black_plus_sign,,,,null,GW/westpalmbeach.png,GW/newhope.png,,,,,,,,,,,,,,,,,,,,,,,,,
null,,black_cross(without_color),733966,,yellow,,,,null,GW/westpalmbeach.png,GW/newhope.png,,,,,,,,,,,,,,,,,,,,,,,,,
null,,rt_plussign_withcolor,734467,,yellow,,,,null,GW/westpalmbeach.png,GW/newhope.png,,,,,,,,,,,,,,,,,,,,,,,,,
1150,,rt_thecrossant_black,735830,,black_plus_sign,,,,50,,,1,0.98,,,,,,,,,,,,,,,,,,,,,,,
null,,color_black,735932,,black_plus_sign,,,,null,,,,,,,,,,,,,,,,,,,,,,,,,,,
null,,learn_phase(without_color),738934,,black_plus_sign,,,,null,GW/hotsprings.png,GW/leesburg.png,,,,,,,,,,,,,,,,,,,,,,,,,
null,,black_cross(without_color),739966,,yellow,,,,null,GW/hotsprings.png,GW/leesburg.png,,,,,,,,,,,,,,,,,,,,,,,,,
null,,rt_plussign_withcolor,740468,,yellow,,,,null,GW/hotsprings.png,GW/leesburg.png,,,,,,,,,,,,,,,,,,,,,,,,,
821.1000000238419,,rt_thecrossant_black,741439,,black_plus_sign,,,,50,,,1,0.9803921568627451,,,,,,,,,,,,,,,,,,,,,,,
null,,color_black,741539,,black_plus_sign,,,,null,,,,,,,,,,,,,,,,,,,,,,,,,,,
null,,learn_phase(without_color),744541,,black_plus_sign,,,,null,GW/racine.png,GW/cornwall.png,,,,,,,,,,,,,,,,,,,,,,,,,
null,,black_cross(without_color),745234,,yellow,,,,null,GW/racine.png,GW/cornwall.png,,,,,,,,,,,,,,,,,,,,,,,,,
null,,rt_plussign_withcolor,745735,,yellow,,,,null,GW/racine.png,GW/cornwall.png,,,,,,,,,,,,,,,,,,,,,,,,,
1306.5,,rt_thecrossant_black,747046,,black_plus_sign,,,,50,,,1,0.9807692307692307,,,,,,,,,,,,,,,,,,,,,,,
null,,color_black,747148,,black_plus_sign,,,,null,,,,,,,,,,,,,,,,,,,,,,,,,,,
null,,learn_phase(without_color),750149,,black_plus_sign,,,,null,GW/huntsville.png,GW/shreveport.png,,,,,,,,,,,,,,,,,,,,,,,,,
null,,black_cross(without_color),750901,,yellow,,,,null,GW/huntsville.png,GW/shreveport.png,,,,,,,,,,,,,,,,,,,,,,,,,
433.7999999523163,,rt_plussign_withcolor,751402,,yellow,,,,50,GW/huntsville.png,GW/shreveport.png,,,,,,,,,,,,,,,,,,,,,,,,,
null,,rt_thecrossant_black,752652,,black_plus_sign,,,,null,,,1,0.9811320754716981,,,,,,,,,,,,,,,,,,,,,,,
null,,color_black,752762,,black_plus_sign,,,,null,,,,,,,,,,,,,,,,,,,,,,,,,,,
null,,learn_phase(without_color),755763,,black_plus_sign,,,,null,GW/racine.png,GW/cornwall.png,,,,,,,,,,,,,,,,,,,,,,,,,
null,,black_cross(without_color),756759,,yellow,,,,null,GW/racine.png,GW/cornwall.png,,,,,,,,,,,,,,,,,,,,,,,,,
null,,rt_plussign_withcolor,757260,,yellow,,,,null,GW/racine.png,GW/cornwall.png,,,,,,,,,,,,,,,,,,,,,,,,,
876.5,,rt_thecrossant_black,758266,,black_plus_sign,,,,50,,,1,0.9814814814814815,,,,,,,,,,,,,,,,,,,,,,,
null,,color_black,758368,,black_plus_sign,,,,null,,,,,,,,,,,,,,,,,,,,,,,,,,,
null,,learn_phase(without_color),761369,,black_plus_sign,,,,null,GW/shreveport.png,GW/huntsville.png,,,,,,,,,,,,,,,,,,,,,,,,,
null,,black_cross(without_color),761880,,blue,,,,null,GW/shreveport.png,GW/huntsville.png,,,,,,,,,,,,,,,,,,,,,,,,,
null,,rt_plussign_withcolor,762395,,blue,,,,null,GW/shreveport.png,GW/huntsville.png,,,,,,,,,,,,,,,,,,,,,,,,,
1153.1999999284744,,rt_thecrossant_black,763887,,black_plus_sign,,,,49,,,1,0.9818181818181818,,,,,,,,,,,,,,,,,,,,,,,
null,,color_black,763989,,black_plus_sign,,,,null,,,,,,,,,,,,,,,,,,,,,,,,,,,
null,,learn_phase(without_color),766990,,black_plus_sign,,,,null,GW/cornwall.png,GW/racine.png,,,,,,,,,,,,,,,,,,,,,,,,,
null,,black_cross(without_color),767800,,yellow,,,,null,GW/cornwall.png,GW/racine.png,,,,,,,,,,,,,,,,,,,,,,,,,
null,,rt_plussign_withcolor,768301,,yellow,,,,null,GW/cornwall.png,GW/racine.png,,,,,,,,,,,,,,,,,,,,,,,,,
722.3999999761581,,rt_thecrossant_black,769494,,black_plus_sign,,,,50,,,1,0.9821428571428571,,,,,,,,,,,,,,,,,,,,,,,
null,,color_black,769596,,black_plus_sign,,,,null,,,,,,,,,,,,,,,,,,,,,,,,,,,
null,,learn_phase(without_color),772597,,black_plus_sign,,,,null,GW/newhope.png,GW/westpalmbeach.png,,,,,,,,,,,,,,,,,,,,,,,,,
null,,black_cross(without_color),773000,,blue,,,,null,GW/newhope.png,GW/westpalmbeach.png,,,,,,,,,,,,,,,,,,,,,,,,,
null,,rt_plussign_withcolor,773501,,blue,,,,null,GW/newhope.png,GW/westpalmbeach.png,,,,,,,,,,,,,,,,,,,,,,,,,
1053.1000000238419,,rt_thecrossant_black,775101,,black_plus_sign,,,,49,,,1,0.9824561403508771,,,,,,,,,,,,,,,,,,,,,,,
null,,color_black,775209,,black_plus_sign,,,,null,,,,,,,,,,,,,,,,,,,,,,,,,,,
null,,learn_phase(without_color),778213,,black_plus_sign,,,,null,GW/leesburg.png,GW/hotsprings.png,,,,,,,,,,,,,,,,,,,,,,,,,
null,,black_cross(without_color),778906,,yellow,,,,null,GW/leesburg.png,GW/hotsprings.png,,,,,,,,,,,,,,,,,,,,,,,,,
null,,rt_plussign_withcolor,779407,,yellow,,,,null,GW/leesburg.png,GW/hotsprings.png,,,,,,,,,,,,,,,,,,,,,,,,,
852.5,,rt_thecrossant_black,780717,,black_plus_sign,,,,50,,,1,0.9827586206896551,,,,,,,,,,,,,,,,,,,,,,,
null,,color_black,780818,,black_plus_sign,,,,null,,,,,,,,,,,,,,,,,,,,,,,,,,,
null,,learn_phase(without_color),783819,,black_plus_sign,,,,null,GW/huntsville.png,GW/shreveport.png,,,,,,,,,,,,,,,,,,,,,,,,,
null,,black_cross(without_color),784410,,blue,,,,null,GW/huntsville.png,GW/shreveport.png,,,,,,,,,,,,,,,,,,,,,,,,,
483.5,,rt_plussign_withcolor,784912,,blue,,,,49,GW/huntsville.png,GW/shreveport.png,,,,,,,,,,,,,,,,,,,,,,,,,
null,,rt_thecrossant_black,786326,,black_plus_sign,,,,null,,,1,0.9830508474576272,,,,,,,,,,,,,,,,,,,,,,,
null,,color_black,786427,,black_plus_sign,,,,null,,,,,,,,,,,,,,,,,,,,,,,,,,,
null,,learn_phase(without_color),789429,,black_plus_sign,,,,null,GW/westpalmbeach.png,GW/newhope.png,,,,,,,,,,,,,,,,,,,,,,,,,
null,,black_cross(without_color),789912,,yellow,,,,null,GW/westpalmbeach.png,GW/newhope.png,,,,,,,,,,,,,,,,,,,,,,,,,
null,,rt_plussign_withcolor,790413,,yellow,,,,null,GW/westpalmbeach.png,GW/newhope.png,,,,,,,,,,,,,,,,,,,,,,,,,
737.8999999761581,,rt_thecrossant_black,791934,,black_plus_sign,,,,50,,,1,0.9833333333333333,,,,,,,,,,,,,,,,,,,,,,,
null,,color_black,792035,,black_plus_sign,,,,null,,,,,,,,,,,,,,,,,,,,,,,,,,,
null,,learn_phase(without_color),795038,,black_plus_sign,,,,null,GW/hotsprings.png,GW/leesburg.png,,,,,,,,,,,,,,,,,,,,,,,,,
null,,black_cross(without_color),795466,,yellow,,,,null,GW/hotsprings.png,GW/leesburg.png,,,,,,,,,,,,,,,,,,,,,,,,,
null,,rt_plussign_withcolor,795967,,yellow,,,,null,GW/hotsprings.png,GW/leesburg.png,,,,,,,,,,,,,,,,,,,,,,,,,
603.1999999284744,,rt_thecrossant_black,797541,,black_plus_sign,,,,50,,,1,0.9836065573770492,,,,,,,,,,,,,,,,,,,,,,,
null,,color_black,797644,,black_plus_sign,,,,null,,,,,,,,,,,,,,,,,,,,,,,,,,,
null,,learn_phase(without_color),800645,,black_plus_sign,,,,null,GW/westpalmbeach.png,GW/newhope.png,,,,,,,,,,,,,,,,,,,,,,,,,
null,,black_cross(without_color),801264,,yellow,,,,null,GW/westpalmbeach.png,GW/newhope.png,,,,,,,,,,,,,,,,,,,,,,,,,
382,,rt_plussign_withcolor,801765,,yellow,,,,50,GW/westpalmbeach.png,GW/newhope.png,,,,,,,,,,,,,,,,,,,,,,,,,
null,,rt_thecrossant_black,803151,,black_plus_sign,,,,null,,,1,0.9838709677419355,,,,,,,,,,,,,,,,,,,,,,,
null,,color_black,803256,,black_plus_sign,,,,null,,,,,,,,,,,,,,,,,,,,,,,,,,,
null,,learn_phase(without_color),806258,,black_plus_sign,,,,null,GW/leesburg.png,GW/hotsprings.png,,,,,,,,,,,,,,,,,,,,,,,,,
null,,black_cross(without_color),807190,,yellow,,,,null,GW/leesburg.png,GW/hotsprings.png,,,,,,,,,,,,,,,,,,,,,,,,,
null,,rt_plussign_withcolor,807691,,yellow,,,,null,GW/leesburg.png,GW/hotsprings.png,,,,,,,,,,,,,,,,,,,,,,,,,
766.1000000238419,,rt_thecrossant_black,808761,,black_plus_sign,,,,50,,,1,0.9841269841269841,,,,,,,,,,,,,,,,,,,,,,,
null,,color_black,808867,,black_plus_sign,,,,null,,,,,,,,,,,,,,,,,,,,,,,,,,,
null,,learn_phase(without_color),811868,,black_plus_sign,,,,null,GW/shreveport.png,GW/huntsville.png,,,,,,,,,,,,,,,,,,,,,,,,,
null,,black_cross(without_color),812420,,yellow,,,,null,GW/shreveport.png,GW/huntsville.png,,,,,,,,,,,,,,,,,,,,,,,,,
null,,rt_plussign_withcolor,812922,,yellow,,,,null,GW/shreveport.png,GW/huntsville.png,,,,,,,,,,,,,,,,,,,,,,,,,
1139.1000000238419,,rt_thecrossant_black,814374,,black_plus_sign,,,,50,,,1,0.984375,,,,,,,,,,,,,,,,,,,,,,,
null,,color_black,814475,,black_plus_sign,,,,null,,,,,,,,,,,,,,,,,,,,,,,,,,,
36066.10000002384,,learn_break,850541,,learn_break,,,,32,,,,,,,,,,,,,,,,,,,,,,,,,,,
null,,html-keyboard-response,851543,,<p></p>,,,,null,,,,,,,,,,,,,,,,,,,,,,,,,,,
null,,learn_phase(without_color),854544,,black_plus_sign,,,,null,GW/carmel.png,GW/newhope.png,,,,,,,,,,,,,,,,,,,,,,,,,
null,,black_cross(without_color),855299,,blue,,,,null,GW/carmel.png,GW/newhope.png,,,,,,,,,,,,,,,,,,,,,,,,,
441.7999999523163,,rt_plussign_withcolor,855800,,blue,,,,49,GW/carmel.png,GW/newhope.png,,,,,,,,,,,,,,,,,,,,,,,,,
null,,rt_thecrossant_black,857047,,black_plus_sign,,,,null,,,1,0.9846153846153847,,,,,,,,,,,,,,,,,,,,,,,
null,,color_black,857149,,black_plus_sign,,,,null,,,,,,,,,,,,,,,,,,,,,,,,,,,
null,,learn_phase(without_color),860150,,black_plus_sign,,,,null,GW/boulder.png,GW/leesburg.png,,,,,,,,,,,,,,,,,,,,,,,,,
null,,black_cross(without_color),860866,,blue,,,,null,GW/boulder.png,GW/leesburg.png,,,,,,,,,,,,,,,,,,,,,,,,,
null,,rt_plussign_withcolor,861367,,blue,,,,null,GW/boulder.png,GW/leesburg.png,,,,,,,,,,,,,,,,,,,,,,,,,
891.3000000715256,,rt_thecrossant_black,862654,,black_plus_sign,,,,49,,,1,0.9848484848484849,,,,,,,,,,,,,,,,,,,,,,,
null,,color_black,862756,,black_plus_sign,,,,null,,,,,,,,,,,,,,,,,,,,,,,,,,,
null,,learn_phase(without_color),865757,,black_plus_sign,,,,null,GW/peoria.png,GW/huntsville.png,,,,,,,,,,,,,,,,,,,,,,,,,
null,,black_cross(without_color),866573,,yellow,,,,null,GW/peoria.png,GW/huntsville.png,,,,,,,,,,,,,,,,,,,,,,,,,
null,,rt_plussign_withcolor,867074,,yellow,,,,null,GW/peoria.png,GW/huntsville.png,,,,,,,,,,,,,,,,,,,,,,,,,
864.5,,rt_thecrossant_black,868266,,black_plus_sign,,,,49,,,0,0.9701492537313433,,,,,,,,,,,,,,,,,,,,,,,
null,,color_black,868367,,black_plus_sign,,,,null,,,,,,,,,,,,,,,,,,,,,,,,,,,
null,,learn_phase(without_color),871369,,black_plus_sign,,,,null,GW/carmel.png,GW/newhope.png,,,,,,,,,,,,,,,,,,,,,,,,,
null,,black_cross(without_color),871878,,yellow,,,,null,GW/carmel.png,GW/newhope.png,,,,,,,,,,,,,,,,,,,,,,,,,
null,,rt_plussign_withcolor,872385,,yellow,,,,null,GW/carmel.png,GW/newhope.png,,,,,,,,,,,,,,,,,,,,,,,,,
934.7000000476837,,rt_thecrossant_black,873878,,black_plus_sign,,,,50,,,1,0.9705882352941176,,,,,,,,,,,,,,,,,,,,,,,
null,,color_black,873979,,black_plus_sign,,,,null,,,,,,,,,,,,,,,,,,,,,,,,,,,
null,,learn_phase(without_color),876979,,black_plus_sign,,,,null,GW/leesburg.png,GW/boulder.png,,,,,,,,,,,,,,,,,,,,,,,,,
null,,black_cross(without_color),877521,,yellow,,,,null,GW/leesburg.png,GW/boulder.png,,,,,,,,,,,,,,,,,,,,,,,,,
null,,rt_plussign_withcolor,878023,,yellow,,,,null,GW/leesburg.png,GW/boulder.png,,,,,,,,,,,,,,,,,,,,,,,,,
828.3000000715256,,rt_thecrossant_black,879483,,black_plus_sign,,,,50,,,1,0.9710144927536232,,,,,,,,,,,,,,,,,,,,,,,
null,,color_black,879585,,black_plus_sign,,,,null,,,,,,,,,,,,,,,,,,,,,,,,,,,
null,,learn_phase(without_color),882586,,black_plus_sign,,,,null,GW/peoria.png,GW/huntsville.png,,,,,,,,,,,,,,,,,,,,,,,,,
null,,black_cross(without_color),883479,,blue,,,,null,GW/peoria.png,GW/huntsville.png,,,,,,,,,,,,,,,,,,,,,,,,,
null,,rt_plussign_withcolor,883980,,blue,,,,null,GW/peoria.png,GW/huntsville.png,,,,,,,,,,,,,,,,,,,,,,,,,
808.0999999046326,,rt_thecrossant_black,885090,,black_plus_sign,,,,49,,,1,0.9714285714285714,,,,,,,,,,,,,,,,,,,,,,,
null,,color_black,885191,,black_plus_sign,,,,null,,,,,,,,,,,,,,,,,,,,,,,,,,,
null,,learn_phase(without_color),888193,,black_plus_sign,,,,null,GW/cornwall.png,GW/gatlinburg.png,,,,,,,,,,,,,,,,,,,,,,,,,
null,,black_cross(without_color),889133,,yellow,,,,null,GW/cornwall.png,GW/gatlinburg.png,,,,,,,,,,,,,,,,,,,,,,,,,
null,,rt_plussign_withcolor,889635,,yellow,,,,null,GW/cornwall.png,GW/gatlinburg.png,,,,,,,,,,,,,,,,,,,,,,,,,
1023,,rt_thecrossant_black,890697,,black_plus_sign,,,,50,,,1,0.971830985915493,,,,,,,,,,,,,,,,,,,,,,,
null,,color_black,890798,,black_plus_sign,,,,null,,,,,,,,,,,,,,,,,,,,,,,,,,,
null,,learn_phase(without_color),893800,,black_plus_sign,,,,null,GW/carmel.png,GW/newhope.png,,,,,,,,,,,,,,,,,,,,,,,,,
null,,black_cross(without_color),894292,,blue,,,,null,GW/carmel.png,GW/newhope.png,,,,,,,,,,,,,,,,,,,,,,,,,
null,,rt_plussign_withcolor,894794,,blue,,,,null,GW/carmel.png,GW/newhope.png,,,,,,,,,,,,,,,,,,,,,,,,,
1200.2999999523163,,rt_thecrossant_black,896305,,black_plus_sign,,,,49,,,1,0.9722222222222222,,,,,,,,,,,,,,,,,,,,,,,
null,,color_black,896407,,black_plus_sign,,,,null,,,,,,,,,,,,,,,,,,,,,,,,,,,
null,,learn_phase(without_color),899410,,black_plus_sign,,,,null,GW/peoria.png,GW/huntsville.png,,,,,,,,,,,,,,,,,,,,,,,,,
null,,black_cross(without_color),899832,,blue,,,,null,GW/peoria.png,GW/huntsville.png,,,,,,,,,,,,,,,,,,,,,,,,,
null,,rt_plussign_withcolor,900334,,blue,,,,null,GW/peoria.png,GW/huntsville.png,,,,,,,,,,,,,,,,,,,,,,,,,
819.3000000715256,,rt_thecrossant_black,901915,,black_plus_sign,,,,49,,,1,0.9726027397260274,,,,,,,,,,,,,,,,,,,,,,,
null,,color_black,902017,,black_plus_sign,,,,null,,,,,,,,,,,,,,,,,,,,,,,,,,,
null,,learn_phase(without_color),905019,,black_plus_sign,,,,null,GW/leesburg.png,GW/boulder.png,,,,,,,,,,,,,,,,,,,,,,,,,
null,,black_cross(without_color),906092,,yellow,,,,null,GW/leesburg.png,GW/boulder.png,,,,,,,,,,,,,,,,,,,,,,,,,
null,,rt_plussign_withcolor,906593,,yellow,,,,null,GW/leesburg.png,GW/boulder.png,,,,,,,,,,,,,,,,,,,,,,,,,
563.3000000715256,,rt_thecrossant_black,907522,,black_plus_sign,,,,50,,,1,0.972972972972973,,,,,,,,,,,,,,,,,,,,,,,
null,,color_black,907624,,black_plus_sign,,,,null,,,,,,,,,,,,,,,,,,,,,,,,,,,
null,,learn_phase(without_color),910625,,black_plus_sign,,,,null,GW/newhope.png,GW/carmel.png,,,,,,,,,,,,,,,,,,,,,,,,,
null,,black_cross(without_color),911425,,blue,,,,null,GW/newhope.png,GW/carmel.png,,,,,,,,,,,,,,,,,,,,,,,,,
null,,rt_plussign_withcolor,911926,,blue,,,,null,GW/newhope.png,GW/carmel.png,,,,,,,,,,,,,,,,,,,,,,,,,
1264.9000000953674,,rt_thecrossant_black,913130,,black_plus_sign,,,,49,,,1,0.9733333333333334,,,,,,,,,,,,,,,,,,,,,,,
null,,color_black,913231,,black_plus_sign,,,,null,,,,,,,,,,,,,,,,,,,,,,,,,,,
null,,learn_phase(without_color),916233,,black_plus_sign,,,,null,GW/gatlinburg.png,GW/cornwall.png,,,,,,,,,,,,,,,,,,,,,,,,,
null,,black_cross(without_color),917292,,yellow,,,,null,GW/gatlinburg.png,GW/cornwall.png,,,,,,,,,,,,,,,,,,,,,,,,,
null,,rt_plussign_withcolor,917793,,yellow,,,,null,GW/gatlinburg.png,GW/cornwall.png,,,,,,,,,,,,,,,,,,,,,,,,,
900.3999999761581,,rt_thecrossant_black,918736,,black_plus_sign,,,,50,,,1,0.9736842105263158,,,,,,,,,,,,,,,,,,,,,,,
null,,color_black,918838,,black_plus_sign,,,,null,,,,,,,,,,,,,,,,,,,,,,,,,,,
null,,learn_phase(without_color),921840,,black_plus_sign,,,,null,GW/carmel.png,GW/newhope.png,,,,,,,,,,,,,,,,,,,,,,,,,
null,,black_cross(without_color),922881,,yellow,,,,null,GW/carmel.png,GW/newhope.png,,,,,,,,,,,,,,,,,,,,,,,,,
null,,rt_plussign_withcolor,923383,,yellow,,,,null,GW/carmel.png,GW/newhope.png,,,,,,,,,,,,,,,,,,,,,,,,,
1425.8000000715256,,rt_thecrossant_black,924345,,black_plus_sign,,,,50,,,1,0.974025974025974,,,,,,,,,,,,,,,,,,,,,,,
null,,color_black,924446,,black_plus_sign,,,,null,,,,,,,,,,,,,,,,,,,,,,,,,,,
null,,learn_phase(without_color),927448,,black_plus_sign,,,,null,GW/huntsville.png,GW/peoria.png,,,,,,,,,,,,,,,,,,,,,,,,,
null,,black_cross(without_color),928029,,yellow,,,,null,GW/huntsville.png,GW/peoria.png,,,,,,,,,,,,,,,,,,,,,,,,,
414.1999999284744,,rt_plussign_withcolor,928532,,yellow,,,,50,GW/huntsville.png,GW/peoria.png,,,,,,,,,,,,,,,,,,,,,,,,,
null,,rt_thecrossant_black,929953,,black_plus_sign,,,,null,,,1,0.9743589743589743,,,,,,,,,,,,,,,,,,,,,,,
null,,color_black,930055,,black_plus_sign,,,,null,,,,,,,,,,,,,,,,,,,,,,,,,,,
null,,learn_phase(without_color),933057,,black_plus_sign,,,,null,GW/boulder.png,GW/leesburg.png,,,,,,,,,,,,,,,,,,,,,,,,,
null,,black_cross(without_color),933506,,blue,,,,null,GW/boulder.png,GW/leesburg.png,,,,,,,,,,,,,,,,,,,,,,,,,
null,,rt_plussign_withcolor,934007,,blue,,,,null,GW/boulder.png,GW/leesburg.png,,,,,,,,,,,,,,,,,,,,,,,,,
828.3000000715256,,rt_thecrossant_black,935560,,black_plus_sign,,,,49,,,1,0.9746835443037974,,,,,,,,,,,,,,,,,,,,,,,
null,,color_black,935662,,black_plus_sign,,,,null,,,,,,,,,,,,,,,,,,,,,,,,,,,
null,,learn_phase(without_color),938661,,black_plus_sign,,,,null,GW/cornwall.png,GW/gatlinburg.png,,,,,,,,,,,,,,,,,,,,,,,,,
null,,black_cross(without_color),939307,,yellow,,,,null,GW/cornwall.png,GW/gatlinburg.png,,,,,,,,,,,,,,,,,,,,,,,,,
null,,rt_plussign_withcolor,939809,,yellow,,,,null,GW/cornwall.png,GW/gatlinburg.png,,,,,,,,,,,,,,,,,,,,,,,,,
628.7999999523163,,rt_thecrossant_black,941165,,black_plus_sign,,,,50,,,1,0.975,,,,,,,,,,,,,,,,,,,,,,,
null,,color_black,941267,,black_plus_sign,,,,null,,,,,,,,,,,,,,,,,,,,,,,,,,,
null,,learn_phase(without_color),944269,,black_plus_sign,,,,null,GW/peoria.png,GW/huntsville.png,,,,,,,,,,,,,,,,,,,,,,,,,
null,,black_cross(without_color),945279,,yellow,,,,null,GW/peoria.png,GW/huntsville.png,,,,,,,,,,,,,,,,,,,,,,,,,
null,,rt_plussign_withcolor,945780,,yellow,,,,null,GW/peoria.png,GW/huntsville.png,,,,,,,,,,,,,,,,,,,,,,,,,
814.1000000238419,,rt_thecrossant_black,946774,,black_plus_sign,,,,50,,,1,0.9753086419753086,,,,,,,,,,,,,,,,,,,,,,,
null,,color_black,946876,,black_plus_sign,,,,null,,,,,,,,,,,,,,,,,,,,,,,,,,,
null,,learn_phase(without_color),949879,,black_plus_sign,,,,null,GW/leesburg.png,GW/boulder.png,,,,,,,,,,,,,,,,,,,,,,,,,
null,,black_cross(without_color),950397,,yellow,,,,null,GW/leesburg.png,GW/boulder.png,,,,,,,,,,,,,,,,,,,,,,,,,
null,,rt_plussign_withcolor,950898,,yellow,,,,null,GW/leesburg.png,GW/boulder.png,,,,,,,,,,,,,,,,,,,,,,,,,
1219.8999999761581,,rt_thecrossant_black,952383,,black_plus_sign,,,,50,,,1,0.975609756097561,,,,,,,,,,,,,,,,,,,,,,,
null,,color_black,952485,,black_plus_sign,,,,null,,,,,,,,,,,,,,,,,,,,,,,,,,,
null,,learn_phase(without_color),955488,,black_plus_sign,,,,null,GW/gatlinburg.png,GW/cornwall.png,,,,,,,,,,,,,,,,,,,,,,,,,
null,,black_cross(without_color),956440,,yellow,,,,null,GW/gatlinburg.png,GW/cornwall.png,,,,,,,,,,,,,,,,,,,,,,,,,
369.5,,rt_plussign_withcolor,956942,,yellow,,,,50,GW/gatlinburg.png,GW/cornwall.png,,,,,,,,,,,,,,,,,,,,,,,,,
null,,rt_thecrossant_black,957992,,black_plus_sign,,,,null,,,1,0.9759036144578314,,,,,,,,,,,,,,,,,,,,,,,
null,,color_black,958094,,black_plus_sign,,,,null,,,,,,,,,,,,,,,,,,,,,,,,,,,
null,,learn_phase(without_color),961095,,black_plus_sign,,,,null,GW/peoria.png,GW/huntsville.png,,,,,,,,,,,,,,,,,,,,,,,,,
null,,black_cross(without_color),962057,,yellow,,,,null,GW/peoria.png,GW/huntsville.png,,,,,,,,,,,,,,,,,,,,,,,,,
416.60000002384186,,rt_plussign_withcolor,962560,,yellow,,,,50,GW/peoria.png,GW/huntsville.png,,,,,,,,,,,,,,,,,,,,,,,,,
null,,rt_thecrossant_black,963605,,black_plus_sign,,,,null,,,1,0.9761904761904762,,,,,,,,,,,,,,,,,,,,,,,
null,,color_black,963714,,black_plus_sign,,,,null,,,,,,,,,,,,,,,,,,,,,,,,,,,
null,,learn_phase(without_color),966715,,black_plus_sign,,,,null,GW/leesburg.png,GW/boulder.png,,,,,,,,,,,,,,,,,,,,,,,,,
null,,black_cross(without_color),967491,,blue,,,,null,GW/leesburg.png,GW/boulder.png,,,,,,,,,,,,,,,,,,,,,,,,,
null,,rt_plussign_withcolor,967994,,blue,,,,null,GW/leesburg.png,GW/boulder.png,,,,,,,,,,,,,,,,,,,,,,,,,
1092.8000000715256,,rt_thecrossant_black,969220,,black_plus_sign,,,,49,,,1,0.9764705882352941,,,,,,,,,,,,,,,,,,,,,,,
null,,color_black,969322,,black_plus_sign,,,,null,,,,,,,,,,,,,,,,,,,,,,,,,,,
null,,learn_phase(without_color),972324,,black_plus_sign,,,,null,GW/huntsville.png,GW/peoria.png,,,,,,,,,,,,,,,,,,,,,,,,,
null,,black_cross(without_color),973339,,blue,,,,null,GW/huntsville.png,GW/peoria.png,,,,,,,,,,,,,,,,,,,,,,,,,
null,,rt_plussign_withcolor,973841,,blue,,,,null,GW/huntsville.png,GW/peoria.png,,,,,,,,,,,,,,,,,,,,,,,,,
940,,rt_thecrossant_black,974829,,black_plus_sign,,,,49,,,1,0.9767441860465116,,,,,,,,,,,,,,,,,,,,,,,
null,,color_black,974931,,black_plus_sign,,,,null,,,,,,,,,,,,,,,,,,,,,,,,,,,
null,,learn_phase(without_color),977932,,black_plus_sign,,,,null,GW/carmel.png,GW/newhope.png,,,,,,,,,,,,,,,,,,,,,,,,,
null,,black_cross(without_color),978432,,blue,,,,null,GW/carmel.png,GW/newhope.png,,,,,,,,,,,,,,,,,,,,,,,,,
null,,rt_plussign_withcolor,978934,,blue,,,,null,GW/carmel.png,GW/newhope.png,,,,,,,,,,,,,,,,,,,,,,,,,
1116.4000000953674,,rt_thecrossant_black,980438,,black_plus_sign,,,,49,,,1,0.9770114942528736,,,,,,,,,,,,,,,,,,,,,,,
null,,color_black,980539,,black_plus_sign,,,,null,,,,,,,,,,,,,,,,,,,,,,,,,,,
null,,learn_phase(without_color),983541,,black_plus_sign,,,,null,GW/boulder.png,GW/leesburg.png,,,,,,,,,,,,,,,,,,,,,,,,,
null,,black_cross(without_color),984486,,blue,,,,null,GW/boulder.png,GW/leesburg.png,,,,,,,,,,,,,,,,,,,,,,,,,
null,,rt_plussign_withcolor,984988,,blue,,,,null,GW/boulder.png,GW/leesburg.png,,,,,,,,,,,,,,,,,,,,,,,,,
676.2999999523163,,rt_thecrossant_black,986046,,black_plus_sign,,,,49,,,1,0.9772727272727273,,,,,,,,,,,,,,,,,,,,,,,
null,,color_black,986148,,black_plus_sign,,,,null,,,,,,,,,,,,,,,,,,,,,,,,,,,
null,,learn_phase(without_color),989150,,black_plus_sign,,,,null,GW/peoria.png,GW/huntsville.png,,,,,,,,,,,,,,,,,,,,,,,,,
null,,black_cross(without_color),989743,,blue,,,,null,GW/peoria.png,GW/huntsville.png,,,,,,,,,,,,,,,,,,,,,,,,,
499.2999999523163,,rt_plussign_withcolor,990244,,blue,,,,49,GW/peoria.png,GW/huntsville.png,,,,,,,,,,,,,,,,,,,,,,,,,
null,,rt_thecrossant_black,991654,,black_plus_sign,,,,null,,,1,0.9775280898876404,,,,,,,,,,,,,,,,,,,,,,,
null,,color_black,991756,,black_plus_sign,,,,null,,,,,,,,,,,,,,,,,,,,,,,,,,,
null,,learn_phase(without_color),994757,,black_plus_sign,,,,null,GW/cornwall.png,GW/gatlinburg.png,,,,,,,,,,,,,,,,,,,,,,,,,
null,,black_cross(without_color),995782,,blue,,,,null,GW/cornwall.png,GW/gatlinburg.png,,,,,,,,,,,,,,,,,,,,,,,,,
null,,rt_plussign_withcolor,996284,,blue,,,,null,GW/cornwall.png,GW/gatlinburg.png,,,,,,,,,,,,,,,,,,,,,,,,,
696.8999999761581,,rt_thecrossant_black,997261,,black_plus_sign,,,,49,,,1,0.9777777777777777,,,,,,,,,,,,,,,,,,,,,,,
null,,color_black,997364,,black_plus_sign,,,,null,,,,,,,,,,,,,,,,,,,,,,,,,,,
null,,learn_phase(without_color),1000364,,black_plus_sign,,,,null,GW/carmel.png,GW/newhope.png,,,,,,,,,,,,,,,,,,,,,,,,,
null,,black_cross(without_color),1001046,,yellow,,,,null,GW/carmel.png,GW/newhope.png,,,,,,,,,,,,,,,,,,,,,,,,,
474.2999999523163,,rt_plussign_withcolor,1001548,,yellow,,,,50,GW/carmel.png,GW/newhope.png,,,,,,,,,,,,,,,,,,,,,,,,,
null,,rt_thecrossant_black,1002869,,black_plus_sign,,,,null,,,1,0.978021978021978,,,,,,,,,,,,,,,,,,,,,,,
null,,color_black,1002971,,black_plus_sign,,,,null,,,,,,,,,,,,,,,,,,,,,,,,,,,
null,,learn_phase(without_color),1005973,,black_plus_sign,,,,null,GW/cornwall.png,GW/gatlinburg.png,,,,,,,,,,,,,,,,,,,,,,,,,
null,,black_cross(without_color),1006674,,yellow,,,,null,GW/cornwall.png,GW/gatlinburg.png,,,,,,,,,,,,,,,,,,,,,,,,,
null,,rt_plussign_withcolor,1007176,,yellow,,,,null,GW/cornwall.png,GW/gatlinburg.png,,,,,,,,,,,,,,,,,,,,,,,,,
822,,rt_thecrossant_black,1008478,,black_plus_sign,,,,50,,,1,0.9782608695652174,,,,,,,,,,,,,,,,,,,,,,,
null,,color_black,1008579,,black_plus_sign,,,,null,,,,,,,,,,,,,,,,,,,,,,,,,,,
null,,learn_phase(without_color),1011580,,black_plus_sign,,,,null,GW/cornwall.png,GW/gatlinburg.png,,,,,,,,,,,,,,,,,,,,,,,,,
null,,black_cross(without_color),1012135,,yellow,,,,null,GW/cornwall.png,GW/gatlinburg.png,,,,,,,,,,,,,,,,,,,,,,,,,
416.6999999284744,,rt_plussign_withcolor,1012638,,yellow,,,,50,GW/cornwall.png,GW/gatlinburg.png,,,,,,,,,,,,,,,,,,,,,,,,,
null,,rt_thecrossant_black,1014085,,black_plus_sign,,,,null,,,1,0.978494623655914,,,,,,,,,,,,,,,,,,,,,,,
null,,color_black,1014186,,black_plus_sign,,,,null,,,,,,,,,,,,,,,,,,,,,,,,,,,
null,,learn_phase(without_color),1017189,,black_plus_sign,,,,null,GW/newhope.png,GW/carmel.png,,,,,,,,,,,,,,,,,,,,,,,,,
null,,black_cross(without_color),1017743,,yellow,,,,null,GW/newhope.png,GW/carmel.png,,,,,,,,,,,,,,,,,,,,,,,,,
489.5,,rt_plussign_withcolor,1018245,,yellow,,,,50,GW/newhope.png,GW/carmel.png,,,,,,,,,,,,,,,,,,,,,,,,,
null,,rt_thecrossant_black,1019694,,black_plus_sign,,,,null,,,1,0.9787234042553191,,,,,,,,,,,,,,,,,,,,,,,
null,,color_black,1019795,,black_plus_sign,,,,null,,,,,,,,,,,,,,,,,,,,,,,,,,,
null,,learn_phase(without_color),1022798,,black_plus_sign,,,,null,GW/cornwall.png,GW/gatlinburg.png,,,,,,,,,,,,,,,,,,,,,,,,,
null,,black_cross(without_color),1023398,,yellow,,,,null,GW/cornwall.png,GW/gatlinburg.png,,,,,,,,,,,,,,,,,,,,,,,,,
386.89999997615814,,rt_plussign_withcolor,1023899,,yellow,,,,50,GW/cornwall.png,GW/gatlinburg.png,,,,,,,,,,,,,,,,,,,,,,,,,
null,,rt_thecrossant_black,1025303,,black_plus_sign,,,,null,,,1,0.9789473684210527,,,,,,,,,,,,,,,,,,,,,,,
null,,color_black,1025405,,black_plus_sign,,,,null,,,,,,,,,,,,,,,,,,,,,,,,,,,
null,,learn_phase(without_color),1028406,,black_plus_sign,,,,null,GW/boulder.png,GW/leesburg.png,,,,,,,,,,,,,,,,,,,,,,,,,
null,,black_cross(without_color),1028819,,blue,,,,null,GW/boulder.png,GW/leesburg.png,,,,,,,,,,,,,,,,,,,,,,,,,
null,,rt_plussign_withcolor,1029320,,blue,,,,null,GW/boulder.png,GW/leesburg.png,,,,,,,,,,,,,,,,,,,,,,,,,
874,,rt_thecrossant_black,1030911,,black_plus_sign,,,,49,,,1,0.9791666666666666,,,,,,,,,,,,,,,,,,,,,,,
null,,color_black,1031013,,black_plus_sign,,,,null,,,,,,,,,,,,,,,,,,,,,,,,,,,
null,,learn_phase(without_color),1034015,,black_plus_sign,,,,null,GW/huntsville.png,GW/newhope.png,,,,,,,,,,,,,,,,,,,,,,,,,
null,,black_cross(without_color),1034786,,yellow,,,,null,GW/huntsville.png,GW/newhope.png,,,,,,,,,,,,,,,,,,,,,,,,,
null,,rt_plussign_withcolor,1035289,,yellow,,,,null,GW/huntsville.png,GW/newhope.png,,,,,,,,,,,,,,,,,,,,,,,,,
710.6999999284744,,rt_thecrossant_black,1036520,,black_plus_sign,,,,50,,,1,0.979381443298969,,,,,,,,,,,,,,,,,,,,,,,
null,,color_black,1036622,,black_plus_sign,,,,null,,,,,,,,,,,,,,,,,,,,,,,,,,,
null,,learn_phase(without_color),1039624,,black_plus_sign,,,,null,GW/peoria.png,GW/hotsprings.png,,,,,,,,,,,,,,,,,,,,,,,,,
null,,black_cross(without_color),1040645,,blue,,,,null,GW/peoria.png,GW/hotsprings.png,,,,,,,,,,,,,,,,,,,,,,,,,
null,,rt_plussign_withcolor,1041146,,blue,,,,null,GW/peoria.png,GW/hotsprings.png,,,,,,,,,,,,,,,,,,,,,,,,,
884.3999999761581,,rt_thecrossant_black,1042128,,black_plus_sign,,,,49,,,1,0.9795918367346939,,,,,,,,,,,,,,,,,,,,,,,
null,,color_black,1042229,,black_plus_sign,,,,null,,,,,,,,,,,,,,,,,,,,,,,,,,,
null,,learn_phase(without_color),1045232,,black_plus_sign,,,,null,GW/hanover.png,GW/carmel.png,,,,,,,,,,,,,,,,,,,,,,,,,
null,,black_cross(without_color),1045728,,blue,,,,null,GW/hanover.png,GW/carmel.png,,,,,,,,,,,,,,,,,,,,,,,,,
null,,rt_plussign_withcolor,1046229,,blue,,,,null,GW/hanover.png,GW/carmel.png,,,,,,,,,,,,,,,,,,,,,,,,,
1275.1000000238419,,rt_thecrossant_black,1047736,,black_plus_sign,,,,49,,,1,0.9797979797979798,,,,,,,,,,,,,,,,,,,,,,,
null,,color_black,1047839,,black_plus_sign,,,,null,,,,,,,,,,,,,,,,,,,,,,,,,,,
null,,learn_phase(without_color),1050840,,black_plus_sign,,,,null,GW/peoria.png,GW/hotsprings.png,,,,,,,,,,,,,,,,,,,,,,,,,
null,,black_cross(without_color),1051246,,blue,,,,null,GW/peoria.png,GW/hotsprings.png,,,,,,,,,,,,,,,,,,,,,,,,,
null,,rt_plussign_withcolor,1051748,,blue,,,,null,GW/peoria.png,GW/hotsprings.png,,,,,,,,,,,,,,,,,,,,,,,,,
751.2999999523163,,rt_thecrossant_black,1053344,,black_plus_sign,,,,49,,,1,0.98,,,,,,,,,,,,,,,,,,,,,,,
null,,color_black,1053445,,black_plus_sign,,,,null,,,,,,,,,,,,,,,,,,,,,,,,,,,
null,,learn_phase(without_color),1056446,,black_plus_sign,,,,null,GW/hanover.png,GW/carmel.png,,,,,,,,,,,,,,,,,,,,,,,,,
null,,black_cross(without_color),1057044,,blue,,,,null,GW/hanover.png,GW/carmel.png,,,,,,,,,,,,,,,,,,,,,,,,,
436.7999999523163,,rt_plussign_withcolor,1057545,,blue,,,,49,GW/hanover.png,GW/carmel.png,,,,,,,,,,,,,,,,,,,,,,,,,
null,,rt_thecrossant_black,1058951,,black_plus_sign,,,,null,,,1,0.9801980198019802,,,,,,,,,,,,,,,,,,,,,,,
null,,color_black,1059052,,black_plus_sign,,,,null,,,,,,,,,,,,,,,,,,,,,,,,,,,
null,,learn_phase(without_color),1062053,,black_plus_sign,,,,null,GW/shreveport.png,GW/gatlinburg.png,,,,,,,,,,,,,,,,,,,,,,,,,
null,,black_cross(without_color),1062946,,blue,,,,null,GW/shreveport.png,GW/gatlinburg.png,,,,,,,,,,,,,,,,,,,,,,,,,
461.7999999523163,,rt_plussign_withcolor,1063446,,blue,,,,49,GW/shreveport.png,GW/gatlinburg.png,,,,,,,,,,,,,,,,,,,,,,,,,
null,,rt_thecrossant_black,1064558,,black_plus_sign,,,,null,,,1,0.9803921568627451,,,,,,,,,,,,,,,,,,,,,,,
null,,color_black,1064659,,black_plus_sign,,,,null,,,,,,,,,,,,,,,,,,,,,,,,,,,
null,,learn_phase(without_color),1067661,,black_plus_sign,,,,null,GW/huntsville.png,GW/newhope.png,,,,,,,,,,,,,,,,,,,,,,,,,
null,,black_cross(without_color),1068459,,blue,,,,null,GW/huntsville.png,GW/newhope.png,,,,,,,,,,,,,,,,,,,,,,,,,
404,,rt_plussign_withcolor,1068960,,blue,,,,49,GW/huntsville.png,GW/newhope.png,,,,,,,,,,,,,,,,,,,,,,,,,
null,,rt_thecrossant_black,1070178,,black_plus_sign,,,,null,,,1,0.9805825242718447,,,,,,,,,,,,,,,,,,,,,,,
null,,color_black,1070279,,black_plus_sign,,,,null,,,,,,,,,,,,,,,,,,,,,,,,,,,
null,,learn_phase(without_color),1073281,,black_plus_sign,,,,null,GW/hanover.png,GW/carmel.png,,,,,,,,,,,,,,,,,,,,,,,,,
null,,black_cross(without_color),1074089,,yellow,,,,null,GW/hanover.png,GW/carmel.png,,,,,,,,,,,,,,,,,,,,,,,,,
null,,rt_plussign_withcolor,1074591,,yellow,,,,null,GW/hanover.png,GW/carmel.png,,,,,,,,,,,,,,,,,,,,,,,,,
945.5,,rt_thecrossant_black,1075785,,black_plus_sign,,,,50,,,1,0.9807692307692307,,,,,,,,,,,,,,,,,,,,,,,
null,,color_black,1075901,,black_plus_sign,,,,null,,,,,,,,,,,,,,,,,,,,,,,,,,,
null,,learn_phase(without_color),1078903,,black_plus_sign,,,,null,GW/newhope.png,GW/huntsville.png,,,,,,,,,,,,,,,,,,,,,,,,,
null,,black_cross(without_color),1079330,,blue,,,,null,GW/newhope.png,GW/huntsville.png,,,,,,,,,,,,,,,,,,,,,,,,,
null,,rt_plussign_withcolor,1079831,,blue,,,,null,GW/newhope.png,GW/huntsville.png,,,,,,,,,,,,,,,,,,,,,,,,,
970.6999999284744,,rt_thecrossant_black,1081408,,black_plus_sign,,,,49,,,1,0.9809523809523809,,,,,,,,,,,,,,,,,,,,,,,
null,,color_black,1081510,,black_plus_sign,,,,null,,,,,,,,,,,,,,,,,,,,,,,,,,,
null,,learn_phase(without_color),1084512,,black_plus_sign,,,,null,GW/shreveport.png,GW/gatlinburg.png,,,,,,,,,,,,,,,,,,,,,,,,,
null,,black_cross(without_color),1085293,,blue,,,,null,GW/shreveport.png,GW/gatlinburg.png,,,,,,,,,,,,,,,,,,,,,,,,,
434.5,,rt_plussign_withcolor,1085795,,blue,,,,49,GW/shreveport.png,GW/gatlinburg.png,,,,,,,,,,,,,,,,,,,,,,,,,
null,,rt_thecrossant_black,1087028,,black_plus_sign,,,,null,,,1,0.9811320754716981,,,,,,,,,,,,,,,,,,,,,,,
null,,color_black,1087130,,black_plus_sign,,,,null,,,,,,,,,,,,,,,,,,,,,,,,,,,
null,,learn_phase(without_color),1090131,,black_plus_sign,,,,null,GW/carmel.png,GW/hanover.png,,,,,,,,,,,,,,,,,,,,,,,,,
null,,black_cross(without_color),1090890,,blue,,,,null,GW/carmel.png,GW/hanover.png,,,,,,,,,,,,,,,,,,,,,,,,,
445.2000000476837,,rt_plussign_withcolor,1091404,,blue,,,,49,GW/carmel.png,GW/hanover.png,,,,,,,,,,,,,,,,,,,,,,,,,
null,,rt_thecrossant_black,1092648,,black_plus_sign,,,,null,,,1,0.9813084112149533,,,,,,,,,,,,,,,,,,,,,,,
null,,color_black,1092749,,black_plus_sign,,,,null,,,,,,,,,,,,,,,,,,,,,,,,,,,
null,,learn_phase(without_color),1095750,,black_plus_sign,,,,null,GW/shreveport.png,GW/gatlinburg.png,,,,,,,,,,,,,,,,,,,,,,,,,
null,,black_cross(without_color),1096438,,yellow,,,,null,GW/shreveport.png,GW/gatlinburg.png,,,,,,,,,,,,,,,,,,,,,,,,,
null,,rt_plussign_withcolor,1096940,,yellow,,,,null,GW/shreveport.png,GW/gatlinburg.png,,,,,,,,,,,,,,,,,,,,,,,,,
909.2000000476837,,rt_thecrossant_black,1098255,,black_plus_sign,,,,50,,,1,0.9814814814814815,,,,,,,,,,,,,,,,,,,,,,,
null,,color_black,1098356,,black_plus_sign,,,,null,,,,,,,,,,,,,,,,,,,,,,,,,,,
null,,learn_phase(without_color),1101358,,black_plus_sign,,,,null,GW/hotsprings.png,GW/peoria.png,,,,,,,,,,,,,,,,,,,,,,,,,
null,,black_cross(without_color),1101905,,yellow,,,,null,GW/hotsprings.png,GW/peoria.png,,,,,,,,,,,,,,,,,,,,,,,,,
null,,rt_plussign_withcolor,1102406,,yellow,,,,null,GW/hotsprings.png,GW/peoria.png,,,,,,,,,,,,,,,,,,,,,,,,,
835.7999999523163,,rt_thecrossant_black,1103862,,black_plus_sign,,,,50,,,1,0.981651376146789,,,,,,,,,,,,,,,,,,,,,,,
null,,color_black,1103964,,black_plus_sign,,,,null,,,,,,,,,,,,,,,,,,,,,,,,,,,
null,,learn_phase(without_color),1106965,,black_plus_sign,,,,null,GW/shreveport.png,GW/gatlinburg.png,,,,,,,,,,,,,,,,,,,,,,,,,
null,,black_cross(without_color),1107368,,yellow,,,,null,GW/shreveport.png,GW/gatlinburg.png,,,,,,,,,,,,,,,,,,,,,,,,,
null,,rt_plussign_withcolor,1107869,,yellow,,,,null,GW/shreveport.png,GW/gatlinburg.png,,,,,,,,,,,,,,,,,,,,,,,,,
719.2000000476837,,rt_thecrossant_black,1109470,,black_plus_sign,,,,50,,,1,0.9818181818181818,,,,,,,,,,,,,,,,,,,,,,,
null,,color_black,1109571,,black_plus_sign,,,,null,,,,,,,,,,,,,,,,,,,,,,,,,,,
null,,learn_phase(without_color),1112574,,black_plus_sign,,,,null,GW/huntsville.png,GW/newhope.png,,,,,,,,,,,,,,,,,,,,,,,,,
null,,black_cross(without_color),1112996,,blue,,,,null,GW/huntsville.png,GW/newhope.png,,,,,,,,,,,,,,,,,,,,,,,,,
null,,rt_plussign_withcolor,1113498,,blue,,,,null,GW/huntsville.png,GW/newhope.png,,,,,,,,,,,,,,,,,,,,,,,,,
547.3999999761581,,rt_thecrossant_black,1115079,,black_plus_sign,,,,49,,,1,0.9819819819819819,,,,,,,,,,,,,,,,,,,,,,,
null,,color_black,1115181,,black_plus_sign,,,,null,,,,,,,,,,,,,,,,,,,,,,,,,,,
null,,learn_phase(without_color),1118182,,black_plus_sign,,,,null,GW/gatlinburg.png,GW/shreveport.png,,,,,,,,,,,,,,,,,,,,,,,,,
null,,black_cross(without_color),1118918,,blue,,,,null,GW/gatlinburg.png,GW/shreveport.png,,,,,,,,,,,,,,,,,,,,,,,,,
null,,rt_plussign_withcolor,1119419,,blue,,,,null,GW/gatlinburg.png,GW/shreveport.png,,,,,,,,,,,,,,,,,,,,,,,,,
587.7000000476837,,rt_thecrossant_black,1120692,,black_plus_sign,,,,49,,,1,0.9821428571428571,,,,,,,,,,,,,,,,,,,,,,,
null,,color_black,1120794,,black_plus_sign,,,,null,,,,,,,,,,,,,,,,,,,,,,,,,,,
null,,learn_phase(without_color),1123795,,black_plus_sign,,,,null,GW/peoria.png,GW/hotsprings.png,,,,,,,,,,,,,,,,,,,,,,,,,
null,,black_cross(without_color),1124881,,yellow,,,,null,GW/peoria.png,GW/hotsprings.png,,,,,,,,,,,,,,,,,,,,,,,,,
null,,rt_plussign_withcolor,1125382,,yellow,,,,null,GW/peoria.png,GW/hotsprings.png,,,,,,,,,,,,,,,,,,,,,,,,,
897.5,,rt_thecrossant_black,1126299,,black_plus_sign,,,,50,,,1,0.9823008849557522,,,,,,,,,,,,,,,,,,,,,,,
null,,color_black,1126400,,black_plus_sign,,,,null,,,,,,,,,,,,,,,,,,,,,,,,,,,
null,,learn_phase(without_color),1129402,,black_plus_sign,,,,null,GW/newhope.png,GW/huntsville.png,,,,,,,,,,,,,,,,,,,,,,,,,
null,,black_cross(without_color),1129845,,yellow,,,,null,GW/newhope.png,GW/huntsville.png,,,,,,,,,,,,,,,,,,,,,,,,,
null,,rt_plussign_withcolor,1130346,,yellow,,,,null,GW/newhope.png,GW/huntsville.png,,,,,,,,,,,,,,,,,,,,,,,,,
1244.4000000953674,,rt_thecrossant_black,1131906,,black_plus_sign,,,,50,,,1,0.9824561403508771,,,,,,,,,,,,,,,,,,,,,,,
null,,color_black,1132008,,black_plus_sign,,,,null,,,,,,,,,,,,,,,,,,,,,,,,,,,
null,,learn_phase(without_color),1135009,,black_plus_sign,,,,null,GW/gatlinburg.png,GW/shreveport.png,,,,,,,,,,,,,,,,,,,,,,,,,
null,,black_cross(without_color),1136068,,blue,,,,null,GW/gatlinburg.png,GW/shreveport.png,,,,,,,,,,,,,,,,,,,,,,,,,
482.2000000476837,,rt_plussign_withcolor,1136569,,blue,,,,49,GW/gatlinburg.png,GW/shreveport.png,,,,,,,,,,,,,,,,,,,,,,,,,
null,,rt_thecrossant_black,1137513,,black_plus_sign,,,,null,,,1,0.9826086956521739,,,,,,,,,,,,,,,,,,,,,,,
null,,color_black,1137628,,black_plus_sign,,,,null,,,,,,,,,,,,,,,,,,,,,,,,,,,
null,,learn_phase(without_color),1140629,,black_plus_sign,,,,null,GW/hanover.png,GW/carmel.png,,,,,,,,,,,,,,,,,,,,,,,,,
null,,black_cross(without_color),1141355,,blue,,,,null,GW/hanover.png,GW/carmel.png,,,,,,,,,,,,,,,,,,,,,,,,,
434.60000002384186,,rt_plussign_withcolor,1141857,,blue,,,,49,GW/hanover.png,GW/carmel.png,,,,,,,,,,,,,,,,,,,,,,,,,
null,,rt_thecrossant_black,1143133,,black_plus_sign,,,,null,,,1,0.9827586206896551,,,,,,,,,,,,,,,,,,,,,,,
null,,color_black,1143236,,black_plus_sign,,,,null,,,,,,,,,,,,,,,,,,,,,,,,,,,
null,,learn_phase(without_color),1146238,,black_plus_sign,,,,null,GW/newhope.png,GW/huntsville.png,,,,,,,,,,,,,,,,,,,,,,,,,
null,,black_cross(without_color),1147227,,yellow,,,,null,GW/newhope.png,GW/huntsville.png,,,,,,,,,,,,,,,,,,,,,,,,,
435.5,,rt_plussign_withcolor,1147729,,yellow,,,,50,GW/newhope.png,GW/huntsville.png,,,,,,,,,,,,,,,,,,,,,,,,,
null,,rt_thecrossant_black,1148743,,black_plus_sign,,,,null,,,1,0.9829059829059829,,,,,,,,,,,,,,,,,,,,,,,
null,,color_black,1148845,,black_plus_sign,,,,null,,,,,,,,,,,,,,,,,,,,,,,,,,,
null,,learn_phase(without_color),1151847,,black_plus_sign,,,,null,GW/peoria.png,GW/hotsprings.png,,,,,,,,,,,,,,,,,,,,,,,,,
null,,black_cross(without_color),1152761,,blue,,,,null,GW/peoria.png,GW/hotsprings.png,,,,,,,,,,,,,,,,,,,,,,,,,
null,,rt_plussign_withcolor,1153268,,blue,,,,null,GW/peoria.png,GW/hotsprings.png,,,,,,,,,,,,,,,,,,,,,,,,,
1096.5,,rt_thecrossant_black,1154358,,black_plus_sign,,,,49,,,1,0.9830508474576272,,,,,,,,,,,,,,,,,,,,,,,
null,,color_black,1154460,,black_plus_sign,,,,null,,,,,,,,,,,,,,,,,,,,,,,,,,,
null,,learn_phase(without_color),1157462,,black_plus_sign,,,,null,GW/hanover.png,GW/carmel.png,,,,,,,,,,,,,,,,,,,,,,,,,
null,,black_cross(without_color),1157940,,blue,,,,null,GW/hanover.png,GW/carmel.png,,,,,,,,,,,,,,,,,,,,,,,,,
null,,rt_plussign_withcolor,1158442,,blue,,,,null,GW/hanover.png,GW/carmel.png,,,,,,,,,,,,,,,,,,,,,,,,,
1223.7000000476837,,rt_thecrossant_black,1159966,,black_plus_sign,,,,49,,,1,0.9831932773109243,,,,,,,,,,,,,,,,,,,,,,,
null,,color_black,1160069,,black_plus_sign,,,,null,,,,,,,,,,,,,,,,,,,,,,,,,,,
null,,learn_phase(without_color),1163070,,black_plus_sign,,,,null,GW/hotsprings.png,GW/peoria.png,,,,,,,,,,,,,,,,,,,,,,,,,
null,,black_cross(without_color),1164138,,blue,,,,null,GW/hotsprings.png,GW/peoria.png,,,,,,,,,,,,,,,,,,,,,,,,,
452,,rt_plussign_withcolor,1164639,,blue,,,,49,GW/hotsprings.png,GW/peoria.png,,,,,,,,,,,,,,,,,,,,,,,,,
null,,rt_thecrossant_black,1165575,,black_plus_sign,,,,null,,,1,0.9833333333333333,,,,,,,,,,,,,,,,,,,,,,,
null,,color_black,1165677,,black_plus_sign,,,,null,,,,,,,,,,,,,,,,,,,,,,,,,,,
null,,learn_phase(without_color),1168679,,black_plus_sign,,,,null,GW/newhope.png,GW/huntsville.png,,,,,,,,,,,,,,,,,,,,,,,,,
null,,black_cross(without_color),1169717,,yellow,,,,null,GW/newhope.png,GW/huntsville.png,,,,,,,,,,,,,,,,,,,,,,,,,
null,,rt_plussign_withcolor,1170218,,yellow,,,,null,GW/newhope.png,GW/huntsville.png,,,,,,,,,,,,,,,,,,,,,,,,,
1201.2999999523163,,rt_thecrossant_black,1171183,,black_plus_sign,,,,50,,,1,0.9834710743801653,,,,,,,,,,,,,,,,,,,,,,,
null,,color_black,1171286,,black_plus_sign,,,,null,,,,,,,,,,,,,,,,,,,,,,,,,,,
null,,learn_phase(without_color),1174288,,black_plus_sign,,,,null,GW/carmel.png,GW/hanover.png,,,,,,,,,,,,,,,,,,,,,,,,,
null,,black_cross(without_color),1175384,,blue,,,,null,GW/carmel.png,GW/hanover.png,,,,,,,,,,,,,,,,,,,,,,,,,
486.2000000476837,,rt_plussign_withcolor,1175886,,blue,,,,49,GW/carmel.png,GW/hanover.png,,,,,,,,,,,,,,,,,,,,,,,,,
null,,rt_thecrossant_black,1176793,,black_plus_sign,,,,null,,,1,0.9836065573770492,,,,,,,,,,,,,,,,,,,,,,,
null,,color_black,1176894,,black_plus_sign,,,,null,,,,,,,,,,,,,,,,,,,,,,,,,,,
null,,learn_phase(without_color),1179896,,black_plus_sign,,,,null,GW/hotsprings.png,GW/peoria.png,,,,,,,,,,,,,,,,,,,,,,,,,
null,,black_cross(without_color),1180938,,blue,,,,null,GW/hotsprings.png,GW/peoria.png,,,,,,,,,,,,,,,,,,,,,,,,,
444.3000000715256,,rt_plussign_withcolor,1181440,,blue,,,,49,GW/hotsprings.png,GW/peoria.png,,,,,,,,,,,,,,,,,,,,,,,,,
null,,rt_thecrossant_black,1182406,,black_plus_sign,,,,null,,,1,0.983739837398374,,,,,,,,,,,,,,,,,,,,,,,
null,,color_black,1182507,,black_plus_sign,,,,null,,,,,,,,,,,,,,,,,,,,,,,,,,,
null,,learn_phase(without_color),1185507,,black_plus_sign,,,,null,GW/gatlinburg.png,GW/shreveport.png,,,,,,,,,,,,,,,,,,,,,,,,,
null,,black_cross(without_color),1186442,,blue,,,,null,GW/gatlinburg.png,GW/shreveport.png,,,,,,,,,,,,,,,,,,,,,,,,,
null,,rt_plussign_withcolor,1186944,,blue,,,,null,GW/gatlinburg.png,GW/shreveport.png,,,,,,,,,,,,,,,,,,,,,,,,,
1263.5,,rt_thecrossant_black,1188012,,black_plus_sign,,,,49,,,1,0.9838709677419355,,,,,,,,,,,,,,,,,,,,,,,
null,,color_black,1188114,,black_plus_sign,,,,null,,,,,,,,,,,,,,,,,,,,,,,,,,,
null,,learn_phase(without_color),1191115,,black_plus_sign,,,,null,GW/carmel.png,GW/hanover.png,,,,,,,,,,,,,,,,,,,,,,,,,
null,,black_cross(without_color),1191519,,yellow,,,,null,GW/carmel.png,GW/hanover.png,,,,,,,,,,,,,,,,,,,,,,,,,
null,,rt_plussign_withcolor,1192020,,yellow,,,,null,GW/carmel.png,GW/hanover.png,,,,,,,,,,,,,,,,,,,,,,,,,
1113.8999999761581,,rt_thecrossant_black,1193619,,black_plus_sign,,,,50,,,1,0.984,,,,,,,,,,,,,,,,,,,,,,,
null,,color_black,1193721,,black_plus_sign,,,,null,,,,,,,,,,,,,,,,,,,,,,,,,,,
null,,learn_phase(without_color),1196723,,black_plus_sign,,,,null,GW/hotsprings.png,GW/peoria.png,,,,,,,,,,,,,,,,,,,,,,,,,
null,,black_cross(without_color),1197469,,blue,,,,null,GW/hotsprings.png,GW/peoria.png,,,,,,,,,,,,,,,,,,,,,,,,,
null,,rt_plussign_withcolor,1197970,,blue,,,,null,GW/hotsprings.png,GW/peoria.png,,,,,,,,,,,,,,,,,,,,,,,,,
512.6000000238419,,rt_thecrossant_black,1199229,,black_plus_sign,,,,50,,,0,0.9761904761904762,,,,,,,,,,,,,,,,,,,,,,,
null,,color_black,1199330,,black_plus_sign,,,,null,,,,,,,,,,,,,,,,,,,,,,,,,,,
null,,learn_phase(without_color),1202333,,black_plus_sign,,,,null,GW/shreveport.png,GW/gatlinburg.png,,,,,,,,,,,,,,,,,,,,,,,,,
null,,black_cross(without_color),1203430,,blue,,,,null,GW/shreveport.png,GW/gatlinburg.png,,,,,,,,,,,,,,,,,,,,,,,,,
463.10000002384186,,rt_plussign_withcolor,1203930,,blue,,,,49,GW/shreveport.png,GW/gatlinburg.png,,,,,,,,,,,,,,,,,,,,,,,,,
null,,rt_thecrossant_black,1204837,,black_plus_sign,,,,null,,,1,0.9763779527559056,,,,,,,,,,,,,,,,,,,,,,,
null,,color_black,1204939,,black_plus_sign,,,,null,,,,,,,,,,,,,,,,,,,,,,,,,,,
null,,learn_phase(without_color),1207941,,black_plus_sign,,,,null,GW/newhope.png,GW/huntsville.png,,,,,,,,,,,,,,,,,,,,,,,,,
null,,black_cross(without_color),1208693,,yellow,,,,null,GW/newhope.png,GW/huntsville.png,,,,,,,,,,,,,,,,,,,,,,,,,
464.1999999284744,,rt_plussign_withcolor,1209194,,yellow,,,,50,GW/newhope.png,GW/huntsville.png,,,,,,,,,,,,,,,,,,,,,,,,,
null,,rt_thecrossant_black,1210446,,black_plus_sign,,,,null,,,1,0.9765625,,,,,,,,,,,,,,,,,,,,,,,
null,,color_black,1210547,,black_plus_sign,,,,null,,,,,,,,,,,,,,,,,,,,,,,,,,,
27153,,learn_break,1237702,,learn_break,,,,32,,,,,,,,,,,,,,,,,,,,,,,,,,,
53525.10000002384,,intro_1,1291226,,instruct,,0,Start,,,,,,,,,,,,,,,,,,,,,,,,,,,,
3448,,directmemory_phase,1294676,,GW/newhope.png,,,,50,,,1,1,GW/hotsprings.png,GW/carmel.png,GW/gatlinburg.png,GW/carmel.png,GW/hotsprings.png,GW/gatlinburg.png,1,,,,,,,,,,,,,,,,
null,,html-keyboard-response,1295677,,<p></p>,,,,null,,,,,,,,,,,,,,,,,,,,,,,,,,,
4733.699999928474,,directmemory_phase,1300412,,GW/hotsprings.png,,,,49,,,1,1,GW/leesburg.png,GW/westpalmbeach.png,GW/boulder.png,GW/leesburg.png,GW/boulder.png,GW/westpalmbeach.png,1,,,,,,,,,,,,,,,,
null,,html-keyboard-response,1301414,,<p></p>,,,,null,,,,,,,,,,,,,,,,,,,,,,,,,,,
3509.2999999523163,,directmemory_phase,1304924,,GW/cornwall.png,,,,49,,,1,1,GW/racine.png,GW/carmel.png,GW/shreveport.png,GW/racine.png,GW/shreveport.png,GW/carmel.png,1,,,,,,,,,,,,,,,,
null,,html-keyboard-response,1305926,,<p></p>,,,,null,,,,,,,,,,,,,,,,,,,,,,,,,,,
2397.2999999523163,,directmemory_phase,1308324,,GW/shreveport.png,,,,51,,,1,1,GW/boulder.png,GW/leesburg.png,GW/hotsprings.png,GW/hotsprings.png,GW/leesburg.png,GW/boulder.png,1,,,,,,,,,,,,,,,,
null,,html-keyboard-response,1309325,,<p></p>,,,,null,,,,,,,,,,,,,,,,,,,,,,,,,,,
3845.899999976158,,directmemory_phase,1313172,,GW/newhope.png,,,,51,,,1,1,GW/leesburg.png,GW/hanover.png,GW/westpalmbeach.png,GW/westpalmbeach.png,GW/hanover.png,GW/leesburg.png,1,,,,,,,,,,,,,,,,
null,,html-keyboard-response,1314174,,<p></p>,,,,null,,,,,,,,,,,,,,,,,,,,,,,,,,,
3404.899999976158,,directmemory_phase,1317580,,GW/hotsprings.png,,,,51,,,1,1,GW/westpalmbeach.png,GW/huntsville.png,GW/peoria.png,GW/peoria.png,GW/huntsville.png,GW/westpalmbeach.png,1,,,,,,,,,,,,,,,,
null,,html-keyboard-response,1318582,,<p></p>,,,,null,,,,,,,,,,,,,,,,,,,,,,,,,,,
2309.2999999523163,,directmemory_phase,1320892,,GW/huntsville.png,,,,51,,,1,1,GW/boulder.png,GW/hanover.png,GW/newhope.png,GW/newhope.png,GW/hanover.png,GW/boulder.png,1,,,,,,,,,,,,,,,,
null,,html-keyboard-response,1321894,,<p></p>,,,,null,,,,,,,,,,,,,,,,,,,,,,,,,,,
null,,directmemory_phase,1328396,,GW/leesburg.png,,,,null,,,0,0.875,GW/shreveport.png,GW/cornwall.png,GW/newhope.png,GW/cornwall.png,GW/shreveport.png,GW/newhope.png,0,,,,,,,,,,,,,,,,
null,,warning_page,1331397,,warning,,,,null,,,,,,,,,,,,,,,,,,,,,,,,,,,
null,,html-keyboard-response,1332398,,<p></p>,,,,null,,,,,,,,,,,,,,,,,,,,,,,,,,,
1844.7000000476837,,directmemory_phase,1334244,,GW/carmel.png,,,,51,,,1,0.8888888888888888,GW/leesburg.png,GW/peoria.png,GW/newhope.png,GW/newhope.png,GW/peoria.png,GW/leesburg.png,1,,,,,,,,,,,,,,,,
null,,html-keyboard-response,1335246,,<p></p>,,,,null,,,,,,,,,,,,,,,,,,,,,,,,,,,
2069.1999999284744,,directmemory_phase,1337316,,GW/racine.png,,,,49,,,1,0.9,GW/cornwall.png,GW/hotsprings.png,GW/gatlinburg.png,GW/cornwall.png,GW/gatlinburg.png,GW/hotsprings.png,1,,,,,,,,,,,,,,,,
null,,html-keyboard-response,1338318,,<p></p>,,,,null,,,,,,,,,,,,,,,,,,,,,,,,,,,
2389,,directmemory_phase,1340707,,GW/peoria.png,,,,51,,,1,0.9090909090909091,GW/gatlinburg.png,GW/westpalmbeach.png,GW/hotsprings.png,GW/hotsprings.png,GW/westpalmbeach.png,GW/gatlinburg.png,1,,,,,,,,,,,,,,,,
null,,html-keyboard-response,1341708,,<p></p>,,,,null,,,,,,,,,,,,,,,,,,,,,,,,,,,
1789.7999999523163,,directmemory_phase,1343499,,GW/cornwall.png,,,,49,,,1,0.9166666666666666,GW/gatlinburg.png,GW/peoria.png,GW/boulder.png,GW/gatlinburg.png,GW/boulder.png,GW/peoria.png,1,,,,,,,,,,,,,,,,
null,,html-keyboard-response,1344500,,<p></p>,,,,null,,,,,,,,,,,,,,,,,,,,,,,,,,,
1909.8000000715256,,directmemory_phase,1346411,,GW/newhope.png,,,,51,,,1,0.9230769230769231,GW/cornwall.png,GW/hanover.png,GW/peoria.png,GW/peoria.png,GW/hanover.png,GW/cornwall.png,1,,,,,,,,,,,,,,,,
null,,html-keyboard-response,1347413,,<p></p>,,,,null,,,,,,,,,,,,,,,,,,,,,,,,,,,
3165.1999999284744,,directmemory_phase,1350579,,GW/shreveport.png,,,,50,,,0,0.8571428571428571,GW/westpalmbeach.png,GW/peoria.png,GW/huntsville.png,GW/huntsville.png,GW/peoria.png,GW/westpalmbeach.png,0.5,closer,,,,,,,,,,,,,,,
null,,html-keyboard-response,1351581,,<p></p>,,,,null,,,,,,,,,,,,,,,,,,,,,,,,,,,
3036.399999976158,,directmemory_phase,1354619,,GW/westpalmbeach.png,,,,49,,,1,0.8666666666666667,GW/newhope.png,GW/hotsprings.png,GW/huntsville.png,GW/newhope.png,GW/huntsville.png,GW/hotsprings.png,1,,,,,,,,,,,,,,,,
null,,html-keyboard-response,1355621,,<p></p>,,,,null,,,,,,,,,,,,,,,,,,,,,,,,,,,
4189.400000095367,,directmemory_phase,1359811,,GW/huntsville.png,,,,49,,,1,0.875,GW/carmel.png,GW/boulder.png,GW/hotsprings.png,GW/carmel.png,GW/hotsprings.png,GW/boulder.png,1,,,,,,,,,,,,,,,,
null,,html-keyboard-response,1360813,,<p></p>,,,,null,,,,,,,,,,,,,,,,,,,,,,,,,,,
2029.1000000238419,,directmemory_phase,1362843,,GW/shreveport.png,,,,50,,,1,0.8823529411764706,GW/leesburg.png,GW/gatlinburg.png,GW/westpalmbeach.png,GW/gatlinburg.png,GW/leesburg.png,GW/westpalmbeach.png,1,,,,,,,,,,,,,,,,
null,,html-keyboard-response,1363845,,<p></p>,,,,null,,,,,,,,,,,,,,,,,,,,,,,,,,,
3557.100000023842,,directmemory_phase,1367403,,GW/cornwall.png,,,,50,,,1,0.8888888888888888,GW/boulder.png,GW/leesburg.png,GW/peoria.png,GW/leesburg.png,GW/boulder.png,GW/peoria.png,1,,,,,,,,,,,,,,,,
null,,html-keyboard-response,1368405,,<p></p>,,,,null,,,,,,,,,,,,,,,,,,,,,,,,,,,
2245.100000023842,,directmemory_phase,1370651,,GW/hotsprings.png,,,,49,,,1,0.8947368421052632,GW/shreveport.png,GW/hanover.png,GW/boulder.png,GW/shreveport.png,GW/boulder.png,GW/hanover.png,1,,,,,,,,,,,,,,,,
null,,html-keyboard-response,1371653,,<p></p>,,,,null,,,,,,,,,,,,,,,,,,,,,,,,,,,
2252.899999976158,,directmemory_phase,1373907,,GW/hanover.png,,,,50,,,1,0.9,GW/huntsville.png,GW/carmel.png,GW/shreveport.png,GW/carmel.png,GW/huntsville.png,GW/shreveport.png,1,,,,,,,,,,,,,,,,
null,,html-keyboard-response,1374909,,<p></p>,,,,null,,,,,,,,,,,,,,,,,,,,,,,,,,,
3973.100000023842,,directmemory_phase,1378883,,GW/huntsville.png,,,,49,,,1,0.9047619047619048,GW/shreveport.png,GW/cornwall.png,GW/hotsprings.png,GW/shreveport.png,GW/hotsprings.png,GW/cornwall.png,1,,,,,,,,,,,,,,,,
null,,html-keyboard-response,1379885,,<p></p>,,,,null,,,,,,,,,,,,,,,,,,,,,,,,,,,
3725.399999976158,,directmemory_phase,1383611,,GW/leesburg.png,,,,50,,,0,0.8636363636363636,GW/boulder.png,GW/newhope.png,GW/peoria.png,GW/boulder.png,GW/peoria.png,GW/newhope.png,0.5,closer,,,,,,,,,,,,,,,
null,,html-keyboard-response,1384613,,<p></p>,,,,null,,,,,,,,,,,,,,,,,,,,,,,,,,,
2901,,directmemory_phase,1387515,,GW/gatlinburg.png,,,,51,,,1,0.8695652173913043,GW/peoria.png,GW/huntsville.png,GW/cornwall.png,GW/cornwall.png,GW/huntsville.png,GW/peoria.png,1,,,,,,,,,,,,,,,,
null,,html-keyboard-response,1388517,,<p></p>,,,,null,,,,,,,,,,,,,,,,,,,,,,,,,,,
3173.2999999523163,,directmemory_phase,1391691,,GW/boulder.png,,,,51,,,1,0.875,GW/huntsville.png,GW/cornwall.png,GW/leesburg.png,GW/leesburg.png,GW/cornwall.png,GW/huntsville.png,1,,,,,,,,,,,,,,,,
null,,html-keyboard-response,1392692,,<p></p>,,,,null,,,,,,,,,,,,,,,,,,,,,,,,,,,
3773.7000000476837,,directmemory_phase,1396467,,GW/huntsville.png,,,,51,,,1,0.88,GW/leesburg.png,GW/gatlinburg.png,GW/peoria.png,GW/peoria.png,GW/gatlinburg.png,GW/leesburg.png,1,,,,,,,,,,,,,,,,
null,,html-keyboard-response,1397469,,<p></p>,,,,null,,,,,,,,,,,,,,,,,,,,,,,,,,,
2541.5,,directmemory_phase,1400011,,GW/gatlinburg.png,,,,49,,,1,0.8846153846153846,GW/shreveport.png,GW/hanover.png,GW/racine.png,GW/shreveport.png,GW/racine.png,GW/hanover.png,1,,,,,,,,,,,,,,,,
null,,html-keyboard-response,1401012,,<p></p>,,,,null,,,,,,,,,,,,,,,,,,,,,,,,,,,
3407.5,,directmemory_phase,1404421,,GW/peoria.png,,,,49,,,1,0.8888888888888888,GW/huntsville.png,GW/racine.png,GW/leesburg.png,GW/huntsville.png,GW/leesburg.png,GW/racine.png,1,,,,,,,,,,,,,,,,
null,,html-keyboard-response,1405422,,<p></p>,,,,null,,,,,,,,,,,,,,,,,,,,,,,,,,,
2579,,directmemory_phase,1408002,,GW/carmel.png,,,,50,,,1,0.8928571428571429,GW/shreveport.png,GW/hanover.png,GW/leesburg.png,GW/hanover.png,GW/shreveport.png,GW/leesburg.png,1,,,,,,,,,,,,,,,,
null,,html-keyboard-response,1409004,,<p></p>,,,,null,,,,,,,,,,,,,,,,,,,,,,,,,,,
3292.899999976158,,directmemory_phase,1412298,,GW/newhope.png,,,,50,,,1,0.896551724137931,GW/hanover.png,GW/huntsville.png,GW/gatlinburg.png,GW/huntsville.png,GW/hanover.png,GW/gatlinburg.png,1,,,,,,,,,,,,,,,,
null,,html-keyboard-response,1413300,,<p></p>,,,,null,,,,,,,,,,,,,,,,,,,,,,,,,,,
3580.600000023842,,directmemory_phase,1416882,,GW/leesburg.png,,,,49,,,1,0.9,GW/hotsprings.png,GW/newhope.png,GW/peoria.png,GW/hotsprings.png,GW/peoria.png,GW/newhope.png,1,,,,,,,,,,,,,,,,
null,,html-keyboard-response,1417884,,<p></p>,,,,null,,,,,,,,,,,,,,,,,,,,,,,,,,,
3181.1999999284744,,directmemory_phase,1421066,,GW/peoria.png,,,,49,,,1,0.9032258064516129,GW/newhope.png,GW/hanover.png,GW/leesburg.png,GW/newhope.png,GW/leesburg.png,GW/hanover.png,1,,,,,,,,,,,,,,,,
null,,html-keyboard-response,1422068,,<p></p>,,,,null,,,,,,,,,,,,,,,,,,,,,,,,,,,
3613.399999976158,,directmemory_phase,1425682,,GW/carmel.png,,,,49,,,1,0.90625,GW/huntsville.png,GW/gatlinburg.png,GW/shreveport.png,GW/huntsville.png,GW/shreveport.png,GW/gatlinburg.png,1,,,,,,,,,,,,,,,,
null,,html-keyboard-response,1426684,,<p></p>,,,,null,,,,,,,,,,,,,,,,,,,,,,,,,,,
66411.39999997616,,intro_1,1493095,,instruct,,0,,,,,,,,,,,,,,,,,,,,,,,,,,,,,
20794.299999952316,,intro_2,1513891,,instruct,,1,Next,,,,,,,,,,,,,,,,,,,,,,,,,,,,
7808.199999928474,,intro_3,1521701,,instruct,,1,Next,,,,,,,,,,,,,,,,,,,,,,,,,,,,
12134.299999952316,,intro_4,1533837,,instruct,,1,Next,,,,,,,,,,,,,,,,,,,,,,,,,,,,
43204.60000002384,,intro_5,1577042,,instruct,,1,Next,,,,,,,,,,,,,,,,,,,,,,,,,,,,
29978.200000047684,,intro_6,1607021,,instruct,,1,Next,,,,,,,,,,,,,,,,,,,,,,,,,,,,
58252.60000002384,,intro_7,1665274,,instruct,,1,Next,,,,,,,,,,,,,,,,,,,,,,,,,,,,
33538.200000047684,,intro_8,1698814,,instruct,,1,Next,,,,,,,,,,,,,,,,,,,,,,,,,,,,
6270.300000071526,,shortestpath_phase,1705086,,GW/hanover.png,,,,50,GW/boulder.png,GW/newhope.png,1,1,,,,GW/newhope.png,,,,,Four Edge Diff,Two Edge Six Edge,,,,,,,,,,,,,
null,,html-keyboard-response,1706088,,<p></p>,,,,null,,,,,,,,,,,,,,,,,,,,,,,,,,,
null,,shortestpath_phase,1713590,,GW/cornwall.png,,,,null,GW/hotsprings.png,GW/hanover.png,0,0.5,,,,GW/hotsprings.png,,,,,Three Edge Diff,Three Edge Six Edge,,,,,,,,,,,,,
null,,warning_page,1716592,,warning,,,,null,,,,,,,,,,,,,,,,,,,,,,,,,,,
null,,html-keyboard-response,1717593,,<p></p>,,,,null,,,,,,,,,,,,,,,,,,,,,,,,,,,
2499.6999999284744,,shortestpath_phase,1720094,,GW/leesburg.png,,,,50,GW/hanover.png,GW/gatlinburg.png,1,0.6666666666666666,,,,GW/gatlinburg.png,,,,,Three Edge Diff,Three Edge Six Edge,,,,,,,,,,,,,
null,,html-keyboard-response,1721095,,<p></p>,,,,null,,,,,,,,,,,,,,,,,,,,,,,,,,,
2021.4000000953674,,shortestpath_phase,1723118,,GW/westpalmbeach.png,,,,50,GW/racine.png,GW/carmel.png,1,0.75,,,,GW/carmel.png,,,,,Four Edge Diff,Two Edge Six Edge,,,,,,,,,,,,,
null,,html-keyboard-response,1724119,,<p></p>,,,,null,,,,,,,,,,,,,,,,,,,,,,,,,,,
2693.4000000953674,,shortestpath_phase,1726812,,GW/gatlinburg.png,,,,50,GW/peoria.png,GW/racine.png,1,0.8,,,,GW/racine.png,,,,,One Edge Diff,Two Edge Three Edge,,,,,,,,,,,,,
null,,html-keyboard-response,1727815,,<p></p>,,,,null,,,,,,,,,,,,,,,,,,,,,,,,,,,
2628.7999999523163,,shortestpath_phase,1730445,,GW/cornwall.png,,,,49,GW/hotsprings.png,GW/westpalmbeach.png,1,0.8333333333333334,,,,GW/hotsprings.png,,,,,Three Edge Diff,Two Edge Five Edge,,,,,,,,,,,,,
null,,html-keyboard-response,1731447,,<p></p>,,,,null,,,,,,,,,,,,,,,,,,,,,,,,,,,
2916.8000000715256,,shortestpath_phase,1734365,,GW/carmel.png,,,,49,GW/westpalmbeach.png,GW/racine.png,1,0.8571428571428571,,,,GW/westpalmbeach.png,,,,,Three Edge Diff,Two Edge Five Edge,,,,,,,,,,,,,
null,,html-keyboard-response,1735366,,<p></p>,,,,null,,,,,,,,,,,,,,,,,,,,,,,,,,,
3285.4000000953674,,shortestpath_phase,1738652,,GW/gatlinburg.png,,,,49,GW/hanover.png,GW/huntsville.png,0,0.75,,,,GW/huntsville.png,,,,,Two Edge Diff,Two Edge Four Edge,,,,,,,,,,,,,
null,,html-keyboard-response,1739655,,<p></p>,,,,null,,,,,,,,,,,,,,,,,,,,,,,,,,,
3012.7999999523163,,shortestpath_phase,1742669,,GW/westpalmbeach.png,,,,49,GW/leesburg.png,GW/cornwall.png,1,0.7777777777777778,,,,GW/leesburg.png,,,,,One Edge Diff,Four Edge Five Edge,,,,,,,,,,,,,
null,,html-keyboard-response,1743670,,<p></p>,,,,null,,,,,,,,,,,,,,,,,,,,,,,,,,,
2901.5,,shortestpath_phase,1746573,,GW/hanover.png,,,,49,GW/huntsville.png,GW/racine.png,1,0.8,,,,GW/huntsville.png,,,,,Four Edge Diff,Two Edge Six Edge,,,,,,,,,,,,,
null,,html-keyboard-response,1747575,,<p></p>,,,,null,,,,,,,,,,,,,,,,,,,,,,,,,,,
2812.6999999284744,,shortestpath_phase,1750389,,GW/carmel.png,,,,50,GW/boulder.png,GW/westpalmbeach.png,1,0.8181818181818182,,,,GW/westpalmbeach.png,,,,,Three Edge Diff,Two Edge Five Edge,,,,,,,,,,,,,
null,,html-keyboard-response,1751390,,<p></p>,,,,null,,,,,,,,,,,,,,,,,,,,,,,,,,,
2677.600000023842,,shortestpath_phase,1754069,,GW/hanover.png,,,,50,GW/cornwall.png,GW/newhope.png,1,0.8333333333333334,,,,GW/newhope.png,,,,,Three Edge Diff,Three Edge Six Edge,,,,,,,,,,,,,
null,,html-keyboard-response,1755070,,<p></p>,,,,null,,,,,,,,,,,,,,,,,,,,,,,,,,,
3845.100000023842,,shortestpath_phase,1758916,,GW/westpalmbeach.png,,,,49,GW/carmel.png,GW/boulder.png,1,0.8461538461538461,,,,GW/carmel.png,,,,,Three Edge Diff,Three Edge Six Edge,,,,,,,,,,,,,
null,,html-keyboard-response,1759918,,<p></p>,,,,null,,,,,,,,,,,,,,,,,,,,,,,,,,,
2717.7000000476837,,shortestpath_phase,1762637,,GW/shreveport.png,,,,50,GW/racine.png,GW/cornwall.png,1,0.8571428571428571,,,,GW/cornwall.png,,,,,One Edge Diff,Two Edge Three Edge,,,,,,,,,,,,,
null,,html-keyboard-response,1763638,,<p></p>,,,,null,,,,,,,,,,,,,,,,,,,,,,,,,,,
3069.5999999046326,,shortestpath_phase,1766709,,GW/racine.png,,,,49,GW/hanover.png,GW/huntsville.png,0,0.8,,,,GW/huntsville.png,,,,,Two Edge Diff,Four Edge Six Edge,,,,,,,,,,,,,
null,,html-keyboard-response,1767710,,<p></p>,,,,null,,,,,,,,,,,,,,,,,,,,,,,,,,,
2789.5999999046326,,shortestpath_phase,1770501,,GW/hanover.png,,,,50,GW/racine.png,GW/cornwall.png,1,0.8125,,,,GW/cornwall.png,,,,,One Edge Diff,Five Edge Six Edge,,,,,,,,,,,,,
null,,html-keyboard-response,1771503,,<p></p>,,,,null,,,,,,,,,,,,,,,,,,,,,,,,,,,
2381,,shortestpath_phase,1773885,,GW/shreveport.png,,,,50,GW/racine.png,GW/carmel.png,1,0.8235294117647058,,,,GW/carmel.png,,,,,One Edge Diff,Two Edge Three Edge,,,,,,,,,,,,,
null,,html-keyboard-response,1774886,,<p></p>,,,,null,,,,,,,,,,,,,,,,,,,,,,,,,,,
2973.899999976158,,shortestpath_phase,1777861,,GW/leesburg.png,,,,49,GW/peoria.png,GW/hanover.png,1,0.8333333333333334,,,,GW/peoria.png,,,,,Three Edge Diff,Three Edge Six Edge,,,,,,,,,,,,,
null,,html-keyboard-response,1778864,,<p></p>,,,,null,,,,,,,,,,,,,,,,,,,,,,,,,,,
2308,,shortestpath_phase,1781173,,GW/racine.png,,,,49,GW/gatlinburg.png,GW/carmel.png,1,0.8421052631578947,,,,GW/gatlinburg.png,,,,,Three Edge Diff,Two Edge Five Edge,,,,,,,,,,,,,
null,,html-keyboard-response,1782174,,<p></p>,,,,null,,,,,,,,,,,,,,,,,,,,,,,,,,,
3029.4000000953674,,shortestpath_phase,1785205,,GW/hanover.png,,,,49,GW/leesburg.png,GW/racine.png,1,0.85,,,,GW/leesburg.png,,,,,One Edge Diff,Five Edge Six Edge,,,,,,,,,,,,,
null,,html-keyboard-response,1786206,,<p></p>,,,,null,,,,,,,,,,,,,,,,,,,,,,,,,,,
3229.7000000476837,,shortestpath_phase,1789436,,GW/westpalmbeach.png,,,,49,GW/racine.png,GW/gatlinburg.png,0,0.8095238095238095,,,,GW/gatlinburg.png,,,,,Two Edge Diff,Four Edge Six Edge,,,,,,,,,,,,,
null,,html-keyboard-response,1790437,,<p></p>,,,,null,,,,,,,,,,,,,,,,,,,,,,,,,,,
3197.399999976158,,shortestpath_phase,1793636,,GW/racine.png,,,,50,GW/hanover.png,GW/newhope.png,1,0.8181818181818182,,,,GW/newhope.png,,,,,One Edge Diff,Five Edge Six Edge,,,,,,,,,,,,,
null,,html-keyboard-response,1794638,,<p></p>,,,,null,,,,,,,,,,,,,,,,,,,,,,,,,,,
3093,,shortestpath_phase,1797731,,GW/westpalmbeach.png,,,,49,GW/peoria.png,GW/racine.png,1,0.8260869565217391,,,,GW/peoria.png,,,,,Four Edge Diff,Two Edge Six Edge,,,,,,,,,,,,,
null,,html-keyboard-response,1798733,,<p></p>,,,,null,,,,,,,,,,,,,,,,,,,,,,,,,,,
2709.899999976158,,shortestpath_phase,1801444,,GW/hotsprings.png,,,,50,GW/racine.png,GW/boulder.png,1,0.8333333333333334,,,,GW/boulder.png,,,,,One Edge Diff,Two Edge Three Edge,,,,,,,,,,,,,
null,,html-keyboard-response,1802446,,<p></p>,,,,null,,,,,,,,,,,,,,,,,,,,,,,,,,,
3044.5,,shortestpath_phase,1805492,,GW/hanover.png,,,,49,GW/huntsville.png,GW/boulder.png,1,0.84,,,,GW/huntsville.png,,,,,Four Edge Diff,Two Edge Six Edge,,,,,,,,,,,,,
null,,html-keyboard-response,1806494,,<p></p>,,,,null,,,,,,,,,,,,,,,,,,,,,,,,,,,
2404.4000000953674,,shortestpath_phase,1808899,,GW/carmel.png,,,,49,GW/hotsprings.png,GW/racine.png,1,0.8461538461538461,,,,GW/hotsprings.png,,,,,Two Edge Diff,Three Edge Five Edge,,,,,,,,,,,,,
null,,html-keyboard-response,1809901,,<p></p>,,,,null,,,,,,,,,,,,,,,,,,,,,,,,,,,
3533.399999976158,,shortestpath_phase,1813436,,GW/boulder.png,,,,49,GW/carmel.png,GW/peoria.png,0,0.8148148148148148,,,,GW/peoria.png,,,,,Two Edge Diff,Three Edge Five Edge,,,,,,,,,,,,,
null,,html-keyboard-response,1814437,,<p></p>,,,,null,,,,,,,,,,,,,,,,,,,,,,,,,,,
2477.2999999523163,,shortestpath_phase,1816916,,GW/carmel.png,,,,50,GW/boulder.png,GW/westpalmbeach.png,1,0.8214285714285714,,,,GW/westpalmbeach.png,,,,,Three Edge Diff,Three Edge Six Edge,,,,,,,,,,,,,
null,,html-keyboard-response,1817917,,<p></p>,,,,null,,,,,,,,,,,,,,,,,,,,,,,,,,,
2941.399999976158,,shortestpath_phase,1820860,,GW/boulder.png,,,,49,GW/racine.png,GW/westpalmbeach.png,1,0.8275862068965517,,,,GW/racine.png,,,,,Two Edge Diff,Three Edge Five Edge,,,,,,,,,,,,,
null,,html-keyboard-response,1821861,,<p></p>,,,,null,,,,,,,,,,,,,,,,,,,,,,,,,,,
2245.899999976158,,shortestpath_phase,1824108,,GW/newhope.png,,,,49,GW/cornwall.png,GW/hotsprings.png,0,0.8,,,,GW/hotsprings.png,,,,,Two Edge Diff,Two Edge Four Edge,,,,,,,,,,,,,
null,,html-keyboard-response,1825109,,<p></p>,,,,null,,,,,,,,,,,,,,,,,,,,,,,,,,,
3397.600000023842,,shortestpath_phase,1828508,,GW/racine.png,,,,50,GW/hanover.png,GW/carmel.png,1,0.8064516129032258,,,,GW/carmel.png,,,,,One Edge Diff,Five Edge Six Edge,,,,,,,,,,,,,
null,,html-keyboard-response,1829509,,<p></p>,,,,null,,,,,,,,,,,,,,,,,,,,,,,,,,,
2789.5,,shortestpath_phase,1832300,,GW/hanover.png,,,,50,GW/peoria.png,GW/leesburg.png,0,0.78125,,,,GW/peoria.png,,,,,Two Edge Diff,Three Edge Five Edge,,,,,,,,,,,,,
null,,html-keyboard-response,1833301,,<p></p>,,,,null,,,,,,,,,,,,,,,,,,,,,,,,,,,
2701.5,,shortestpath_phase,1836004,,GW/boulder.png,,,,50,GW/carmel.png,GW/hanover.png,0,0.7575757575757576,,,,GW/carmel.png,,,,,One Edge Diff,Five Edge Six Edge,,,,,,,,,,,,,
null,,html-keyboard-response,1837006,,<p></p>,,,,null,,,,,,,,,,,,,,,,,,,,,,,,,,,
2660.7999999523163,,shortestpath_phase,1839668,,GW/cornwall.png,,,,49,GW/hotsprings.png,GW/newhope.png,1,0.7647058823529411,,,,GW/hotsprings.png,,,,,Two Edge Diff,Two Edge Four Edge,,,,,,,,,,,,,
null,,html-keyboard-response,1840669,,<p></p>,,,,null,,,,,,,,,,,,,,,,,,,,,,,,,,,
3005.600000023842,,shortestpath_phase,1843676,,GW/westpalmbeach.png,,,,49,GW/shreveport.png,GW/gatlinburg.png,1,0.7714285714285715,,,,GW/shreveport.png,,,,,One Edge Diff,Three Edge Four Edge,,,,,,,,,,,,,
null,,html-keyboard-response,1844678,,<p></p>,,,,null,,,,,,,,,,,,,,,,,,,,,,,,,,,
2085.100000023842,,shortestpath_phase,1846764,,GW/boulder.png,,,,50,GW/hotsprings.png,GW/carmel.png,0,0.75,,,,GW/hotsprings.png,,,,,Three Edge Diff,Two Edge Five Edge,,,,,,,,,,,,,
null,,html-keyboard-response,1847766,,<p></p>,,,,null,,,,,,,,,,,,,,,,,,,,,,,,,,,
2653,,shortestpath_phase,1850419,,GW/hanover.png,,,,50,GW/gatlinburg.png,GW/boulder.png,0,0.7297297297297297,,,,GW/gatlinburg.png,,,,,Two Edge Diff,Four Edge Six Edge,,,,,,,,,,,,,
null,,html-keyboard-response,1851421,,<p></p>,,,,null,,,,,,,,,,,,,,,,,,,,,,,,,,,
3396.100000023842,,shortestpath_phase,1854819,,GW/westpalmbeach.png,,,,49,GW/hotsprings.png,GW/boulder.png,1,0.7368421052631579,,,,GW/hotsprings.png,,,,,Two Edge Diff,Three Edge Five Edge,,,,,,,,,,,,,
null,,html-keyboard-response,1855821,,<p></p>,,,,null,,,,,,,,,,,,,,,,,,,,,,,,,,,
3076.399999976158,,shortestpath_phase,1858899,,GW/boulder.png,,,,49,GW/westpalmbeach.png,GW/gatlinburg.png,0,0.717948717948718,,,,GW/gatlinburg.png,,,,,Two Edge Diff,Three Edge Five Edge,,,,,,,,,,,,,
null,,html-keyboard-response,1859905,,<p></p>,,,,null,,,,,,,,,,,,,,,,,,,,,,,,,,,
2688.7000000476837,,shortestpath_phase,1862595,,GW/cornwall.png,,,,50,GW/newhope.png,GW/westpalmbeach.png,0,0.7,,,,GW/newhope.png,,,,,One Edge Diff,Four Edge Five Edge,,,,,,,,,,,,,
null,,html-keyboard-response,1863597,,<p></p>,,,,null,,,,,,,,,,,,,,,,,,,,,,,,,,,
2101,,shortestpath_phase,1865699,,GW/boulder.png,,,,50,GW/hotsprings.png,GW/hanover.png,0,0.6829268292682927,,,,GW/hotsprings.png,,,,,Four Edge Diff,Two Edge Six Edge,,,,,,,,,,,,,
null,,html-keyboard-response,1866701,,<p></p>,,,,null,,,,,,,,,,,,,,,,,,,,,,,,,,,
3444.600000023842,,shortestpath_phase,1870147,,GW/cornwall.png,,,,49,GW/carmel.png,GW/westpalmbeach.png,1,0.6904761904761905,,,,GW/carmel.png,,,,,One Edge Diff,Four Edge Five Edge,,,,,,,,,,,,,
null,,html-keyboard-response,1871149,,<p></p>,,,,null,,,,,,,,,,,,,,,,,,,,,,,,,,,
3276.8000000715256,,shortestpath_phase,1874427,,GW/racine.png,,,,50,GW/huntsville.png,GW/westpalmbeach.png,0,0.6744186046511628,,,,GW/huntsville.png,,,,,Two Edge Diff,Four Edge Six Edge,,,,,,,,,,,,,
null,,html-keyboard-response,1875430,,<p></p>,,,,null,,,,,,,,,,,,,,,,,,,,,,,,,,,
2467.899999976158,,shortestpath_phase,1877899,,GW/westpalmbeach.png,,,,49,GW/hanover.png,GW/cornwall.png,1,0.6818181818181818,,,,GW/hanover.png,,,,,Two Edge Diff,Three Edge Five Edge,,,,,,,,,,,,,
null,,html-keyboard-response,1878900,,<p></p>,,,,null,,,,,,,,,,,,,,,,,,,,,,,,,,,
2021.7000000476837,,shortestpath_phase,1880923,,GW/boulder.png,,,,49,GW/hanover.png,GW/huntsville.png,0,0.6666666666666666,,,,GW/huntsville.png,,,,,Two Edge Diff,Four Edge Six Edge,,,,,,,,,,,,,
null,,html-keyboard-response,1881925,,<p></p>,,,,null,,,,,,,,,,,,,,,,,,,,,,,,,,,
2956.600000023842,,shortestpath_phase,1884883,,GW/racine.png,,,,49,GW/hotsprings.png,GW/huntsville.png,1,0.6739130434782609,,,,GW/hotsprings.png,,,,,One Edge Diff,Three Edge Four Edge,,,,,,,,,,,,,
null,,html-keyboard-response,1885884,,<p></p>,,,,null,,,,,,,,,,,,,,,,,,,,,,,,,,,
2445.5,,shortestpath_phase,1888331,,GW/westpalmbeach.png,,,,50,GW/boulder.png,GW/huntsville.png,1,0.6808510638297872,,,,GW/huntsville.png,,,,,Three Edge Diff,Three Edge Six Edge,,,,,,,,,,,,,
null,,html-keyboard-response,1889333,,<p></p>,,,,null,,,,,,,,,,,,,,,,,,,,,,,,,,,
3413,,shortestpath_phase,1892747,,GW/hanover.png,,,,49,GW/hotsprings.png,GW/boulder.png,1,0.6875,,,,GW/hotsprings.png,,,,,Two Edge Diff,Four Edge Six Edge,,,,,,,,,,,,,
null,,html-keyboard-response,1893748,,<p></p>,,,,null,,,,,,,,,,,,,,,,,,,,,,,,,,,
3685.5,,shortestpath_phase,1897435,,GW/westpalmbeach.png,,,,49,GW/huntsville.png,GW/leesburg.png,1,0.6938775510204082,,,,GW/huntsville.png,,,,,Two Edge Diff,Two Edge Four Edge,,,,,,,,,,,,,
null,,html-keyboard-response,1898437,,<p></p>,,,,null,,,,,,,,,,,,,,,,,,,,,,,,,,,
2677,,shortestpath_phase,1901115,,GW/boulder.png,,,,50,GW/gatlinburg.png,GW/huntsville.png,0,0.68,,,,GW/gatlinburg.png,,,,,One Edge Diff,Three Edge Four Edge,,,,,,,,,,,,,
null,,html-keyboard-response,1902116,,<p></p>,,,,null,,,,,,,,,,,,,,,,,,,,,,,,,,,
2877.5,,shortestpath_phase,1904995,,GW/huntsville.png,,,,49,GW/hanover.png,GW/boulder.png,1,0.6862745098039216,,,,GW/hanover.png,,,,,Two Edge Diff,Two Edge Four Edge,,,,,,,,,,,,,
null,,html-keyboard-response,1905997,,<p></p>,,,,null,,,,,,,,,,,,,,,,,,,,,,,,,,,
2380.7000000476837,,shortestpath_phase,1908379,,GW/boulder.png,,,,49,GW/hotsprings.png,GW/westpalmbeach.png,1,0.6923076923076923,,,,GW/hotsprings.png,,,,,Three Edge Diff,Three Edge Six Edge,,,,,,,,,,,,,
null,,html-keyboard-response,1909380,,<p></p>,,,,null,,,,,,,,,,,,,,,,,,,,,,,,,,,
3141.7000000476837,,shortestpath_phase,1912522,,GW/racine.png,,,,49,GW/westpalmbeach.png,GW/leesburg.png,0,0.6792452830188679,,,,GW/leesburg.png,,,,,Four Edge Diff,Two Edge Six Edge,,,,,,,,,,,,,
null,,html-keyboard-response,1913524,,<p></p>,,,,null,,,,,,,,,,,,,,,,,,,,,,,,,,,
2756.7000000476837,,shortestpath_phase,1916282,,GW/hanover.png,,,,49,GW/leesburg.png,GW/gatlinburg.png,0,0.6666666666666666,,,,GW/gatlinburg.png,,,,,One Edge Diff,Four Edge Five Edge,,,,,,,,,,,,,
null,,html-keyboard-response,1917283,,<p></p>,,,,null,,,,,,,,,,,,,,,,,,,,,,,,,,,
3013.600000023842,,shortestpath_phase,1920298,,GW/newhope.png,,,,49,GW/leesburg.png,GW/shreveport.png,0,0.6545454545454545,,,,GW/shreveport.png,,,,,One Edge Diff,Two Edge Three Edge,,,,,,,,,,,,,
null,,html-keyboard-response,1921300,,<p></p>,,,,null,,,,,,,,,,,,,,,,,,,,,,,,,,,
2436.2000000476837,,shortestpath_phase,1923738,,GW/huntsville.png,,,,50,GW/racine.png,GW/westpalmbeach.png,1,0.6607142857142857,,,,GW/westpalmbeach.png,,,,,Two Edge Diff,Two Edge Four Edge,,,,,,,,,,,,,
null,,html-keyboard-response,1924739,,<p></p>,,,,null,,,,,,,,,,,,,,,,,,,,,,,,,,,
3205.9000000953674,,shortestpath_phase,1927946,,GW/cornwall.png,,,,50,GW/westpalmbeach.png,GW/shreveport.png,1,0.6666666666666666,,,,GW/shreveport.png,,,,,Three Edge Diff,Two Edge Five Edge,,,,,,,,,,,,,
null,,html-keyboard-response,1928948,,<p></p>,,,,null,,,,,,,,,,,,,,,,,,,,,,,,,,,
3380.899999976158,,shortestpath_phase,1932330,,GW/racine.png,,,,49,GW/gatlinburg.png,GW/newhope.png,1,0.6724137931034483,,,,GW/gatlinburg.png,,,,,Three Edge Diff,Three Edge Six Edge,,,,,,,,,,,,,
null,,html-keyboard-response,1933331,,<p></p>,,,,null,,,,,,,,,,,,,,,,,,,,,,,,,,,
2093.4000000953674,,shortestpath_phase,1935426,,GW/newhope.png,,,,49,GW/hotsprings.png,GW/racine.png,1,0.6779661016949152,,,,GW/hotsprings.png,,,,,Three Edge Diff,Two Edge Five Edge,,,,,,,,,,,,,
null,,html-keyboard-response,1936427,,<p></p>,,,,null,,,,,,,,,,,,,,,,,,,,,,,,,,,
3565.600000023842,,shortestpath_phase,1939994,,GW/cornwall.png,,,,49,GW/boulder.png,GW/westpalmbeach.png,1,0.6833333333333333,,,,GW/boulder.png,,,,,Three Edge Diff,Three Edge Six Edge,,,,,,,,,,,,,
null,,html-keyboard-response,1940995,,<p></p>,,,,null,,,,,,,,,,,,,,,,,,,,,,,,,,,
3117.600000023842,,shortestpath_phase,1944114,,GW/peoria.png,,,,49,GW/leesburg.png,GW/racine.png,1,0.6885245901639344,,,,GW/leesburg.png,,,,,Two Edge Diff,Two Edge Four Edge,,,,,,,,,,,,,
null,,html-keyboard-response,1945116,,<p></p>,,,,null,,,,,,,,,,,,,,,,,,,,,,,,,,,
2773.100000023842,,shortestpath_phase,1947890,,GW/westpalmbeach.png,,,,49,GW/hanover.png,GW/gatlinburg.png,1,0.6935483870967742,,,,GW/hanover.png,,,,,One Edge Diff,Three Edge Four Edge,,,,,,,,,,,,,
null,,html-keyboard-response,1948892,,<p></p>,,,,null,,,,,,,,,,,,,,,,,,,,,,,,,,,
