rt,responses,trial_type,time_elapsed,sequence,stimulus,graphorder,button_pressed,response,key_press,stimulus_left,stimulus_right,accuracy,cumulative_accuracy,stimulus_down_left,stimulus_down_mid,stimulus_down_right,stimulus_correct,stimulus_short,stimulus_far,weighted_accuracy,missedtrial,condition,specific_pairs,imgL_ID,imgR_ID,linedress,linedressed,linedressed_detor,detour_trial,problems,smooth,distraction,strategies,easier,similar,comments
7129.5,{worker_id:644b1e452a0061d713dcbf4a},id_enter,7132,blocked,replication,GW/hotsprings.png; GW/racine.png; GW/gatlinburg.png; GW/cornwall.png; GW/newhope.png; GW/shreveport.png; GW/westpalmbeach.png; GW/peoria.png; GW/hanover.png; GW/huntsville.png; GW/boulder.png; GW/leesburg.png; GW/carmel.png,,,,,,,,,,,,,,,,,,,,,,,,,,,,,,
42314.300000000745,,fullscreen,49451,,fullscreen,,0,,,,,,,,,,,,,,,,,,,,,,,,,,,,,
47515.400000002235,,intro_1,96968,,instruct,,0,,,,,,,,,,,,,,,,,,,,,,,,,,,,,
62814,,intro_2,159785,,instruct,,1,Next,,,,,,,,,,,,,,,,,,,,,,,,,,,,
32464.39999999851,,intro_3,192251,,instruct,,1,Next,,,,,,,,,,,,,,,,,,,,,,,,,,,,
null,,learn_prac_1,195253,,lean_prac_1,,,,null,,,,,,,,,,,,,,,,,,,,,,,,,,,
null,,html-keyboard-response,196257,,<p></p>,,,,null,,,,,,,,,,,,,,,,,,,,,,,,,,,
13383.400000002235,,intro_1,209642,,instruct,,0,,,,,,,,,,,,,,,,,,,,,,,,,,,,,
17517.699999999255,,intro_2,227161,,instruct,,1,Next,,,,,,,,,,,,,,,,,,,,,,,,,,,,
null,,learn_prac_2,230162,,lean_prac_2,,,,null,,,,,,,,,,,,,,,,,,,,,,,,,,,
null,,html-keyboard-response,231165,,<p></p>,,,,null,,,,,,,,,,,,,,,,,,,,,,,,,,,
9219.10000000149,,intro_1,240386,,instruct,,0,,,,,,,,,,,,,,,,,,,,,,,,,,,,,
11743.900000002235,,intro_2,252131,,instruct,,1,Next,,,,,,,,,,,,,,,,,,,,,,,,,,,,
83189.30000000075,,intro_3,335322,,instruct,,1,Next,,,,,,,,,,,,,,,,,,,,,,,,,,,,
null,,prac_atten_color_black,336052,,black_plus_sign,,,,null,,,,,,,,,,,,,,,,,,,,,,,,,,,
null,,prac_atten_color,336735,,prac_stop_color,,,,null,,,,,,,,,,,,,,,,,,,,,,,,,,,
26.199999999254942,,prac_atten_color_black,338738,,black_plus_sign,,,,49,,,,,,,,,,,,,,,,,,,,,,,,,,,
null,,prac_atten_color_black,339470,,black_plus_sign,,,,null,,,,,,,,,,,,,,,,,,,,,,,,,,,
540.0999999977648,,prac_atten_color,340356,,prac_stop_color,,,,50,,,,,,,,,,,,,,,,,,,,,,,,,,,
null,,prac_atten_color_black,342361,,black_plus_sign,,,,null,,,,,,,,,,,,,,,,,,,,,,,,,,,
null,,prac_atten_color_black,342881,,black_plus_sign,,,,null,,,,,,,,,,,,,,,,,,,,,,,,,,,
null,,prac_atten_color,343468,,prac_stop_color,,,,null,,,,,,,,,,,,,,,,,,,,,,,,,,,
21.800000000745058,,prac_atten_color_black,345470,,black_plus_sign,,,,50,,,,,,,,,,,,,,,,,,,,,,,,,,,
null,,prac_atten_color_black,346288,,black_plus_sign,,,,null,,,,,,,,,,,,,,,,,,,,,,,,,,,
492.19999999925494,,prac_atten_color,347354,,prac_stop_color,,,,49,,,,,,,,,,,,,,,,,,,,,,,,,,,
null,,prac_atten_color_black,349356,,black_plus_sign,,,,null,,,,,,,,,,,,,,,,,,,,,,,,,,,
null,,prac_atten_color_black,349697,,black_plus_sign,,,,null,,,,,,,,,,,,,,,,,,,,,,,,,,,
468.80000000074506,,prac_atten_color,350208,,prac_stop_color,,,,50,,,,,,,,,,,,,,,,,,,,,,,,,,,
null,,prac_atten_color_black,352210,,black_plus_sign,,,,null,,,,,,,,,,,,,,,,,,,,,,,,,,,
null,,prac_atten_color_black,353104,,black_plus_sign,,,,null,,,,,,,,,,,,,,,,,,,,,,,,,,,
569.3000000007451,,prac_atten_color,353868,,prac_stop_color,,,,50,,,,,,,,,,,,,,,,,,,,,,,,,,,
null,,prac_atten_color_black,355875,,black_plus_sign,,,,null,,,,,,,,,,,,,,,,,,,,,,,,,,,
null,,prac_atten_color_black,356517,,black_plus_sign,,,,null,,,,,,,,,,,,,,,,,,,,,,,,,,,
null,,prac_atten_color,357022,,prac_stop_color,,,,null,,,,,,,,,,,,,,,,,,,,,,,,,,,
0.9000000022351742,,prac_atten_color_black,359023,,black_plus_sign,,,,49,,,,,,,,,,,,,,,,,,,,,,,,,,,
null,,prac_atten_color_black,359923,,black_plus_sign,,,,null,,,,,,,,,,,,,,,,,,,,,,,,,,,
398.6000000014901,,prac_atten_color,360867,,prac_stop_color,,,,50,,,,,,,,,,,,,,,,,,,,,,,,,,,
null,,prac_atten_color_black,362869,,black_plus_sign,,,,null,,,,,,,,,,,,,,,,,,,,,,,,,,,
null,,prac_atten_color_black,363331,,black_plus_sign,,,,null,,,,,,,,,,,,,,,,,,,,,,,,,,,
490,,prac_atten_color,364375,,prac_stop_color,,,,49,,,,,,,,,,,,,,,,,,,,,,,,,,,
null,,prac_atten_color_black,366384,,black_plus_sign,,,,null,,,,,,,,,,,,,,,,,,,,,,,,,,,
null,,prac_atten_color_black,366747,,black_plus_sign,,,,null,,,,,,,,,,,,,,,,,,,,,,,,,,,
556.6999999992549,,prac_atten_color,367317,,prac_stop_color,,,,49,,,,,,,,,,,,,,,,,,,,,,,,,,,
null,,prac_atten_color_black,369319,,black_plus_sign,,,,null,,,,,,,,,,,,,,,,,,,,,,,,,,,
22673.70000000298,,attentioncheck_feedback,391996,,cross_check_feedback,,0,,,,,,,,,,,,,,,,,,,,,,,,,,,,,
76374.30000000075,,last_instruct,468371,,instruct,,,,32,,,,,,,,,,,,,,,,,,,,,,,,,,,
null,,learn_phase(without_color),471375,,black_plus_sign,,,,null,GW/cornwall.png,GW/racine.png,,,,,,,,,,,,,,,,,,,,,,,,,
null,,black_cross(without_color),471930,,blue,,,,null,GW/cornwall.png,GW/racine.png,,,,,,,,,,,,,,,,,,,,,,,,,
null,,rt_plussign_withcolor,472431,,blue,,,,null,GW/cornwall.png,GW/racine.png,,,,,,,,,,,,,,,,,,,,,,,,,
859.0999999977648,,rt_thecrossant_black,473881,,black_plus_sign,,,,49,,,1,1,,,,,,,,,,,,,,,,,,,,,,,
null,,color_black,473985,,black_plus_sign,,,,null,,,,,,,,,,,,,,,,,,,,,,,,,,,
null,,learn_phase(without_color),476989,,black_plus_sign,,,,null,GW/gatlinburg.png,GW/boulder.png,,,,,,,,,,,,,,,,,,,,,,,,,
null,,black_cross(without_color),478077,,yellow,,,,null,GW/gatlinburg.png,GW/boulder.png,,,,,,,,,,,,,,,,,,,,,,,,,
null,,rt_plussign_withcolor,478579,,yellow,,,,null,GW/gatlinburg.png,GW/boulder.png,,,,,,,,,,,,,,,,,,,,,,,,,
1186.199999999255,,rt_thecrossant_black,479499,,black_plus_sign,,,,50,,,1,1,,,,,,,,,,,,,,,,,,,,,,,
null,,color_black,479602,,black_plus_sign,,,,null,,,,,,,,,,,,,,,,,,,,,,,,,,,
null,,learn_phase(without_color),482613,,black_plus_sign,,,,null,GW/cornwall.png,GW/racine.png,,,,,,,,,,,,,,,,,,,,,,,,,
null,,black_cross(without_color),483180,,blue,,,,null,GW/cornwall.png,GW/racine.png,,,,,,,,,,,,,,,,,,,,,,,,,
null,,rt_plussign_withcolor,483681,,blue,,,,null,GW/cornwall.png,GW/racine.png,,,,,,,,,,,,,,,,,,,,,,,,,
1199.800000000745,,rt_thecrossant_black,485120,,black_plus_sign,,,,49,,,1,1,,,,,,,,,,,,,,,,,,,,,,,
null,,color_black,485222,,black_plus_sign,,,,null,,,,,,,,,,,,,,,,,,,,,,,,,,,
null,,learn_phase(without_color),488224,,black_plus_sign,,,,null,GW/shreveport.png,GW/hanover.png,,,,,,,,,,,,,,,,,,,,,,,,,
null,,black_cross(without_color),489053,,yellow,,,,null,GW/shreveport.png,GW/hanover.png,,,,,,,,,,,,,,,,,,,,,,,,,
384.8999999985099,,rt_plussign_withcolor,489556,,yellow,,,,50,GW/shreveport.png,GW/hanover.png,,,,,,,,,,,,,,,,,,,,,,,,,
null,,rt_thecrossant_black,490743,,black_plus_sign,,,,null,,,1,1,,,,,,,,,,,,,,,,,,,,,,,
null,,color_black,490851,,black_plus_sign,,,,null,,,,,,,,,,,,,,,,,,,,,,,,,,,
null,,learn_phase(without_color),493865,,black_plus_sign,,,,null,GW/boulder.png,GW/gatlinburg.png,,,,,,,,,,,,,,,,,,,,,,,,,
null,,black_cross(without_color),494740,,yellow,,,,null,GW/boulder.png,GW/gatlinburg.png,,,,,,,,,,,,,,,,,,,,,,,,,
null,,rt_plussign_withcolor,495242,,yellow,,,,null,GW/boulder.png,GW/gatlinburg.png,,,,,,,,,,,,,,,,,,,,,,,,,
977.6000000014901,,rt_thecrossant_black,496386,,black_plus_sign,,,,50,,,1,1,,,,,,,,,,,,,,,,,,,,,,,
null,,color_black,496488,,black_plus_sign,,,,null,,,,,,,,,,,,,,,,,,,,,,,,,,,
null,,learn_phase(without_color),499492,,black_plus_sign,,,,null,GW/shreveport.png,GW/hanover.png,,,,,,,,,,,,,,,,,,,,,,,,,
null,,black_cross(without_color),500236,,yellow,,,,null,GW/shreveport.png,GW/hanover.png,,,,,,,,,,,,,,,,,,,,,,,,,
null,,rt_plussign_withcolor,500737,,yellow,,,,null,GW/shreveport.png,GW/hanover.png,,,,,,,,,,,,,,,,,,,,,,,,,
1050.6000000014901,,rt_thecrossant_black,501998,,black_plus_sign,,,,49,,,0,0.8333333333333334,,,,,,,,,,,,,,,,,,,,,,,
null,,color_black,502100,,black_plus_sign,,,,null,,,,,,,,,,,,,,,,,,,,,,,,,,,
null,,learn_phase(without_color),505103,,black_plus_sign,,,,null,GW/racine.png,GW/cornwall.png,,,,,,,,,,,,,,,,,,,,,,,,,
null,,black_cross(without_color),505882,,blue,,,,null,GW/racine.png,GW/cornwall.png,,,,,,,,,,,,,,,,,,,,,,,,,
null,,rt_plussign_withcolor,506384,,blue,,,,null,GW/racine.png,GW/cornwall.png,,,,,,,,,,,,,,,,,,,,,,,,,
879.1000000014901,,rt_thecrossant_black,507610,,black_plus_sign,,,,49,,,1,0.8571428571428571,,,,,,,,,,,,,,,,,,,,,,,
null,,color_black,507712,,black_plus_sign,,,,null,,,,,,,,,,,,,,,,,,,,,,,,,,,
null,,learn_phase(without_color),510714,,black_plus_sign,,,,null,GW/shreveport.png,GW/hanover.png,,,,,,,,,,,,,,,,,,,,,,,,,
null,,black_cross(without_color),511719,,yellow,,,,null,GW/shreveport.png,GW/hanover.png,,,,,,,,,,,,,,,,,,,,,,,,,
369.6000000014901,,rt_plussign_withcolor,512221,,yellow,,,,50,GW/shreveport.png,GW/hanover.png,,,,,,,,,,,,,,,,,,,,,,,,,
null,,rt_thecrossant_black,513221,,black_plus_sign,,,,null,,,1,0.875,,,,,,,,,,,,,,,,,,,,,,,
null,,color_black,513323,,black_plus_sign,,,,null,,,,,,,,,,,,,,,,,,,,,,,,,,,
null,,learn_phase(without_color),516326,,black_plus_sign,,,,null,GW/cornwall.png,GW/racine.png,,,,,,,,,,,,,,,,,,,,,,,,,
null,,black_cross(without_color),516914,,blue,,,,null,GW/cornwall.png,GW/racine.png,,,,,,,,,,,,,,,,,,,,,,,,,
null,,rt_plussign_withcolor,517416,,blue,,,,null,GW/cornwall.png,GW/racine.png,,,,,,,,,,,,,,,,,,,,,,,,,
1124.3999999985099,,rt_thecrossant_black,518832,,black_plus_sign,,,,49,,,1,0.8888888888888888,,,,,,,,,,,,,,,,,,,,,,,
null,,color_black,518934,,black_plus_sign,,,,null,,,,,,,,,,,,,,,,,,,,,,,,,,,
null,,learn_phase(without_color),521938,,black_plus_sign,,,,null,GW/peoria.png,GW/westpalmbeach.png,,,,,,,,,,,,,,,,,,,,,,,,,
null,,black_cross(without_color),522945,,yellow,,,,null,GW/peoria.png,GW/westpalmbeach.png,,,,,,,,,,,,,,,,,,,,,,,,,
null,,rt_plussign_withcolor,523449,,yellow,,,,null,GW/peoria.png,GW/westpalmbeach.png,,,,,,,,,,,,,,,,,,,,,,,,,
816.8000000007451,,rt_thecrossant_black,524461,,black_plus_sign,,,,50,,,1,0.9,,,,,,,,,,,,,,,,,,,,,,,
null,,color_black,524565,,black_plus_sign,,,,null,,,,,,,,,,,,,,,,,,,,,,,,,,,
null,,learn_phase(without_color),527569,,black_plus_sign,,,,null,GW/hanover.png,GW/shreveport.png,,,,,,,,,,,,,,,,,,,,,,,,,
null,,black_cross(without_color),528372,,blue,,,,null,GW/hanover.png,GW/shreveport.png,,,,,,,,,,,,,,,,,,,,,,,,,
404.30000000074506,,rt_plussign_withcolor,528874,,blue,,,,49,GW/hanover.png,GW/shreveport.png,,,,,,,,,,,,,,,,,,,,,,,,,
null,,rt_thecrossant_black,530077,,black_plus_sign,,,,null,,,1,0.9090909090909091,,,,,,,,,,,,,,,,,,,,,,,
null,,color_black,530180,,black_plus_sign,,,,null,,,,,,,,,,,,,,,,,,,,,,,,,,,
null,,learn_phase(without_color),533183,,black_plus_sign,,,,null,GW/racine.png,GW/cornwall.png,,,,,,,,,,,,,,,,,,,,,,,,,
null,,black_cross(without_color),534281,,yellow,,,,null,GW/racine.png,GW/cornwall.png,,,,,,,,,,,,,,,,,,,,,,,,,
null,,rt_plussign_withcolor,534784,,yellow,,,,null,GW/racine.png,GW/cornwall.png,,,,,,,,,,,,,,,,,,,,,,,,,
953.3000000007451,,rt_thecrossant_black,535689,,black_plus_sign,,,,50,,,1,0.9166666666666666,,,,,,,,,,,,,,,,,,,,,,,
null,,color_black,535792,,black_plus_sign,,,,null,,,,,,,,,,,,,,,,,,,,,,,,,,,
null,,learn_phase(without_color),538794,,black_plus_sign,,,,null,GW/westpalmbeach.png,GW/peoria.png,,,,,,,,,,,,,,,,,,,,,,,,,
null,,black_cross(without_color),539666,,blue,,,,null,GW/westpalmbeach.png,GW/peoria.png,,,,,,,,,,,,,,,,,,,,,,,,,
440.1000000014901,,rt_plussign_withcolor,540169,,blue,,,,49,GW/westpalmbeach.png,GW/peoria.png,,,,,,,,,,,,,,,,,,,,,,,,,
null,,rt_thecrossant_black,541304,,black_plus_sign,,,,null,,,1,0.9230769230769231,,,,,,,,,,,,,,,,,,,,,,,
null,,color_black,541406,,black_plus_sign,,,,null,,,,,,,,,,,,,,,,,,,,,,,,,,,
null,,learn_phase(without_color),544408,,black_plus_sign,,,,null,GW/shreveport.png,GW/hanover.png,,,,,,,,,,,,,,,,,,,,,,,,,
null,,black_cross(without_color),545039,,yellow,,,,null,GW/shreveport.png,GW/hanover.png,,,,,,,,,,,,,,,,,,,,,,,,,
329.3999999985099,,rt_plussign_withcolor,545542,,yellow,,,,50,GW/shreveport.png,GW/hanover.png,,,,,,,,,,,,,,,,,,,,,,,,,
null,,rt_thecrossant_black,546916,,black_plus_sign,,,,null,,,1,0.9285714285714286,,,,,,,,,,,,,,,,,,,,,,,
null,,color_black,547019,,black_plus_sign,,,,null,,,,,,,,,,,,,,,,,,,,,,,,,,,
null,,learn_phase(without_color),550028,,black_plus_sign,,,,null,GW/gatlinburg.png,GW/boulder.png,,,,,,,,,,,,,,,,,,,,,,,,,
null,,black_cross(without_color),551000,,yellow,,,,null,GW/gatlinburg.png,GW/boulder.png,,,,,,,,,,,,,,,,,,,,,,,,,
null,,rt_plussign_withcolor,551502,,yellow,,,,null,GW/gatlinburg.png,GW/boulder.png,,,,,,,,,,,,,,,,,,,,,,,,,
731,,rt_thecrossant_black,552535,,black_plus_sign,,,,50,,,1,0.9333333333333333,,,,,,,,,,,,,,,,,,,,,,,
null,,color_black,552638,,black_plus_sign,,,,null,,,,,,,,,,,,,,,,,,,,,,,,,,,
null,,learn_phase(without_color),555640,,black_plus_sign,,,,null,GW/cornwall.png,GW/racine.png,,,,,,,,,,,,,,,,,,,,,,,,,
null,,black_cross(without_color),556542,,blue,,,,null,GW/cornwall.png,GW/racine.png,,,,,,,,,,,,,,,,,,,,,,,,,
null,,rt_plussign_withcolor,557044,,blue,,,,null,GW/cornwall.png,GW/racine.png,,,,,,,,,,,,,,,,,,,,,,,,,
1171.800000000745,,rt_thecrossant_black,558158,,black_plus_sign,,,,49,,,1,0.9375,,,,,,,,,,,,,,,,,,,,,,,
null,,color_black,558261,,black_plus_sign,,,,null,,,,,,,,,,,,,,,,,,,,,,,,,,,
null,,learn_phase(without_color),561267,,black_plus_sign,,,,null,GW/peoria.png,GW/westpalmbeach.png,,,,,,,,,,,,,,,,,,,,,,,,,
null,,black_cross(without_color),562352,,yellow,,,,null,GW/peoria.png,GW/westpalmbeach.png,,,,,,,,,,,,,,,,,,,,,,,,,
null,,rt_plussign_withcolor,562854,,yellow,,,,null,GW/peoria.png,GW/westpalmbeach.png,,,,,,,,,,,,,,,,,,,,,,,,,
1039.699999999255,,rt_thecrossant_black,563775,,black_plus_sign,,,,50,,,1,0.9411764705882353,,,,,,,,,,,,,,,,,,,,,,,
null,,color_black,563891,,black_plus_sign,,,,null,,,,,,,,,,,,,,,,,,,,,,,,,,,
null,,learn_phase(without_color),566894,,black_plus_sign,,,,null,GW/gatlinburg.png,GW/boulder.png,,,,,,,,,,,,,,,,,,,,,,,,,
null,,black_cross(without_color),567405,,yellow,,,,null,GW/gatlinburg.png,GW/boulder.png,,,,,,,,,,,,,,,,,,,,,,,,,
456.5,,rt_plussign_withcolor,567906,,yellow,,,,50,GW/gatlinburg.png,GW/boulder.png,,,,,,,,,,,,,,,,,,,,,,,,,
null,,rt_thecrossant_black,569400,,black_plus_sign,,,,null,,,1,0.9444444444444444,,,,,,,,,,,,,,,,,,,,,,,
null,,color_black,569502,,black_plus_sign,,,,null,,,,,,,,,,,,,,,,,,,,,,,,,,,
null,,learn_phase(without_color),572506,,black_plus_sign,,,,null,GW/racine.png,GW/cornwall.png,,,,,,,,,,,,,,,,,,,,,,,,,
null,,black_cross(without_color),573450,,blue,,,,null,GW/racine.png,GW/cornwall.png,,,,,,,,,,,,,,,,,,,,,,,,,
438.4000000022352,,rt_plussign_withcolor,573954,,blue,,,,49,GW/racine.png,GW/cornwall.png,,,,,,,,,,,,,,,,,,,,,,,,,
null,,rt_thecrossant_black,575021,,black_plus_sign,,,,null,,,1,0.9473684210526315,,,,,,,,,,,,,,,,,,,,,,,
null,,color_black,575122,,black_plus_sign,,,,null,,,,,,,,,,,,,,,,,,,,,,,,,,,
null,,learn_phase(without_color),578125,,black_plus_sign,,,,null,GW/peoria.png,GW/westpalmbeach.png,,,,,,,,,,,,,,,,,,,,,,,,,
null,,black_cross(without_color),578946,,blue,,,,null,GW/peoria.png,GW/westpalmbeach.png,,,,,,,,,,,,,,,,,,,,,,,,,
null,,rt_plussign_withcolor,579453,,blue,,,,null,GW/peoria.png,GW/westpalmbeach.png,,,,,,,,,,,,,,,,,,,,,,,,,
1106.2000000029802,,rt_thecrossant_black,580637,,black_plus_sign,,,,49,,,1,0.95,,,,,,,,,,,,,,,,,,,,,,,
null,,color_black,580741,,black_plus_sign,,,,null,,,,,,,,,,,,,,,,,,,,,,,,,,,
null,,learn_phase(without_color),583746,,black_plus_sign,,,,null,GW/shreveport.png,GW/hanover.png,,,,,,,,,,,,,,,,,,,,,,,,,
null,,black_cross(without_color),584580,,blue,,,,null,GW/shreveport.png,GW/hanover.png,,,,,,,,,,,,,,,,,,,,,,,,,
null,,rt_plussign_withcolor,585082,,blue,,,,null,GW/shreveport.png,GW/hanover.png,,,,,,,,,,,,,,,,,,,,,,,,,
977.9000000022352,,rt_thecrossant_black,586253,,black_plus_sign,,,,49,,,1,0.9523809523809523,,,,,,,,,,,,,,,,,,,,,,,
null,,color_black,586356,,black_plus_sign,,,,null,,,,,,,,,,,,,,,,,,,,,,,,,,,
null,,learn_phase(without_color),589361,,black_plus_sign,,,,null,GW/cornwall.png,GW/racine.png,,,,,,,,,,,,,,,,,,,,,,,,,
null,,black_cross(without_color),590330,,yellow,,,,null,GW/cornwall.png,GW/racine.png,,,,,,,,,,,,,,,,,,,,,,,,,
424.80000000074506,,rt_plussign_withcolor,590840,,yellow,,,,50,GW/cornwall.png,GW/racine.png,,,,,,,,,,,,,,,,,,,,,,,,,
null,,rt_thecrossant_black,591876,,black_plus_sign,,,,null,,,1,0.9545454545454546,,,,,,,,,,,,,,,,,,,,,,,
null,,color_black,591982,,black_plus_sign,,,,null,,,,,,,,,,,,,,,,,,,,,,,,,,,
null,,learn_phase(without_color),594985,,black_plus_sign,,,,null,GW/boulder.png,GW/gatlinburg.png,,,,,,,,,,,,,,,,,,,,,,,,,
null,,black_cross(without_color),595830,,blue,,,,null,GW/boulder.png,GW/gatlinburg.png,,,,,,,,,,,,,,,,,,,,,,,,,
null,,rt_plussign_withcolor,596332,,blue,,,,null,GW/boulder.png,GW/gatlinburg.png,,,,,,,,,,,,,,,,,,,,,,,,,
1170,,rt_thecrossant_black,597491,,black_plus_sign,,,,49,,,1,0.9565217391304348,,,,,,,,,,,,,,,,,,,,,,,
null,,color_black,597593,,black_plus_sign,,,,null,,,,,,,,,,,,,,,,,,,,,,,,,,,
null,,learn_phase(without_color),600597,,black_plus_sign,,,,null,GW/peoria.png,GW/westpalmbeach.png,,,,,,,,,,,,,,,,,,,,,,,,,
null,,black_cross(without_color),601166,,blue,,,,null,GW/peoria.png,GW/westpalmbeach.png,,,,,,,,,,,,,,,,,,,,,,,,,
null,,rt_plussign_withcolor,601668,,blue,,,,null,GW/peoria.png,GW/westpalmbeach.png,,,,,,,,,,,,,,,,,,,,,,,,,
978.7000000029802,,rt_thecrossant_black,603105,,black_plus_sign,,,,49,,,1,0.9583333333333334,,,,,,,,,,,,,,,,,,,,,,,
null,,color_black,603207,,black_plus_sign,,,,null,,,,,,,,,,,,,,,,,,,,,,,,,,,
null,,learn_phase(without_color),606209,,black_plus_sign,,,,null,GW/gatlinburg.png,GW/boulder.png,,,,,,,,,,,,,,,,,,,,,,,,,
null,,black_cross(without_color),606670,,blue,,,,null,GW/gatlinburg.png,GW/boulder.png,,,,,,,,,,,,,,,,,,,,,,,,,
null,,rt_plussign_withcolor,607172,,blue,,,,null,GW/gatlinburg.png,GW/boulder.png,,,,,,,,,,,,,,,,,,,,,,,,,
732.1999999992549,,rt_thecrossant_black,608714,,black_plus_sign,,,,49,,,1,0.96,,,,,,,,,,,,,,,,,,,,,,,
null,,color_black,608816,,black_plus_sign,,,,null,,,,,,,,,,,,,,,,,,,,,,,,,,,
null,,learn_phase(without_color),611818,,black_plus_sign,,,,null,GW/shreveport.png,GW/hanover.png,,,,,,,,,,,,,,,,,,,,,,,,,
null,,black_cross(without_color),612831,,blue,,,,null,GW/shreveport.png,GW/hanover.png,,,,,,,,,,,,,,,,,,,,,,,,,
null,,rt_plussign_withcolor,613334,,blue,,,,null,GW/shreveport.png,GW/hanover.png,,,,,,,,,,,,,,,,,,,,,,,,,
674.6999999992549,,rt_thecrossant_black,614325,,black_plus_sign,,,,49,,,1,0.9615384615384616,,,,,,,,,,,,,,,,,,,,,,,
null,,color_black,614429,,black_plus_sign,,,,null,,,,,,,,,,,,,,,,,,,,,,,,,,,
null,,learn_phase(without_color),617431,,black_plus_sign,,,,null,GW/westpalmbeach.png,GW/peoria.png,,,,,,,,,,,,,,,,,,,,,,,,,
null,,black_cross(without_color),618411,,blue,,,,null,GW/westpalmbeach.png,GW/peoria.png,,,,,,,,,,,,,,,,,,,,,,,,,
418.19999999925494,,rt_plussign_withcolor,618913,,blue,,,,49,GW/westpalmbeach.png,GW/peoria.png,,,,,,,,,,,,,,,,,,,,,,,,,
null,,rt_thecrossant_black,619946,,black_plus_sign,,,,null,,,1,0.9629629629629629,,,,,,,,,,,,,,,,,,,,,,,
null,,color_black,620055,,black_plus_sign,,,,null,,,,,,,,,,,,,,,,,,,,,,,,,,,
null,,learn_phase(without_color),623058,,black_plus_sign,,,,null,GW/gatlinburg.png,GW/boulder.png,,,,,,,,,,,,,,,,,,,,,,,,,
null,,black_cross(without_color),623532,,yellow,,,,null,GW/gatlinburg.png,GW/boulder.png,,,,,,,,,,,,,,,,,,,,,,,,,
null,,rt_plussign_withcolor,624034,,yellow,,,,null,GW/gatlinburg.png,GW/boulder.png,,,,,,,,,,,,,,,,,,,,,,,,,
1218.199999999255,,rt_thecrossant_black,625564,,black_plus_sign,,,,50,,,1,0.9642857142857143,,,,,,,,,,,,,,,,,,,,,,,
null,,color_black,625669,,black_plus_sign,,,,null,,,,,,,,,,,,,,,,,,,,,,,,,,,
null,,learn_phase(without_color),628672,,black_plus_sign,,,,null,GW/westpalmbeach.png,GW/peoria.png,,,,,,,,,,,,,,,,,,,,,,,,,
null,,black_cross(without_color),629092,,yellow,,,,null,GW/westpalmbeach.png,GW/peoria.png,,,,,,,,,,,,,,,,,,,,,,,,,
null,,rt_plussign_withcolor,629594,,yellow,,,,null,GW/westpalmbeach.png,GW/peoria.png,,,,,,,,,,,,,,,,,,,,,,,,,
625.5,,rt_thecrossant_black,631178,,black_plus_sign,,,,50,,,1,0.9655172413793104,,,,,,,,,,,,,,,,,,,,,,,
null,,color_black,631281,,black_plus_sign,,,,null,,,,,,,,,,,,,,,,,,,,,,,,,,,
null,,learn_phase(without_color),634286,,black_plus_sign,,,,null,GW/shreveport.png,GW/hanover.png,,,,,,,,,,,,,,,,,,,,,,,,,
null,,black_cross(without_color),634935,,blue,,,,null,GW/shreveport.png,GW/hanover.png,,,,,,,,,,,,,,,,,,,,,,,,,
394,,rt_plussign_withcolor,635436,,blue,,,,49,GW/shreveport.png,GW/hanover.png,,,,,,,,,,,,,,,,,,,,,,,,,
null,,rt_thecrossant_black,636803,,black_plus_sign,,,,null,,,1,0.9666666666666667,,,,,,,,,,,,,,,,,,,,,,,
null,,color_black,636904,,black_plus_sign,,,,null,,,,,,,,,,,,,,,,,,,,,,,,,,,
null,,learn_phase(without_color),639908,,black_plus_sign,,,,null,GW/gatlinburg.png,GW/boulder.png,,,,,,,,,,,,,,,,,,,,,,,,,
null,,black_cross(without_color),640628,,yellow,,,,null,GW/gatlinburg.png,GW/boulder.png,,,,,,,,,,,,,,,,,,,,,,,,,
419.4000000022352,,rt_plussign_withcolor,641131,,yellow,,,,50,GW/gatlinburg.png,GW/boulder.png,,,,,,,,,,,,,,,,,,,,,,,,,
null,,rt_thecrossant_black,642416,,black_plus_sign,,,,null,,,1,0.967741935483871,,,,,,,,,,,,,,,,,,,,,,,
null,,color_black,642517,,black_plus_sign,,,,null,,,,,,,,,,,,,,,,,,,,,,,,,,,
null,,learn_phase(without_color),645521,,black_plus_sign,,,,null,GW/peoria.png,GW/westpalmbeach.png,,,,,,,,,,,,,,,,,,,,,,,,,
null,,black_cross(without_color),646178,,blue,,,,null,GW/peoria.png,GW/westpalmbeach.png,,,,,,,,,,,,,,,,,,,,,,,,,
null,,rt_plussign_withcolor,646680,,blue,,,,null,GW/peoria.png,GW/westpalmbeach.png,,,,,,,,,,,,,,,,,,,,,,,,,
959.1999999992549,,rt_thecrossant_black,648040,,black_plus_sign,,,,49,,,1,0.96875,,,,,,,,,,,,,,,,,,,,,,,
null,,color_black,648143,,black_plus_sign,,,,null,,,,,,,,,,,,,,,,,,,,,,,,,,,
null,,learn_phase(without_color),651148,,black_plus_sign,,,,null,GW/gatlinburg.png,GW/racine.png,,,,,,,,,,,,,,,,,,,,,,,,,
null,,black_cross(without_color),651706,,yellow,,,,null,GW/gatlinburg.png,GW/racine.png,,,,,,,,,,,,,,,,,,,,,,,,,
null,,rt_plussign_withcolor,652207,,yellow,,,,null,GW/gatlinburg.png,GW/racine.png,,,,,,,,,,,,,,,,,,,,,,,,,
817.6000000014901,,rt_thecrossant_black,653653,,black_plus_sign,,,,50,,,1,0.9696969696969697,,,,,,,,,,,,,,,,,,,,,,,
null,,color_black,653756,,black_plus_sign,,,,null,,,,,,,,,,,,,,,,,,,,,,,,,,,
null,,learn_phase(without_color),656774,,black_plus_sign,,,,null,GW/shreveport.png,GW/westpalmbeach.png,,,,,,,,,,,,,,,,,,,,,,,,,
null,,black_cross(without_color),657368,,yellow,,,,null,GW/shreveport.png,GW/westpalmbeach.png,,,,,,,,,,,,,,,,,,,,,,,,,
null,,rt_plussign_withcolor,657870,,yellow,,,,null,GW/shreveport.png,GW/westpalmbeach.png,,,,,,,,,,,,,,,,,,,,,,,,,
796.8000000007451,,rt_thecrossant_black,659283,,black_plus_sign,,,,49,,,0,0.9411764705882353,,,,,,,,,,,,,,,,,,,,,,,
null,,color_black,659386,,black_plus_sign,,,,null,,,,,,,,,,,,,,,,,,,,,,,,,,,
null,,learn_phase(without_color),662389,,black_plus_sign,,,,null,GW/gatlinburg.png,GW/racine.png,,,,,,,,,,,,,,,,,,,,,,,,,
null,,black_cross(without_color),662980,,yellow,,,,null,GW/gatlinburg.png,GW/racine.png,,,,,,,,,,,,,,,,,,,,,,,,,
null,,rt_plussign_withcolor,663482,,yellow,,,,null,GW/gatlinburg.png,GW/racine.png,,,,,,,,,,,,,,,,,,,,,,,,,
918.1999999992549,,rt_thecrossant_black,664898,,black_plus_sign,,,,50,,,1,0.9428571428571428,,,,,,,,,,,,,,,,,,,,,,,
null,,color_black,665002,,black_plus_sign,,,,null,,,,,,,,,,,,,,,,,,,,,,,,,,,
null,,learn_phase(without_color),668004,,black_plus_sign,,,,null,GW/peoria.png,GW/hanover.png,,,,,,,,,,,,,,,,,,,,,,,,,
null,,black_cross(without_color),668613,,blue,,,,null,GW/peoria.png,GW/hanover.png,,,,,,,,,,,,,,,,,,,,,,,,,
null,,rt_plussign_withcolor,669115,,blue,,,,null,GW/peoria.png,GW/hanover.png,,,,,,,,,,,,,,,,,,,,,,,,,
742.8999999985099,,rt_thecrossant_black,670520,,black_plus_sign,,,,49,,,1,0.9444444444444444,,,,,,,,,,,,,,,,,,,,,,,
null,,color_black,670623,,black_plus_sign,,,,null,,,,,,,,,,,,,,,,,,,,,,,,,,,
null,,learn_phase(without_color),673624,,black_plus_sign,,,,null,GW/shreveport.png,GW/westpalmbeach.png,,,,,,,,,,,,,,,,,,,,,,,,,
null,,black_cross(without_color),674282,,yellow,,,,null,GW/shreveport.png,GW/westpalmbeach.png,,,,,,,,,,,,,,,,,,,,,,,,,
null,,rt_plussign_withcolor,674784,,yellow,,,,null,GW/shreveport.png,GW/westpalmbeach.png,,,,,,,,,,,,,,,,,,,,,,,,,
959.0999999977648,,rt_thecrossant_black,676131,,black_plus_sign,,,,50,,,1,0.9459459459459459,,,,,,,,,,,,,,,,,,,,,,,
null,,color_black,676233,,black_plus_sign,,,,null,,,,,,,,,,,,,,,,,,,,,,,,,,,
null,,learn_phase(without_color),679236,,black_plus_sign,,,,null,GW/racine.png,GW/gatlinburg.png,,,,,,,,,,,,,,,,,,,,,,,,,
null,,black_cross(without_color),679989,,yellow,,,,null,GW/racine.png,GW/gatlinburg.png,,,,,,,,,,,,,,,,,,,,,,,,,
null,,rt_plussign_withcolor,680491,,yellow,,,,null,GW/racine.png,GW/gatlinburg.png,,,,,,,,,,,,,,,,,,,,,,,,,
846.5999999977648,,rt_thecrossant_black,681742,,black_plus_sign,,,,50,,,1,0.9473684210526315,,,,,,,,,,,,,,,,,,,,,,,
null,,color_black,681854,,black_plus_sign,,,,null,,,,,,,,,,,,,,,,,,,,,,,,,,,
null,,learn_phase(without_color),684856,,black_plus_sign,,,,null,GW/leesburg.png,GW/boulder.png,,,,,,,,,,,,,,,,,,,,,,,,,
null,,black_cross(without_color),685372,,blue,,,,null,GW/leesburg.png,GW/boulder.png,,,,,,,,,,,,,,,,,,,,,,,,,
null,,rt_plussign_withcolor,685875,,blue,,,,null,GW/leesburg.png,GW/boulder.png,,,,,,,,,,,,,,,,,,,,,,,,,
1290,,rt_thecrossant_black,687367,,black_plus_sign,,,,49,,,1,0.9487179487179487,,,,,,,,,,,,,,,,,,,,,,,
null,,color_black,687469,,black_plus_sign,,,,null,,,,,,,,,,,,,,,,,,,,,,,,,,,
null,,learn_phase(without_color),690472,,black_plus_sign,,,,null,GW/shreveport.png,GW/westpalmbeach.png,,,,,,,,,,,,,,,,,,,,,,,,,
null,,black_cross(without_color),691084,,blue,,,,null,GW/shreveport.png,GW/westpalmbeach.png,,,,,,,,,,,,,,,,,,,,,,,,,
null,,rt_plussign_withcolor,691587,,blue,,,,null,GW/shreveport.png,GW/westpalmbeach.png,,,,,,,,,,,,,,,,,,,,,,,,,
854.1000000014901,,rt_thecrossant_black,692979,,black_plus_sign,,,,49,,,1,0.95,,,,,,,,,,,,,,,,,,,,,,,
null,,color_black,693082,,black_plus_sign,,,,null,,,,,,,,,,,,,,,,,,,,,,,,,,,
null,,learn_phase(without_color),696084,,black_plus_sign,,,,null,GW/peoria.png,GW/hanover.png,,,,,,,,,,,,,,,,,,,,,,,,,
null,,black_cross(without_color),697046,,yellow,,,,null,GW/peoria.png,GW/hanover.png,,,,,,,,,,,,,,,,,,,,,,,,,
null,,rt_plussign_withcolor,697549,,yellow,,,,null,GW/peoria.png,GW/hanover.png,,,,,,,,,,,,,,,,,,,,,,,,,
789.2999999970198,,rt_thecrossant_black,698592,,black_plus_sign,,,,50,,,1,0.9512195121951219,,,,,,,,,,,,,,,,,,,,,,,
null,,color_black,698694,,black_plus_sign,,,,null,,,,,,,,,,,,,,,,,,,,,,,,,,,
null,,learn_phase(without_color),701709,,black_plus_sign,,,,null,GW/westpalmbeach.png,GW/shreveport.png,,,,,,,,,,,,,,,,,,,,,,,,,
null,,black_cross(without_color),702362,,yellow,,,,null,GW/westpalmbeach.png,GW/shreveport.png,,,,,,,,,,,,,,,,,,,,,,,,,
null,,rt_plussign_withcolor,702863,,yellow,,,,null,GW/westpalmbeach.png,GW/shreveport.png,,,,,,,,,,,,,,,,,,,,,,,,,
1152,,rt_thecrossant_black,704217,,black_plus_sign,,,,50,,,1,0.9523809523809523,,,,,,,,,,,,,,,,,,,,,,,
null,,color_black,704319,,black_plus_sign,,,,null,,,,,,,,,,,,,,,,,,,,,,,,,,,
null,,learn_phase(without_color),707322,,black_plus_sign,,,,null,GW/gatlinburg.png,GW/racine.png,,,,,,,,,,,,,,,,,,,,,,,,,
null,,black_cross(without_color),707781,,yellow,,,,null,GW/gatlinburg.png,GW/racine.png,,,,,,,,,,,,,,,,,,,,,,,,,
null,,rt_plussign_withcolor,708284,,yellow,,,,null,GW/gatlinburg.png,GW/racine.png,,,,,,,,,,,,,,,,,,,,,,,,,
870.6999999992549,,rt_thecrossant_black,709829,,black_plus_sign,,,,50,,,1,0.9534883720930233,,,,,,,,,,,,,,,,,,,,,,,
null,,color_black,709931,,black_plus_sign,,,,null,,,,,,,,,,,,,,,,,,,,,,,,,,,
null,,learn_phase(without_color),712936,,black_plus_sign,,,,null,GW/shreveport.png,GW/westpalmbeach.png,,,,,,,,,,,,,,,,,,,,,,,,,
null,,black_cross(without_color),713875,,blue,,,,null,GW/shreveport.png,GW/westpalmbeach.png,,,,,,,,,,,,,,,,,,,,,,,,,
null,,rt_plussign_withcolor,714377,,blue,,,,null,GW/shreveport.png,GW/westpalmbeach.png,,,,,,,,,,,,,,,,,,,,,,,,,
893.0999999977648,,rt_thecrossant_black,715443,,black_plus_sign,,,,49,,,1,0.9545454545454546,,,,,,,,,,,,,,,,,,,,,,,
null,,color_black,715547,,black_plus_sign,,,,null,,,,,,,,,,,,,,,,,,,,,,,,,,,
null,,learn_phase(without_color),718554,,black_plus_sign,,,,null,GW/peoria.png,GW/hanover.png,,,,,,,,,,,,,,,,,,,,,,,,,
null,,black_cross(without_color),719197,,yellow,,,,null,GW/peoria.png,GW/hanover.png,,,,,,,,,,,,,,,,,,,,,,,,,
null,,rt_plussign_withcolor,719699,,yellow,,,,null,GW/peoria.png,GW/hanover.png,,,,,,,,,,,,,,,,,,,,,,,,,
1422.300000000745,,rt_thecrossant_black,721061,,black_plus_sign,,,,50,,,1,0.9555555555555556,,,,,,,,,,,,,,,,,,,,,,,
null,,color_black,721164,,black_plus_sign,,,,null,,,,,,,,,,,,,,,,,,,,,,,,,,,
null,,learn_phase(without_color),724167,,black_plus_sign,,,,null,GW/westpalmbeach.png,GW/shreveport.png,,,,,,,,,,,,,,,,,,,,,,,,,
null,,black_cross(without_color),724972,,blue,,,,null,GW/westpalmbeach.png,GW/shreveport.png,,,,,,,,,,,,,,,,,,,,,,,,,
null,,rt_plussign_withcolor,725473,,blue,,,,null,GW/westpalmbeach.png,GW/shreveport.png,,,,,,,,,,,,,,,,,,,,,,,,,
788,,rt_thecrossant_black,726672,,black_plus_sign,,,,49,,,1,0.9565217391304348,,,,,,,,,,,,,,,,,,,,,,,
null,,color_black,726781,,black_plus_sign,,,,null,,,,,,,,,,,,,,,,,,,,,,,,,,,
null,,learn_phase(without_color),729783,,black_plus_sign,,,,null,GW/racine.png,GW/gatlinburg.png,,,,,,,,,,,,,,,,,,,,,,,,,
null,,black_cross(without_color),730482,,yellow,,,,null,GW/racine.png,GW/gatlinburg.png,,,,,,,,,,,,,,,,,,,,,,,,,
null,,rt_plussign_withcolor,730992,,yellow,,,,null,GW/racine.png,GW/gatlinburg.png,,,,,,,,,,,,,,,,,,,,,,,,,
912.9000000022352,,rt_thecrossant_black,732298,,black_plus_sign,,,,50,,,1,0.9574468085106383,,,,,,,,,,,,,,,,,,,,,,,
null,,color_black,732400,,black_plus_sign,,,,null,,,,,,,,,,,,,,,,,,,,,,,,,,,
null,,learn_phase(without_color),735417,,black_plus_sign,,,,null,GW/boulder.png,GW/leesburg.png,,,,,,,,,,,,,,,,,,,,,,,,,
null,,black_cross(without_color),736274,,blue,,,,null,GW/boulder.png,GW/leesburg.png,,,,,,,,,,,,,,,,,,,,,,,,,
null,,rt_plussign_withcolor,736777,,blue,,,,null,GW/boulder.png,GW/leesburg.png,,,,,,,,,,,,,,,,,,,,,,,,,
1006.6999999992549,,rt_thecrossant_black,737925,,black_plus_sign,,,,49,,,1,0.9583333333333334,,,,,,,,,,,,,,,,,,,,,,,
null,,color_black,738029,,black_plus_sign,,,,null,,,,,,,,,,,,,,,,,,,,,,,,,,,
null,,learn_phase(without_color),741032,,black_plus_sign,,,,null,GW/racine.png,GW/gatlinburg.png,,,,,,,,,,,,,,,,,,,,,,,,,
null,,black_cross(without_color),742081,,blue,,,,null,GW/racine.png,GW/gatlinburg.png,,,,,,,,,,,,,,,,,,,,,,,,,
null,,rt_plussign_withcolor,742583,,blue,,,,null,GW/racine.png,GW/gatlinburg.png,,,,,,,,,,,,,,,,,,,,,,,,,
1042.5,,rt_thecrossant_black,743552,,black_plus_sign,,,,49,,,1,0.9591836734693877,,,,,,,,,,,,,,,,,,,,,,,
null,,color_black,743654,,black_plus_sign,,,,null,,,,,,,,,,,,,,,,,,,,,,,,,,,
null,,learn_phase(without_color),746657,,black_plus_sign,,,,null,GW/hanover.png,GW/peoria.png,,,,,,,,,,,,,,,,,,,,,,,,,
null,,black_cross(without_color),747548,,yellow,,,,null,GW/hanover.png,GW/peoria.png,,,,,,,,,,,,,,,,,,,,,,,,,
null,,rt_plussign_withcolor,748050,,yellow,,,,null,GW/hanover.png,GW/peoria.png,,,,,,,,,,,,,,,,,,,,,,,,,
1241.699999999255,,rt_thecrossant_black,749166,,black_plus_sign,,,,50,,,1,0.96,,,,,,,,,,,,,,,,,,,,,,,
null,,color_black,749270,,black_plus_sign,,,,null,,,,,,,,,,,,,,,,,,,,,,,,,,,
null,,learn_phase(without_color),752272,,black_plus_sign,,,,null,GW/leesburg.png,GW/boulder.png,,,,,,,,,,,,,,,,,,,,,,,,,
null,,black_cross(without_color),753292,,yellow,,,,null,GW/leesburg.png,GW/boulder.png,,,,,,,,,,,,,,,,,,,,,,,,,
null,,rt_plussign_withcolor,753794,,yellow,,,,null,GW/leesburg.png,GW/boulder.png,,,,,,,,,,,,,,,,,,,,,,,,,
1280.800000000745,,rt_thecrossant_black,754779,,black_plus_sign,,,,49,,,0,0.9411764705882353,,,,,,,,,,,,,,,,,,,,,,,
null,,color_black,754882,,black_plus_sign,,,,null,,,,,,,,,,,,,,,,,,,,,,,,,,,
null,,learn_phase(without_color),757887,,black_plus_sign,,,,null,GW/westpalmbeach.png,GW/shreveport.png,,,,,,,,,,,,,,,,,,,,,,,,,
null,,black_cross(without_color),758915,,yellow,,,,null,GW/westpalmbeach.png,GW/shreveport.png,,,,,,,,,,,,,,,,,,,,,,,,,
null,,rt_plussign_withcolor,759417,,yellow,,,,null,GW/westpalmbeach.png,GW/shreveport.png,,,,,,,,,,,,,,,,,,,,,,,,,
1291.1000000014901,,rt_thecrossant_black,760407,,black_plus_sign,,,,50,,,1,0.9423076923076923,,,,,,,,,,,,,,,,,,,,,,,
null,,color_black,760509,,black_plus_sign,,,,null,,,,,,,,,,,,,,,,,,,,,,,,,,,
null,,learn_phase(without_color),763513,,black_plus_sign,,,,null,GW/leesburg.png,GW/boulder.png,,,,,,,,,,,,,,,,,,,,,,,,,
null,,black_cross(without_color),764311,,yellow,,,,null,GW/leesburg.png,GW/boulder.png,,,,,,,,,,,,,,,,,,,,,,,,,
null,,rt_plussign_withcolor,764813,,yellow,,,,null,GW/leesburg.png,GW/boulder.png,,,,,,,,,,,,,,,,,,,,,,,,,
1330.9000000022352,,rt_thecrossant_black,766018,,black_plus_sign,,,,50,,,1,0.9433962264150944,,,,,,,,,,,,,,,,,,,,,,,
null,,color_black,766121,,black_plus_sign,,,,null,,,,,,,,,,,,,,,,,,,,,,,,,,,
null,,learn_phase(without_color),769127,,black_plus_sign,,,,null,GW/hanover.png,GW/peoria.png,,,,,,,,,,,,,,,,,,,,,,,,,
null,,black_cross(without_color),770013,,yellow,,,,null,GW/hanover.png,GW/peoria.png,,,,,,,,,,,,,,,,,,,,,,,,,
467.29999999701977,,rt_plussign_withcolor,770514,,yellow,,,,50,GW/hanover.png,GW/peoria.png,,,,,,,,,,,,,,,,,,,,,,,,,
null,,rt_thecrossant_black,771637,,black_plus_sign,,,,null,,,1,0.9444444444444444,,,,,,,,,,,,,,,,,,,,,,,
null,,color_black,771739,,black_plus_sign,,,,null,,,,,,,,,,,,,,,,,,,,,,,,,,,
null,,learn_phase(without_color),774744,,black_plus_sign,,,,null,GW/gatlinburg.png,GW/racine.png,,,,,,,,,,,,,,,,,,,,,,,,,
null,,black_cross(without_color),775576,,blue,,,,null,GW/gatlinburg.png,GW/racine.png,,,,,,,,,,,,,,,,,,,,,,,,,
null,,rt_plussign_withcolor,776078,,blue,,,,null,GW/gatlinburg.png,GW/racine.png,,,,,,,,,,,,,,,,,,,,,,,,,
1267.8999999985099,,rt_thecrossant_black,777252,,black_plus_sign,,,,49,,,1,0.9454545454545454,,,,,,,,,,,,,,,,,,,,,,,
null,,color_black,777354,,black_plus_sign,,,,null,,,,,,,,,,,,,,,,,,,,,,,,,,,
null,,learn_phase(without_color),780358,,black_plus_sign,,,,null,GW/westpalmbeach.png,GW/shreveport.png,,,,,,,,,,,,,,,,,,,,,,,,,
null,,black_cross(without_color),781330,,blue,,,,null,GW/westpalmbeach.png,GW/shreveport.png,,,,,,,,,,,,,,,,,,,,,,,,,
null,,rt_plussign_withcolor,781831,,blue,,,,null,GW/westpalmbeach.png,GW/shreveport.png,,,,,,,,,,,,,,,,,,,,,,,,,
1083.199999999255,,rt_thecrossant_black,782864,,black_plus_sign,,,,49,,,1,0.9464285714285714,,,,,,,,,,,,,,,,,,,,,,,
null,,color_black,782965,,black_plus_sign,,,,null,,,,,,,,,,,,,,,,,,,,,,,,,,,
null,,learn_phase(without_color),785969,,black_plus_sign,,,,null,GW/leesburg.png,GW/boulder.png,,,,,,,,,,,,,,,,,,,,,,,,,
null,,black_cross(without_color),786380,,blue,,,,null,GW/leesburg.png,GW/boulder.png,,,,,,,,,,,,,,,,,,,,,,,,,
null,,rt_plussign_withcolor,786882,,blue,,,,null,GW/leesburg.png,GW/boulder.png,,,,,,,,,,,,,,,,,,,,,,,,,
1338,,rt_thecrossant_black,788477,,black_plus_sign,,,,49,,,1,0.9473684210526315,,,,,,,,,,,,,,,,,,,,,,,
null,,color_black,788580,,black_plus_sign,,,,null,,,,,,,,,,,,,,,,,,,,,,,,,,,
null,,learn_phase(without_color),791586,,black_plus_sign,,,,null,GW/racine.png,GW/gatlinburg.png,,,,,,,,,,,,,,,,,,,,,,,,,
null,,black_cross(without_color),792184,,blue,,,,null,GW/racine.png,GW/gatlinburg.png,,,,,,,,,,,,,,,,,,,,,,,,,
null,,rt_plussign_withcolor,792686,,blue,,,,null,GW/racine.png,GW/gatlinburg.png,,,,,,,,,,,,,,,,,,,,,,,,,
516.8000000007451,,rt_thecrossant_black,794106,,black_plus_sign,,,,49,,,1,0.9482758620689655,,,,,,,,,,,,,,,,,,,,,,,
null,,color_black,794215,,black_plus_sign,,,,null,,,,,,,,,,,,,,,,,,,,,,,,,,,
null,,learn_phase(without_color),797217,,black_plus_sign,,,,null,GW/hanover.png,GW/peoria.png,,,,,,,,,,,,,,,,,,,,,,,,,
null,,black_cross(without_color),798316,,blue,,,,null,GW/hanover.png,GW/peoria.png,,,,,,,,,,,,,,,,,,,,,,,,,
503.69999999925494,,rt_plussign_withcolor,798822,,blue,,,,49,GW/hanover.png,GW/peoria.png,,,,,,,,,,,,,,,,,,,,,,,,,
null,,rt_thecrossant_black,799728,,black_plus_sign,,,,null,,,1,0.9491525423728814,,,,,,,,,,,,,,,,,,,,,,,
null,,color_black,799832,,black_plus_sign,,,,null,,,,,,,,,,,,,,,,,,,,,,,,,,,
null,,learn_phase(without_color),802834,,black_plus_sign,,,,null,GW/leesburg.png,GW/boulder.png,,,,,,,,,,,,,,,,,,,,,,,,,
null,,black_cross(without_color),803531,,yellow,,,,null,GW/leesburg.png,GW/boulder.png,,,,,,,,,,,,,,,,,,,,,,,,,
null,,rt_plussign_withcolor,804033,,yellow,,,,null,GW/leesburg.png,GW/boulder.png,,,,,,,,,,,,,,,,,,,,,,,,,
1434.699999999255,,rt_thecrossant_black,805340,,black_plus_sign,,,,50,,,1,0.95,,,,,,,,,,,,,,,,,,,,,,,
null,,color_black,805444,,black_plus_sign,,,,null,,,,,,,,,,,,,,,,,,,,,,,,,,,
null,,learn_phase(without_color),808447,,black_plus_sign,,,,null,GW/hanover.png,GW/peoria.png,,,,,,,,,,,,,,,,,,,,,,,,,
null,,black_cross(without_color),809194,,blue,,,,null,GW/hanover.png,GW/peoria.png,,,,,,,,,,,,,,,,,,,,,,,,,
477.5,,rt_plussign_withcolor,809696,,blue,,,,49,GW/hanover.png,GW/peoria.png,,,,,,,,,,,,,,,,,,,,,,,,,
null,,rt_thecrossant_black,810953,,black_plus_sign,,,,null,,,1,0.9508196721311475,,,,,,,,,,,,,,,,,,,,,,,
null,,color_black,811056,,black_plus_sign,,,,null,,,,,,,,,,,,,,,,,,,,,,,,,,,
null,,learn_phase(without_color),814059,,black_plus_sign,,,,null,GW/boulder.png,GW/leesburg.png,,,,,,,,,,,,,,,,,,,,,,,,,
null,,black_cross(without_color),815029,,yellow,,,,null,GW/boulder.png,GW/leesburg.png,,,,,,,,,,,,,,,,,,,,,,,,,
null,,rt_plussign_withcolor,815531,,yellow,,,,null,GW/boulder.png,GW/leesburg.png,,,,,,,,,,,,,,,,,,,,,,,,,
1118.6000000014901,,rt_thecrossant_black,816569,,black_plus_sign,,,,50,,,1,0.9516129032258065,,,,,,,,,,,,,,,,,,,,,,,
null,,color_black,816672,,black_plus_sign,,,,null,,,,,,,,,,,,,,,,,,,,,,,,,,,
null,,learn_phase(without_color),819676,,black_plus_sign,,,,null,GW/boulder.png,GW/leesburg.png,,,,,,,,,,,,,,,,,,,,,,,,,
null,,black_cross(without_color),820221,,blue,,,,null,GW/boulder.png,GW/leesburg.png,,,,,,,,,,,,,,,,,,,,,,,,,
null,,rt_plussign_withcolor,820723,,blue,,,,null,GW/boulder.png,GW/leesburg.png,,,,,,,,,,,,,,,,,,,,,,,,,
1517,,rt_thecrossant_black,822199,,black_plus_sign,,,,50,,,0,0.9365079365079365,,,,,,,,,,,,,,,,,,,,,,,
null,,color_black,822301,,black_plus_sign,,,,null,,,,,,,,,,,,,,,,,,,,,,,,,,,
null,,learn_phase(without_color),825316,,black_plus_sign,,,,null,GW/hanover.png,GW/peoria.png,,,,,,,,,,,,,,,,,,,,,,,,,
null,,black_cross(without_color),826005,,yellow,,,,null,GW/hanover.png,GW/peoria.png,,,,,,,,,,,,,,,,,,,,,,,,,
491,,rt_plussign_withcolor,826507,,yellow,,,,50,GW/hanover.png,GW/peoria.png,,,,,,,,,,,,,,,,,,,,,,,,,
null,,rt_thecrossant_black,827824,,black_plus_sign,,,,null,,,1,0.9375,,,,,,,,,,,,,,,,,,,,,,,
null,,color_black,827926,,black_plus_sign,,,,null,,,,,,,,,,,,,,,,,,,,,,,,,,,
null,,learn_break,887929,,learn_break,,,,null,,,,,,,,,,,,,,,,,,,,,,,,,,,
null,,html-keyboard-response,888940,,<p></p>,,,,null,,,,,,,,,,,,,,,,,,,,,,,,,,,
null,,learn_phase(without_color),891942,,black_plus_sign,,,,null,GW/westpalmbeach.png,GW/carmel.png,,,,,,,,,,,,,,,,,,,,,,,,,
null,,black_cross(without_color),892791,,yellow,,,,null,GW/westpalmbeach.png,GW/carmel.png,,,,,,,,,,,,,,,,,,,,,,,,,
null,,rt_plussign_withcolor,893292,,yellow,,,,null,GW/westpalmbeach.png,GW/carmel.png,,,,,,,,,,,,,,,,,,,,,,,,,
904.5999999977648,,rt_thecrossant_black,894452,,black_plus_sign,,,,50,,,1,0.9384615384615385,,,,,,,,,,,,,,,,,,,,,,,
null,,color_black,894561,,black_plus_sign,,,,null,,,,,,,,,,,,,,,,,,,,,,,,,,,
null,,learn_phase(without_color),897566,,black_plus_sign,,,,null,GW/hanover.png,GW/boulder.png,,,,,,,,,,,,,,,,,,,,,,,,,
null,,black_cross(without_color),898144,,yellow,,,,null,GW/hanover.png,GW/boulder.png,,,,,,,,,,,,,,,,,,,,,,,,,
null,,rt_plussign_withcolor,898648,,yellow,,,,null,GW/hanover.png,GW/boulder.png,,,,,,,,,,,,,,,,,,,,,,,,,
1090,,rt_thecrossant_black,900075,,black_plus_sign,,,,50,,,1,0.9393939393939394,,,,,,,,,,,,,,,,,,,,,,,
null,,color_black,900178,,black_plus_sign,,,,null,,,,,,,,,,,,,,,,,,,,,,,,,,,
null,,learn_phase(without_color),903181,,black_plus_sign,,,,null,GW/shreveport.png,GW/gatlinburg.png,,,,,,,,,,,,,,,,,,,,,,,,,
null,,black_cross(without_color),904063,,yellow,,,,null,GW/shreveport.png,GW/gatlinburg.png,,,,,,,,,,,,,,,,,,,,,,,,,
null,,rt_plussign_withcolor,904565,,yellow,,,,null,GW/shreveport.png,GW/gatlinburg.png,,,,,,,,,,,,,,,,,,,,,,,,,
812.3000000007451,,rt_thecrossant_black,905689,,black_plus_sign,,,,50,,,1,0.9402985074626866,,,,,,,,,,,,,,,,,,,,,,,
null,,color_black,905793,,black_plus_sign,,,,null,,,,,,,,,,,,,,,,,,,,,,,,,,,
null,,learn_phase(without_color),908796,,black_plus_sign,,,,null,GW/boulder.png,GW/hanover.png,,,,,,,,,,,,,,,,,,,,,,,,,
null,,black_cross(without_color),909665,,yellow,,,,null,GW/boulder.png,GW/hanover.png,,,,,,,,,,,,,,,,,,,,,,,,,
null,,rt_plussign_withcolor,910169,,yellow,,,,null,GW/boulder.png,GW/hanover.png,,,,,,,,,,,,,,,,,,,,,,,,,
1137,,rt_thecrossant_black,911312,,black_plus_sign,,,,50,,,1,0.9411764705882353,,,,,,,,,,,,,,,,,,,,,,,
null,,color_black,911415,,black_plus_sign,,,,null,,,,,,,,,,,,,,,,,,,,,,,,,,,
null,,learn_phase(without_color),914416,,black_plus_sign,,,,null,GW/newhope.png,GW/cornwall.png,,,,,,,,,,,,,,,,,,,,,,,,,
null,,black_cross(without_color),915064,,yellow,,,,null,GW/newhope.png,GW/cornwall.png,,,,,,,,,,,,,,,,,,,,,,,,,
null,,rt_plussign_withcolor,915567,,yellow,,,,null,GW/newhope.png,GW/cornwall.png,,,,,,,,,,,,,,,,,,,,,,,,,
980.1000000014901,,rt_thecrossant_black,916927,,black_plus_sign,,,,50,,,1,0.9420289855072463,,,,,,,,,,,,,,,,,,,,,,,
null,,color_black,917030,,black_plus_sign,,,,null,,,,,,,,,,,,,,,,,,,,,,,,,,,
null,,learn_phase(without_color),920033,,black_plus_sign,,,,null,GW/westpalmbeach.png,GW/carmel.png,,,,,,,,,,,,,,,,,,,,,,,,,
null,,black_cross(without_color),920694,,yellow,,,,null,GW/westpalmbeach.png,GW/carmel.png,,,,,,,,,,,,,,,,,,,,,,,,,
null,,rt_plussign_withcolor,921197,,yellow,,,,null,GW/westpalmbeach.png,GW/carmel.png,,,,,,,,,,,,,,,,,,,,,,,,,
939.6999999992549,,rt_thecrossant_black,922548,,black_plus_sign,,,,50,,,1,0.9428571428571428,,,,,,,,,,,,,,,,,,,,,,,
null,,color_black,922651,,black_plus_sign,,,,null,,,,,,,,,,,,,,,,,,,,,,,,,,,
null,,learn_phase(without_color),925668,,black_plus_sign,,,,null,GW/shreveport.png,GW/gatlinburg.png,,,,,,,,,,,,,,,,,,,,,,,,,
null,,black_cross(without_color),926581,,yellow,,,,null,GW/shreveport.png,GW/gatlinburg.png,,,,,,,,,,,,,,,,,,,,,,,,,
489.5,,rt_plussign_withcolor,927082,,yellow,,,,50,GW/shreveport.png,GW/gatlinburg.png,,,,,,,,,,,,,,,,,,,,,,,,,
null,,rt_thecrossant_black,928174,,black_plus_sign,,,,null,,,1,0.9436619718309859,,,,,,,,,,,,,,,,,,,,,,,
null,,color_black,928276,,black_plus_sign,,,,null,,,,,,,,,,,,,,,,,,,,,,,,,,,
null,,learn_phase(without_color),931281,,black_plus_sign,,,,null,GW/cornwall.png,GW/newhope.png,,,,,,,,,,,,,,,,,,,,,,,,,
null,,black_cross(without_color),932013,,blue,,,,null,GW/cornwall.png,GW/newhope.png,,,,,,,,,,,,,,,,,,,,,,,,,
null,,rt_plussign_withcolor,932514,,blue,,,,null,GW/cornwall.png,GW/newhope.png,,,,,,,,,,,,,,,,,,,,,,,,,
1440.8999999985099,,rt_thecrossant_black,933786,,black_plus_sign,,,,49,,,1,0.9444444444444444,,,,,,,,,,,,,,,,,,,,,,,
null,,color_black,933903,,black_plus_sign,,,,null,,,,,,,,,,,,,,,,,,,,,,,,,,,
null,,learn_phase(without_color),936907,,black_plus_sign,,,,null,GW/carmel.png,GW/westpalmbeach.png,,,,,,,,,,,,,,,,,,,,,,,,,
null,,black_cross(without_color),937493,,blue,,,,null,GW/carmel.png,GW/westpalmbeach.png,,,,,,,,,,,,,,,,,,,,,,,,,
null,,rt_plussign_withcolor,937996,,blue,,,,null,GW/carmel.png,GW/westpalmbeach.png,,,,,,,,,,,,,,,,,,,,,,,,,
1152.5,,rt_thecrossant_black,939415,,black_plus_sign,,,,49,,,1,0.9452054794520548,,,,,,,,,,,,,,,,,,,,,,,
null,,color_black,939518,,black_plus_sign,,,,null,,,,,,,,,,,,,,,,,,,,,,,,,,,
null,,learn_phase(without_color),942522,,black_plus_sign,,,,null,GW/shreveport.png,GW/gatlinburg.png,,,,,,,,,,,,,,,,,,,,,,,,,
null,,black_cross(without_color),943237,,blue,,,,null,GW/shreveport.png,GW/gatlinburg.png,,,,,,,,,,,,,,,,,,,,,,,,,
null,,rt_plussign_withcolor,943739,,blue,,,,null,GW/shreveport.png,GW/gatlinburg.png,,,,,,,,,,,,,,,,,,,,,,,,,
1037.699999999255,,rt_thecrossant_black,945029,,black_plus_sign,,,,49,,,1,0.9459459459459459,,,,,,,,,,,,,,,,,,,,,,,
null,,color_black,945132,,black_plus_sign,,,,null,,,,,,,,,,,,,,,,,,,,,,,,,,,
null,,learn_phase(without_color),948139,,black_plus_sign,,,,null,GW/newhope.png,GW/cornwall.png,,,,,,,,,,,,,,,,,,,,,,,,,
null,,black_cross(without_color),948608,,blue,,,,null,GW/newhope.png,GW/cornwall.png,,,,,,,,,,,,,,,,,,,,,,,,,
null,,rt_plussign_withcolor,949110,,blue,,,,null,GW/newhope.png,GW/cornwall.png,,,,,,,,,,,,,,,,,,,,,,,,,
980.6000000014901,,rt_thecrossant_black,950647,,black_plus_sign,,,,49,,,1,0.9466666666666667,,,,,,,,,,,,,,,,,,,,,,,
null,,color_black,950751,,black_plus_sign,,,,null,,,,,,,,,,,,,,,,,,,,,,,,,,,
null,,learn_phase(without_color),953770,,black_plus_sign,,,,null,GW/hanover.png,GW/boulder.png,,,,,,,,,,,,,,,,,,,,,,,,,
null,,black_cross(without_color),954811,,blue,,,,null,GW/hanover.png,GW/boulder.png,,,,,,,,,,,,,,,,,,,,,,,,,
null,,rt_plussign_withcolor,955313,,blue,,,,null,GW/hanover.png,GW/boulder.png,,,,,,,,,,,,,,,,,,,,,,,,,
822.0999999977648,,rt_thecrossant_black,956277,,black_plus_sign,,,,49,,,1,0.9473684210526315,,,,,,,,,,,,,,,,,,,,,,,
null,,color_black,956381,,black_plus_sign,,,,null,,,,,,,,,,,,,,,,,,,,,,,,,,,
null,,learn_phase(without_color),959384,,black_plus_sign,,,,null,GW/gatlinburg.png,GW/shreveport.png,,,,,,,,,,,,,,,,,,,,,,,,,
null,,black_cross(without_color),960316,,blue,,,,null,GW/gatlinburg.png,GW/shreveport.png,,,,,,,,,,,,,,,,,,,,,,,,,
null,,rt_plussign_withcolor,960818,,blue,,,,null,GW/gatlinburg.png,GW/shreveport.png,,,,,,,,,,,,,,,,,,,,,,,,,
1391,,rt_thecrossant_black,961901,,black_plus_sign,,,,49,,,1,0.948051948051948,,,,,,,,,,,,,,,,,,,,,,,
null,,color_black,962003,,black_plus_sign,,,,null,,,,,,,,,,,,,,,,,,,,,,,,,,,
null,,learn_phase(without_color),965005,,black_plus_sign,,,,null,GW/hanover.png,GW/boulder.png,,,,,,,,,,,,,,,,,,,,,,,,,
null,,black_cross(without_color),965931,,blue,,,,null,GW/hanover.png,GW/boulder.png,,,,,,,,,,,,,,,,,,,,,,,,,
null,,rt_plussign_withcolor,966433,,blue,,,,null,GW/hanover.png,GW/boulder.png,,,,,,,,,,,,,,,,,,,,,,,,,
1236.5,,rt_thecrossant_black,967518,,black_plus_sign,,,,49,,,1,0.9487179487179487,,,,,,,,,,,,,,,,,,,,,,,
null,,color_black,967621,,black_plus_sign,,,,null,,,,,,,,,,,,,,,,,,,,,,,,,,,
null,,learn_phase(without_color),970623,,black_plus_sign,,,,null,GW/gatlinburg.png,GW/shreveport.png,,,,,,,,,,,,,,,,,,,,,,,,,
null,,black_cross(without_color),971352,,blue,,,,null,GW/gatlinburg.png,GW/shreveport.png,,,,,,,,,,,,,,,,,,,,,,,,,
null,,rt_plussign_withcolor,971855,,blue,,,,null,GW/gatlinburg.png,GW/shreveport.png,,,,,,,,,,,,,,,,,,,,,,,,,
1230.199999999255,,rt_thecrossant_black,973131,,black_plus_sign,,,,49,,,1,0.9493670886075949,,,,,,,,,,,,,,,,,,,,,,,
null,,color_black,973234,,black_plus_sign,,,,null,,,,,,,,,,,,,,,,,,,,,,,,,,,
null,,learn_phase(without_color),976236,,black_plus_sign,,,,null,GW/hanover.png,GW/boulder.png,,,,,,,,,,,,,,,,,,,,,,,,,
null,,black_cross(without_color),977172,,blue,,,,null,GW/hanover.png,GW/boulder.png,,,,,,,,,,,,,,,,,,,,,,,,,
null,,rt_plussign_withcolor,977675,,blue,,,,null,GW/hanover.png,GW/boulder.png,,,,,,,,,,,,,,,,,,,,,,,,,
830,,rt_thecrossant_black,978744,,black_plus_sign,,,,49,,,1,0.95,,,,,,,,,,,,,,,,,,,,,,,
null,,color_black,978846,,black_plus_sign,,,,null,,,,,,,,,,,,,,,,,,,,,,,,,,,
null,,learn_phase(without_color),981850,,black_plus_sign,,,,null,GW/cornwall.png,GW/newhope.png,,,,,,,,,,,,,,,,,,,,,,,,,
null,,black_cross(without_color),982407,,yellow,,,,null,GW/cornwall.png,GW/newhope.png,,,,,,,,,,,,,,,,,,,,,,,,,
null,,rt_plussign_withcolor,982908,,yellow,,,,null,GW/cornwall.png,GW/newhope.png,,,,,,,,,,,,,,,,,,,,,,,,,
1185.9000000022352,,rt_thecrossant_black,984356,,black_plus_sign,,,,50,,,1,0.9506172839506173,,,,,,,,,,,,,,,,,,,,,,,
null,,color_black,984458,,black_plus_sign,,,,null,,,,,,,,,,,,,,,,,,,,,,,,,,,
null,,learn_phase(without_color),987475,,black_plus_sign,,,,null,GW/westpalmbeach.png,GW/carmel.png,,,,,,,,,,,,,,,,,,,,,,,,,
null,,black_cross(without_color),988292,,yellow,,,,null,GW/westpalmbeach.png,GW/carmel.png,,,,,,,,,,,,,,,,,,,,,,,,,
null,,rt_plussign_withcolor,988793,,yellow,,,,null,GW/westpalmbeach.png,GW/carmel.png,,,,,,,,,,,,,,,,,,,,,,,,,
857.6000000014901,,rt_thecrossant_black,989981,,black_plus_sign,,,,50,,,1,0.9512195121951219,,,,,,,,,,,,,,,,,,,,,,,
null,,color_black,990084,,black_plus_sign,,,,null,,,,,,,,,,,,,,,,,,,,,,,,,,,
null,,learn_phase(without_color),993087,,black_plus_sign,,,,null,GW/shreveport.png,GW/gatlinburg.png,,,,,,,,,,,,,,,,,,,,,,,,,
null,,black_cross(without_color),993783,,blue,,,,null,GW/shreveport.png,GW/gatlinburg.png,,,,,,,,,,,,,,,,,,,,,,,,,
421.0999999977648,,rt_plussign_withcolor,994285,,blue,,,,49,GW/shreveport.png,GW/gatlinburg.png,,,,,,,,,,,,,,,,,,,,,,,,,
null,,rt_thecrossant_black,995594,,black_plus_sign,,,,null,,,1,0.9518072289156626,,,,,,,,,,,,,,,,,,,,,,,
null,,color_black,995697,,black_plus_sign,,,,null,,,,,,,,,,,,,,,,,,,,,,,,,,,
null,,learn_phase(without_color),998701,,black_plus_sign,,,,null,GW/hanover.png,GW/boulder.png,,,,,,,,,,,,,,,,,,,,,,,,,
null,,black_cross(without_color),999670,,yellow,,,,null,GW/hanover.png,GW/boulder.png,,,,,,,,,,,,,,,,,,,,,,,,,
null,,rt_plussign_withcolor,1000172,,yellow,,,,null,GW/hanover.png,GW/boulder.png,,,,,,,,,,,,,,,,,,,,,,,,,
905.4000000022352,,rt_thecrossant_black,1001207,,black_plus_sign,,,,50,,,1,0.9523809523809523,,,,,,,,,,,,,,,,,,,,,,,
null,,color_black,1001310,,black_plus_sign,,,,null,,,,,,,,,,,,,,,,,,,,,,,,,,,
null,,learn_phase(without_color),1004313,,black_plus_sign,,,,null,GW/cornwall.png,GW/newhope.png,,,,,,,,,,,,,,,,,,,,,,,,,
null,,black_cross(without_color),1005151,,yellow,,,,null,GW/cornwall.png,GW/newhope.png,,,,,,,,,,,,,,,,,,,,,,,,,
null,,rt_plussign_withcolor,1005654,,yellow,,,,null,GW/cornwall.png,GW/newhope.png,,,,,,,,,,,,,,,,,,,,,,,,,
1176.699999999255,,rt_thecrossant_black,1006821,,black_plus_sign,,,,50,,,1,0.9529411764705882,,,,,,,,,,,,,,,,,,,,,,,
null,,color_black,1006924,,black_plus_sign,,,,null,,,,,,,,,,,,,,,,,,,,,,,,,,,
null,,learn_phase(without_color),1009927,,black_plus_sign,,,,null,GW/gatlinburg.png,GW/shreveport.png,,,,,,,,,,,,,,,,,,,,,,,,,
null,,black_cross(without_color),1010683,,blue,,,,null,GW/gatlinburg.png,GW/shreveport.png,,,,,,,,,,,,,,,,,,,,,,,,,
489.69999999925494,,rt_plussign_withcolor,1011185,,blue,,,,49,GW/gatlinburg.png,GW/shreveport.png,,,,,,,,,,,,,,,,,,,,,,,,,
null,,rt_thecrossant_black,1012433,,black_plus_sign,,,,null,,,1,0.9534883720930233,,,,,,,,,,,,,,,,,,,,,,,
null,,color_black,1012535,,black_plus_sign,,,,null,,,,,,,,,,,,,,,,,,,,,,,,,,,
null,,learn_phase(without_color),1015538,,black_plus_sign,,,,null,GW/cornwall.png,GW/newhope.png,,,,,,,,,,,,,,,,,,,,,,,,,
null,,black_cross(without_color),1016005,,blue,,,,null,GW/cornwall.png,GW/newhope.png,,,,,,,,,,,,,,,,,,,,,,,,,
null,,rt_plussign_withcolor,1016507,,blue,,,,null,GW/cornwall.png,GW/newhope.png,,,,,,,,,,,,,,,,,,,,,,,,,
854.8999999985099,,rt_thecrossant_black,1018045,,black_plus_sign,,,,49,,,1,0.9540229885057471,,,,,,,,,,,,,,,,,,,,,,,
null,,color_black,1018148,,black_plus_sign,,,,null,,,,,,,,,,,,,,,,,,,,,,,,,,,
null,,learn_phase(without_color),1021151,,black_plus_sign,,,,null,GW/boulder.png,GW/hanover.png,,,,,,,,,,,,,,,,,,,,,,,,,
null,,black_cross(without_color),1022083,,blue,,,,null,GW/boulder.png,GW/hanover.png,,,,,,,,,,,,,,,,,,,,,,,,,
null,,rt_plussign_withcolor,1022585,,blue,,,,null,GW/boulder.png,GW/hanover.png,,,,,,,,,,,,,,,,,,,,,,,,,
711.7000000029802,,rt_thecrossant_black,1023666,,black_plus_sign,,,,49,,,1,0.9545454545454546,,,,,,,,,,,,,,,,,,,,,,,
null,,color_black,1023768,,black_plus_sign,,,,null,,,,,,,,,,,,,,,,,,,,,,,,,,,
null,,learn_phase(without_color),1026772,,black_plus_sign,,,,null,GW/newhope.png,GW/cornwall.png,,,,,,,,,,,,,,,,,,,,,,,,,
null,,black_cross(without_color),1027245,,yellow,,,,null,GW/newhope.png,GW/cornwall.png,,,,,,,,,,,,,,,,,,,,,,,,,
null,,rt_plussign_withcolor,1027748,,yellow,,,,null,GW/newhope.png,GW/cornwall.png,,,,,,,,,,,,,,,,,,,,,,,,,
1031.0999999977648,,rt_thecrossant_black,1029281,,black_plus_sign,,,,50,,,1,0.9550561797752809,,,,,,,,,,,,,,,,,,,,,,,
null,,color_black,1029383,,black_plus_sign,,,,null,,,,,,,,,,,,,,,,,,,,,,,,,,,
null,,learn_phase(without_color),1032387,,black_plus_sign,,,,null,GW/westpalmbeach.png,GW/carmel.png,,,,,,,,,,,,,,,,,,,,,,,,,
null,,black_cross(without_color),1032825,,yellow,,,,null,GW/westpalmbeach.png,GW/carmel.png,,,,,,,,,,,,,,,,,,,,,,,,,
null,,rt_plussign_withcolor,1033327,,yellow,,,,null,GW/westpalmbeach.png,GW/carmel.png,,,,,,,,,,,,,,,,,,,,,,,,,
616.4000000022352,,rt_thecrossant_black,1034896,,black_plus_sign,,,,50,,,1,0.9555555555555556,,,,,,,,,,,,,,,,,,,,,,,
null,,color_black,1034999,,black_plus_sign,,,,null,,,,,,,,,,,,,,,,,,,,,,,,,,,
null,,learn_phase(without_color),1038002,,black_plus_sign,,,,null,GW/boulder.png,GW/hanover.png,,,,,,,,,,,,,,,,,,,,,,,,,
null,,black_cross(without_color),1039102,,yellow,,,,null,GW/boulder.png,GW/hanover.png,,,,,,,,,,,,,,,,,,,,,,,,,
null,,rt_plussign_withcolor,1039605,,yellow,,,,null,GW/boulder.png,GW/hanover.png,,,,,,,,,,,,,,,,,,,,,,,,,
574,,rt_thecrossant_black,1040507,,black_plus_sign,,,,50,,,1,0.9560439560439561,,,,,,,,,,,,,,,,,,,,,,,
null,,color_black,1040610,,black_plus_sign,,,,null,,,,,,,,,,,,,,,,,,,,,,,,,,,
null,,learn_phase(without_color),1043613,,black_plus_sign,,,,null,GW/carmel.png,GW/westpalmbeach.png,,,,,,,,,,,,,,,,,,,,,,,,,
null,,black_cross(without_color),1044686,,yellow,,,,null,GW/carmel.png,GW/westpalmbeach.png,,,,,,,,,,,,,,,,,,,,,,,,,
null,,rt_plussign_withcolor,1045188,,yellow,,,,null,GW/carmel.png,GW/westpalmbeach.png,,,,,,,,,,,,,,,,,,,,,,,,,
1286.300000000745,,rt_thecrossant_black,1046120,,black_plus_sign,,,,50,,,1,0.9565217391304348,,,,,,,,,,,,,,,,,,,,,,,
null,,color_black,1046221,,black_plus_sign,,,,null,,,,,,,,,,,,,,,,,,,,,,,,,,,
null,,learn_phase(without_color),1049224,,black_plus_sign,,,,null,GW/newhope.png,GW/cornwall.png,,,,,,,,,,,,,,,,,,,,,,,,,
null,,black_cross(without_color),1049867,,blue,,,,null,GW/newhope.png,GW/cornwall.png,,,,,,,,,,,,,,,,,,,,,,,,,
null,,rt_plussign_withcolor,1050369,,blue,,,,null,GW/newhope.png,GW/cornwall.png,,,,,,,,,,,,,,,,,,,,,,,,,
1293,,rt_thecrossant_black,1051731,,black_plus_sign,,,,49,,,1,0.956989247311828,,,,,,,,,,,,,,,,,,,,,,,
null,,color_black,1051834,,black_plus_sign,,,,null,,,,,,,,,,,,,,,,,,,,,,,,,,,
null,,learn_phase(without_color),1054841,,black_plus_sign,,,,null,GW/gatlinburg.png,GW/shreveport.png,,,,,,,,,,,,,,,,,,,,,,,,,
null,,black_cross(without_color),1055298,,yellow,,,,null,GW/gatlinburg.png,GW/shreveport.png,,,,,,,,,,,,,,,,,,,,,,,,,
null,,rt_plussign_withcolor,1055801,,yellow,,,,null,GW/gatlinburg.png,GW/shreveport.png,,,,,,,,,,,,,,,,,,,,,,,,,
775.8000000007451,,rt_thecrossant_black,1057361,,black_plus_sign,,,,50,,,1,0.9574468085106383,,,,,,,,,,,,,,,,,,,,,,,
null,,color_black,1057463,,black_plus_sign,,,,null,,,,,,,,,,,,,,,,,,,,,,,,,,,
null,,learn_phase(without_color),1060466,,black_plus_sign,,,,null,GW/westpalmbeach.png,GW/carmel.png,,,,,,,,,,,,,,,,,,,,,,,,,
null,,black_cross(without_color),1061273,,yellow,,,,null,GW/westpalmbeach.png,GW/carmel.png,,,,,,,,,,,,,,,,,,,,,,,,,
470.80000000074506,,rt_plussign_withcolor,1061775,,yellow,,,,50,GW/westpalmbeach.png,GW/carmel.png,,,,,,,,,,,,,,,,,,,,,,,,,
null,,rt_thecrossant_black,1062972,,black_plus_sign,,,,null,,,1,0.9578947368421052,,,,,,,,,,,,,,,,,,,,,,,
null,,color_black,1063075,,black_plus_sign,,,,null,,,,,,,,,,,,,,,,,,,,,,,,,,,
null,,learn_phase(without_color),1066078,,black_plus_sign,,,,null,GW/westpalmbeach.png,GW/carmel.png,,,,,,,,,,,,,,,,,,,,,,,,,
null,,black_cross(without_color),1067082,,blue,,,,null,GW/westpalmbeach.png,GW/carmel.png,,,,,,,,,,,,,,,,,,,,,,,,,
null,,rt_plussign_withcolor,1067584,,blue,,,,null,GW/westpalmbeach.png,GW/carmel.png,,,,,,,,,,,,,,,,,,,,,,,,,
1174.199999999255,,rt_thecrossant_black,1068586,,black_plus_sign,,,,50,,,0,0.9479166666666666,,,,,,,,,,,,,,,,,,,,,,,
null,,color_black,1068689,,black_plus_sign,,,,null,,,,,,,,,,,,,,,,,,,,,,,,,,,
null,,learn_phase(without_color),1071692,,black_plus_sign,,,,null,GW/huntsville.png,GW/peoria.png,,,,,,,,,,,,,,,,,,,,,,,,,
null,,black_cross(without_color),1072489,,blue,,,,null,GW/huntsville.png,GW/peoria.png,,,,,,,,,,,,,,,,,,,,,,,,,
null,,rt_plussign_withcolor,1072994,,blue,,,,null,GW/huntsville.png,GW/peoria.png,,,,,,,,,,,,,,,,,,,,,,,,,
1326.300000000745,,rt_thecrossant_black,1074202,,black_plus_sign,,,,49,,,1,0.9484536082474226,,,,,,,,,,,,,,,,,,,,,,,
null,,color_black,1074305,,black_plus_sign,,,,null,,,,,,,,,,,,,,,,,,,,,,,,,,,
null,,learn_phase(without_color),1077309,,black_plus_sign,,,,null,GW/racine.png,GW/hotsprings.png,,,,,,,,,,,,,,,,,,,,,,,,,
null,,black_cross(without_color),1078079,,yellow,,,,null,GW/racine.png,GW/hotsprings.png,,,,,,,,,,,,,,,,,,,,,,,,,
null,,rt_plussign_withcolor,1078582,,yellow,,,,null,GW/racine.png,GW/hotsprings.png,,,,,,,,,,,,,,,,,,,,,,,,,
1072.800000000745,,rt_thecrossant_black,1079815,,black_plus_sign,,,,50,,,1,0.9489795918367347,,,,,,,,,,,,,,,,,,,,,,,
null,,color_black,1079918,,black_plus_sign,,,,null,,,,,,,,,,,,,,,,,,,,,,,,,,,
null,,learn_phase(without_color),1082921,,black_plus_sign,,,,null,GW/westpalmbeach.png,GW/hanover.png,,,,,,,,,,,,,,,,,,,,,,,,,
null,,black_cross(without_color),1083609,,yellow,,,,null,GW/westpalmbeach.png,GW/hanover.png,,,,,,,,,,,,,,,,,,,,,,,,,
null,,rt_plussign_withcolor,1084111,,yellow,,,,null,GW/westpalmbeach.png,GW/hanover.png,,,,,,,,,,,,,,,,,,,,,,,,,
1393.0999999977648,,rt_thecrossant_black,1085427,,black_plus_sign,,,,50,,,1,0.9494949494949495,,,,,,,,,,,,,,,,,,,,,,,
null,,color_black,1085538,,black_plus_sign,,,,null,,,,,,,,,,,,,,,,,,,,,,,,,,,
null,,learn_phase(without_color),1088541,,black_plus_sign,,,,null,GW/huntsville.png,GW/peoria.png,,,,,,,,,,,,,,,,,,,,,,,,,
null,,black_cross(without_color),1089095,,blue,,,,null,GW/huntsville.png,GW/peoria.png,,,,,,,,,,,,,,,,,,,,,,,,,
null,,rt_plussign_withcolor,1089597,,blue,,,,null,GW/huntsville.png,GW/peoria.png,,,,,,,,,,,,,,,,,,,,,,,,,
1040.6000000014901,,rt_thecrossant_black,1091058,,black_plus_sign,,,,49,,,1,0.95,,,,,,,,,,,,,,,,,,,,,,,
null,,color_black,1091161,,black_plus_sign,,,,null,,,,,,,,,,,,,,,,,,,,,,,,,,,
null,,learn_phase(without_color),1094164,,black_plus_sign,,,,null,GW/westpalmbeach.png,GW/hanover.png,,,,,,,,,,,,,,,,,,,,,,,,,
null,,black_cross(without_color),1094683,,blue,,,,null,GW/westpalmbeach.png,GW/hanover.png,,,,,,,,,,,,,,,,,,,,,,,,,
null,,rt_plussign_withcolor,1095186,,blue,,,,null,GW/westpalmbeach.png,GW/hanover.png,,,,,,,,,,,,,,,,,,,,,,,,,
700.7999999970198,,rt_thecrossant_black,1096684,,black_plus_sign,,,,49,,,1,0.9504950495049505,,,,,,,,,,,,,,,,,,,,,,,
null,,color_black,1096793,,black_plus_sign,,,,null,,,,,,,,,,,,,,,,,,,,,,,,,,,
null,,learn_phase(without_color),1099796,,black_plus_sign,,,,null,GW/leesburg.png,GW/cornwall.png,,,,,,,,,,,,,,,,,,,,,,,,,
null,,black_cross(without_color),1100759,,yellow,,,,null,GW/leesburg.png,GW/cornwall.png,,,,,,,,,,,,,,,,,,,,,,,,,
null,,rt_plussign_withcolor,1101261,,yellow,,,,null,GW/leesburg.png,GW/cornwall.png,,,,,,,,,,,,,,,,,,,,,,,,,
782.6000000014901,,rt_thecrossant_black,1102321,,black_plus_sign,,,,50,,,1,0.9509803921568627,,,,,,,,,,,,,,,,,,,,,,,
null,,color_black,1102424,,black_plus_sign,,,,null,,,,,,,,,,,,,,,,,,,,,,,,,,,
null,,learn_phase(without_color),1105427,,black_plus_sign,,,,null,GW/hotsprings.png,GW/racine.png,,,,,,,,,,,,,,,,,,,,,,,,,
null,,black_cross(without_color),1106182,,yellow,,,,null,GW/hotsprings.png,GW/racine.png,,,,,,,,,,,,,,,,,,,,,,,,,
null,,rt_plussign_withcolor,1106685,,yellow,,,,null,GW/hotsprings.png,GW/racine.png,,,,,,,,,,,,,,,,,,,,,,,,,
1233.800000000745,,rt_thecrossant_black,1107933,,black_plus_sign,,,,50,,,1,0.9514563106796117,,,,,,,,,,,,,,,,,,,,,,,
null,,color_black,1108036,,black_plus_sign,,,,null,,,,,,,,,,,,,,,,,,,,,,,,,,,
null,,learn_phase(without_color),1111039,,black_plus_sign,,,,null,GW/huntsville.png,GW/peoria.png,,,,,,,,,,,,,,,,,,,,,,,,,
null,,black_cross(without_color),1111979,,blue,,,,null,GW/huntsville.png,GW/peoria.png,,,,,,,,,,,,,,,,,,,,,,,,,
null,,rt_plussign_withcolor,1112482,,blue,,,,null,GW/huntsville.png,GW/peoria.png,,,,,,,,,,,,,,,,,,,,,,,,,
1095.1000000014901,,rt_thecrossant_black,1113547,,black_plus_sign,,,,49,,,1,0.9519230769230769,,,,,,,,,,,,,,,,,,,,,,,
null,,color_black,1113650,,black_plus_sign,,,,null,,,,,,,,,,,,,,,,,,,,,,,,,,,
null,,learn_phase(without_color),1116653,,black_plus_sign,,,,null,GW/leesburg.png,GW/cornwall.png,,,,,,,,,,,,,,,,,,,,,,,,,
null,,black_cross(without_color),1117269,,yellow,,,,null,GW/leesburg.png,GW/cornwall.png,,,,,,,,,,,,,,,,,,,,,,,,,
null,,rt_plussign_withcolor,1117772,,yellow,,,,null,GW/leesburg.png,GW/cornwall.png,,,,,,,,,,,,,,,,,,,,,,,,,
1235.6000000014901,,rt_thecrossant_black,1119162,,black_plus_sign,,,,50,,,1,0.9523809523809523,,,,,,,,,,,,,,,,,,,,,,,
null,,color_black,1119267,,black_plus_sign,,,,null,,,,,,,,,,,,,,,,,,,,,,,,,,,
null,,learn_phase(without_color),1122270,,black_plus_sign,,,,null,GW/racine.png,GW/hotsprings.png,,,,,,,,,,,,,,,,,,,,,,,,,
null,,black_cross(without_color),1122997,,yellow,,,,null,GW/racine.png,GW/hotsprings.png,,,,,,,,,,,,,,,,,,,,,,,,,
478.8999999985099,,rt_plussign_withcolor,1123499,,yellow,,,,50,GW/racine.png,GW/hotsprings.png,,,,,,,,,,,,,,,,,,,,,,,,,
null,,rt_thecrossant_black,1124779,,black_plus_sign,,,,null,,,1,0.9528301886792453,,,,,,,,,,,,,,,,,,,,,,,
null,,color_black,1124882,,black_plus_sign,,,,null,,,,,,,,,,,,,,,,,,,,,,,,,,,
null,,learn_phase(without_color),1127885,,black_plus_sign,,,,null,GW/leesburg.png,GW/cornwall.png,,,,,,,,,,,,,,,,,,,,,,,,,
null,,black_cross(without_color),1128924,,blue,,,,null,GW/leesburg.png,GW/cornwall.png,,,,,,,,,,,,,,,,,,,,,,,,,
null,,rt_plussign_withcolor,1129426,,blue,,,,null,GW/leesburg.png,GW/cornwall.png,,,,,,,,,,,,,,,,,,,,,,,,,
940.6999999992549,,rt_thecrossant_black,1130394,,black_plus_sign,,,,49,,,1,0.9532710280373832,,,,,,,,,,,,,,,,,,,,,,,
null,,color_black,1130497,,black_plus_sign,,,,null,,,,,,,,,,,,,,,,,,,,,,,,,,,
null,,learn_phase(without_color),1133504,,black_plus_sign,,,,null,GW/hotsprings.png,GW/racine.png,,,,,,,,,,,,,,,,,,,,,,,,,
null,,black_cross(without_color),1134582,,yellow,,,,null,GW/hotsprings.png,GW/racine.png,,,,,,,,,,,,,,,,,,,,,,,,,
422.1000000014901,,rt_plussign_withcolor,1135084,,yellow,,,,50,GW/hotsprings.png,GW/racine.png,,,,,,,,,,,,,,,,,,,,,,,,,
null,,rt_thecrossant_black,1136012,,black_plus_sign,,,,null,,,1,0.9537037037037037,,,,,,,,,,,,,,,,,,,,,,,
null,,color_black,1136115,,black_plus_sign,,,,null,,,,,,,,,,,,,,,,,,,,,,,,,,,
null,,learn_phase(without_color),1139118,,black_plus_sign,,,,null,GW/peoria.png,GW/huntsville.png,,,,,,,,,,,,,,,,,,,,,,,,,
null,,black_cross(without_color),1139726,,blue,,,,null,GW/peoria.png,GW/huntsville.png,,,,,,,,,,,,,,,,,,,,,,,,,
null,,rt_plussign_withcolor,1140229,,blue,,,,null,GW/peoria.png,GW/huntsville.png,,,,,,,,,,,,,,,,,,,,,,,,,
1318.2999999970198,,rt_thecrossant_black,1141626,,black_plus_sign,,,,49,,,1,0.9541284403669725,,,,,,,,,,,,,,,,,,,,,,,
null,,color_black,1141729,,black_plus_sign,,,,null,,,,,,,,,,,,,,,,,,,,,,,,,,,
null,,learn_phase(without_color),1144732,,black_plus_sign,,,,null,GW/westpalmbeach.png,GW/hanover.png,,,,,,,,,,,,,,,,,,,,,,,,,
null,,black_cross(without_color),1145140,,blue,,,,null,GW/westpalmbeach.png,GW/hanover.png,,,,,,,,,,,,,,,,,,,,,,,,,
null,,rt_plussign_withcolor,1145641,,blue,,,,null,GW/westpalmbeach.png,GW/hanover.png,,,,,,,,,,,,,,,,,,,,,,,,,
1049.800000000745,,rt_thecrossant_black,1147237,,black_plus_sign,,,,49,,,1,0.9545454545454546,,,,,,,,,,,,,,,,,,,,,,,
null,,color_black,1147341,,black_plus_sign,,,,null,,,,,,,,,,,,,,,,,,,,,,,,,,,
null,,learn_phase(without_color),1150352,,black_plus_sign,,,,null,GW/racine.png,GW/hotsprings.png,,,,,,,,,,,,,,,,,,,,,,,,,
null,,black_cross(without_color),1150920,,yellow,,,,null,GW/racine.png,GW/hotsprings.png,,,,,,,,,,,,,,,,,,,,,,,,,
null,,rt_plussign_withcolor,1151423,,yellow,,,,null,GW/racine.png,GW/hotsprings.png,,,,,,,,,,,,,,,,,,,,,,,,,
845.3999999985099,,rt_thecrossant_black,1152860,,black_plus_sign,,,,50,,,1,0.954954954954955,,,,,,,,,,,,,,,,,,,,,,,
null,,color_black,1152972,,black_plus_sign,,,,null,,,,,,,,,,,,,,,,,,,,,,,,,,,
null,,learn_phase(without_color),1155981,,black_plus_sign,,,,null,GW/westpalmbeach.png,GW/hanover.png,,,,,,,,,,,,,,,,,,,,,,,,,
null,,black_cross(without_color),1156921,,yellow,,,,null,GW/westpalmbeach.png,GW/hanover.png,,,,,,,,,,,,,,,,,,,,,,,,,
null,,rt_plussign_withcolor,1157423,,yellow,,,,null,GW/westpalmbeach.png,GW/hanover.png,,,,,,,,,,,,,,,,,,,,,,,,,
703.8999999985099,,rt_thecrossant_black,1158488,,black_plus_sign,,,,50,,,1,0.9553571428571429,,,,,,,,,,,,,,,,,,,,,,,
null,,color_black,1158591,,black_plus_sign,,,,null,,,,,,,,,,,,,,,,,,,,,,,,,,,
null,,learn_phase(without_color),1161595,,black_plus_sign,,,,null,GW/huntsville.png,GW/peoria.png,,,,,,,,,,,,,,,,,,,,,,,,,
null,,black_cross(without_color),1162069,,yellow,,,,null,GW/huntsville.png,GW/peoria.png,,,,,,,,,,,,,,,,,,,,,,,,,
null,,rt_plussign_withcolor,1162585,,yellow,,,,null,GW/huntsville.png,GW/peoria.png,,,,,,,,,,,,,,,,,,,,,,,,,
1149.199999999255,,rt_thecrossant_black,1164117,,black_plus_sign,,,,50,,,1,0.9557522123893806,,,,,,,,,,,,,,,,,,,,,,,
null,,color_black,1164219,,black_plus_sign,,,,null,,,,,,,,,,,,,,,,,,,,,,,,,,,
null,,learn_phase(without_color),1167222,,black_plus_sign,,,,null,GW/racine.png,GW/hotsprings.png,,,,,,,,,,,,,,,,,,,,,,,,,
null,,black_cross(without_color),1167659,,yellow,,,,null,GW/racine.png,GW/hotsprings.png,,,,,,,,,,,,,,,,,,,,,,,,,
null,,rt_plussign_withcolor,1168162,,yellow,,,,null,GW/racine.png,GW/hotsprings.png,,,,,,,,,,,,,,,,,,,,,,,,,
645.1000000014901,,rt_thecrossant_black,1169728,,black_plus_sign,,,,50,,,1,0.956140350877193,,,,,,,,,,,,,,,,,,,,,,,
null,,color_black,1169831,,black_plus_sign,,,,null,,,,,,,,,,,,,,,,,,,,,,,,,,,
null,,learn_phase(without_color),1172837,,black_plus_sign,,,,null,GW/peoria.png,GW/huntsville.png,,,,,,,,,,,,,,,,,,,,,,,,,
null,,black_cross(without_color),1173874,,yellow,,,,null,GW/peoria.png,GW/huntsville.png,,,,,,,,,,,,,,,,,,,,,,,,,
null,,rt_plussign_withcolor,1174376,,yellow,,,,null,GW/peoria.png,GW/huntsville.png,,,,,,,,,,,,,,,,,,,,,,,,,
536.1999999992549,,rt_thecrossant_black,1175344,,black_plus_sign,,,,50,,,1,0.9565217391304348,,,,,,,,,,,,,,,,,,,,,,,
null,,color_black,1175447,,black_plus_sign,,,,null,,,,,,,,,,,,,,,,,,,,,,,,,,,
null,,learn_phase(without_color),1178448,,black_plus_sign,,,,null,GW/hotsprings.png,GW/racine.png,,,,,,,,,,,,,,,,,,,,,,,,,
null,,black_cross(without_color),1179189,,blue,,,,null,GW/hotsprings.png,GW/racine.png,,,,,,,,,,,,,,,,,,,,,,,,,
null,,rt_plussign_withcolor,1179695,,blue,,,,null,GW/hotsprings.png,GW/racine.png,,,,,,,,,,,,,,,,,,,,,,,,,
1198.300000000745,,rt_thecrossant_black,1180959,,black_plus_sign,,,,49,,,1,0.9568965517241379,,,,,,,,,,,,,,,,,,,,,,,
null,,color_black,1181063,,black_plus_sign,,,,null,,,,,,,,,,,,,,,,,,,,,,,,,,,
null,,learn_phase(without_color),1184066,,black_plus_sign,,,,null,GW/peoria.png,GW/huntsville.png,,,,,,,,,,,,,,,,,,,,,,,,,
null,,black_cross(without_color),1184895,,blue,,,,null,GW/peoria.png,GW/huntsville.png,,,,,,,,,,,,,,,,,,,,,,,,,
null,,rt_plussign_withcolor,1185398,,blue,,,,null,GW/peoria.png,GW/huntsville.png,,,,,,,,,,,,,,,,,,,,,,,,,
951.8000000007451,,rt_thecrossant_black,1186575,,black_plus_sign,,,,49,,,1,0.9572649572649573,,,,,,,,,,,,,,,,,,,,,,,
null,,color_black,1186678,,black_plus_sign,,,,null,,,,,,,,,,,,,,,,,,,,,,,,,,,
null,,learn_phase(without_color),1189683,,black_plus_sign,,,,null,GW/leesburg.png,GW/cornwall.png,,,,,,,,,,,,,,,,,,,,,,,,,
null,,black_cross(without_color),1190255,,blue,,,,null,GW/leesburg.png,GW/cornwall.png,,,,,,,,,,,,,,,,,,,,,,,,,
null,,rt_plussign_withcolor,1190758,,blue,,,,null,GW/leesburg.png,GW/cornwall.png,,,,,,,,,,,,,,,,,,,,,,,,,
1066.1000000014901,,rt_thecrossant_black,1192191,,black_plus_sign,,,,49,,,1,0.9576271186440678,,,,,,,,,,,,,,,,,,,,,,,
null,,color_black,1192294,,black_plus_sign,,,,null,,,,,,,,,,,,,,,,,,,,,,,,,,,
null,,learn_phase(without_color),1195298,,black_plus_sign,,,,null,GW/hanover.png,GW/westpalmbeach.png,,,,,,,,,,,,,,,,,,,,,,,,,
null,,black_cross(without_color),1196005,,blue,,,,null,GW/hanover.png,GW/westpalmbeach.png,,,,,,,,,,,,,,,,,,,,,,,,,
null,,rt_plussign_withcolor,1196507,,blue,,,,null,GW/hanover.png,GW/westpalmbeach.png,,,,,,,,,,,,,,,,,,,,,,,,,
1005.6999999992549,,rt_thecrossant_black,1197806,,black_plus_sign,,,,49,,,1,0.957983193277311,,,,,,,,,,,,,,,,,,,,,,,
null,,color_black,1197908,,black_plus_sign,,,,null,,,,,,,,,,,,,,,,,,,,,,,,,,,
null,,learn_phase(without_color),1200921,,black_plus_sign,,,,null,GW/huntsville.png,GW/peoria.png,,,,,,,,,,,,,,,,,,,,,,,,,
null,,black_cross(without_color),1201718,,yellow,,,,null,GW/huntsville.png,GW/peoria.png,,,,,,,,,,,,,,,,,,,,,,,,,
null,,rt_plussign_withcolor,1202220,,yellow,,,,null,GW/huntsville.png,GW/peoria.png,,,,,,,,,,,,,,,,,,,,,,,,,
935.1999999992549,,rt_thecrossant_black,1203430,,black_plus_sign,,,,50,,,1,0.9583333333333334,,,,,,,,,,,,,,,,,,,,,,,
null,,color_black,1203532,,black_plus_sign,,,,null,,,,,,,,,,,,,,,,,,,,,,,,,,,
null,,learn_phase(without_color),1206543,,black_plus_sign,,,,null,GW/westpalmbeach.png,GW/hanover.png,,,,,,,,,,,,,,,,,,,,,,,,,
null,,black_cross(without_color),1207504,,blue,,,,null,GW/westpalmbeach.png,GW/hanover.png,,,,,,,,,,,,,,,,,,,,,,,,,
null,,rt_plussign_withcolor,1208006,,blue,,,,null,GW/westpalmbeach.png,GW/hanover.png,,,,,,,,,,,,,,,,,,,,,,,,,
1121.1000000014901,,rt_thecrossant_black,1209064,,black_plus_sign,,,,49,,,1,0.9586776859504132,,,,,,,,,,,,,,,,,,,,,,,
null,,color_black,1209172,,black_plus_sign,,,,null,,,,,,,,,,,,,,,,,,,,,,,,,,,
null,,learn_phase(without_color),1212175,,black_plus_sign,,,,null,GW/leesburg.png,GW/cornwall.png,,,,,,,,,,,,,,,,,,,,,,,,,
null,,black_cross(without_color),1212727,,blue,,,,null,GW/leesburg.png,GW/cornwall.png,,,,,,,,,,,,,,,,,,,,,,,,,
null,,rt_plussign_withcolor,1213229,,blue,,,,null,GW/leesburg.png,GW/cornwall.png,,,,,,,,,,,,,,,,,,,,,,,,,
1207.199999999255,,rt_thecrossant_black,1214683,,black_plus_sign,,,,49,,,1,0.9590163934426229,,,,,,,,,,,,,,,,,,,,,,,
null,,color_black,1214790,,black_plus_sign,,,,null,,,,,,,,,,,,,,,,,,,,,,,,,,,
null,,learn_phase(without_color),1217793,,black_plus_sign,,,,null,GW/racine.png,GW/hotsprings.png,,,,,,,,,,,,,,,,,,,,,,,,,
null,,black_cross(without_color),1218556,,yellow,,,,null,GW/racine.png,GW/hotsprings.png,,,,,,,,,,,,,,,,,,,,,,,,,
null,,rt_plussign_withcolor,1219059,,yellow,,,,null,GW/racine.png,GW/hotsprings.png,,,,,,,,,,,,,,,,,,,,,,,,,
740.1000000014901,,rt_thecrossant_black,1220303,,black_plus_sign,,,,50,,,1,0.959349593495935,,,,,,,,,,,,,,,,,,,,,,,
null,,color_black,1220406,,black_plus_sign,,,,null,,,,,,,,,,,,,,,,,,,,,,,,,,,
null,,learn_phase(without_color),1223407,,black_plus_sign,,,,null,GW/hanover.png,GW/westpalmbeach.png,,,,,,,,,,,,,,,,,,,,,,,,,
null,,black_cross(without_color),1223878,,blue,,,,null,GW/hanover.png,GW/westpalmbeach.png,,,,,,,,,,,,,,,,,,,,,,,,,
null,,rt_plussign_withcolor,1224381,,blue,,,,null,GW/hanover.png,GW/westpalmbeach.png,,,,,,,,,,,,,,,,,,,,,,,,,
1156.5,,rt_thecrossant_black,1225915,,black_plus_sign,,,,49,,,1,0.9596774193548387,,,,,,,,,,,,,,,,,,,,,,,
null,,color_black,1226022,,black_plus_sign,,,,null,,,,,,,,,,,,,,,,,,,,,,,,,,,
null,,learn_phase(without_color),1229031,,black_plus_sign,,,,null,GW/leesburg.png,GW/cornwall.png,,,,,,,,,,,,,,,,,,,,,,,,,
null,,black_cross(without_color),1229967,,yellow,,,,null,GW/leesburg.png,GW/cornwall.png,,,,,,,,,,,,,,,,,,,,,,,,,
494.5,,rt_plussign_withcolor,1230471,,yellow,,,,50,GW/leesburg.png,GW/cornwall.png,,,,,,,,,,,,,,,,,,,,,,,,,
null,,rt_thecrossant_black,1231555,,black_plus_sign,,,,null,,,1,0.96,,,,,,,,,,,,,,,,,,,,,,,
null,,color_black,1231659,,black_plus_sign,,,,null,,,,,,,,,,,,,,,,,,,,,,,,,,,
null,,learn_phase(without_color),1234663,,black_plus_sign,,,,null,GW/cornwall.png,GW/leesburg.png,,,,,,,,,,,,,,,,,,,,,,,,,
null,,black_cross(without_color),1235609,,yellow,,,,null,GW/cornwall.png,GW/leesburg.png,,,,,,,,,,,,,,,,,,,,,,,,,
null,,rt_plussign_withcolor,1236112,,yellow,,,,null,GW/cornwall.png,GW/leesburg.png,,,,,,,,,,,,,,,,,,,,,,,,,
1062.5999999977648,,rt_thecrossant_black,1237172,,black_plus_sign,,,,50,,,1,0.9603174603174603,,,,,,,,,,,,,,,,,,,,,,,
null,,color_black,1237275,,black_plus_sign,,,,null,,,,,,,,,,,,,,,,,,,,,,,,,,,
null,,learn_phase(without_color),1240280,,black_plus_sign,,,,null,GW/hanover.png,GW/westpalmbeach.png,,,,,,,,,,,,,,,,,,,,,,,,,
null,,black_cross(without_color),1241362,,blue,,,,null,GW/hanover.png,GW/westpalmbeach.png,,,,,,,,,,,,,,,,,,,,,,,,,
null,,rt_plussign_withcolor,1241865,,blue,,,,null,GW/hanover.png,GW/westpalmbeach.png,,,,,,,,,,,,,,,,,,,,,,,,,
1221.6000000014901,,rt_thecrossant_black,1242788,,black_plus_sign,,,,49,,,1,0.9606299212598425,,,,,,,,,,,,,,,,,,,,,,,
null,,color_black,1242896,,black_plus_sign,,,,null,,,,,,,,,,,,,,,,,,,,,,,,,,,
null,,learn_phase(without_color),1245901,,black_plus_sign,,,,null,GW/cornwall.png,GW/leesburg.png,,,,,,,,,,,,,,,,,,,,,,,,,
null,,black_cross(without_color),1246658,,yellow,,,,null,GW/cornwall.png,GW/leesburg.png,,,,,,,,,,,,,,,,,,,,,,,,,
null,,rt_plussign_withcolor,1247161,,yellow,,,,null,GW/cornwall.png,GW/leesburg.png,,,,,,,,,,,,,,,,,,,,,,,,,
1245.199999999255,,rt_thecrossant_black,1248410,,black_plus_sign,,,,50,,,1,0.9609375,,,,,,,,,,,,,,,,,,,,,,,
null,,color_black,1248513,,black_plus_sign,,,,null,,,,,,,,,,,,,,,,,,,,,,,,,,,
null,,learn_break,1308517,,learn_break,,,,null,,,,,,,,,,,,,,,,,,,,,,,,,,,
36143.5,,intro_1,1344663,,instruct,,0,Start,,,,,,,,,,,,,,,,,,,,,,,,,,,,
null,,directmemory_phase,1351166,,GW/racine.png,,,,null,,,0,0,GW/carmel.png,GW/shreveport.png,GW/cornwall.png,GW/cornwall.png,GW/shreveport.png,GW/carmel.png,0,,,,,,,,,,,,,,,,
null,,warning_page,1354170,,warning,,,,null,,,,,,,,,,,,,,,,,,,,,,,,,,,
null,,html-keyboard-response,1355172,,<p></p>,,,,null,,,,,,,,,,,,,,,,,,,,,,,,,,,
2324.900000002235,,directmemory_phase,1357499,,GW/shreveport.png,,,,51,,,0,0,GW/hanover.png,GW/newhope.png,GW/peoria.png,GW/hanover.png,GW/peoria.png,GW/newhope.png,0.5,closer,,,,,,,,,,,,,,,
null,,html-keyboard-response,1358504,,<p></p>,,,,null,,,,,,,,,,,,,,,,,,,,,,,,,,,
3343.300000000745,,directmemory_phase,1361850,,GW/cornwall.png,,,,50,,,1,0.3333333333333333,GW/gatlinburg.png,GW/leesburg.png,GW/westpalmbeach.png,GW/leesburg.png,GW/gatlinburg.png,GW/westpalmbeach.png,1,,,,,,,,,,,,,,,,
null,,html-keyboard-response,1362853,,<p></p>,,,,null,,,,,,,,,,,,,,,,,,,,,,,,,,,
2059.300000000745,,directmemory_phase,1364915,,GW/racine.png,,,,51,,,1,0.5,GW/peoria.png,GW/shreveport.png,GW/gatlinburg.png,GW/gatlinburg.png,GW/shreveport.png,GW/peoria.png,1,,,,,,,,,,,,,,,,
null,,html-keyboard-response,1365920,,<p></p>,,,,null,,,,,,,,,,,,,,,,,,,,,,,,,,,
1698.800000000745,,directmemory_phase,1367620,,GW/westpalmbeach.png,,,,51,,,1,0.6,GW/racine.png,GW/huntsville.png,GW/peoria.png,GW/peoria.png,GW/huntsville.png,GW/racine.png,1,,,,,,,,,,,,,,,,
null,,html-keyboard-response,1368622,,<p></p>,,,,null,,,,,,,,,,,,,,,,,,,,,,,,,,,
2188.400000002235,,directmemory_phase,1370812,,GW/leesburg.png,,,,49,,,1,0.6666666666666666,GW/boulder.png,GW/hotsprings.png,GW/hanover.png,GW/boulder.png,GW/hanover.png,GW/hotsprings.png,1,,,,,,,,,,,,,,,,
null,,html-keyboard-response,1371814,,<p></p>,,,,null,,,,,,,,,,,,,,,,,,,,,,,,,,,
2677.2000000029802,,directmemory_phase,1374492,,GW/cornwall.png,,,,49,,,0,0.5714285714285714,GW/shreveport.png,GW/gatlinburg.png,GW/newhope.png,GW/newhope.png,GW/gatlinburg.png,GW/shreveport.png,0.5,closer,,,,,,,,,,,,,,,
null,,html-keyboard-response,1375495,,<p></p>,,,,null,,,,,,,,,,,,,,,,,,,,,,,,,,,
3046.60000000149,,directmemory_phase,1378544,,GW/racine.png,,,,49,,,1,0.625,GW/hotsprings.png,GW/carmel.png,GW/newhope.png,GW/hotsprings.png,GW/newhope.png,GW/carmel.png,1,,,,,,,,,,,,,,,,
null,,html-keyboard-response,1379547,,<p></p>,,,,null,,,,,,,,,,,,,,,,,,,,,,,,,,,
2104,,directmemory_phase,1381652,,GW/hanover.png,,,,51,,,1,0.6666666666666666,GW/hotsprings.png,GW/carmel.png,GW/shreveport.png,GW/shreveport.png,GW/carmel.png,GW/hotsprings.png,1,,,,,,,,,,,,,,,,
null,,html-keyboard-response,1382655,,<p></p>,,,,null,,,,,,,,,,,,,,,,,,,,,,,,,,,
1128.699999999255,,directmemory_phase,1383786,,GW/hotsprings.png,,,,51,,,1,0.7,GW/hanover.png,GW/cornwall.png,GW/racine.png,GW/racine.png,GW/cornwall.png,GW/hanover.png,1,,,,,,,,,,,,,,,,
null,,html-keyboard-response,1384789,,<p></p>,,,,null,,,,,,,,,,,,,,,,,,,,,,,,,,,
2015.199999999255,,directmemory_phase,1386805,,GW/leesburg.png,,,,49,,,1,0.7272727272727273,GW/cornwall.png,GW/huntsville.png,GW/newhope.png,GW/cornwall.png,GW/newhope.png,GW/huntsville.png,1,,,,,,,,,,,,,,,,
null,,html-keyboard-response,1387807,,<p></p>,,,,null,,,,,,,,,,,,,,,,,,,,,,,,,,,
1451.699999999255,,directmemory_phase,1389260,,GW/boulder.png,,,,51,,,1,0.75,GW/carmel.png,GW/racine.png,GW/hanover.png,GW/hanover.png,GW/racine.png,GW/carmel.png,1,,,,,,,,,,,,,,,,
null,,html-keyboard-response,1390262,,<p></p>,,,,null,,,,,,,,,,,,,,,,,,,,,,,,,,,
1557.1000000014901,,directmemory_phase,1391821,,GW/cornwall.png,,,,51,,,1,0.7692307692307693,GW/hanover.png,GW/hotsprings.png,GW/racine.png,GW/racine.png,GW/hotsprings.png,GW/hanover.png,1,,,,,,,,,,,,,,,,
null,,html-keyboard-response,1392824,,<p></p>,,,,null,,,,,,,,,,,,,,,,,,,,,,,,,,,
1218.5,,directmemory_phase,1394044,,GW/huntsville.png,,,,51,,,1,0.7857142857142857,GW/boulder.png,GW/hanover.png,GW/peoria.png,GW/peoria.png,GW/hanover.png,GW/boulder.png,1,,,,,,,,,,,,,,,,
null,,html-keyboard-response,1395053,,<p></p>,,,,null,,,,,,,,,,,,,,,,,,,,,,,,,,,
1694.8999999985099,,directmemory_phase,1396754,,GW/shreveport.png,,,,51,,,1,0.8,GW/huntsville.png,GW/peoria.png,GW/gatlinburg.png,GW/gatlinburg.png,GW/peoria.png,GW/huntsville.png,1,,,,,,,,,,,,,,,,
null,,html-keyboard-response,1397762,,<p></p>,,,,null,,,,,,,,,,,,,,,,,,,,,,,,,,,
1338.3999999985099,,directmemory_phase,1399102,,GW/westpalmbeach.png,,,,51,,,1,0.8125,GW/leesburg.png,GW/gatlinburg.png,GW/carmel.png,GW/carmel.png,GW/gatlinburg.png,GW/leesburg.png,1,,,,,,,,,,,,,,,,
null,,html-keyboard-response,1400106,,<p></p>,,,,null,,,,,,,,,,,,,,,,,,,,,,,,,,,
2527.60000000149,,directmemory_phase,1402636,,GW/gatlinburg.png,,,,49,,,1,0.8235294117647058,GW/boulder.png,GW/newhope.png,GW/westpalmbeach.png,GW/boulder.png,GW/westpalmbeach.png,GW/newhope.png,1,,,,,,,,,,,,,,,,
null,,html-keyboard-response,1403648,,<p></p>,,,,null,,,,,,,,,,,,,,,,,,,,,,,,,,,
2512.300000000745,,directmemory_phase,1406163,,GW/shreveport.png,,,,51,,,0,0.7777777777777778,GW/westpalmbeach.png,GW/hotsprings.png,GW/boulder.png,GW/westpalmbeach.png,GW/boulder.png,GW/hotsprings.png,0.5,closer,,,,,,,,,,,,,,,
null,,html-keyboard-response,1407167,,<p></p>,,,,null,,,,,,,,,,,,,,,,,,,,,,,,,,,
2089.10000000149,,directmemory_phase,1409259,,GW/boulder.png,,,,49,,,1,0.7894736842105263,GW/gatlinburg.png,GW/carmel.png,GW/racine.png,GW/gatlinburg.png,GW/racine.png,GW/carmel.png,1,,,,,,,,,,,,,,,,
null,,html-keyboard-response,1410262,,<p></p>,,,,null,,,,,,,,,,,,,,,,,,,,,,,,,,,
1089.5,,directmemory_phase,1411355,,GW/carmel.png,,,,51,,,1,0.8,GW/boulder.png,GW/hanover.png,GW/westpalmbeach.png,GW/westpalmbeach.png,GW/hanover.png,GW/boulder.png,1,,,,,,,,,,,,,,,,
null,,html-keyboard-response,1412361,,<p></p>,,,,null,,,,,,,,,,,,,,,,,,,,,,,,,,,
1616.7999999970198,,directmemory_phase,1413981,,GW/gatlinburg.png,,,,49,,,1,0.8095238095238095,GW/shreveport.png,GW/huntsville.png,GW/westpalmbeach.png,GW/shreveport.png,GW/westpalmbeach.png,GW/huntsville.png,1,,,,,,,,,,,,,,,,
null,,html-keyboard-response,1414984,,<p></p>,,,,null,,,,,,,,,,,,,,,,,,,,,,,,,,,
2096,,directmemory_phase,1417082,,GW/peoria.png,,,,49,,,1,0.8181818181818182,GW/westpalmbeach.png,GW/cornwall.png,GW/carmel.png,GW/westpalmbeach.png,GW/carmel.png,GW/cornwall.png,1,,,,,,,,,,,,,,,,
null,,html-keyboard-response,1418085,,<p></p>,,,,null,,,,,,,,,,,,,,,,,,,,,,,,,,,
1516.199999999255,,directmemory_phase,1419603,,GW/hanover.png,,,,51,,,1,0.8260869565217391,GW/racine.png,GW/leesburg.png,GW/boulder.png,GW/boulder.png,GW/leesburg.png,GW/racine.png,1,,,,,,,,,,,,,,,,
null,,html-keyboard-response,1420606,,<p></p>,,,,null,,,,,,,,,,,,,,,,,,,,,,,,,,,
1644.4000000022352,,directmemory_phase,1422252,,GW/westpalmbeach.png,,,,51,,,1,0.8333333333333334,GW/racine.png,GW/gatlinburg.png,GW/shreveport.png,GW/shreveport.png,GW/gatlinburg.png,GW/racine.png,1,,,,,,,,,,,,,,,,
null,,html-keyboard-response,1423254,,<p></p>,,,,null,,,,,,,,,,,,,,,,,,,,,,,,,,,
2423.400000002235,,directmemory_phase,1425680,,GW/hanover.png,,,,49,,,0,0.8,GW/huntsville.png,GW/peoria.png,GW/cornwall.png,GW/peoria.png,GW/huntsville.png,GW/cornwall.png,0.5,closer,,,,,,,,,,,,,,,
null,,html-keyboard-response,1426687,,<p></p>,,,,null,,,,,,,,,,,,,,,,,,,,,,,,,,,
1728.300000000745,,directmemory_phase,1428420,,GW/boulder.png,,,,50,,,0,0.7692307692307693,GW/carmel.png,GW/peoria.png,GW/leesburg.png,GW/leesburg.png,GW/peoria.png,GW/carmel.png,0.5,closer,,,,,,,,,,,,,,,
null,,html-keyboard-response,1429422,,<p></p>,,,,null,,,,,,,,,,,,,,,,,,,,,,,,,,,
2212.599999997765,,directmemory_phase,1431635,,GW/westpalmbeach.png,,,,49,,,1,0.7777777777777778,GW/hanover.png,GW/racine.png,GW/gatlinburg.png,GW/hanover.png,GW/gatlinburg.png,GW/racine.png,1,,,,,,,,,,,,,,,,
null,,html-keyboard-response,1432637,,<p></p>,,,,null,,,,,,,,,,,,,,,,,,,,,,,,,,,
2637.699999999255,,directmemory_phase,1435276,,GW/gatlinburg.png,,,,51,,,1,0.7857142857142857,GW/peoria.png,GW/cornwall.png,GW/racine.png,GW/racine.png,GW/cornwall.png,GW/peoria.png,1,,,,,,,,,,,,,,,,
null,,html-keyboard-response,1436278,,<p></p>,,,,null,,,,,,,,,,,,,,,,,,,,,,,,,,,
2038.300000000745,,directmemory_phase,1438319,,GW/peoria.png,,,,49,,,1,0.7931034482758621,GW/hanover.png,GW/leesburg.png,GW/carmel.png,GW/hanover.png,GW/carmel.png,GW/leesburg.png,1,,,,,,,,,,,,,,,,
null,,html-keyboard-response,1439324,,<p></p>,,,,null,,,,,,,,,,,,,,,,,,,,,,,,,,,
1133.3999999985099,,directmemory_phase,1440460,,GW/newhope.png,,,,51,,,1,0.8,GW/gatlinburg.png,GW/racine.png,GW/cornwall.png,GW/cornwall.png,GW/racine.png,GW/gatlinburg.png,1,,,,,,,,,,,,,,,,
null,,html-keyboard-response,1441462,,<p></p>,,,,null,,,,,,,,,,,,,,,,,,,,,,,,,,,
1909.8999999985099,,directmemory_phase,1443374,,GW/hanover.png,,,,51,,,1,0.8064516129032258,GW/racine.png,GW/carmel.png,GW/westpalmbeach.png,GW/westpalmbeach.png,GW/carmel.png,GW/racine.png,1,,,,,,,,,,,,,,,,
null,,html-keyboard-response,1444377,,<p></p>,,,,null,,,,,,,,,,,,,,,,,,,,,,,,,,,
1523.699999999255,,directmemory_phase,1445903,,GW/peoria.png,,,,51,,,1,0.8125,GW/gatlinburg.png,GW/boulder.png,GW/huntsville.png,GW/huntsville.png,GW/boulder.png,GW/gatlinburg.png,1,,,,,,,,,,,,,,,,
null,,html-keyboard-response,1446908,,<p></p>,,,,null,,,,,,,,,,,,,,,,,,,,,,,,,,,
64695.900000002235,,intro_1,1511606,,instruct,,0,,,,,,,,,,,,,,,,,,,,,,,,,,,,,
20550.800000000745,,intro_2,1532158,,instruct,,1,Next,,,,,,,,,,,,,,,,,,,,,,,,,,,,
15393,,intro_3,1547554,,instruct,,1,Next,,,,,,,,,,,,,,,,,,,,,,,,,,,,
13590.10000000149,,intro_4,1561146,,instruct,,1,Next,,,,,,,,,,,,,,,,,,,,,,,,,,,,
10083.199999999255,,intro_5,1571231,,instruct,,1,Next,,,,,,,,,,,,,,,,,,,,,,,,,,,,
18118.79999999702,,intro_6,1589351,,instruct,,1,Next,,,,,,,,,,,,,,,,,,,,,,,,,,,,
13267.800000000745,,intro_7,1602621,,instruct,,1,Next,,,,,,,,,,,,,,,,,,,,,,,,,,,,
33941.400000002235,,intro_8,1636564,,instruct,,1,Next,,,,,,,,,,,,,,,,,,,,,,,,,,,,
2452.7999999970198,,shortestpath_phase,1639019,,GW/hotsprings.png,,,,49,GW/gatlinburg.png,GW/huntsville.png,1,1,,,,GW/gatlinburg.png,,,,,Four Edge Diff,Two Edge Six Edge,,,,,,,,,,,,,
null,,html-keyboard-response,1640024,,<p></p>,,,,null,,,,,,,,,,,,,,,,,,,,,,,,,,,
2211,,shortestpath_phase,1642236,,GW/huntsville.png,,,,50,GW/racine.png,GW/leesburg.png,1,1,,,,GW/leesburg.png,,,,,One Edge Diff,Four Edge Five Edge,,,,,,,,,,,,,
null,,html-keyboard-response,1643239,,<p></p>,,,,null,,,,,,,,,,,,,,,,,,,,,,,,,,,
2179.099999997765,,shortestpath_phase,1645419,,GW/hotsprings.png,,,,50,GW/gatlinburg.png,GW/peoria.png,0,0.6666666666666666,,,,GW/gatlinburg.png,,,,,Three Edge Diff,Three Edge Six Edge,,,,,,,,,,,,,
null,,html-keyboard-response,1646421,,<p></p>,,,,null,,,,,,,,,,,,,,,,,,,,,,,,,,,
2639.60000000149,,shortestpath_phase,1649062,,GW/carmel.png,,,,49,GW/leesburg.png,GW/cornwall.png,1,0.75,,,,GW/leesburg.png,,,,,One Edge Diff,Four Edge Five Edge,,,,,,,,,,,,,
null,,html-keyboard-response,1650067,,<p></p>,,,,null,,,,,,,,,,,,,,,,,,,,,,,,,,,
2377,,shortestpath_phase,1652447,,GW/hotsprings.png,,,,50,GW/huntsville.png,GW/hanover.png,1,0.8,,,,GW/hanover.png,,,,,Two Edge Diff,Four Edge Six Edge,,,,,,,,,,,,,
null,,html-keyboard-response,1653460,,<p></p>,,,,null,,,,,,,,,,,,,,,,,,,,,,,,,,,
2595.800000000745,,shortestpath_phase,1656059,,GW/shreveport.png,,,,49,GW/racine.png,GW/newhope.png,1,0.8333333333333334,,,,GW/racine.png,,,,,Two Edge Diff,Two Edge Four Edge,,,,,,,,,,,,,
null,,html-keyboard-response,1657062,,<p></p>,,,,null,,,,,,,,,,,,,,,,,,,,,,,,,,,
2413.900000002235,,shortestpath_phase,1659478,,GW/hotsprings.png,,,,50,GW/leesburg.png,GW/carmel.png,0,0.7142857142857143,,,,GW/leesburg.png,,,,,Two Edge Diff,Three Edge Five Edge,,,,,,,,,,,,,
null,,html-keyboard-response,1660493,,<p></p>,,,,null,,,,,,,,,,,,,,,,,,,,,,,,,,,
2539.800000000745,,shortestpath_phase,1663035,,GW/westpalmbeach.png,,,,50,GW/newhope.png,GW/boulder.png,1,0.75,,,,GW/boulder.png,,,,,Three Edge Diff,Two Edge Five Edge,,,,,,,,,,,,,
null,,html-keyboard-response,1664037,,<p></p>,,,,null,,,,,,,,,,,,,,,,,,,,,,,,,,,
2696.400000002235,,shortestpath_phase,1666735,,GW/huntsville.png,,,,50,GW/hotsprings.png,GW/racine.png,1,0.7777777777777778,,,,GW/racine.png,,,,,One Edge Diff,Five Edge Six Edge,,,,,,,,,,,,,
null,,html-keyboard-response,1667739,,<p></p>,,,,null,,,,,,,,,,,,,,,,,,,,,,,,,,,
2550.5,,shortestpath_phase,1670291,,GW/hotsprings.png,,,,49,GW/carmel.png,GW/newhope.png,0,0.7,,,,GW/newhope.png,,,,,Two Edge Diff,Three Edge Five Edge,,,,,,,,,,,,,
null,,html-keyboard-response,1671294,,<p></p>,,,,null,,,,,,,,,,,,,,,,,,,,,,,,,,,
2488.10000000149,,shortestpath_phase,1673784,,GW/racine.png,,,,50,GW/shreveport.png,GW/peoria.png,0,0.6363636363636364,,,,GW/shreveport.png,,,,,Two Edge Diff,Two Edge Four Edge,,,,,,,,,,,,,
null,,html-keyboard-response,1674787,,<p></p>,,,,null,,,,,,,,,,,,,,,,,,,,,,,,,,,
2558.5,,shortestpath_phase,1677348,,GW/hotsprings.png,,,,49,GW/carmel.png,GW/gatlinburg.png,0,0.5833333333333334,,,,GW/gatlinburg.png,,,,,Three Edge Diff,Three Edge Six Edge,,,,,,,,,,,,,
null,,html-keyboard-response,1678353,,<p></p>,,,,null,,,,,,,,,,,,,,,,,,,,,,,,,,,
2296.300000000745,,shortestpath_phase,1680652,,GW/westpalmbeach.png,,,,49,GW/boulder.png,GW/newhope.png,1,0.6153846153846154,,,,GW/boulder.png,,,,,Three Edge Diff,Three Edge Six Edge,,,,,,,,,,,,,
null,,html-keyboard-response,1681656,,<p></p>,,,,null,,,,,,,,,,,,,,,,,,,,,,,,,,,
2276,,shortestpath_phase,1683935,,GW/hotsprings.png,,,,50,GW/peoria.png,GW/gatlinburg.png,1,0.6428571428571429,,,,GW/gatlinburg.png,,,,,Three Edge Diff,Two Edge Five Edge,,,,,,,,,,,,,
null,,html-keyboard-response,1684940,,<p></p>,,,,null,,,,,,,,,,,,,,,,,,,,,,,,,,,
3234.599999997765,,shortestpath_phase,1688178,,GW/newhope.png,,,,50,GW/boulder.png,GW/peoria.png,0,0.6,,,,GW/boulder.png,,,,,Two Edge Diff,Three Edge Five Edge,,,,,,,,,,,,,
null,,html-keyboard-response,1689180,,<p></p>,,,,null,,,,,,,,,,,,,,,,,,,,,,,,,,,
2805.10000000149,,shortestpath_phase,1691987,,GW/cornwall.png,,,,49,GW/gatlinburg.png,GW/huntsville.png,1,0.625,,,,GW/gatlinburg.png,,,,,Three Edge Diff,Two Edge Five Edge,,,,,,,,,,,,,
null,,html-keyboard-response,1692989,,<p></p>,,,,null,,,,,,,,,,,,,,,,,,,,,,,,,,,
2535.5,,shortestpath_phase,1695526,,GW/hotsprings.png,,,,49,GW/huntsville.png,GW/carmel.png,0,0.5882352941176471,,,,GW/carmel.png,,,,,One Edge Diff,Five Edge Six Edge,,,,,,,,,,,,,
null,,html-keyboard-response,1696537,,<p></p>,,,,null,,,,,,,,,,,,,,,,,,,,,,,,,,,
2768.800000000745,,shortestpath_phase,1699307,,GW/newhope.png,,,,49,GW/gatlinburg.png,GW/westpalmbeach.png,1,0.6111111111111112,,,,GW/gatlinburg.png,,,,,Two Edge Diff,Three Edge Five Edge,,,,,,,,,,,,,
null,,html-keyboard-response,1700310,,<p></p>,,,,null,,,,,,,,,,,,,,,,,,,,,,,,,,,
2706.39999999851,,shortestpath_phase,1703019,,GW/carmel.png,,,,49,GW/cornwall.png,GW/hanover.png,0,0.5789473684210527,,,,GW/hanover.png,,,,,Three Edge Diff,Three Edge Six Edge,,,,,,,,,,,,,
null,,html-keyboard-response,1704021,,<p></p>,,,,null,,,,,,,,,,,,,,,,,,,,,,,,,,,
2767,,shortestpath_phase,1706790,,GW/hotsprings.png,,,,49,GW/newhope.png,GW/westpalmbeach.png,1,0.6,,,,GW/newhope.png,,,,,One Edge Diff,Three Edge Four Edge,,,,,,,,,,,,,
null,,html-keyboard-response,1707794,,<p></p>,,,,null,,,,,,,,,,,,,,,,,,,,,,,,,,,
2983.10000000149,,shortestpath_phase,1710778,,GW/huntsville.png,,,,50,GW/cornwall.png,GW/gatlinburg.png,1,0.6190476190476191,,,,GW/gatlinburg.png,,,,,One Edge Diff,Four Edge Five Edge,,,,,,,,,,,,,
null,,html-keyboard-response,1711782,,<p></p>,,,,null,,,,,,,,,,,,,,,,,,,,,,,,,,,
3559,,shortestpath_phase,1715343,,GW/boulder.png,,,,49,GW/cornwall.png,GW/huntsville.png,1,0.6363636363636364,,,,GW/cornwall.png,,,,,One Edge Diff,Two Edge Three Edge,,,,,,,,,,,,,
null,,html-keyboard-response,1716348,,<p></p>,,,,null,,,,,,,,,,,,,,,,,,,,,,,,,,,
2933.699999999255,,shortestpath_phase,1719284,,GW/huntsville.png,,,,49,GW/gatlinburg.png,GW/hotsprings.png,1,0.6521739130434783,,,,GW/gatlinburg.png,,,,,Two Edge Diff,Four Edge Six Edge,,,,,,,,,,,,,
null,,html-keyboard-response,1720286,,<p></p>,,,,null,,,,,,,,,,,,,,,,,,,,,,,,,,,
2986.599999997765,,shortestpath_phase,1723275,,GW/hotsprings.png,,,,49,GW/cornwall.png,GW/peoria.png,1,0.6666666666666666,,,,GW/cornwall.png,,,,,Three Edge Diff,Three Edge Six Edge,,,,,,,,,,,,,
null,,html-keyboard-response,1724278,,<p></p>,,,,null,,,,,,,,,,,,,,,,,,,,,,,,,,,
3390.300000000745,,shortestpath_phase,1727670,,GW/huntsville.png,,,,50,GW/hotsprings.png,GW/hanover.png,1,0.68,,,,GW/hanover.png,,,,,Four Edge Diff,Two Edge Six Edge,,,,,,,,,,,,,
null,,html-keyboard-response,1728687,,<p></p>,,,,null,,,,,,,,,,,,,,,,,,,,,,,,,,,
3254.39999999851,,shortestpath_phase,1731944,,GW/racine.png,,,,50,GW/boulder.png,GW/huntsville.png,0,0.6538461538461539,,,,GW/boulder.png,,,,,Three Edge Diff,Two Edge Five Edge,,,,,,,,,,,,,
null,,html-keyboard-response,1732950,,<p></p>,,,,null,,,,,,,,,,,,,,,,,,,,,,,,,,,
2565.2000000029802,,shortestpath_phase,1735518,,GW/huntsville.png,,,,49,GW/westpalmbeach.png,GW/leesburg.png,1,0.6666666666666666,,,,GW/westpalmbeach.png,,,,,Two Edge Diff,Two Edge Four Edge,,,,,,,,,,,,,
null,,html-keyboard-response,1736523,,<p></p>,,,,null,,,,,,,,,,,,,,,,,,,,,,,,,,,
3101.400000002235,,shortestpath_phase,1739627,,GW/carmel.png,,,,50,GW/hanover.png,GW/hotsprings.png,0,0.6428571428571429,,,,GW/hanover.png,,,,,Three Edge Diff,Three Edge Six Edge,,,,,,,,,,,,,
null,,html-keyboard-response,1740643,,<p></p>,,,,null,,,,,,,,,,,,,,,,,,,,,,,,,,,
3080.300000000745,,shortestpath_phase,1743726,,GW/westpalmbeach.png,,,,49,GW/newhope.png,GW/huntsville.png,0,0.6206896551724138,,,,GW/huntsville.png,,,,,Three Edge Diff,Two Edge Five Edge,,,,,,,,,,,,,
null,,html-keyboard-response,1744730,,<p></p>,,,,null,,,,,,,,,,,,,,,,,,,,,,,,,,,
2777.10000000149,,shortestpath_phase,1747510,,GW/newhope.png,,,,50,GW/carmel.png,GW/leesburg.png,1,0.6333333333333333,,,,GW/leesburg.png,,,,,Four Edge Diff,Two Edge Six Edge,,,,,,,,,,,,,
null,,html-keyboard-response,1748514,,<p></p>,,,,null,,,,,,,,,,,,,,,,,,,,,,,,,,,
3525.800000000745,,shortestpath_phase,1752043,,GW/huntsville.png,,,,49,GW/cornwall.png,GW/newhope.png,1,0.6451612903225806,,,,GW/cornwall.png,,,,,One Edge Diff,Five Edge Six Edge,,,,,,,,,,,,,
null,,html-keyboard-response,1753046,,<p></p>,,,,null,,,,,,,,,,,,,,,,,,,,,,,,,,,
2963.10000000149,,shortestpath_phase,1756011,,GW/newhope.png,,,,49,GW/racine.png,GW/carmel.png,1,0.65625,,,,GW/racine.png,,,,,Four Edge Diff,Two Edge Six Edge,,,,,,,,,,,,,
null,,html-keyboard-response,1757018,,<p></p>,,,,null,,,,,,,,,,,,,,,,,,,,,,,,,,,
3312.2000000029802,,shortestpath_phase,1760332,,GW/huntsville.png,,,,50,GW/hanover.png,GW/newhope.png,0,0.6363636363636364,,,,GW/hanover.png,,,,,Four Edge Diff,Two Edge Six Edge,,,,,,,,,,,,,
null,,html-keyboard-response,1761333,,<p></p>,,,,null,,,,,,,,,,,,,,,,,,,,,,,,,,,
3326.10000000149,,shortestpath_phase,1764661,,GW/carmel.png,,,,50,GW/newhope.png,GW/racine.png,1,0.6470588235294118,,,,GW/racine.png,,,,,Two Edge Diff,Four Edge Six Edge,,,,,,,,,,,,,
null,,html-keyboard-response,1765665,,<p></p>,,,,null,,,,,,,,,,,,,,,,,,,,,,,,,,,
3488.099999997765,,shortestpath_phase,1769156,,GW/huntsville.png,,,,50,GW/racine.png,GW/westpalmbeach.png,1,0.6571428571428571,,,,GW/westpalmbeach.png,,,,,Three Edge Diff,Three Edge Six Edge,,,,,,,,,,,,,
null,,html-keyboard-response,1770161,,<p></p>,,,,null,,,,,,,,,,,,,,,,,,,,,,,,,,,
2721.699999999255,,shortestpath_phase,1772886,,GW/leesburg.png,,,,49,GW/racine.png,GW/carmel.png,1,0.6666666666666666,,,,GW/racine.png,,,,,Two Edge Diff,Two Edge Four Edge,,,,,,,,,,,,,
null,,html-keyboard-response,1773891,,<p></p>,,,,null,,,,,,,,,,,,,,,,,,,,,,,,,,,
3205.7000000029802,,shortestpath_phase,1777099,,GW/cornwall.png,,,,49,GW/carmel.png,GW/hotsprings.png,0,0.6486486486486487,,,,GW/hotsprings.png,,,,,Three Edge Diff,Two Edge Five Edge,,,,,,,,,,,,,
null,,html-keyboard-response,1778103,,<p></p>,,,,null,,,,,,,,,,,,,,,,,,,,,,,,,,,
3347.800000000745,,shortestpath_phase,1781454,,GW/leesburg.png,,,,50,GW/racine.png,GW/westpalmbeach.png,0,0.631578947368421,,,,GW/racine.png,,,,,One Edge Diff,Two Edge Three Edge,,,,,,,,,,,,,
null,,html-keyboard-response,1782458,,<p></p>,,,,null,,,,,,,,,,,,,,,,,,,,,,,,,,,
3657.699999999255,,shortestpath_phase,1786118,,GW/huntsville.png,,,,49,GW/hanover.png,GW/cornwall.png,1,0.6410256410256411,,,,GW/hanover.png,,,,,Three Edge Diff,Three Edge Six Edge,,,,,,,,,,,,,
null,,html-keyboard-response,1787123,,<p></p>,,,,null,,,,,,,,,,,,,,,,,,,,,,,,,,,
3330.599999997765,,shortestpath_phase,1790455,,GW/peoria.png,,,,49,GW/hotsprings.png,GW/gatlinburg.png,0,0.625,,,,GW/gatlinburg.png,,,,,Two Edge Diff,Three Edge Five Edge,,,,,,,,,,,,,
null,,html-keyboard-response,1791460,,<p></p>,,,,null,,,,,,,,,,,,,,,,,,,,,,,,,,,
3133.800000000745,,shortestpath_phase,1794596,,GW/hotsprings.png,,,,49,GW/westpalmbeach.png,GW/huntsville.png,1,0.6341463414634146,,,,GW/westpalmbeach.png,,,,,Two Edge Diff,Four Edge Six Edge,,,,,,,,,,,,,
null,,html-keyboard-response,1795598,,<p></p>,,,,null,,,,,,,,,,,,,,,,,,,,,,,,,,,
3110.2999999970198,,shortestpath_phase,1798711,,GW/peoria.png,,,,50,GW/racine.png,GW/carmel.png,1,0.6428571428571429,,,,GW/carmel.png,,,,,Two Edge Diff,Two Edge Four Edge,,,,,,,,,,,,,
null,,html-keyboard-response,1799716,,<p></p>,,,,null,,,,,,,,,,,,,,,,,,,,,,,,,,,
2857.60000000149,,shortestpath_phase,1802576,,GW/cornwall.png,,,,49,GW/huntsville.png,GW/shreveport.png,0,0.627906976744186,,,,GW/shreveport.png,,,,,Two Edge Diff,Three Edge Five Edge,,,,,,,,,,,,,
null,,html-keyboard-response,1803578,,<p></p>,,,,null,,,,,,,,,,,,,,,,,,,,,,,,,,,
3230.39999999851,,shortestpath_phase,1806810,,GW/racine.png,,,,50,GW/westpalmbeach.png,GW/huntsville.png,0,0.6136363636363636,,,,GW/westpalmbeach.png,,,,,Two Edge Diff,Three Edge Five Edge,,,,,,,,,,,,,
null,,html-keyboard-response,1807812,,<p></p>,,,,null,,,,,,,,,,,,,,,,,,,,,,,,,,,
2581.199999999255,,shortestpath_phase,1810394,,GW/hotsprings.png,,,,49,GW/huntsville.png,GW/peoria.png,0,0.6,,,,GW/peoria.png,,,,,One Edge Diff,Five Edge Six Edge,,,,,,,,,,,,,
null,,html-keyboard-response,1811396,,<p></p>,,,,null,,,,,,,,,,,,,,,,,,,,,,,,,,,
2704,,shortestpath_phase,1814102,,GW/newhope.png,,,,50,GW/hanover.png,GW/huntsville.png,0,0.5869565217391305,,,,GW/hanover.png,,,,,Two Edge Diff,Four Edge Six Edge,,,,,,,,,,,,,
null,,html-keyboard-response,1815107,,<p></p>,,,,null,,,,,,,,,,,,,,,,,,,,,,,,,,,
3383.199999999255,,shortestpath_phase,1818494,,GW/peoria.png,,,,50,GW/shreveport.png,GW/newhope.png,0,0.574468085106383,,,,GW/shreveport.png,,,,,Three Edge Diff,Two Edge Five Edge,,,,,,,,,,,,,
null,,html-keyboard-response,1819499,,<p></p>,,,,null,,,,,,,,,,,,,,,,,,,,,,,,,,,
2648.10000000149,,shortestpath_phase,1822150,,GW/newhope.png,,,,49,GW/leesburg.png,GW/gatlinburg.png,1,0.5833333333333334,,,,GW/leesburg.png,,,,,One Edge Diff,Two Edge Three Edge,,,,,,,,,,,,,
null,,html-keyboard-response,1823153,,<p></p>,,,,null,,,,,,,,,,,,,,,,,,,,,,,,,,,
2531,,shortestpath_phase,1825686,,GW/peoria.png,,,,50,GW/newhope.png,GW/boulder.png,1,0.5918367346938775,,,,GW/boulder.png,,,,,Three Edge Diff,Three Edge Six Edge,,,,,,,,,,,,,
null,,html-keyboard-response,1826691,,<p></p>,,,,null,,,,,,,,,,,,,,,,,,,,,,,,,,,
2254.39999999851,,shortestpath_phase,1828949,,GW/newhope.png,,,,50,GW/huntsville.png,GW/shreveport.png,1,0.6,,,,GW/shreveport.png,,,,,Two Edge Diff,Four Edge Six Edge,,,,,,,,,,,,,
null,,html-keyboard-response,1829955,,<p></p>,,,,null,,,,,,,,,,,,,,,,,,,,,,,,,,,
2199.10000000149,,shortestpath_phase,1832157,,GW/hotsprings.png,,,,50,GW/huntsville.png,GW/cornwall.png,1,0.6078431372549019,,,,GW/cornwall.png,,,,,Four Edge Diff,Two Edge Six Edge,,,,,,,,,,,,,
null,,html-keyboard-response,1833162,,<p></p>,,,,null,,,,,,,,,,,,,,,,,,,,,,,,,,,
2814,,shortestpath_phase,1835979,,GW/westpalmbeach.png,,,,50,GW/gatlinburg.png,GW/newhope.png,0,0.5961538461538461,,,,GW/gatlinburg.png,,,,,Three Edge Diff,Two Edge Five Edge,,,,,,,,,,,,,
null,,html-keyboard-response,1836982,,<p></p>,,,,null,,,,,,,,,,,,,,,,,,,,,,,,,,,
2917.5,,shortestpath_phase,1839902,,GW/boulder.png,,,,50,GW/newhope.png,GW/peoria.png,1,0.6037735849056604,,,,GW/peoria.png,,,,,One Edge Diff,Two Edge Three Edge,,,,,,,,,,,,,
null,,html-keyboard-response,1840907,,<p></p>,,,,null,,,,,,,,,,,,,,,,,,,,,,,,,,,
3528.2999999970198,,shortestpath_phase,1844438,,GW/gatlinburg.png,,,,49,GW/huntsville.png,GW/leesburg.png,0,0.5925925925925926,,,,GW/leesburg.png,,,,,Two Edge Diff,Two Edge Four Edge,,,,,,,,,,,,,
null,,html-keyboard-response,1845454,,<p></p>,,,,null,,,,,,,,,,,,,,,,,,,,,,,,,,,
1814.0999999977648,,shortestpath_phase,1847271,,GW/newhope.png,,,,49,GW/racine.png,GW/huntsville.png,1,0.6,,,,GW/racine.png,,,,,Four Edge Diff,Two Edge Six Edge,,,,,,,,,,,,,
null,,html-keyboard-response,1848276,,<p></p>,,,,null,,,,,,,,,,,,,,,,,,,,,,,,,,,
2840,,shortestpath_phase,1851118,,GW/cornwall.png,,,,50,GW/boulder.png,GW/huntsville.png,0,0.5892857142857143,,,,GW/boulder.png,,,,,Three Edge Diff,Two Edge Five Edge,,,,,,,,,,,,,
null,,html-keyboard-response,1852123,,<p></p>,,,,null,,,,,,,,,,,,,,,,,,,,,,,,,,,
2877,,shortestpath_phase,1855003,,GW/newhope.png,,,,49,GW/gatlinburg.png,GW/peoria.png,1,0.5964912280701754,,,,GW/gatlinburg.png,,,,,Two Edge Diff,Three Edge Five Edge,,,,,,,,,,,,,
null,,html-keyboard-response,1856005,,<p></p>,,,,null,,,,,,,,,,,,,,,,,,,,,,,,,,,
3344.300000000745,,shortestpath_phase,1859351,,GW/huntsville.png,,,,49,GW/racine.png,GW/hanover.png,0,0.5862068965517241,,,,GW/hanover.png,,,,,Three Edge Diff,Two Edge Five Edge,,,,,,,,,,,,,
null,,html-keyboard-response,1860355,,<p></p>,,,,null,,,,,,,,,,,,,,,,,,,,,,,,,,,
2211.5,,shortestpath_phase,1862569,,GW/newhope.png,,,,50,GW/peoria.png,GW/racine.png,1,0.5932203389830508,,,,GW/racine.png,,,,,Three Edge Diff,Three Edge Six Edge,,,,,,,,,,,,,
null,,html-keyboard-response,1863574,,<p></p>,,,,null,,,,,,,,,,,,,,,,,,,,,,,,,,,
3050.7000000029802,,shortestpath_phase,1866627,,GW/cornwall.png,,,,50,GW/huntsville.png,GW/westpalmbeach.png,1,0.6,,,,GW/westpalmbeach.png,,,,,One Edge Diff,Four Edge Five Edge,,,,,,,,,,,,,
null,,html-keyboard-response,1867631,,<p></p>,,,,null,,,,,,,,,,,,,,,,,,,,,,,,,,,
