rt,responses,trial_type,time_elapsed,sequence,stimulus,graphorder,button_pressed,response,key_press,stimulus_left,stimulus_right,accuracy,cumulative_accuracy,stimulus_down_left,stimulus_down_mid,stimulus_down_right,stimulus_correct,stimulus_short,stimulus_far,weighted_accuracy,condition,specific_pairs,imgL_ID,imgR_ID,linedress,linedressed,detour_trial,linedressed_detor,problems,smooth,distraction,strategies,easier,similar,comments
10558.199999988079,{worker_id:6361eebd5327cc2337bd13ad},id_enter,10564,interleaved,replication,GW/leesburg.png; GW/racine.png; GW/westpalmbeach.png; GW/hanover.png; GW/gatlinburg.png; GW/hotsprings.png; GW/peoria.png; GW/newhope.png; GW/shreveport.png; GW/cornwall.png; GW/boulder.png; GW/huntsville.png; GW/carmel.png,,,,,,,,,,,,,,,,,,,,,,,,,,,,,
38141.40000003576,,fullscreen,48724,,fullscreen,,0,,,,,,,,,,,,,,,,,,,,,,,,,,,,
36644.40000003576,,intro_1,85380,,instruct,,0,,,,,,,,,,,,,,,,,,,,,,,,,,,,
31268.80000001192,,intro_2,116656,,instruct,,1,Next,,,,,,,,,,,,,,,,,,,,,,,,,,,
42935.30000001192,,intro_3,159597,,instruct,,1,Next,,,,,,,,,,,,,,,,,,,,,,,,,,,
null,,learn_prac_1,162606,,lean_prac_1,,,,null,,,,,,,,,,,,,,,,,,,,,,,,,,
null,,html-keyboard-response,163615,,<p></p>,,,,null,,,,,,,,,,,,,,,,,,,,,,,,,,
5566.199999988079,,intro_1,169185,,instruct,,0,,,,,,,,,,,,,,,,,,,,,,,,,,,,
9264.699999988079,,intro_2,178453,,instruct,,1,Next,,,,,,,,,,,,,,,,,,,,,,,,,,,
null,,learn_prac_2,181458,,lean_prac_2,,,,null,,,,,,,,,,,,,,,,,,,,,,,,,,
null,,html-keyboard-response,182462,,<p></p>,,,,null,,,,,,,,,,,,,,,,,,,,,,,,,,
10292,,intro_1,192758,,instruct,,0,,,,,,,,,,,,,,,,,,,,,,,,,,,,
10460.400000035763,,intro_2,203223,,instruct,,1,Next,,,,,,,,,,,,,,,,,,,,,,,,,,,
47581.39999997616,,intro_3,250811,,instruct,,1,Next,,,,,,,,,,,,,,,,,,,,,,,,,,,
null,,prac_atten_color_black,251623,,black_plus_sign,,,,null,,,,,,,,,,,,,,,,,,,,,,,,,,
null,,prac_atten_color,252222,,prac_stop_color,,,,null,,,,,,,,,,,,,,,,,,,,,,,,,,
193,,prac_atten_color_black,254226,,black_plus_sign,,,,49,,,,,,,,,,,,,,,,,,,,,,,,,,
null,,prac_atten_color_black,255039,,black_plus_sign,,,,null,,,,,,,,,,,,,,,,,,,,,,,,,,
545.3999999761581,,prac_atten_color,255797,,prac_stop_color,,,,50,,,,,,,,,,,,,,,,,,,,,,,,,,
null,,prac_atten_color_black,257800,,black_plus_sign,,,,null,,,,,,,,,,,,,,,,,,,,,,,,,,
null,,prac_atten_color_black,258458,,black_plus_sign,,,,null,,,,,,,,,,,,,,,,,,,,,,,,,,
null,,prac_atten_color,259020,,prac_stop_color,,,,null,,,,,,,,,,,,,,,,,,,,,,,,,,
58.10000002384186,,prac_atten_color_black,261024,,black_plus_sign,,,,50,,,,,,,,,,,,,,,,,,,,,,,,,,
null,,prac_atten_color_black,261876,,black_plus_sign,,,,null,,,,,,,,,,,,,,,,,,,,,,,,,,
404.80000001192093,,prac_atten_color,262650,,prac_stop_color,,,,49,,,,,,,,,,,,,,,,,,,,,,,,,,
null,,prac_atten_color_black,264654,,black_plus_sign,,,,null,,,,,,,,,,,,,,,,,,,,,,,,,,
null,,prac_atten_color_black,265293,,black_plus_sign,,,,null,,,,,,,,,,,,,,,,,,,,,,,,,,
401.30000001192093,,prac_atten_color,266251,,prac_stop_color,,,,50,,,,,,,,,,,,,,,,,,,,,,,,,,
null,,prac_atten_color_black,268256,,black_plus_sign,,,,null,,,,,,,,,,,,,,,,,,,,,,,,,,
null,,prac_atten_color_black,268718,,black_plus_sign,,,,null,,,,,,,,,,,,,,,,,,,,,,,,,,
556.8999999761581,,prac_atten_color,269737,,prac_stop_color,,,,50,,,,,,,,,,,,,,,,,,,,,,,,,,
null,,prac_atten_color_black,271741,,black_plus_sign,,,,null,,,,,,,,,,,,,,,,,,,,,,,,,,
null,,prac_atten_color_black,272134,,black_plus_sign,,,,null,,,,,,,,,,,,,,,,,,,,,,,,,,
399,,prac_atten_color,272796,,prac_stop_color,,,,49,,,,,,,,,,,,,,,,,,,,,,,,,,
null,,prac_atten_color_black,274800,,black_plus_sign,,,,null,,,,,,,,,,,,,,,,,,,,,,,,,,
null,,prac_atten_color_black,275554,,black_plus_sign,,,,null,,,,,,,,,,,,,,,,,,,,,,,,,,
495.39999997615814,,prac_atten_color,276192,,prac_stop_color,,,,50,,,,,,,,,,,,,,,,,,,,,,,,,,
null,,prac_atten_color_black,278195,,black_plus_sign,,,,null,,,,,,,,,,,,,,,,,,,,,,,,,,
null,,prac_atten_color_black,278980,,black_plus_sign,,,,null,,,,,,,,,,,,,,,,,,,,,,,,,,
null,,prac_atten_color,279463,,prac_stop_color,,,,null,,,,,,,,,,,,,,,,,,,,,,,,,,
238.30000001192093,,prac_atten_color_black,281470,,black_plus_sign,,,,49,,,,,,,,,,,,,,,,,,,,,,,,,,
null,,prac_atten_color_black,282412,,black_plus_sign,,,,null,,,,,,,,,,,,,,,,,,,,,,,,,,
399.19999998807907,,prac_atten_color,283460,,prac_stop_color,,,,49,,,,,,,,,,,,,,,,,,,,,,,,,,
null,,prac_atten_color_black,285463,,black_plus_sign,,,,null,,,,,,,,,,,,,,,,,,,,,,,,,,
22702.80000001192,,attentioncheck_feedback,308172,,cross_check_feedback,,0,,,,,,,,,,,,,,,,,,,,,,,,,,,,
19745.700000047684,,last_instruct,327920,,instruct,,,,32,,,,,,,,,,,,,,,,,,,,,,,,,,
null,,learn_phase(without_color),330924,,black_plus_sign,,,,null,GW/racine.png,GW/hanover.png,,,,,,,,,,,,,,,,,,,,,,,,
null,,black_cross(without_color),331335,,yellow,,,,null,GW/racine.png,GW/hanover.png,,,,,,,,,,,,,,,,,,,,,,,,
null,,rt_plussign_withcolor,331839,,yellow,,,,null,GW/racine.png,GW/hanover.png,,,,,,,,,,,,,,,,,,,,,,,,
928,,rt_thecrossant_black,333443,,black_plus_sign,,,,50,,,1,1,,,,,,,,,,,,,,,,,,,,,,
null,,color_black,333549,,black_plus_sign,,,,null,,,,,,,,,,,,,,,,,,,,,,,,,,
null,,learn_phase(without_color),336556,,black_plus_sign,,,,null,GW/westpalmbeach.png,GW/hotsprings.png,,,,,,,,,,,,,,,,,,,,,,,,
null,,black_cross(without_color),337644,,blue,,,,null,GW/westpalmbeach.png,GW/hotsprings.png,,,,,,,,,,,,,,,,,,,,,,,,
null,,rt_plussign_withcolor,338149,,blue,,,,null,GW/westpalmbeach.png,GW/hotsprings.png,,,,,,,,,,,,,,,,,,,,,,,,
693.3999999761581,,rt_thecrossant_black,339070,,black_plus_sign,,,,49,,,1,1,,,,,,,,,,,,,,,,,,,,,,
null,,color_black,339177,,black_plus_sign,,,,null,,,,,,,,,,,,,,,,,,,,,,,,,,
null,,learn_phase(without_color),342184,,black_plus_sign,,,,null,GW/peoria.png,GW/hotsprings.png,,,,,,,,,,,,,,,,,,,,,,,,
null,,black_cross(without_color),343218,,yellow,,,,null,GW/peoria.png,GW/hotsprings.png,,,,,,,,,,,,,,,,,,,,,,,,
null,,rt_plussign_withcolor,343721,,yellow,,,,null,GW/peoria.png,GW/hotsprings.png,,,,,,,,,,,,,,,,,,,,,,,,
1234.5,,rt_thecrossant_black,344706,,black_plus_sign,,,,50,,,1,1,,,,,,,,,,,,,,,,,,,,,,
null,,color_black,344813,,black_plus_sign,,,,null,,,,,,,,,,,,,,,,,,,,,,,,,,
null,,learn_phase(without_color),347818,,black_plus_sign,,,,null,GW/peoria.png,GW/newhope.png,,,,,,,,,,,,,,,,,,,,,,,,
null,,black_cross(without_color),348390,,blue,,,,null,GW/peoria.png,GW/newhope.png,,,,,,,,,,,,,,,,,,,,,,,,
null,,rt_plussign_withcolor,348896,,blue,,,,null,GW/peoria.png,GW/newhope.png,,,,,,,,,,,,,,,,,,,,,,,,
1175.8999999761581,,rt_thecrossant_black,350337,,black_plus_sign,,,,49,,,1,1,,,,,,,,,,,,,,,,,,,,,,
null,,color_black,350442,,black_plus_sign,,,,null,,,,,,,,,,,,,,,,,,,,,,,,,,
null,,learn_phase(without_color),353448,,black_plus_sign,,,,null,GW/cornwall.png,GW/newhope.png,,,,,,,,,,,,,,,,,,,,,,,,
null,,black_cross(without_color),354002,,blue,,,,null,GW/cornwall.png,GW/newhope.png,,,,,,,,,,,,,,,,,,,,,,,,
null,,rt_plussign_withcolor,354505,,blue,,,,null,GW/cornwall.png,GW/newhope.png,,,,,,,,,,,,,,,,,,,,,,,,
807.8999999761581,,rt_thecrossant_black,355962,,black_plus_sign,,,,50,,,0,0.8,,,,,,,,,,,,,,,,,,,,,,
null,,color_black,356070,,black_plus_sign,,,,null,,,,,,,,,,,,,,,,,,,,,,,,,,
null,,learn_phase(without_color),359075,,black_plus_sign,,,,null,GW/peoria.png,GW/newhope.png,,,,,,,,,,,,,,,,,,,,,,,,
null,,black_cross(without_color),359619,,yellow,,,,null,GW/peoria.png,GW/newhope.png,,,,,,,,,,,,,,,,,,,,,,,,
null,,rt_plussign_withcolor,360122,,yellow,,,,null,GW/peoria.png,GW/newhope.png,,,,,,,,,,,,,,,,,,,,,,,,
1039.0999999642372,,rt_thecrossant_black,361587,,black_plus_sign,,,,50,,,1,0.8333333333333334,,,,,,,,,,,,,,,,,,,,,,
null,,color_black,361693,,black_plus_sign,,,,null,,,,,,,,,,,,,,,,,,,,,,,,,,
null,,learn_phase(without_color),364700,,black_plus_sign,,,,null,GW/shreveport.png,GW/newhope.png,,,,,,,,,,,,,,,,,,,,,,,,
null,,black_cross(without_color),365518,,yellow,,,,null,GW/shreveport.png,GW/newhope.png,,,,,,,,,,,,,,,,,,,,,,,,
500.10000002384186,,rt_plussign_withcolor,366023,,yellow,,,,50,GW/shreveport.png,GW/newhope.png,,,,,,,,,,,,,,,,,,,,,,,,
null,,rt_thecrossant_black,367217,,black_plus_sign,,,,null,,,1,0.8571428571428571,,,,,,,,,,,,,,,,,,,,,,
null,,color_black,367325,,black_plus_sign,,,,null,,,,,,,,,,,,,,,,,,,,,,,,,,
null,,learn_phase(without_color),370333,,black_plus_sign,,,,null,GW/huntsville.png,GW/hanover.png,,,,,,,,,,,,,,,,,,,,,,,,
null,,black_cross(without_color),371055,,blue,,,,null,GW/huntsville.png,GW/hanover.png,,,,,,,,,,,,,,,,,,,,,,,,
null,,rt_plussign_withcolor,371558,,blue,,,,null,GW/huntsville.png,GW/hanover.png,,,,,,,,,,,,,,,,,,,,,,,,
1115.0999999642372,,rt_thecrossant_black,372848,,black_plus_sign,,,,49,,,1,0.875,,,,,,,,,,,,,,,,,,,,,,
null,,color_black,372954,,black_plus_sign,,,,null,,,,,,,,,,,,,,,,,,,,,,,,,,
null,,learn_phase(without_color),375961,,black_plus_sign,,,,null,GW/boulder.png,GW/westpalmbeach.png,,,,,,,,,,,,,,,,,,,,,,,,
null,,black_cross(without_color),376835,,blue,,,,null,GW/boulder.png,GW/westpalmbeach.png,,,,,,,,,,,,,,,,,,,,,,,,
null,,rt_plussign_withcolor,377337,,blue,,,,null,GW/boulder.png,GW/westpalmbeach.png,,,,,,,,,,,,,,,,,,,,,,,,
1168.699999988079,,rt_thecrossant_black,378475,,black_plus_sign,,,,49,,,1,0.8888888888888888,,,,,,,,,,,,,,,,,,,,,,
null,,color_black,378583,,black_plus_sign,,,,null,,,,,,,,,,,,,,,,,,,,,,,,,,
null,,learn_phase(without_color),381589,,black_plus_sign,,,,null,GW/huntsville.png,GW/boulder.png,,,,,,,,,,,,,,,,,,,,,,,,
null,,black_cross(without_color),382548,,blue,,,,null,GW/huntsville.png,GW/boulder.png,,,,,,,,,,,,,,,,,,,,,,,,
null,,rt_plussign_withcolor,383051,,blue,,,,null,GW/huntsville.png,GW/boulder.png,,,,,,,,,,,,,,,,,,,,,,,,
1430.699999988079,,rt_thecrossant_black,384101,,black_plus_sign,,,,49,,,1,0.9,,,,,,,,,,,,,,,,,,,,,,
null,,color_black,384207,,black_plus_sign,,,,null,,,,,,,,,,,,,,,,,,,,,,,,,,
null,,learn_phase(without_color),387213,,black_plus_sign,,,,null,GW/peoria.png,GW/hotsprings.png,,,,,,,,,,,,,,,,,,,,,,,,
null,,black_cross(without_color),387947,,yellow,,,,null,GW/peoria.png,GW/hotsprings.png,,,,,,,,,,,,,,,,,,,,,,,,
null,,rt_plussign_withcolor,388454,,yellow,,,,null,GW/peoria.png,GW/hotsprings.png,,,,,,,,,,,,,,,,,,,,,,,,
1421.0999999642372,,rt_thecrossant_black,389735,,black_plus_sign,,,,50,,,1,0.9090909090909091,,,,,,,,,,,,,,,,,,,,,,
null,,color_black,389840,,black_plus_sign,,,,null,,,,,,,,,,,,,,,,,,,,,,,,,,
null,,learn_phase(without_color),392847,,black_plus_sign,,,,null,GW/hanover.png,GW/huntsville.png,,,,,,,,,,,,,,,,,,,,,,,,
null,,black_cross(without_color),393389,,yellow,,,,null,GW/hanover.png,GW/huntsville.png,,,,,,,,,,,,,,,,,,,,,,,,
null,,rt_plussign_withcolor,393892,,yellow,,,,null,GW/hanover.png,GW/huntsville.png,,,,,,,,,,,,,,,,,,,,,,,,
1096.699999988079,,rt_thecrossant_black,395364,,black_plus_sign,,,,50,,,1,0.9166666666666666,,,,,,,,,,,,,,,,,,,,,,
null,,color_black,395470,,black_plus_sign,,,,null,,,,,,,,,,,,,,,,,,,,,,,,,,
null,,learn_phase(without_color),398481,,black_plus_sign,,,,null,GW/westpalmbeach.png,GW/hotsprings.png,,,,,,,,,,,,,,,,,,,,,,,,
null,,black_cross(without_color),399190,,blue,,,,null,GW/westpalmbeach.png,GW/hotsprings.png,,,,,,,,,,,,,,,,,,,,,,,,
null,,rt_plussign_withcolor,399694,,blue,,,,null,GW/westpalmbeach.png,GW/hotsprings.png,,,,,,,,,,,,,,,,,,,,,,,,
679.0999999642372,,rt_thecrossant_black,401001,,black_plus_sign,,,,49,,,1,0.9230769230769231,,,,,,,,,,,,,,,,,,,,,,
null,,color_black,401106,,black_plus_sign,,,,null,,,,,,,,,,,,,,,,,,,,,,,,,,
null,,learn_phase(without_color),404113,,black_plus_sign,,,,null,GW/boulder.png,GW/huntsville.png,,,,,,,,,,,,,,,,,,,,,,,,
null,,black_cross(without_color),404998,,yellow,,,,null,GW/boulder.png,GW/huntsville.png,,,,,,,,,,,,,,,,,,,,,,,,
null,,rt_plussign_withcolor,405502,,yellow,,,,null,GW/boulder.png,GW/huntsville.png,,,,,,,,,,,,,,,,,,,,,,,,
964.3999999761581,,rt_thecrossant_black,406634,,black_plus_sign,,,,50,,,1,0.9285714285714286,,,,,,,,,,,,,,,,,,,,,,
null,,color_black,406739,,black_plus_sign,,,,null,,,,,,,,,,,,,,,,,,,,,,,,,,
null,,learn_phase(without_color),409746,,black_plus_sign,,,,null,GW/carmel.png,GW/peoria.png,,,,,,,,,,,,,,,,,,,,,,,,
null,,black_cross(without_color),410424,,blue,,,,null,GW/carmel.png,GW/peoria.png,,,,,,,,,,,,,,,,,,,,,,,,
null,,rt_plussign_withcolor,410927,,blue,,,,null,GW/carmel.png,GW/peoria.png,,,,,,,,,,,,,,,,,,,,,,,,
1334.3999999761581,,rt_thecrossant_black,412259,,black_plus_sign,,,,49,,,1,0.9333333333333333,,,,,,,,,,,,,,,,,,,,,,
null,,color_black,412364,,black_plus_sign,,,,null,,,,,,,,,,,,,,,,,,,,,,,,,,
null,,learn_phase(without_color),415371,,black_plus_sign,,,,null,GW/westpalmbeach.png,GW/racine.png,,,,,,,,,,,,,,,,,,,,,,,,
null,,black_cross(without_color),416010,,blue,,,,null,GW/westpalmbeach.png,GW/racine.png,,,,,,,,,,,,,,,,,,,,,,,,
null,,rt_plussign_withcolor,416513,,blue,,,,null,GW/westpalmbeach.png,GW/racine.png,,,,,,,,,,,,,,,,,,,,,,,,
1045.6000000238419,,rt_thecrossant_black,417894,,black_plus_sign,,,,49,,,1,0.9375,,,,,,,,,,,,,,,,,,,,,,
null,,color_black,418003,,black_plus_sign,,,,null,,,,,,,,,,,,,,,,,,,,,,,,,,
null,,learn_phase(without_color),421009,,black_plus_sign,,,,null,GW/boulder.png,GW/huntsville.png,,,,,,,,,,,,,,,,,,,,,,,,
null,,black_cross(without_color),421907,,yellow,,,,null,GW/boulder.png,GW/huntsville.png,,,,,,,,,,,,,,,,,,,,,,,,
null,,rt_plussign_withcolor,422410,,yellow,,,,null,GW/boulder.png,GW/huntsville.png,,,,,,,,,,,,,,,,,,,,,,,,
1171.7999999523163,,rt_thecrossant_black,423523,,black_plus_sign,,,,50,,,1,0.9411764705882353,,,,,,,,,,,,,,,,,,,,,,
null,,color_black,423629,,black_plus_sign,,,,null,,,,,,,,,,,,,,,,,,,,,,,,,,
null,,learn_phase(without_color),426635,,black_plus_sign,,,,null,GW/hotsprings.png,GW/shreveport.png,,,,,,,,,,,,,,,,,,,,,,,,
null,,black_cross(without_color),427165,,yellow,,,,null,GW/hotsprings.png,GW/shreveport.png,,,,,,,,,,,,,,,,,,,,,,,,
null,,rt_plussign_withcolor,427668,,yellow,,,,null,GW/hotsprings.png,GW/shreveport.png,,,,,,,,,,,,,,,,,,,,,,,,
1371.8999999761581,,rt_thecrossant_black,429149,,black_plus_sign,,,,50,,,1,0.9444444444444444,,,,,,,,,,,,,,,,,,,,,,
null,,color_black,429261,,black_plus_sign,,,,null,,,,,,,,,,,,,,,,,,,,,,,,,,
null,,learn_phase(without_color),432268,,black_plus_sign,,,,null,GW/shreveport.png,GW/peoria.png,,,,,,,,,,,,,,,,,,,,,,,,
null,,black_cross(without_color),432702,,yellow,,,,null,GW/shreveport.png,GW/peoria.png,,,,,,,,,,,,,,,,,,,,,,,,
null,,rt_plussign_withcolor,433213,,yellow,,,,null,GW/shreveport.png,GW/peoria.png,,,,,,,,,,,,,,,,,,,,,,,,
778.9000000357628,,rt_thecrossant_black,434791,,black_plus_sign,,,,50,,,1,0.9473684210526315,,,,,,,,,,,,,,,,,,,,,,
null,,color_black,434897,,black_plus_sign,,,,null,,,,,,,,,,,,,,,,,,,,,,,,,,
null,,learn_phase(without_color),437902,,black_plus_sign,,,,null,GW/peoria.png,GW/newhope.png,,,,,,,,,,,,,,,,,,,,,,,,
null,,black_cross(without_color),438527,,blue,,,,null,GW/peoria.png,GW/newhope.png,,,,,,,,,,,,,,,,,,,,,,,,
null,,rt_plussign_withcolor,439035,,blue,,,,null,GW/peoria.png,GW/newhope.png,,,,,,,,,,,,,,,,,,,,,,,,
946.1000000238419,,rt_thecrossant_black,440425,,black_plus_sign,,,,49,,,1,0.95,,,,,,,,,,,,,,,,,,,,,,
null,,color_black,440530,,black_plus_sign,,,,null,,,,,,,,,,,,,,,,,,,,,,,,,,
null,,learn_phase(without_color),443541,,black_plus_sign,,,,null,GW/westpalmbeach.png,GW/boulder.png,,,,,,,,,,,,,,,,,,,,,,,,
null,,black_cross(without_color),444494,,blue,,,,null,GW/westpalmbeach.png,GW/boulder.png,,,,,,,,,,,,,,,,,,,,,,,,
null,,rt_plussign_withcolor,444997,,blue,,,,null,GW/westpalmbeach.png,GW/boulder.png,,,,,,,,,,,,,,,,,,,,,,,,
1062,,rt_thecrossant_black,446056,,black_plus_sign,,,,49,,,1,0.9523809523809523,,,,,,,,,,,,,,,,,,,,,,
null,,color_black,446163,,black_plus_sign,,,,null,,,,,,,,,,,,,,,,,,,,,,,,,,
null,,learn_phase(without_color),449171,,black_plus_sign,,,,null,GW/westpalmbeach.png,GW/hotsprings.png,,,,,,,,,,,,,,,,,,,,,,,,
null,,black_cross(without_color),449760,,blue,,,,null,GW/westpalmbeach.png,GW/hotsprings.png,,,,,,,,,,,,,,,,,,,,,,,,
null,,rt_plussign_withcolor,450264,,blue,,,,null,GW/westpalmbeach.png,GW/hotsprings.png,,,,,,,,,,,,,,,,,,,,,,,,
1449.7999999523163,,rt_thecrossant_black,451692,,black_plus_sign,,,,49,,,1,0.9545454545454546,,,,,,,,,,,,,,,,,,,,,,
null,,color_black,451799,,black_plus_sign,,,,null,,,,,,,,,,,,,,,,,,,,,,,,,,
null,,learn_phase(without_color),454805,,black_plus_sign,,,,null,GW/hotsprings.png,GW/shreveport.png,,,,,,,,,,,,,,,,,,,,,,,,
null,,black_cross(without_color),455415,,blue,,,,null,GW/hotsprings.png,GW/shreveport.png,,,,,,,,,,,,,,,,,,,,,,,,
null,,rt_plussign_withcolor,455918,,blue,,,,null,GW/hotsprings.png,GW/shreveport.png,,,,,,,,,,,,,,,,,,,,,,,,
774.9000000357628,,rt_thecrossant_black,457366,,black_plus_sign,,,,49,,,1,0.9565217391304348,,,,,,,,,,,,,,,,,,,,,,
null,,color_black,457474,,black_plus_sign,,,,null,,,,,,,,,,,,,,,,,,,,,,,,,,
null,,learn_phase(without_color),460479,,black_plus_sign,,,,null,GW/hanover.png,GW/huntsville.png,,,,,,,,,,,,,,,,,,,,,,,,
null,,black_cross(without_color),461394,,yellow,,,,null,GW/hanover.png,GW/huntsville.png,,,,,,,,,,,,,,,,,,,,,,,,
null,,rt_plussign_withcolor,461901,,yellow,,,,null,GW/hanover.png,GW/huntsville.png,,,,,,,,,,,,,,,,,,,,,,,,
877.3999999761581,,rt_thecrossant_black,462996,,black_plus_sign,,,,50,,,1,0.9583333333333334,,,,,,,,,,,,,,,,,,,,,,
null,,color_black,463101,,black_plus_sign,,,,null,,,,,,,,,,,,,,,,,,,,,,,,,,
null,,learn_phase(without_color),466107,,black_plus_sign,,,,null,GW/peoria.png,GW/hotsprings.png,,,,,,,,,,,,,,,,,,,,,,,,
null,,black_cross(without_color),466545,,yellow,,,,null,GW/peoria.png,GW/hotsprings.png,,,,,,,,,,,,,,,,,,,,,,,,
null,,rt_plussign_withcolor,467048,,yellow,,,,null,GW/peoria.png,GW/hotsprings.png,,,,,,,,,,,,,,,,,,,,,,,,
1833.5,,rt_thecrossant_black,468626,,black_plus_sign,,,,50,,,1,0.96,,,,,,,,,,,,,,,,,,,,,,
null,,color_black,468731,,black_plus_sign,,,,null,,,,,,,,,,,,,,,,,,,,,,,,,,
null,,learn_phase(without_color),471739,,black_plus_sign,,,,null,GW/newhope.png,GW/cornwall.png,,,,,,,,,,,,,,,,,,,,,,,,
null,,black_cross(without_color),472300,,yellow,,,,null,GW/newhope.png,GW/cornwall.png,,,,,,,,,,,,,,,,,,,,,,,,
null,,rt_plussign_withcolor,472804,,yellow,,,,null,GW/newhope.png,GW/cornwall.png,,,,,,,,,,,,,,,,,,,,,,,,
761.6999999880791,,rt_thecrossant_black,474256,,black_plus_sign,,,,50,,,1,0.9615384615384616,,,,,,,,,,,,,,,,,,,,,,
null,,color_black,474361,,black_plus_sign,,,,null,,,,,,,,,,,,,,,,,,,,,,,,,,
null,,learn_phase(without_color),477368,,black_plus_sign,,,,null,GW/racine.png,GW/hanover.png,,,,,,,,,,,,,,,,,,,,,,,,
null,,black_cross(without_color),477920,,blue,,,,null,GW/racine.png,GW/hanover.png,,,,,,,,,,,,,,,,,,,,,,,,
null,,rt_plussign_withcolor,478422,,blue,,,,null,GW/racine.png,GW/hanover.png,,,,,,,,,,,,,,,,,,,,,,,,
934,,rt_thecrossant_black,479884,,black_plus_sign,,,,49,,,1,0.9629629629629629,,,,,,,,,,,,,,,,,,,,,,
null,,color_black,479990,,black_plus_sign,,,,null,,,,,,,,,,,,,,,,,,,,,,,,,,
null,,learn_phase(without_color),482998,,black_plus_sign,,,,null,GW/boulder.png,GW/westpalmbeach.png,,,,,,,,,,,,,,,,,,,,,,,,
null,,black_cross(without_color),483664,,yellow,,,,null,GW/boulder.png,GW/westpalmbeach.png,,,,,,,,,,,,,,,,,,,,,,,,
null,,rt_plussign_withcolor,484167,,yellow,,,,null,GW/boulder.png,GW/westpalmbeach.png,,,,,,,,,,,,,,,,,,,,,,,,
891.3000000119209,,rt_thecrossant_black,485512,,black_plus_sign,,,,50,,,1,0.9642857142857143,,,,,,,,,,,,,,,,,,,,,,
null,,color_black,485618,,black_plus_sign,,,,null,,,,,,,,,,,,,,,,,,,,,,,,,,
null,,learn_phase(without_color),488623,,black_plus_sign,,,,null,GW/newhope.png,GW/peoria.png,,,,,,,,,,,,,,,,,,,,,,,,
null,,black_cross(without_color),489504,,yellow,,,,null,GW/newhope.png,GW/peoria.png,,,,,,,,,,,,,,,,,,,,,,,,
null,,rt_plussign_withcolor,490010,,yellow,,,,null,GW/newhope.png,GW/peoria.png,,,,,,,,,,,,,,,,,,,,,,,,
903.3999999761581,,rt_thecrossant_black,491138,,black_plus_sign,,,,50,,,1,0.9655172413793104,,,,,,,,,,,,,,,,,,,,,,
null,,color_black,491244,,black_plus_sign,,,,null,,,,,,,,,,,,,,,,,,,,,,,,,,
null,,learn_phase(without_color),494252,,black_plus_sign,,,,null,GW/newhope.png,GW/cornwall.png,,,,,,,,,,,,,,,,,,,,,,,,
null,,black_cross(without_color),495213,,blue,,,,null,GW/newhope.png,GW/cornwall.png,,,,,,,,,,,,,,,,,,,,,,,,
null,,rt_plussign_withcolor,495716,,blue,,,,null,GW/newhope.png,GW/cornwall.png,,,,,,,,,,,,,,,,,,,,,,,,
1458.5,,rt_thecrossant_black,496766,,black_plus_sign,,,,49,,,1,0.9666666666666667,,,,,,,,,,,,,,,,,,,,,,
null,,color_black,496873,,black_plus_sign,,,,null,,,,,,,,,,,,,,,,,,,,,,,,,,
null,,learn_phase(without_color),499880,,black_plus_sign,,,,null,GW/racine.png,GW/leesburg.png,,,,,,,,,,,,,,,,,,,,,,,,
null,,black_cross(without_color),500711,,yellow,,,,null,GW/racine.png,GW/leesburg.png,,,,,,,,,,,,,,,,,,,,,,,,
null,,rt_plussign_withcolor,501219,,yellow,,,,null,GW/racine.png,GW/leesburg.png,,,,,,,,,,,,,,,,,,,,,,,,
1335.8999999761581,,rt_thecrossant_black,502402,,black_plus_sign,,,,50,,,1,0.967741935483871,,,,,,,,,,,,,,,,,,,,,,
null,,color_black,502507,,black_plus_sign,,,,null,,,,,,,,,,,,,,,,,,,,,,,,,,
null,,learn_phase(without_color),505523,,black_plus_sign,,,,null,GW/leesburg.png,GW/racine.png,,,,,,,,,,,,,,,,,,,,,,,,
null,,black_cross(without_color),506120,,blue,,,,null,GW/leesburg.png,GW/racine.png,,,,,,,,,,,,,,,,,,,,,,,,
null,,rt_plussign_withcolor,506626,,blue,,,,null,GW/leesburg.png,GW/racine.png,,,,,,,,,,,,,,,,,,,,,,,,
1393.5,,rt_thecrossant_black,508039,,black_plus_sign,,,,49,,,1,0.96875,,,,,,,,,,,,,,,,,,,,,,
null,,color_black,508142,,black_plus_sign,,,,null,,,,,,,,,,,,,,,,,,,,,,,,,,
null,,learn_phase(without_color),511148,,black_plus_sign,,,,null,GW/hanover.png,GW/gatlinburg.png,,,,,,,,,,,,,,,,,,,,,,,,
null,,black_cross(without_color),511558,,blue,,,,null,GW/hanover.png,GW/gatlinburg.png,,,,,,,,,,,,,,,,,,,,,,,,
null,,rt_plussign_withcolor,512064,,blue,,,,null,GW/hanover.png,GW/gatlinburg.png,,,,,,,,,,,,,,,,,,,,,,,,
1139,,rt_thecrossant_black,513663,,black_plus_sign,,,,49,,,1,0.9696969696969697,,,,,,,,,,,,,,,,,,,,,,
null,,color_black,513768,,black_plus_sign,,,,null,,,,,,,,,,,,,,,,,,,,,,,,,,
null,,learn_phase(without_color),516774,,black_plus_sign,,,,null,GW/westpalmbeach.png,GW/racine.png,,,,,,,,,,,,,,,,,,,,,,,,
null,,black_cross(without_color),517789,,blue,,,,null,GW/westpalmbeach.png,GW/racine.png,,,,,,,,,,,,,,,,,,,,,,,,
null,,rt_plussign_withcolor,518292,,blue,,,,null,GW/westpalmbeach.png,GW/racine.png,,,,,,,,,,,,,,,,,,,,,,,,
748.3999999761581,,rt_thecrossant_black,519288,,black_plus_sign,,,,49,,,1,0.9705882352941176,,,,,,,,,,,,,,,,,,,,,,
null,,color_black,519392,,black_plus_sign,,,,null,,,,,,,,,,,,,,,,,,,,,,,,,,
null,,learn_phase(without_color),522398,,black_plus_sign,,,,null,GW/westpalmbeach.png,GW/racine.png,,,,,,,,,,,,,,,,,,,,,,,,
null,,black_cross(without_color),523131,,blue,,,,null,GW/westpalmbeach.png,GW/racine.png,,,,,,,,,,,,,,,,,,,,,,,,
null,,rt_plussign_withcolor,523642,,blue,,,,null,GW/westpalmbeach.png,GW/racine.png,,,,,,,,,,,,,,,,,,,,,,,,
1378,,rt_thecrossant_black,524929,,black_plus_sign,,,,49,,,1,0.9714285714285714,,,,,,,,,,,,,,,,,,,,,,
null,,color_black,525032,,black_plus_sign,,,,null,,,,,,,,,,,,,,,,,,,,,,,,,,
null,,learn_phase(without_color),528038,,black_plus_sign,,,,null,GW/peoria.png,GW/shreveport.png,,,,,,,,,,,,,,,,,,,,,,,,
null,,black_cross(without_color),528519,,blue,,,,null,GW/peoria.png,GW/shreveport.png,,,,,,,,,,,,,,,,,,,,,,,,
null,,rt_plussign_withcolor,529025,,blue,,,,null,GW/peoria.png,GW/shreveport.png,,,,,,,,,,,,,,,,,,,,,,,,
1279.6000000238419,,rt_thecrossant_black,530560,,black_plus_sign,,,,49,,,1,0.9722222222222222,,,,,,,,,,,,,,,,,,,,,,
null,,color_black,530664,,black_plus_sign,,,,null,,,,,,,,,,,,,,,,,,,,,,,,,,
null,,learn_phase(without_color),533670,,black_plus_sign,,,,null,GW/hotsprings.png,GW/peoria.png,,,,,,,,,,,,,,,,,,,,,,,,
null,,black_cross(without_color),534761,,blue,,,,null,GW/hotsprings.png,GW/peoria.png,,,,,,,,,,,,,,,,,,,,,,,,
null,,rt_plussign_withcolor,535263,,blue,,,,null,GW/hotsprings.png,GW/peoria.png,,,,,,,,,,,,,,,,,,,,,,,,
700.8999999761581,,rt_thecrossant_black,536184,,black_plus_sign,,,,49,,,1,0.972972972972973,,,,,,,,,,,,,,,,,,,,,,
null,,color_black,536287,,black_plus_sign,,,,null,,,,,,,,,,,,,,,,,,,,,,,,,,
null,,learn_phase(without_color),539292,,black_plus_sign,,,,null,GW/gatlinburg.png,GW/hanover.png,,,,,,,,,,,,,,,,,,,,,,,,
null,,black_cross(without_color),539956,,blue,,,,null,GW/gatlinburg.png,GW/hanover.png,,,,,,,,,,,,,,,,,,,,,,,,
null,,rt_plussign_withcolor,540458,,blue,,,,null,GW/gatlinburg.png,GW/hanover.png,,,,,,,,,,,,,,,,,,,,,,,,
1378.699999988079,,rt_thecrossant_black,541808,,black_plus_sign,,,,49,,,1,0.9736842105263158,,,,,,,,,,,,,,,,,,,,,,
null,,color_black,541916,,black_plus_sign,,,,null,,,,,,,,,,,,,,,,,,,,,,,,,,
null,,learn_phase(without_color),544922,,black_plus_sign,,,,null,GW/shreveport.png,GW/hotsprings.png,,,,,,,,,,,,,,,,,,,,,,,,
null,,black_cross(without_color),545399,,blue,,,,null,GW/shreveport.png,GW/hotsprings.png,,,,,,,,,,,,,,,,,,,,,,,,
null,,rt_plussign_withcolor,545905,,blue,,,,null,GW/shreveport.png,GW/hotsprings.png,,,,,,,,,,,,,,,,,,,,,,,,
1139.1000000238419,,rt_thecrossant_black,547436,,black_plus_sign,,,,49,,,1,0.9743589743589743,,,,,,,,,,,,,,,,,,,,,,
null,,color_black,547540,,black_plus_sign,,,,null,,,,,,,,,,,,,,,,,,,,,,,,,,
null,,learn_phase(without_color),550548,,black_plus_sign,,,,null,GW/shreveport.png,GW/boulder.png,,,,,,,,,,,,,,,,,,,,,,,,
null,,black_cross(without_color),551472,,yellow,,,,null,GW/shreveport.png,GW/boulder.png,,,,,,,,,,,,,,,,,,,,,,,,
null,,rt_plussign_withcolor,551979,,yellow,,,,null,GW/shreveport.png,GW/boulder.png,,,,,,,,,,,,,,,,,,,,,,,,
984.8000000119209,,rt_thecrossant_black,553068,,black_plus_sign,,,,50,,,1,0.975,,,,,,,,,,,,,,,,,,,,,,
null,,color_black,553173,,black_plus_sign,,,,null,,,,,,,,,,,,,,,,,,,,,,,,,,
null,,learn_phase(without_color),556179,,black_plus_sign,,,,null,GW/carmel.png,GW/peoria.png,,,,,,,,,,,,,,,,,,,,,,,,
null,,black_cross(without_color),556952,,yellow,,,,null,GW/carmel.png,GW/peoria.png,,,,,,,,,,,,,,,,,,,,,,,,
null,,rt_plussign_withcolor,557464,,yellow,,,,null,GW/carmel.png,GW/peoria.png,,,,,,,,,,,,,,,,,,,,,,,,
1301.5,,rt_thecrossant_black,558704,,black_plus_sign,,,,50,,,1,0.975609756097561,,,,,,,,,,,,,,,,,,,,,,
null,,color_black,558812,,black_plus_sign,,,,null,,,,,,,,,,,,,,,,,,,,,,,,,,
null,,learn_phase(without_color),561823,,black_plus_sign,,,,null,GW/hotsprings.png,GW/shreveport.png,,,,,,,,,,,,,,,,,,,,,,,,
null,,black_cross(without_color),562593,,blue,,,,null,GW/hotsprings.png,GW/shreveport.png,,,,,,,,,,,,,,,,,,,,,,,,
488.5,,rt_plussign_withcolor,563094,,blue,,,,49,GW/hotsprings.png,GW/shreveport.png,,,,,,,,,,,,,,,,,,,,,,,,
null,,rt_thecrossant_black,564338,,black_plus_sign,,,,null,,,1,0.9761904761904762,,,,,,,,,,,,,,,,,,,,,,
null,,color_black,564444,,black_plus_sign,,,,null,,,,,,,,,,,,,,,,,,,,,,,,,,
null,,learn_phase(without_color),567450,,black_plus_sign,,,,null,GW/hanover.png,GW/gatlinburg.png,,,,,,,,,,,,,,,,,,,,,,,,
null,,black_cross(without_color),567973,,blue,,,,null,GW/hanover.png,GW/gatlinburg.png,,,,,,,,,,,,,,,,,,,,,,,,
null,,rt_plussign_withcolor,568475,,blue,,,,null,GW/hanover.png,GW/gatlinburg.png,,,,,,,,,,,,,,,,,,,,,,,,
1236.699999988079,,rt_thecrossant_black,569960,,black_plus_sign,,,,49,,,1,0.9767441860465116,,,,,,,,,,,,,,,,,,,,,,
null,,color_black,570065,,black_plus_sign,,,,null,,,,,,,,,,,,,,,,,,,,,,,,,,
null,,learn_phase(without_color),573072,,black_plus_sign,,,,null,GW/racine.png,GW/hanover.png,,,,,,,,,,,,,,,,,,,,,,,,
null,,black_cross(without_color),573983,,yellow,,,,null,GW/racine.png,GW/hanover.png,,,,,,,,,,,,,,,,,,,,,,,,
null,,rt_plussign_withcolor,574485,,yellow,,,,null,GW/racine.png,GW/hanover.png,,,,,,,,,,,,,,,,,,,,,,,,
830.3000000119209,,rt_thecrossant_black,575585,,black_plus_sign,,,,50,,,1,0.9772727272727273,,,,,,,,,,,,,,,,,,,,,,
null,,color_black,575691,,black_plus_sign,,,,null,,,,,,,,,,,,,,,,,,,,,,,,,,
null,,learn_phase(without_color),578697,,black_plus_sign,,,,null,GW/hanover.png,GW/racine.png,,,,,,,,,,,,,,,,,,,,,,,,
null,,black_cross(without_color),579289,,blue,,,,null,GW/hanover.png,GW/racine.png,,,,,,,,,,,,,,,,,,,,,,,,
null,,rt_plussign_withcolor,579792,,blue,,,,null,GW/hanover.png,GW/racine.png,,,,,,,,,,,,,,,,,,,,,,,,
1410.6000000238419,,rt_thecrossant_black,581209,,black_plus_sign,,,,49,,,1,0.9777777777777777,,,,,,,,,,,,,,,,,,,,,,
null,,color_black,581315,,black_plus_sign,,,,null,,,,,,,,,,,,,,,,,,,,,,,,,,
null,,learn_phase(without_color),584321,,black_plus_sign,,,,null,GW/newhope.png,GW/cornwall.png,,,,,,,,,,,,,,,,,,,,,,,,
null,,black_cross(without_color),585090,,yellow,,,,null,GW/newhope.png,GW/cornwall.png,,,,,,,,,,,,,,,,,,,,,,,,
null,,rt_plussign_withcolor,585592,,yellow,,,,null,GW/newhope.png,GW/cornwall.png,,,,,,,,,,,,,,,,,,,,,,,,
923.0999999642372,,rt_thecrossant_black,586840,,black_plus_sign,,,,50,,,1,0.9782608695652174,,,,,,,,,,,,,,,,,,,,,,
null,,color_black,586944,,black_plus_sign,,,,null,,,,,,,,,,,,,,,,,,,,,,,,,,
null,,learn_phase(without_color),589950,,black_plus_sign,,,,null,GW/hanover.png,GW/huntsville.png,,,,,,,,,,,,,,,,,,,,,,,,
null,,black_cross(without_color),590886,,yellow,,,,null,GW/hanover.png,GW/huntsville.png,,,,,,,,,,,,,,,,,,,,,,,,
null,,rt_plussign_withcolor,591388,,yellow,,,,null,GW/hanover.png,GW/huntsville.png,,,,,,,,,,,,,,,,,,,,,,,,
1497.1000000238419,,rt_thecrossant_black,592462,,black_plus_sign,,,,50,,,1,0.9787234042553191,,,,,,,,,,,,,,,,,,,,,,
null,,color_black,592567,,black_plus_sign,,,,null,,,,,,,,,,,,,,,,,,,,,,,,,,
null,,learn_phase(without_color),595572,,black_plus_sign,,,,null,GW/newhope.png,GW/shreveport.png,,,,,,,,,,,,,,,,,,,,,,,,
null,,black_cross(without_color),596217,,yellow,,,,null,GW/newhope.png,GW/shreveport.png,,,,,,,,,,,,,,,,,,,,,,,,
null,,rt_plussign_withcolor,596719,,yellow,,,,null,GW/newhope.png,GW/shreveport.png,,,,,,,,,,,,,,,,,,,,,,,,
1308.8999999761581,,rt_thecrossant_black,598082,,black_plus_sign,,,,50,,,1,0.9791666666666666,,,,,,,,,,,,,,,,,,,,,,
null,,color_black,598187,,black_plus_sign,,,,null,,,,,,,,,,,,,,,,,,,,,,,,,,
null,,learn_phase(without_color),601199,,black_plus_sign,,,,null,GW/leesburg.png,GW/racine.png,,,,,,,,,,,,,,,,,,,,,,,,
null,,black_cross(without_color),602183,,blue,,,,null,GW/leesburg.png,GW/racine.png,,,,,,,,,,,,,,,,,,,,,,,,
null,,rt_plussign_withcolor,602687,,blue,,,,null,GW/leesburg.png,GW/racine.png,,,,,,,,,,,,,,,,,,,,,,,,
1101.300000011921,,rt_thecrossant_black,603716,,black_plus_sign,,,,49,,,1,0.9795918367346939,,,,,,,,,,,,,,,,,,,,,,
null,,color_black,603822,,black_plus_sign,,,,null,,,,,,,,,,,,,,,,,,,,,,,,,,
null,,learn_phase(without_color),606833,,black_plus_sign,,,,null,GW/newhope.png,GW/cornwall.png,,,,,,,,,,,,,,,,,,,,,,,,
null,,black_cross(without_color),607848,,blue,,,,null,GW/newhope.png,GW/cornwall.png,,,,,,,,,,,,,,,,,,,,,,,,
null,,rt_plussign_withcolor,608355,,blue,,,,null,GW/newhope.png,GW/cornwall.png,,,,,,,,,,,,,,,,,,,,,,,,
1278.300000011921,,rt_thecrossant_black,609357,,black_plus_sign,,,,49,,,1,0.98,,,,,,,,,,,,,,,,,,,,,,
null,,color_black,609461,,black_plus_sign,,,,null,,,,,,,,,,,,,,,,,,,,,,,,,,
null,,learn_phase(without_color),612471,,black_plus_sign,,,,null,GW/racine.png,GW/leesburg.png,,,,,,,,,,,,,,,,,,,,,,,,
null,,black_cross(without_color),613434,,blue,,,,null,GW/racine.png,GW/leesburg.png,,,,,,,,,,,,,,,,,,,,,,,,
null,,rt_plussign_withcolor,613936,,blue,,,,null,GW/racine.png,GW/leesburg.png,,,,,,,,,,,,,,,,,,,,,,,,
1406.1000000238419,,rt_thecrossant_black,614989,,black_plus_sign,,,,49,,,1,0.9803921568627451,,,,,,,,,,,,,,,,,,,,,,
null,,color_black,615095,,black_plus_sign,,,,null,,,,,,,,,,,,,,,,,,,,,,,,,,
null,,learn_phase(without_color),618101,,black_plus_sign,,,,null,GW/newhope.png,GW/cornwall.png,,,,,,,,,,,,,,,,,,,,,,,,
null,,black_cross(without_color),618974,,blue,,,,null,GW/newhope.png,GW/cornwall.png,,,,,,,,,,,,,,,,,,,,,,,,
null,,rt_plussign_withcolor,619477,,blue,,,,null,GW/newhope.png,GW/cornwall.png,,,,,,,,,,,,,,,,,,,,,,,,
1158.199999988079,,rt_thecrossant_black,620613,,black_plus_sign,,,,49,,,1,0.9807692307692307,,,,,,,,,,,,,,,,,,,,,,
null,,color_black,620718,,black_plus_sign,,,,null,,,,,,,,,,,,,,,,,,,,,,,,,,
null,,learn_phase(without_color),623727,,black_plus_sign,,,,null,GW/boulder.png,GW/shreveport.png,,,,,,,,,,,,,,,,,,,,,,,,
null,,black_cross(without_color),624154,,yellow,,,,null,GW/boulder.png,GW/shreveport.png,,,,,,,,,,,,,,,,,,,,,,,,
null,,rt_plussign_withcolor,624657,,yellow,,,,null,GW/boulder.png,GW/shreveport.png,,,,,,,,,,,,,,,,,,,,,,,,
1362.6000000238419,,rt_thecrossant_black,626248,,black_plus_sign,,,,50,,,1,0.9811320754716981,,,,,,,,,,,,,,,,,,,,,,
null,,color_black,626353,,black_plus_sign,,,,null,,,,,,,,,,,,,,,,,,,,,,,,,,
null,,learn_phase(without_color),629360,,black_plus_sign,,,,null,GW/boulder.png,GW/shreveport.png,,,,,,,,,,,,,,,,,,,,,,,,
null,,black_cross(without_color),629776,,blue,,,,null,GW/boulder.png,GW/shreveport.png,,,,,,,,,,,,,,,,,,,,,,,,
null,,rt_plussign_withcolor,630282,,blue,,,,null,GW/boulder.png,GW/shreveport.png,,,,,,,,,,,,,,,,,,,,,,,,
629.3999999761581,,rt_thecrossant_black,631883,,black_plus_sign,,,,49,,,1,0.9814814814814815,,,,,,,,,,,,,,,,,,,,,,
null,,color_black,631988,,black_plus_sign,,,,null,,,,,,,,,,,,,,,,,,,,,,,,,,
null,,learn_phase(without_color),634995,,black_plus_sign,,,,null,GW/gatlinburg.png,GW/hanover.png,,,,,,,,,,,,,,,,,,,,,,,,
null,,black_cross(without_color),635495,,yellow,,,,null,GW/gatlinburg.png,GW/hanover.png,,,,,,,,,,,,,,,,,,,,,,,,
null,,rt_plussign_withcolor,636000,,yellow,,,,null,GW/gatlinburg.png,GW/hanover.png,,,,,,,,,,,,,,,,,,,,,,,,
610.3999999761581,,rt_thecrossant_black,637511,,black_plus_sign,,,,50,,,1,0.9818181818181818,,,,,,,,,,,,,,,,,,,,,,
null,,color_black,637616,,black_plus_sign,,,,null,,,,,,,,,,,,,,,,,,,,,,,,,,
null,,learn_phase(without_color),640622,,black_plus_sign,,,,null,GW/boulder.png,GW/shreveport.png,,,,,,,,,,,,,,,,,,,,,,,,
null,,black_cross(without_color),641542,,yellow,,,,null,GW/boulder.png,GW/shreveport.png,,,,,,,,,,,,,,,,,,,,,,,,
null,,rt_plussign_withcolor,642046,,yellow,,,,null,GW/boulder.png,GW/shreveport.png,,,,,,,,,,,,,,,,,,,,,,,,
767,,rt_thecrossant_black,643136,,black_plus_sign,,,,50,,,1,0.9821428571428571,,,,,,,,,,,,,,,,,,,,,,
null,,color_black,643242,,black_plus_sign,,,,null,,,,,,,,,,,,,,,,,,,,,,,,,,
null,,learn_phase(without_color),646249,,black_plus_sign,,,,null,GW/shreveport.png,GW/peoria.png,,,,,,,,,,,,,,,,,,,,,,,,
null,,black_cross(without_color),647356,,blue,,,,null,GW/shreveport.png,GW/peoria.png,,,,,,,,,,,,,,,,,,,,,,,,
null,,rt_plussign_withcolor,647858,,blue,,,,null,GW/shreveport.png,GW/peoria.png,,,,,,,,,,,,,,,,,,,,,,,,
1403.3999999761581,,rt_thecrossant_black,648763,,black_plus_sign,,,,49,,,1,0.9824561403508771,,,,,,,,,,,,,,,,,,,,,,
null,,color_black,648869,,black_plus_sign,,,,null,,,,,,,,,,,,,,,,,,,,,,,,,,
null,,learn_phase(without_color),651877,,black_plus_sign,,,,null,GW/boulder.png,GW/westpalmbeach.png,,,,,,,,,,,,,,,,,,,,,,,,
null,,black_cross(without_color),652430,,blue,,,,null,GW/boulder.png,GW/westpalmbeach.png,,,,,,,,,,,,,,,,,,,,,,,,
null,,rt_plussign_withcolor,652936,,blue,,,,null,GW/boulder.png,GW/westpalmbeach.png,,,,,,,,,,,,,,,,,,,,,,,,
1488.800000011921,,rt_thecrossant_black,654399,,black_plus_sign,,,,49,,,1,0.9827586206896551,,,,,,,,,,,,,,,,,,,,,,
null,,color_black,654506,,black_plus_sign,,,,null,,,,,,,,,,,,,,,,,,,,,,,,,,
null,,learn_phase(without_color),657512,,black_plus_sign,,,,null,GW/peoria.png,GW/hotsprings.png,,,,,,,,,,,,,,,,,,,,,,,,
null,,black_cross(without_color),658249,,yellow,,,,null,GW/peoria.png,GW/hotsprings.png,,,,,,,,,,,,,,,,,,,,,,,,
null,,rt_plussign_withcolor,658751,,yellow,,,,null,GW/peoria.png,GW/hotsprings.png,,,,,,,,,,,,,,,,,,,,,,,,
908,,rt_thecrossant_black,660024,,black_plus_sign,,,,50,,,1,0.9830508474576272,,,,,,,,,,,,,,,,,,,,,,
null,,color_black,660130,,black_plus_sign,,,,null,,,,,,,,,,,,,,,,,,,,,,,,,,
null,,learn_phase(without_color),663136,,black_plus_sign,,,,null,GW/peoria.png,GW/carmel.png,,,,,,,,,,,,,,,,,,,,,,,,
null,,black_cross(without_color),664186,,blue,,,,null,GW/peoria.png,GW/carmel.png,,,,,,,,,,,,,,,,,,,,,,,,
null,,rt_plussign_withcolor,664688,,blue,,,,null,GW/peoria.png,GW/carmel.png,,,,,,,,,,,,,,,,,,,,,,,,
1454.699999988079,,rt_thecrossant_black,665652,,black_plus_sign,,,,49,,,1,0.9833333333333333,,,,,,,,,,,,,,,,,,,,,,
null,,color_black,665756,,black_plus_sign,,,,null,,,,,,,,,,,,,,,,,,,,,,,,,,
null,,learn_phase(without_color),668762,,black_plus_sign,,,,null,GW/boulder.png,GW/huntsville.png,,,,,,,,,,,,,,,,,,,,,,,,
null,,black_cross(without_color),669500,,yellow,,,,null,GW/boulder.png,GW/huntsville.png,,,,,,,,,,,,,,,,,,,,,,,,
null,,rt_plussign_withcolor,670007,,yellow,,,,null,GW/boulder.png,GW/huntsville.png,,,,,,,,,,,,,,,,,,,,,,,,
1413.8999999761581,,rt_thecrossant_black,671283,,black_plus_sign,,,,50,,,1,0.9836065573770492,,,,,,,,,,,,,,,,,,,,,,
null,,color_black,671389,,black_plus_sign,,,,null,,,,,,,,,,,,,,,,,,,,,,,,,,
null,,learn_phase(without_color),674399,,black_plus_sign,,,,null,GW/peoria.png,GW/carmel.png,,,,,,,,,,,,,,,,,,,,,,,,
null,,black_cross(without_color),674829,,blue,,,,null,GW/peoria.png,GW/carmel.png,,,,,,,,,,,,,,,,,,,,,,,,
null,,rt_plussign_withcolor,675332,,blue,,,,null,GW/peoria.png,GW/carmel.png,,,,,,,,,,,,,,,,,,,,,,,,
1116.300000011921,,rt_thecrossant_black,676916,,black_plus_sign,,,,49,,,1,0.9838709677419355,,,,,,,,,,,,,,,,,,,,,,
null,,color_black,677020,,black_plus_sign,,,,null,,,,,,,,,,,,,,,,,,,,,,,,,,
null,,learn_phase(without_color),680027,,black_plus_sign,,,,null,GW/racine.png,GW/hanover.png,,,,,,,,,,,,,,,,,,,,,,,,
null,,black_cross(without_color),680740,,yellow,,,,null,GW/racine.png,GW/hanover.png,,,,,,,,,,,,,,,,,,,,,,,,
null,,rt_plussign_withcolor,681243,,yellow,,,,null,GW/racine.png,GW/hanover.png,,,,,,,,,,,,,,,,,,,,,,,,
738.3000000119209,,rt_thecrossant_black,682541,,black_plus_sign,,,,50,,,1,0.9841269841269841,,,,,,,,,,,,,,,,,,,,,,
null,,color_black,682649,,black_plus_sign,,,,null,,,,,,,,,,,,,,,,,,,,,,,,,,
null,,learn_phase(without_color),685655,,black_plus_sign,,,,null,GW/gatlinburg.png,GW/hanover.png,,,,,,,,,,,,,,,,,,,,,,,,
null,,black_cross(without_color),686276,,yellow,,,,null,GW/gatlinburg.png,GW/hanover.png,,,,,,,,,,,,,,,,,,,,,,,,
null,,rt_plussign_withcolor,686779,,yellow,,,,null,GW/gatlinburg.png,GW/hanover.png,,,,,,,,,,,,,,,,,,,,,,,,
946.6999999880791,,rt_thecrossant_black,688176,,black_plus_sign,,,,50,,,1,0.984375,,,,,,,,,,,,,,,,,,,,,,
null,,color_black,688282,,black_plus_sign,,,,null,,,,,,,,,,,,,,,,,,,,,,,,,,
32350.399999976158,,learn_break,720639,,learn_break,,,,32,,,,,,,,,,,,,,,,,,,,,,,,,,
null,,html-keyboard-response,721642,,<p></p>,,,,null,,,,,,,,,,,,,,,,,,,,,,,,,,
null,,learn_phase(without_color),724647,,black_plus_sign,,,,null,GW/shreveport.png,GW/newhope.png,,,,,,,,,,,,,,,,,,,,,,,,
null,,black_cross(without_color),725619,,yellow,,,,null,GW/shreveport.png,GW/newhope.png,,,,,,,,,,,,,,,,,,,,,,,,
null,,rt_plussign_withcolor,726123,,yellow,,,,null,GW/shreveport.png,GW/newhope.png,,,,,,,,,,,,,,,,,,,,,,,,
903.0999999642372,,rt_thecrossant_black,727168,,black_plus_sign,,,,50,,,1,0.9846153846153847,,,,,,,,,,,,,,,,,,,,,,
null,,color_black,727274,,black_plus_sign,,,,null,,,,,,,,,,,,,,,,,,,,,,,,,,
null,,learn_phase(without_color),730281,,black_plus_sign,,,,null,GW/hotsprings.png,GW/shreveport.png,,,,,,,,,,,,,,,,,,,,,,,,
null,,black_cross(without_color),730736,,blue,,,,null,GW/hotsprings.png,GW/shreveport.png,,,,,,,,,,,,,,,,,,,,,,,,
null,,rt_plussign_withcolor,731240,,blue,,,,null,GW/hotsprings.png,GW/shreveport.png,,,,,,,,,,,,,,,,,,,,,,,,
1227.800000011921,,rt_thecrossant_black,732794,,black_plus_sign,,,,49,,,1,0.9848484848484849,,,,,,,,,,,,,,,,,,,,,,
null,,color_black,732899,,black_plus_sign,,,,null,,,,,,,,,,,,,,,,,,,,,,,,,,
null,,learn_phase(without_color),735906,,black_plus_sign,,,,null,GW/hotsprings.png,GW/shreveport.png,,,,,,,,,,,,,,,,,,,,,,,,
null,,black_cross(without_color),736924,,yellow,,,,null,GW/hotsprings.png,GW/shreveport.png,,,,,,,,,,,,,,,,,,,,,,,,
399.80000001192093,,rt_plussign_withcolor,737427,,yellow,,,,50,GW/hotsprings.png,GW/shreveport.png,,,,,,,,,,,,,,,,,,,,,,,,
null,,rt_thecrossant_black,738419,,black_plus_sign,,,,null,,,1,0.9850746268656716,,,,,,,,,,,,,,,,,,,,,,
null,,color_black,738523,,black_plus_sign,,,,null,,,,,,,,,,,,,,,,,,,,,,,,,,
null,,learn_phase(without_color),741531,,black_plus_sign,,,,null,GW/hotsprings.png,GW/westpalmbeach.png,,,,,,,,,,,,,,,,,,,,,,,,
null,,black_cross(without_color),742390,,blue,,,,null,GW/hotsprings.png,GW/westpalmbeach.png,,,,,,,,,,,,,,,,,,,,,,,,
null,,rt_plussign_withcolor,742892,,blue,,,,null,GW/hotsprings.png,GW/westpalmbeach.png,,,,,,,,,,,,,,,,,,,,,,,,
1310.0999999642372,,rt_thecrossant_black,744043,,black_plus_sign,,,,49,,,1,0.9852941176470589,,,,,,,,,,,,,,,,,,,,,,
null,,color_black,744147,,black_plus_sign,,,,null,,,,,,,,,,,,,,,,,,,,,,,,,,
null,,learn_phase(without_color),747153,,black_plus_sign,,,,null,GW/newhope.png,GW/shreveport.png,,,,,,,,,,,,,,,,,,,,,,,,
null,,black_cross(without_color),747713,,yellow,,,,null,GW/newhope.png,GW/shreveport.png,,,,,,,,,,,,,,,,,,,,,,,,
null,,rt_plussign_withcolor,748215,,yellow,,,,null,GW/newhope.png,GW/shreveport.png,,,,,,,,,,,,,,,,,,,,,,,,
1181.5,,rt_thecrossant_black,749675,,black_plus_sign,,,,50,,,1,0.9855072463768116,,,,,,,,,,,,,,,,,,,,,,
null,,color_black,749785,,black_plus_sign,,,,null,,,,,,,,,,,,,,,,,,,,,,,,,,
null,,learn_phase(without_color),752791,,black_plus_sign,,,,null,GW/hanover.png,GW/huntsville.png,,,,,,,,,,,,,,,,,,,,,,,,
null,,black_cross(without_color),753224,,yellow,,,,null,GW/hanover.png,GW/huntsville.png,,,,,,,,,,,,,,,,,,,,,,,,
null,,rt_plussign_withcolor,753730,,yellow,,,,null,GW/hanover.png,GW/huntsville.png,,,,,,,,,,,,,,,,,,,,,,,,
781.9000000357628,,rt_thecrossant_black,755309,,black_plus_sign,,,,50,,,1,0.9857142857142858,,,,,,,,,,,,,,,,,,,,,,
null,,color_black,755414,,black_plus_sign,,,,null,,,,,,,,,,,,,,,,,,,,,,,,,,
null,,learn_phase(without_color),758422,,black_plus_sign,,,,null,GW/westpalmbeach.png,GW/boulder.png,,,,,,,,,,,,,,,,,,,,,,,,
null,,black_cross(without_color),759363,,blue,,,,null,GW/westpalmbeach.png,GW/boulder.png,,,,,,,,,,,,,,,,,,,,,,,,
null,,rt_plussign_withcolor,759866,,blue,,,,null,GW/westpalmbeach.png,GW/boulder.png,,,,,,,,,,,,,,,,,,,,,,,,
532.5999999642372,,rt_thecrossant_black,760940,,black_plus_sign,,,,49,,,1,0.9859154929577465,,,,,,,,,,,,,,,,,,,,,,
null,,color_black,761046,,black_plus_sign,,,,null,,,,,,,,,,,,,,,,,,,,,,,,,,
null,,learn_phase(without_color),764054,,black_plus_sign,,,,null,GW/newhope.png,GW/cornwall.png,,,,,,,,,,,,,,,,,,,,,,,,
null,,black_cross(without_color),764634,,yellow,,,,null,GW/newhope.png,GW/cornwall.png,,,,,,,,,,,,,,,,,,,,,,,,
null,,rt_plussign_withcolor,765136,,yellow,,,,null,GW/newhope.png,GW/cornwall.png,,,,,,,,,,,,,,,,,,,,,,,,
1156.800000011921,,rt_thecrossant_black,766567,,black_plus_sign,,,,50,,,1,0.9861111111111112,,,,,,,,,,,,,,,,,,,,,,
null,,color_black,766672,,black_plus_sign,,,,null,,,,,,,,,,,,,,,,,,,,,,,,,,
null,,learn_phase(without_color),769680,,black_plus_sign,,,,null,GW/shreveport.png,GW/hotsprings.png,,,,,,,,,,,,,,,,,,,,,,,,
null,,black_cross(without_color),770683,,blue,,,,null,GW/shreveport.png,GW/hotsprings.png,,,,,,,,,,,,,,,,,,,,,,,,
null,,rt_plussign_withcolor,771188,,blue,,,,null,GW/shreveport.png,GW/hotsprings.png,,,,,,,,,,,,,,,,,,,,,,,,
737.5999999642372,,rt_thecrossant_black,772203,,black_plus_sign,,,,49,,,1,0.9863013698630136,,,,,,,,,,,,,,,,,,,,,,
null,,color_black,772309,,black_plus_sign,,,,null,,,,,,,,,,,,,,,,,,,,,,,,,,
null,,learn_phase(without_color),775315,,black_plus_sign,,,,null,GW/hotsprings.png,GW/westpalmbeach.png,,,,,,,,,,,,,,,,,,,,,,,,
null,,black_cross(without_color),775735,,blue,,,,null,GW/hotsprings.png,GW/westpalmbeach.png,,,,,,,,,,,,,,,,,,,,,,,,
null,,rt_plussign_withcolor,776237,,blue,,,,null,GW/hotsprings.png,GW/westpalmbeach.png,,,,,,,,,,,,,,,,,,,,,,,,
1305.9000000357628,,rt_thecrossant_black,777830,,black_plus_sign,,,,49,,,1,0.9864864864864865,,,,,,,,,,,,,,,,,,,,,,
null,,color_black,777948,,black_plus_sign,,,,null,,,,,,,,,,,,,,,,,,,,,,,,,,
null,,learn_phase(without_color),780960,,black_plus_sign,,,,null,GW/shreveport.png,GW/peoria.png,,,,,,,,,,,,,,,,,,,,,,,,
null,,black_cross(without_color),781389,,blue,,,,null,GW/shreveport.png,GW/peoria.png,,,,,,,,,,,,,,,,,,,,,,,,
null,,rt_plussign_withcolor,781895,,blue,,,,null,GW/shreveport.png,GW/peoria.png,,,,,,,,,,,,,,,,,,,,,,,,
704.8000000119209,,rt_thecrossant_black,783480,,black_plus_sign,,,,49,,,1,0.9866666666666667,,,,,,,,,,,,,,,,,,,,,,
null,,color_black,783586,,black_plus_sign,,,,null,,,,,,,,,,,,,,,,,,,,,,,,,,
null,,learn_phase(without_color),786594,,black_plus_sign,,,,null,GW/carmel.png,GW/peoria.png,,,,,,,,,,,,,,,,,,,,,,,,
null,,black_cross(without_color),787566,,yellow,,,,null,GW/carmel.png,GW/peoria.png,,,,,,,,,,,,,,,,,,,,,,,,
494.7999999523163,,rt_plussign_withcolor,788069,,yellow,,,,50,GW/carmel.png,GW/peoria.png,,,,,,,,,,,,,,,,,,,,,,,,
null,,rt_thecrossant_black,789119,,black_plus_sign,,,,null,,,1,0.9868421052631579,,,,,,,,,,,,,,,,,,,,,,
null,,color_black,789226,,black_plus_sign,,,,null,,,,,,,,,,,,,,,,,,,,,,,,,,
null,,learn_phase(without_color),792236,,black_plus_sign,,,,null,GW/boulder.png,GW/huntsville.png,,,,,,,,,,,,,,,,,,,,,,,,
null,,black_cross(without_color),792680,,blue,,,,null,GW/boulder.png,GW/huntsville.png,,,,,,,,,,,,,,,,,,,,,,,,
null,,rt_plussign_withcolor,793182,,blue,,,,null,GW/boulder.png,GW/huntsville.png,,,,,,,,,,,,,,,,,,,,,,,,
1303.2000000476837,,rt_thecrossant_black,794748,,black_plus_sign,,,,49,,,1,0.987012987012987,,,,,,,,,,,,,,,,,,,,,,
null,,color_black,794852,,black_plus_sign,,,,null,,,,,,,,,,,,,,,,,,,,,,,,,,
null,,learn_phase(without_color),797859,,black_plus_sign,,,,null,GW/leesburg.png,GW/racine.png,,,,,,,,,,,,,,,,,,,,,,,,
null,,black_cross(without_color),798747,,blue,,,,null,GW/leesburg.png,GW/racine.png,,,,,,,,,,,,,,,,,,,,,,,,
null,,rt_plussign_withcolor,799250,,blue,,,,null,GW/leesburg.png,GW/racine.png,,,,,,,,,,,,,,,,,,,,,,,,
545.5,,rt_thecrossant_black,800374,,black_plus_sign,,,,49,,,1,0.9871794871794872,,,,,,,,,,,,,,,,,,,,,,
null,,color_black,800480,,black_plus_sign,,,,null,,,,,,,,,,,,,,,,,,,,,,,,,,
null,,learn_phase(without_color),803487,,black_plus_sign,,,,null,GW/shreveport.png,GW/boulder.png,,,,,,,,,,,,,,,,,,,,,,,,
null,,black_cross(without_color),804466,,yellow,,,,null,GW/shreveport.png,GW/boulder.png,,,,,,,,,,,,,,,,,,,,,,,,
null,,rt_plussign_withcolor,804972,,yellow,,,,null,GW/shreveport.png,GW/boulder.png,,,,,,,,,,,,,,,,,,,,,,,,
1194.199999988079,,rt_thecrossant_black,806009,,black_plus_sign,,,,50,,,1,0.9873417721518988,,,,,,,,,,,,,,,,,,,,,,
null,,color_black,806113,,black_plus_sign,,,,null,,,,,,,,,,,,,,,,,,,,,,,,,,
null,,learn_phase(without_color),809123,,black_plus_sign,,,,null,GW/westpalmbeach.png,GW/hotsprings.png,,,,,,,,,,,,,,,,,,,,,,,,
null,,black_cross(without_color),810163,,yellow,,,,null,GW/westpalmbeach.png,GW/hotsprings.png,,,,,,,,,,,,,,,,,,,,,,,,
null,,rt_plussign_withcolor,810669,,yellow,,,,null,GW/westpalmbeach.png,GW/hotsprings.png,,,,,,,,,,,,,,,,,,,,,,,,
1275.699999988079,,rt_thecrossant_black,811641,,black_plus_sign,,,,50,,,1,0.9875,,,,,,,,,,,,,,,,,,,,,,
null,,color_black,811745,,black_plus_sign,,,,null,,,,,,,,,,,,,,,,,,,,,,,,,,
null,,learn_phase(without_color),814752,,black_plus_sign,,,,null,GW/hanover.png,GW/huntsville.png,,,,,,,,,,,,,,,,,,,,,,,,
null,,black_cross(without_color),815839,,blue,,,,null,GW/hanover.png,GW/huntsville.png,,,,,,,,,,,,,,,,,,,,,,,,
null,,rt_plussign_withcolor,816343,,blue,,,,null,GW/hanover.png,GW/huntsville.png,,,,,,,,,,,,,,,,,,,,,,,,
1343.9000000357628,,rt_thecrossant_black,817270,,black_plus_sign,,,,49,,,1,0.9876543209876543,,,,,,,,,,,,,,,,,,,,,,
null,,color_black,817376,,black_plus_sign,,,,null,,,,,,,,,,,,,,,,,,,,,,,,,,
null,,learn_phase(without_color),820384,,black_plus_sign,,,,null,GW/racine.png,GW/leesburg.png,,,,,,,,,,,,,,,,,,,,,,,,
null,,black_cross(without_color),821472,,blue,,,,null,GW/racine.png,GW/leesburg.png,,,,,,,,,,,,,,,,,,,,,,,,
null,,rt_plussign_withcolor,821978,,blue,,,,null,GW/racine.png,GW/leesburg.png,,,,,,,,,,,,,,,,,,,,,,,,
1332.8999999761581,,rt_thecrossant_black,822901,,black_plus_sign,,,,49,,,1,0.9878048780487805,,,,,,,,,,,,,,,,,,,,,,
null,,color_black,823007,,black_plus_sign,,,,null,,,,,,,,,,,,,,,,,,,,,,,,,,
null,,learn_phase(without_color),826013,,black_plus_sign,,,,null,GW/hanover.png,GW/huntsville.png,,,,,,,,,,,,,,,,,,,,,,,,
null,,black_cross(without_color),826806,,blue,,,,null,GW/hanover.png,GW/huntsville.png,,,,,,,,,,,,,,,,,,,,,,,,
null,,rt_plussign_withcolor,827310,,blue,,,,null,GW/hanover.png,GW/huntsville.png,,,,,,,,,,,,,,,,,,,,,,,,
1235.300000011921,,rt_thecrossant_black,828537,,black_plus_sign,,,,49,,,1,0.9879518072289156,,,,,,,,,,,,,,,,,,,,,,
null,,color_black,828642,,black_plus_sign,,,,null,,,,,,,,,,,,,,,,,,,,,,,,,,
null,,learn_phase(without_color),831651,,black_plus_sign,,,,null,GW/racine.png,GW/westpalmbeach.png,,,,,,,,,,,,,,,,,,,,,,,,
null,,black_cross(without_color),832351,,blue,,,,null,GW/racine.png,GW/westpalmbeach.png,,,,,,,,,,,,,,,,,,,,,,,,
null,,rt_plussign_withcolor,832854,,blue,,,,null,GW/racine.png,GW/westpalmbeach.png,,,,,,,,,,,,,,,,,,,,,,,,
1137,,rt_thecrossant_black,834172,,black_plus_sign,,,,49,,,1,0.9880952380952381,,,,,,,,,,,,,,,,,,,,,,
null,,color_black,834278,,black_plus_sign,,,,null,,,,,,,,,,,,,,,,,,,,,,,,,,
null,,learn_phase(without_color),837291,,black_plus_sign,,,,null,GW/boulder.png,GW/westpalmbeach.png,,,,,,,,,,,,,,,,,,,,,,,,
null,,black_cross(without_color),838008,,blue,,,,null,GW/boulder.png,GW/westpalmbeach.png,,,,,,,,,,,,,,,,,,,,,,,,
null,,rt_plussign_withcolor,838510,,blue,,,,null,GW/boulder.png,GW/westpalmbeach.png,,,,,,,,,,,,,,,,,,,,,,,,
952.5,,rt_thecrossant_black,839808,,black_plus_sign,,,,49,,,1,0.9882352941176471,,,,,,,,,,,,,,,,,,,,,,
null,,color_black,839913,,black_plus_sign,,,,null,,,,,,,,,,,,,,,,,,,,,,,,,,
null,,learn_phase(without_color),842919,,black_plus_sign,,,,null,GW/hotsprings.png,GW/peoria.png,,,,,,,,,,,,,,,,,,,,,,,,
null,,black_cross(without_color),843426,,blue,,,,null,GW/hotsprings.png,GW/peoria.png,,,,,,,,,,,,,,,,,,,,,,,,
484.5,,rt_plussign_withcolor,843928,,blue,,,,49,GW/hotsprings.png,GW/peoria.png,,,,,,,,,,,,,,,,,,,,,,,,
null,,rt_thecrossant_black,845436,,black_plus_sign,,,,null,,,1,0.9883720930232558,,,,,,,,,,,,,,,,,,,,,,
null,,color_black,845545,,black_plus_sign,,,,null,,,,,,,,,,,,,,,,,,,,,,,,,,
null,,learn_phase(without_color),848554,,black_plus_sign,,,,null,GW/peoria.png,GW/carmel.png,,,,,,,,,,,,,,,,,,,,,,,,
null,,black_cross(without_color),849407,,yellow,,,,null,GW/peoria.png,GW/carmel.png,,,,,,,,,,,,,,,,,,,,,,,,
null,,rt_plussign_withcolor,849911,,yellow,,,,null,GW/peoria.png,GW/carmel.png,,,,,,,,,,,,,,,,,,,,,,,,
702.6999999880791,,rt_thecrossant_black,851070,,black_plus_sign,,,,50,,,1,0.9885057471264368,,,,,,,,,,,,,,,,,,,,,,
null,,color_black,851175,,black_plus_sign,,,,null,,,,,,,,,,,,,,,,,,,,,,,,,,
null,,learn_phase(without_color),854183,,black_plus_sign,,,,null,GW/westpalmbeach.png,GW/boulder.png,,,,,,,,,,,,,,,,,,,,,,,,
null,,black_cross(without_color),855236,,blue,,,,null,GW/westpalmbeach.png,GW/boulder.png,,,,,,,,,,,,,,,,,,,,,,,,
null,,rt_plussign_withcolor,855739,,blue,,,,null,GW/westpalmbeach.png,GW/boulder.png,,,,,,,,,,,,,,,,,,,,,,,,
996.1000000238419,,rt_thecrossant_black,856705,,black_plus_sign,,,,49,,,1,0.9886363636363636,,,,,,,,,,,,,,,,,,,,,,
null,,color_black,856810,,black_plus_sign,,,,null,,,,,,,,,,,,,,,,,,,,,,,,,,
null,,learn_phase(without_color),859823,,black_plus_sign,,,,null,GW/boulder.png,GW/shreveport.png,,,,,,,,,,,,,,,,,,,,,,,,
null,,black_cross(without_color),860921,,blue,,,,null,GW/boulder.png,GW/shreveport.png,,,,,,,,,,,,,,,,,,,,,,,,
null,,rt_plussign_withcolor,861424,,blue,,,,null,GW/boulder.png,GW/shreveport.png,,,,,,,,,,,,,,,,,,,,,,,,
1420.300000011921,,rt_thecrossant_black,862341,,black_plus_sign,,,,49,,,1,0.9887640449438202,,,,,,,,,,,,,,,,,,,,,,
null,,color_black,862446,,black_plus_sign,,,,null,,,,,,,,,,,,,,,,,,,,,,,,,,
null,,learn_phase(without_color),865455,,black_plus_sign,,,,null,GW/huntsville.png,GW/boulder.png,,,,,,,,,,,,,,,,,,,,,,,,
null,,black_cross(without_color),866189,,yellow,,,,null,GW/huntsville.png,GW/boulder.png,,,,,,,,,,,,,,,,,,,,,,,,
null,,rt_plussign_withcolor,866693,,yellow,,,,null,GW/huntsville.png,GW/boulder.png,,,,,,,,,,,,,,,,,,,,,,,,
1305.2999999523163,,rt_thecrossant_black,867973,,black_plus_sign,,,,50,,,1,0.9888888888888889,,,,,,,,,,,,,,,,,,,,,,
null,,color_black,868079,,black_plus_sign,,,,null,,,,,,,,,,,,,,,,,,,,,,,,,,
null,,learn_phase(without_color),871086,,black_plus_sign,,,,null,GW/carmel.png,GW/peoria.png,,,,,,,,,,,,,,,,,,,,,,,,
null,,black_cross(without_color),871583,,yellow,,,,null,GW/carmel.png,GW/peoria.png,,,,,,,,,,,,,,,,,,,,,,,,
null,,rt_plussign_withcolor,872086,,yellow,,,,null,GW/carmel.png,GW/peoria.png,,,,,,,,,,,,,,,,,,,,,,,,
934.6000000238419,,rt_thecrossant_black,873601,,black_plus_sign,,,,50,,,1,0.989010989010989,,,,,,,,,,,,,,,,,,,,,,
null,,color_black,873706,,black_plus_sign,,,,null,,,,,,,,,,,,,,,,,,,,,,,,,,
null,,learn_phase(without_color),876714,,black_plus_sign,,,,null,GW/hanover.png,GW/gatlinburg.png,,,,,,,,,,,,,,,,,,,,,,,,
null,,black_cross(without_color),877174,,yellow,,,,null,GW/hanover.png,GW/gatlinburg.png,,,,,,,,,,,,,,,,,,,,,,,,
null,,rt_plussign_withcolor,877678,,yellow,,,,null,GW/hanover.png,GW/gatlinburg.png,,,,,,,,,,,,,,,,,,,,,,,,
675.4000000357628,,rt_thecrossant_black,879236,,black_plus_sign,,,,50,,,1,0.9891304347826086,,,,,,,,,,,,,,,,,,,,,,
null,,color_black,879342,,black_plus_sign,,,,null,,,,,,,,,,,,,,,,,,,,,,,,,,
null,,learn_phase(without_color),882348,,black_plus_sign,,,,null,GW/shreveport.png,GW/newhope.png,,,,,,,,,,,,,,,,,,,,,,,,
null,,black_cross(without_color),883004,,yellow,,,,null,GW/shreveport.png,GW/newhope.png,,,,,,,,,,,,,,,,,,,,,,,,
502.5999999642372,,rt_plussign_withcolor,883511,,yellow,,,,50,GW/shreveport.png,GW/newhope.png,,,,,,,,,,,,,,,,,,,,,,,,
null,,rt_thecrossant_black,884868,,black_plus_sign,,,,null,,,1,0.989247311827957,,,,,,,,,,,,,,,,,,,,,,
null,,color_black,884974,,black_plus_sign,,,,null,,,,,,,,,,,,,,,,,,,,,,,,,,
null,,learn_phase(without_color),887985,,black_plus_sign,,,,null,GW/huntsville.png,GW/hanover.png,,,,,,,,,,,,,,,,,,,,,,,,
null,,black_cross(without_color),888810,,blue,,,,null,GW/huntsville.png,GW/hanover.png,,,,,,,,,,,,,,,,,,,,,,,,
null,,rt_plussign_withcolor,889316,,blue,,,,null,GW/huntsville.png,GW/hanover.png,,,,,,,,,,,,,,,,,,,,,,,,
868.9000000357628,,rt_thecrossant_black,890502,,black_plus_sign,,,,49,,,1,0.9893617021276596,,,,,,,,,,,,,,,,,,,,,,
null,,color_black,890608,,black_plus_sign,,,,null,,,,,,,,,,,,,,,,,,,,,,,,,,
null,,learn_phase(without_color),893616,,black_plus_sign,,,,null,GW/newhope.png,GW/peoria.png,,,,,,,,,,,,,,,,,,,,,,,,
null,,black_cross(without_color),894662,,yellow,,,,null,GW/newhope.png,GW/peoria.png,,,,,,,,,,,,,,,,,,,,,,,,
null,,rt_plussign_withcolor,895168,,yellow,,,,null,GW/newhope.png,GW/peoria.png,,,,,,,,,,,,,,,,,,,,,,,,
1042.6000000238419,,rt_thecrossant_black,896133,,black_plus_sign,,,,50,,,1,0.9894736842105263,,,,,,,,,,,,,,,,,,,,,,
null,,color_black,896239,,black_plus_sign,,,,null,,,,,,,,,,,,,,,,,,,,,,,,,,
null,,learn_phase(without_color),899246,,black_plus_sign,,,,null,GW/westpalmbeach.png,GW/hotsprings.png,,,,,,,,,,,,,,,,,,,,,,,,
null,,black_cross(without_color),900222,,blue,,,,null,GW/westpalmbeach.png,GW/hotsprings.png,,,,,,,,,,,,,,,,,,,,,,,,
null,,rt_plussign_withcolor,900729,,blue,,,,null,GW/westpalmbeach.png,GW/hotsprings.png,,,,,,,,,,,,,,,,,,,,,,,,
1194.4000000357628,,rt_thecrossant_black,901773,,black_plus_sign,,,,49,,,1,0.9895833333333334,,,,,,,,,,,,,,,,,,,,,,
null,,color_black,901877,,black_plus_sign,,,,null,,,,,,,,,,,,,,,,,,,,,,,,,,
null,,learn_phase(without_color),904889,,black_plus_sign,,,,null,GW/racine.png,GW/westpalmbeach.png,,,,,,,,,,,,,,,,,,,,,,,,
null,,black_cross(without_color),905706,,blue,,,,null,GW/racine.png,GW/westpalmbeach.png,,,,,,,,,,,,,,,,,,,,,,,,
null,,rt_plussign_withcolor,906209,,blue,,,,null,GW/racine.png,GW/westpalmbeach.png,,,,,,,,,,,,,,,,,,,,,,,,
1294.699999988079,,rt_thecrossant_black,907406,,black_plus_sign,,,,49,,,1,0.9896907216494846,,,,,,,,,,,,,,,,,,,,,,
null,,color_black,907510,,black_plus_sign,,,,null,,,,,,,,,,,,,,,,,,,,,,,,,,
null,,learn_phase(without_color),910517,,black_plus_sign,,,,null,GW/shreveport.png,GW/newhope.png,,,,,,,,,,,,,,,,,,,,,,,,
null,,black_cross(without_color),910965,,yellow,,,,null,GW/shreveport.png,GW/newhope.png,,,,,,,,,,,,,,,,,,,,,,,,
null,,rt_plussign_withcolor,911468,,yellow,,,,null,GW/shreveport.png,GW/newhope.png,,,,,,,,,,,,,,,,,,,,,,,,
1123.1000000238419,,rt_thecrossant_black,913032,,black_plus_sign,,,,50,,,1,0.9897959183673469,,,,,,,,,,,,,,,,,,,,,,
null,,color_black,913136,,black_plus_sign,,,,null,,,,,,,,,,,,,,,,,,,,,,,,,,
null,,learn_phase(without_color),916143,,black_plus_sign,,,,null,GW/peoria.png,GW/newhope.png,,,,,,,,,,,,,,,,,,,,,,,,
null,,black_cross(without_color),916875,,blue,,,,null,GW/peoria.png,GW/newhope.png,,,,,,,,,,,,,,,,,,,,,,,,
null,,rt_plussign_withcolor,917381,,blue,,,,null,GW/peoria.png,GW/newhope.png,,,,,,,,,,,,,,,,,,,,,,,,
713.8000000119209,,rt_thecrossant_black,918664,,black_plus_sign,,,,49,,,1,0.98989898989899,,,,,,,,,,,,,,,,,,,,,,
null,,color_black,918771,,black_plus_sign,,,,null,,,,,,,,,,,,,,,,,,,,,,,,,,
null,,learn_phase(without_color),921779,,black_plus_sign,,,,null,GW/westpalmbeach.png,GW/racine.png,,,,,,,,,,,,,,,,,,,,,,,,
null,,black_cross(without_color),922346,,blue,,,,null,GW/westpalmbeach.png,GW/racine.png,,,,,,,,,,,,,,,,,,,,,,,,
491,,rt_plussign_withcolor,922849,,blue,,,,49,GW/westpalmbeach.png,GW/racine.png,,,,,,,,,,,,,,,,,,,,,,,,
null,,rt_thecrossant_black,924294,,black_plus_sign,,,,null,,,1,0.99,,,,,,,,,,,,,,,,,,,,,,
null,,color_black,924399,,black_plus_sign,,,,null,,,,,,,,,,,,,,,,,,,,,,,,,,
null,,learn_phase(without_color),927406,,black_plus_sign,,,,null,GW/gatlinburg.png,GW/hanover.png,,,,,,,,,,,,,,,,,,,,,,,,
null,,black_cross(without_color),928146,,yellow,,,,null,GW/gatlinburg.png,GW/hanover.png,,,,,,,,,,,,,,,,,,,,,,,,
null,,rt_plussign_withcolor,928651,,yellow,,,,null,GW/gatlinburg.png,GW/hanover.png,,,,,,,,,,,,,,,,,,,,,,,,
701.6000000238419,,rt_thecrossant_black,929923,,black_plus_sign,,,,50,,,1,0.9900990099009901,,,,,,,,,,,,,,,,,,,,,,
null,,color_black,930028,,black_plus_sign,,,,null,,,,,,,,,,,,,,,,,,,,,,,,,,
null,,learn_phase(without_color),933036,,black_plus_sign,,,,null,GW/huntsville.png,GW/boulder.png,,,,,,,,,,,,,,,,,,,,,,,,
null,,black_cross(without_color),933744,,yellow,,,,null,GW/huntsville.png,GW/boulder.png,,,,,,,,,,,,,,,,,,,,,,,,
null,,rt_plussign_withcolor,934247,,yellow,,,,null,GW/huntsville.png,GW/boulder.png,,,,,,,,,,,,,,,,,,,,,,,,
1009.6999999880791,,rt_thecrossant_black,935552,,black_plus_sign,,,,50,,,1,0.9901960784313726,,,,,,,,,,,,,,,,,,,,,,
null,,color_black,935675,,black_plus_sign,,,,null,,,,,,,,,,,,,,,,,,,,,,,,,,
null,,learn_phase(without_color),938683,,black_plus_sign,,,,null,GW/racine.png,GW/hanover.png,,,,,,,,,,,,,,,,,,,,,,,,
null,,black_cross(without_color),939271,,blue,,,,null,GW/racine.png,GW/hanover.png,,,,,,,,,,,,,,,,,,,,,,,,
null,,rt_plussign_withcolor,939774,,blue,,,,null,GW/racine.png,GW/hanover.png,,,,,,,,,,,,,,,,,,,,,,,,
1036.300000011921,,rt_thecrossant_black,941195,,black_plus_sign,,,,49,,,1,0.9902912621359223,,,,,,,,,,,,,,,,,,,,,,
null,,color_black,941300,,black_plus_sign,,,,null,,,,,,,,,,,,,,,,,,,,,,,,,,
null,,learn_phase(without_color),944307,,black_plus_sign,,,,null,GW/peoria.png,GW/shreveport.png,,,,,,,,,,,,,,,,,,,,,,,,
null,,black_cross(without_color),945313,,yellow,,,,null,GW/peoria.png,GW/shreveport.png,,,,,,,,,,,,,,,,,,,,,,,,
null,,rt_plussign_withcolor,945817,,yellow,,,,null,GW/peoria.png,GW/shreveport.png,,,,,,,,,,,,,,,,,,,,,,,,
709.1000000238419,,rt_thecrossant_black,946824,,black_plus_sign,,,,50,,,1,0.9903846153846154,,,,,,,,,,,,,,,,,,,,,,
null,,color_black,946933,,black_plus_sign,,,,null,,,,,,,,,,,,,,,,,,,,,,,,,,
null,,learn_phase(without_color),949945,,black_plus_sign,,,,null,GW/newhope.png,GW/shreveport.png,,,,,,,,,,,,,,,,,,,,,,,,
null,,black_cross(without_color),950386,,blue,,,,null,GW/newhope.png,GW/shreveport.png,,,,,,,,,,,,,,,,,,,,,,,,
null,,rt_plussign_withcolor,950889,,blue,,,,null,GW/newhope.png,GW/shreveport.png,,,,,,,,,,,,,,,,,,,,,,,,
1259.199999988079,,rt_thecrossant_black,952462,,black_plus_sign,,,,49,,,1,0.9904761904761905,,,,,,,,,,,,,,,,,,,,,,
null,,color_black,952567,,black_plus_sign,,,,null,,,,,,,,,,,,,,,,,,,,,,,,,,
null,,learn_phase(without_color),955574,,black_plus_sign,,,,null,GW/shreveport.png,GW/newhope.png,,,,,,,,,,,,,,,,,,,,,,,,
null,,black_cross(without_color),956370,,blue,,,,null,GW/shreveport.png,GW/newhope.png,,,,,,,,,,,,,,,,,,,,,,,,
null,,rt_plussign_withcolor,956878,,blue,,,,null,GW/shreveport.png,GW/newhope.png,,,,,,,,,,,,,,,,,,,,,,,,
543.8000000119209,,rt_thecrossant_black,958092,,black_plus_sign,,,,49,,,1,0.9905660377358491,,,,,,,,,,,,,,,,,,,,,,
null,,color_black,958199,,black_plus_sign,,,,null,,,,,,,,,,,,,,,,,,,,,,,,,,
null,,learn_phase(without_color),961207,,black_plus_sign,,,,null,GW/racine.png,GW/westpalmbeach.png,,,,,,,,,,,,,,,,,,,,,,,,
null,,black_cross(without_color),961629,,yellow,,,,null,GW/racine.png,GW/westpalmbeach.png,,,,,,,,,,,,,,,,,,,,,,,,
null,,rt_plussign_withcolor,962135,,yellow,,,,null,GW/racine.png,GW/westpalmbeach.png,,,,,,,,,,,,,,,,,,,,,,,,
1018.2999999523163,,rt_thecrossant_black,963724,,black_plus_sign,,,,50,,,1,0.9906542056074766,,,,,,,,,,,,,,,,,,,,,,
null,,color_black,963829,,black_plus_sign,,,,null,,,,,,,,,,,,,,,,,,,,,,,,,,
null,,learn_phase(without_color),966836,,black_plus_sign,,,,null,GW/racine.png,GW/leesburg.png,,,,,,,,,,,,,,,,,,,,,,,,
null,,black_cross(without_color),967773,,blue,,,,null,GW/racine.png,GW/leesburg.png,,,,,,,,,,,,,,,,,,,,,,,,
null,,rt_plussign_withcolor,968275,,blue,,,,null,GW/racine.png,GW/leesburg.png,,,,,,,,,,,,,,,,,,,,,,,,
899.1999999880791,,rt_thecrossant_black,969351,,black_plus_sign,,,,49,,,1,0.9907407407407407,,,,,,,,,,,,,,,,,,,,,,
null,,color_black,969456,,black_plus_sign,,,,null,,,,,,,,,,,,,,,,,,,,,,,,,,
null,,learn_phase(without_color),972463,,black_plus_sign,,,,null,GW/gatlinburg.png,GW/hanover.png,,,,,,,,,,,,,,,,,,,,,,,,
null,,black_cross(without_color),973231,,yellow,,,,null,GW/gatlinburg.png,GW/hanover.png,,,,,,,,,,,,,,,,,,,,,,,,
null,,rt_plussign_withcolor,973736,,yellow,,,,null,GW/gatlinburg.png,GW/hanover.png,,,,,,,,,,,,,,,,,,,,,,,,
1085.4000000357628,,rt_thecrossant_black,974979,,black_plus_sign,,,,50,,,1,0.9908256880733946,,,,,,,,,,,,,,,,,,,,,,
null,,color_black,975090,,black_plus_sign,,,,null,,,,,,,,,,,,,,,,,,,,,,,,,,
null,,learn_phase(without_color),978099,,black_plus_sign,,,,null,GW/shreveport.png,GW/boulder.png,,,,,,,,,,,,,,,,,,,,,,,,
null,,black_cross(without_color),978706,,blue,,,,null,GW/shreveport.png,GW/boulder.png,,,,,,,,,,,,,,,,,,,,,,,,
null,,rt_plussign_withcolor,979210,,blue,,,,null,GW/shreveport.png,GW/boulder.png,,,,,,,,,,,,,,,,,,,,,,,,
1095.9000000357628,,rt_thecrossant_black,980615,,black_plus_sign,,,,49,,,1,0.990909090909091,,,,,,,,,,,,,,,,,,,,,,
null,,color_black,980721,,black_plus_sign,,,,null,,,,,,,,,,,,,,,,,,,,,,,,,,
null,,learn_phase(without_color),983728,,black_plus_sign,,,,null,GW/racine.png,GW/hanover.png,,,,,,,,,,,,,,,,,,,,,,,,
null,,black_cross(without_color),984747,,yellow,,,,null,GW/racine.png,GW/hanover.png,,,,,,,,,,,,,,,,,,,,,,,,
null,,rt_plussign_withcolor,985251,,yellow,,,,null,GW/racine.png,GW/hanover.png,,,,,,,,,,,,,,,,,,,,,,,,
736.6000000238419,,rt_thecrossant_black,986241,,black_plus_sign,,,,50,,,1,0.990990990990991,,,,,,,,,,,,,,,,,,,,,,
null,,color_black,986347,,black_plus_sign,,,,null,,,,,,,,,,,,,,,,,,,,,,,,,,
null,,learn_phase(without_color),989355,,black_plus_sign,,,,null,GW/newhope.png,GW/cornwall.png,,,,,,,,,,,,,,,,,,,,,,,,
null,,black_cross(without_color),989946,,blue,,,,null,GW/newhope.png,GW/cornwall.png,,,,,,,,,,,,,,,,,,,,,,,,
419,,rt_plussign_withcolor,990451,,blue,,,,49,GW/newhope.png,GW/cornwall.png,,,,,,,,,,,,,,,,,,,,,,,,
null,,rt_thecrossant_black,991874,,black_plus_sign,,,,null,,,1,0.9910714285714286,,,,,,,,,,,,,,,,,,,,,,
null,,color_black,991979,,black_plus_sign,,,,null,,,,,,,,,,,,,,,,,,,,,,,,,,
null,,learn_phase(without_color),994990,,black_plus_sign,,,,null,GW/peoria.png,GW/shreveport.png,,,,,,,,,,,,,,,,,,,,,,,,
null,,black_cross(without_color),995821,,blue,,,,null,GW/peoria.png,GW/shreveport.png,,,,,,,,,,,,,,,,,,,,,,,,
null,,rt_plussign_withcolor,996324,,blue,,,,null,GW/peoria.png,GW/shreveport.png,,,,,,,,,,,,,,,,,,,,,,,,
781.8999999761581,,rt_thecrossant_black,997506,,black_plus_sign,,,,49,,,1,0.9911504424778761,,,,,,,,,,,,,,,,,,,,,,
null,,color_black,997612,,black_plus_sign,,,,null,,,,,,,,,,,,,,,,,,,,,,,,,,
null,,learn_phase(without_color),1000620,,black_plus_sign,,,,null,GW/newhope.png,GW/peoria.png,,,,,,,,,,,,,,,,,,,,,,,,
null,,black_cross(without_color),1001691,,yellow,,,,null,GW/newhope.png,GW/peoria.png,,,,,,,,,,,,,,,,,,,,,,,,
null,,rt_plussign_withcolor,1002193,,yellow,,,,null,GW/newhope.png,GW/peoria.png,,,,,,,,,,,,,,,,,,,,,,,,
1007,,rt_thecrossant_black,1003133,,black_plus_sign,,,,50,,,1,0.9912280701754386,,,,,,,,,,,,,,,,,,,,,,
null,,color_black,1003244,,black_plus_sign,,,,null,,,,,,,,,,,,,,,,,,,,,,,,,,
null,,learn_phase(without_color),1006254,,black_plus_sign,,,,null,GW/hotsprings.png,GW/shreveport.png,,,,,,,,,,,,,,,,,,,,,,,,
null,,black_cross(without_color),1006790,,blue,,,,null,GW/hotsprings.png,GW/shreveport.png,,,,,,,,,,,,,,,,,,,,,,,,
null,,rt_plussign_withcolor,1007293,,blue,,,,null,GW/hotsprings.png,GW/shreveport.png,,,,,,,,,,,,,,,,,,,,,,,,
1394.9000000357628,,rt_thecrossant_black,1008769,,black_plus_sign,,,,49,,,1,0.991304347826087,,,,,,,,,,,,,,,,,,,,,,
null,,color_black,1008874,,black_plus_sign,,,,null,,,,,,,,,,,,,,,,,,,,,,,,,,
null,,learn_phase(without_color),1011888,,black_plus_sign,,,,null,GW/hanover.png,GW/racine.png,,,,,,,,,,,,,,,,,,,,,,,,
null,,black_cross(without_color),1012722,,yellow,,,,null,GW/hanover.png,GW/racine.png,,,,,,,,,,,,,,,,,,,,,,,,
null,,rt_plussign_withcolor,1013235,,yellow,,,,null,GW/hanover.png,GW/racine.png,,,,,,,,,,,,,,,,,,,,,,,,
741.8999999761581,,rt_thecrossant_black,1014413,,black_plus_sign,,,,50,,,1,0.9913793103448276,,,,,,,,,,,,,,,,,,,,,,
null,,color_black,1014521,,black_plus_sign,,,,null,,,,,,,,,,,,,,,,,,,,,,,,,,
null,,learn_phase(without_color),1017528,,black_plus_sign,,,,null,GW/peoria.png,GW/hotsprings.png,,,,,,,,,,,,,,,,,,,,,,,,
null,,black_cross(without_color),1018189,,blue,,,,null,GW/peoria.png,GW/hotsprings.png,,,,,,,,,,,,,,,,,,,,,,,,
null,,rt_plussign_withcolor,1018692,,blue,,,,null,GW/peoria.png,GW/hotsprings.png,,,,,,,,,,,,,,,,,,,,,,,,
1089,,rt_thecrossant_black,1020042,,black_plus_sign,,,,49,,,1,0.9914529914529915,,,,,,,,,,,,,,,,,,,,,,
null,,color_black,1020146,,black_plus_sign,,,,null,,,,,,,,,,,,,,,,,,,,,,,,,,
null,,learn_phase(without_color),1023154,,black_plus_sign,,,,null,GW/boulder.png,GW/westpalmbeach.png,,,,,,,,,,,,,,,,,,,,,,,,
null,,black_cross(without_color),1023655,,blue,,,,null,GW/boulder.png,GW/westpalmbeach.png,,,,,,,,,,,,,,,,,,,,,,,,
null,,rt_plussign_withcolor,1024157,,blue,,,,null,GW/boulder.png,GW/westpalmbeach.png,,,,,,,,,,,,,,,,,,,,,,,,
798.8000000119209,,rt_thecrossant_black,1025670,,black_plus_sign,,,,49,,,1,0.9915254237288136,,,,,,,,,,,,,,,,,,,,,,
null,,color_black,1025777,,black_plus_sign,,,,null,,,,,,,,,,,,,,,,,,,,,,,,,,
null,,learn_phase(without_color),1028785,,black_plus_sign,,,,null,GW/hotsprings.png,GW/westpalmbeach.png,,,,,,,,,,,,,,,,,,,,,,,,
null,,black_cross(without_color),1029371,,yellow,,,,null,GW/hotsprings.png,GW/westpalmbeach.png,,,,,,,,,,,,,,,,,,,,,,,,
null,,rt_plussign_withcolor,1029876,,yellow,,,,null,GW/hotsprings.png,GW/westpalmbeach.png,,,,,,,,,,,,,,,,,,,,,,,,
688.4000000357628,,rt_thecrossant_black,1031302,,black_plus_sign,,,,50,,,1,0.9915966386554622,,,,,,,,,,,,,,,,,,,,,,
null,,color_black,1031410,,black_plus_sign,,,,null,,,,,,,,,,,,,,,,,,,,,,,,,,
null,,learn_phase(without_color),1034418,,black_plus_sign,,,,null,GW/hotsprings.png,GW/peoria.png,,,,,,,,,,,,,,,,,,,,,,,,
null,,black_cross(without_color),1035358,,blue,,,,null,GW/hotsprings.png,GW/peoria.png,,,,,,,,,,,,,,,,,,,,,,,,
410.5,,rt_plussign_withcolor,1035861,,blue,,,,49,GW/hotsprings.png,GW/peoria.png,,,,,,,,,,,,,,,,,,,,,,,,
null,,rt_thecrossant_black,1036937,,black_plus_sign,,,,null,,,1,0.9916666666666667,,,,,,,,,,,,,,,,,,,,,,
null,,color_black,1037041,,black_plus_sign,,,,null,,,,,,,,,,,,,,,,,,,,,,,,,,
null,,learn_phase(without_color),1040048,,black_plus_sign,,,,null,GW/peoria.png,GW/newhope.png,,,,,,,,,,,,,,,,,,,,,,,,
null,,black_cross(without_color),1040660,,yellow,,,,null,GW/peoria.png,GW/newhope.png,,,,,,,,,,,,,,,,,,,,,,,,
449.5999999642372,,rt_plussign_withcolor,1041165,,yellow,,,,50,GW/peoria.png,GW/newhope.png,,,,,,,,,,,,,,,,,,,,,,,,
null,,rt_thecrossant_black,1042562,,black_plus_sign,,,,null,,,1,0.9917355371900827,,,,,,,,,,,,,,,,,,,,,,
null,,color_black,1042668,,black_plus_sign,,,,null,,,,,,,,,,,,,,,,,,,,,,,,,,
null,,learn_phase(without_color),1045675,,black_plus_sign,,,,null,GW/boulder.png,GW/huntsville.png,,,,,,,,,,,,,,,,,,,,,,,,
null,,black_cross(without_color),1046401,,blue,,,,null,GW/boulder.png,GW/huntsville.png,,,,,,,,,,,,,,,,,,,,,,,,
null,,rt_plussign_withcolor,1046905,,blue,,,,null,GW/boulder.png,GW/huntsville.png,,,,,,,,,,,,,,,,,,,,,,,,
856,,rt_thecrossant_black,1048192,,black_plus_sign,,,,49,,,1,0.9918032786885246,,,,,,,,,,,,,,,,,,,,,,
null,,color_black,1048298,,black_plus_sign,,,,null,,,,,,,,,,,,,,,,,,,,,,,,,,
null,,learn_phase(without_color),1051305,,black_plus_sign,,,,null,GW/racine.png,GW/westpalmbeach.png,,,,,,,,,,,,,,,,,,,,,,,,
null,,black_cross(without_color),1052409,,blue,,,,null,GW/racine.png,GW/westpalmbeach.png,,,,,,,,,,,,,,,,,,,,,,,,
null,,rt_plussign_withcolor,1052915,,blue,,,,null,GW/racine.png,GW/westpalmbeach.png,,,,,,,,,,,,,,,,,,,,,,,,
850,,rt_thecrossant_black,1053820,,black_plus_sign,,,,49,,,1,0.991869918699187,,,,,,,,,,,,,,,,,,,,,,
null,,color_black,1053926,,black_plus_sign,,,,null,,,,,,,,,,,,,,,,,,,,,,,,,,
null,,learn_phase(without_color),1056936,,black_plus_sign,,,,null,GW/shreveport.png,GW/peoria.png,,,,,,,,,,,,,,,,,,,,,,,,
null,,black_cross(without_color),1057775,,blue,,,,null,GW/shreveport.png,GW/peoria.png,,,,,,,,,,,,,,,,,,,,,,,,
416.7999999523163,,rt_plussign_withcolor,1058278,,blue,,,,49,GW/shreveport.png,GW/peoria.png,,,,,,,,,,,,,,,,,,,,,,,,
null,,rt_thecrossant_black,1059452,,black_plus_sign,,,,null,,,1,0.9919354838709677,,,,,,,,,,,,,,,,,,,,,,
null,,color_black,1059557,,black_plus_sign,,,,null,,,,,,,,,,,,,,,,,,,,,,,,,,
null,,learn_phase(without_color),1062570,,black_plus_sign,,,,null,GW/racine.png,GW/leesburg.png,,,,,,,,,,,,,,,,,,,,,,,,
null,,black_cross(without_color),1063080,,blue,,,,null,GW/racine.png,GW/leesburg.png,,,,,,,,,,,,,,,,,,,,,,,,
null,,rt_plussign_withcolor,1063582,,blue,,,,null,GW/racine.png,GW/leesburg.png,,,,,,,,,,,,,,,,,,,,,,,,
1047.4000000357628,,rt_thecrossant_black,1065087,,black_plus_sign,,,,49,,,1,0.992,,,,,,,,,,,,,,,,,,,,,,
null,,color_black,1065192,,black_plus_sign,,,,null,,,,,,,,,,,,,,,,,,,,,,,,,,
null,,learn_phase(without_color),1068199,,black_plus_sign,,,,null,GW/shreveport.png,GW/boulder.png,,,,,,,,,,,,,,,,,,,,,,,,
null,,black_cross(without_color),1069266,,blue,,,,null,GW/shreveport.png,GW/boulder.png,,,,,,,,,,,,,,,,,,,,,,,,
null,,rt_plussign_withcolor,1069769,,blue,,,,null,GW/shreveport.png,GW/boulder.png,,,,,,,,,,,,,,,,,,,,,,,,
690.8999999761581,,rt_thecrossant_black,1070717,,black_plus_sign,,,,49,,,1,0.9920634920634921,,,,,,,,,,,,,,,,,,,,,,
null,,color_black,1070822,,black_plus_sign,,,,null,,,,,,,,,,,,,,,,,,,,,,,,,,
null,,learn_phase(without_color),1073830,,black_plus_sign,,,,null,GW/carmel.png,GW/peoria.png,,,,,,,,,,,,,,,,,,,,,,,,
null,,black_cross(without_color),1074762,,yellow,,,,null,GW/carmel.png,GW/peoria.png,,,,,,,,,,,,,,,,,,,,,,,,
null,,rt_plussign_withcolor,1075268,,yellow,,,,null,GW/carmel.png,GW/peoria.png,,,,,,,,,,,,,,,,,,,,,,,,
1186.4000000357628,,rt_thecrossant_black,1076351,,black_plus_sign,,,,50,,,1,0.9921259842519685,,,,,,,,,,,,,,,,,,,,,,
null,,color_black,1076457,,black_plus_sign,,,,null,,,,,,,,,,,,,,,,,,,,,,,,,,
null,,learn_phase(without_color),1079467,,black_plus_sign,,,,null,GW/shreveport.png,GW/peoria.png,,,,,,,,,,,,,,,,,,,,,,,,
null,,black_cross(without_color),1080349,,blue,,,,null,GW/shreveport.png,GW/peoria.png,,,,,,,,,,,,,,,,,,,,,,,,
null,,rt_plussign_withcolor,1080853,,blue,,,,null,GW/shreveport.png,GW/peoria.png,,,,,,,,,,,,,,,,,,,,,,,,
1187.6000000238419,,rt_thecrossant_black,1081985,,black_plus_sign,,,,49,,,1,0.9921875,,,,,,,,,,,,,,,,,,,,,,
null,,color_black,1082093,,black_plus_sign,,,,null,,,,,,,,,,,,,,,,,,,,,,,,,,
49901,,learn_break,1132008,,learn_break,,,,32,,,,,,,,,,,,,,,,,,,,,,,,,,
23619.400000035763,,intro_1,1155636,,instruct,,0,Start,,,,,,,,,,,,,,,,,,,,,,,,,,,
1513.8999999761581,,directmemory_phase,1157161,,GW/hotsprings.png,,,,50,,,1,1,GW/racine.png,GW/peoria.png,GW/cornwall.png,GW/peoria.png,GW/racine.png,GW/cornwall.png,1,,,,,,,,,,,,,,,
null,,html-keyboard-response,1158172,,<p></p>,,,,null,,,,,,,,,,,,,,,,,,,,,,,,,,
1183.0999999642372,,directmemory_phase,1159361,,GW/cornwall.png,,,,51,,,1,1,GW/huntsville.png,GW/shreveport.png,GW/newhope.png,GW/newhope.png,GW/shreveport.png,GW/huntsville.png,1,,,,,,,,,,,,,,,
null,,html-keyboard-response,1160368,,<p></p>,,,,null,,,,,,,,,,,,,,,,,,,,,,,,,,
1104.2000000476837,,directmemory_phase,1161485,,GW/leesburg.png,,,,50,,,1,1,GW/westpalmbeach.png,GW/racine.png,GW/shreveport.png,GW/racine.png,GW/westpalmbeach.png,GW/shreveport.png,1,,,,,,,,,,,,,,,
null,,html-keyboard-response,1162492,,<p></p>,,,,null,,,,,,,,,,,,,,,,,,,,,,,,,,
3531.699999988079,,directmemory_phase,1166035,,GW/peoria.png,,,,49,,,1,1,GW/shreveport.png,GW/leesburg.png,GW/westpalmbeach.png,GW/shreveport.png,GW/westpalmbeach.png,GW/leesburg.png,1,,,,,,,,,,,,,,,
null,,html-keyboard-response,1167044,,<p></p>,,,,null,,,,,,,,,,,,,,,,,,,,,,,,,,
2659.2999999523163,,directmemory_phase,1169709,,GW/westpalmbeach.png,,,,49,,,1,1,GW/boulder.png,GW/gatlinburg.png,GW/shreveport.png,GW/boulder.png,GW/shreveport.png,GW/gatlinburg.png,1,,,,,,,,,,,,,,,
null,,html-keyboard-response,1170722,,<p></p>,,,,null,,,,,,,,,,,,,,,,,,,,,,,,,,
1355,,directmemory_phase,1172083,,GW/hanover.png,,,,51,,,1,1,GW/shreveport.png,GW/leesburg.png,GW/gatlinburg.png,GW/gatlinburg.png,GW/leesburg.png,GW/shreveport.png,1,,,,,,,,,,,,,,,
null,,html-keyboard-response,1173091,,<p></p>,,,,null,,,,,,,,,,,,,,,,,,,,,,,,,,
2748.600000023842,,directmemory_phase,1175844,,GW/boulder.png,,,,51,,,1,1,GW/gatlinburg.png,GW/newhope.png,GW/shreveport.png,GW/shreveport.png,GW/newhope.png,GW/gatlinburg.png,1,,,,,,,,,,,,,,,
null,,html-keyboard-response,1176851,,<p></p>,,,,null,,,,,,,,,,,,,,,,,,,,,,,,,,
1579.4000000357628,,directmemory_phase,1178449,,GW/hanover.png,,,,51,,,1,1,GW/newhope.png,GW/westpalmbeach.png,GW/racine.png,GW/racine.png,GW/westpalmbeach.png,GW/newhope.png,1,,,,,,,,,,,,,,,
null,,html-keyboard-response,1179468,,<p></p>,,,,null,,,,,,,,,,,,,,,,,,,,,,,,,,
1320.5999999642372,,directmemory_phase,1180794,,GW/newhope.png,,,,49,,,1,1,GW/shreveport.png,GW/westpalmbeach.png,GW/hotsprings.png,GW/shreveport.png,GW/hotsprings.png,GW/westpalmbeach.png,1,,,,,,,,,,,,,,,
null,,html-keyboard-response,1181800,,<p></p>,,,,null,,,,,,,,,,,,,,,,,,,,,,,,,,
3475.600000023842,,directmemory_phase,1185282,,GW/boulder.png,,,,49,,,1,1,GW/huntsville.png,GW/cornwall.png,GW/hotsprings.png,GW/huntsville.png,GW/hotsprings.png,GW/cornwall.png,1,,,,,,,,,,,,,,,
null,,html-keyboard-response,1186291,,<p></p>,,,,null,,,,,,,,,,,,,,,,,,,,,,,,,,
1594.199999988079,,directmemory_phase,1187896,,GW/newhope.png,,,,49,,,1,1,GW/peoria.png,GW/westpalmbeach.png,GW/boulder.png,GW/peoria.png,GW/boulder.png,GW/westpalmbeach.png,1,,,,,,,,,,,,,,,
null,,html-keyboard-response,1188907,,<p></p>,,,,null,,,,,,,,,,,,,,,,,,,,,,,,,,
1729,,directmemory_phase,1190640,,GW/hotsprings.png,,,,51,,,1,1,GW/cornwall.png,GW/boulder.png,GW/shreveport.png,GW/shreveport.png,GW/boulder.png,GW/cornwall.png,1,,,,,,,,,,,,,,,
null,,html-keyboard-response,1191647,,<p></p>,,,,null,,,,,,,,,,,,,,,,,,,,,,,,,,
2191.7000000476837,,directmemory_phase,1193844,,GW/huntsville.png,,,,51,,,1,1,GW/hotsprings.png,GW/westpalmbeach.png,GW/hanover.png,GW/hanover.png,GW/westpalmbeach.png,GW/hotsprings.png,1,,,,,,,,,,,,,,,
null,,html-keyboard-response,1194853,,<p></p>,,,,null,,,,,,,,,,,,,,,,,,,,,,,,,,
1688.8999999761581,,directmemory_phase,1196546,,GW/shreveport.png,,,,50,,,1,1,GW/westpalmbeach.png,GW/peoria.png,GW/leesburg.png,GW/peoria.png,GW/westpalmbeach.png,GW/leesburg.png,1,,,,,,,,,,,,,,,
null,,html-keyboard-response,1197554,,<p></p>,,,,null,,,,,,,,,,,,,,,,,,,,,,,,,,
1131.199999988079,,directmemory_phase,1198690,,GW/westpalmbeach.png,,,,51,,,1,1,GW/gatlinburg.png,GW/hanover.png,GW/racine.png,GW/racine.png,GW/hanover.png,GW/gatlinburg.png,1,,,,,,,,,,,,,,,
null,,html-keyboard-response,1199699,,<p></p>,,,,null,,,,,,,,,,,,,,,,,,,,,,,,,,
3683.800000011921,,directmemory_phase,1203387,,GW/peoria.png,,,,51,,,1,1,GW/racine.png,GW/boulder.png,GW/newhope.png,GW/newhope.png,GW/boulder.png,GW/racine.png,1,,,,,,,,,,,,,,,
null,,html-keyboard-response,1204395,,<p></p>,,,,null,,,,,,,,,,,,,,,,,,,,,,,,,,
1656.300000011921,,directmemory_phase,1206056,,GW/racine.png,,,,49,,,1,1,GW/westpalmbeach.png,GW/carmel.png,GW/huntsville.png,GW/westpalmbeach.png,GW/huntsville.png,GW/carmel.png,1,,,,,,,,,,,,,,,
null,,html-keyboard-response,1207063,,<p></p>,,,,null,,,,,,,,,,,,,,,,,,,,,,,,,,
1455.800000011921,,directmemory_phase,1208527,,GW/peoria.png,,,,50,,,1,1,GW/cornwall.png,GW/hotsprings.png,GW/leesburg.png,GW/hotsprings.png,GW/cornwall.png,GW/leesburg.png,1,,,,,,,,,,,,,,,
null,,html-keyboard-response,1209533,,<p></p>,,,,null,,,,,,,,,,,,,,,,,,,,,,,,,,
3733.600000023842,,directmemory_phase,1213273,,GW/shreveport.png,,,,51,,,1,1,GW/leesburg.png,GW/huntsville.png,GW/boulder.png,GW/boulder.png,GW/huntsville.png,GW/leesburg.png,1,,,,,,,,,,,,,,,
null,,html-keyboard-response,1214286,,<p></p>,,,,null,,,,,,,,,,,,,,,,,,,,,,,,,,
861.2999999523163,,directmemory_phase,1215153,,GW/gatlinburg.png,,,,51,,,1,1,GW/westpalmbeach.png,GW/huntsville.png,GW/hanover.png,GW/hanover.png,GW/huntsville.png,GW/westpalmbeach.png,1,,,,,,,,,,,,,,,
null,,html-keyboard-response,1216161,,<p></p>,,,,null,,,,,,,,,,,,,,,,,,,,,,,,,,
1578.1000000238419,,directmemory_phase,1217744,,GW/shreveport.png,,,,50,,,1,1,GW/huntsville.png,GW/newhope.png,GW/racine.png,GW/newhope.png,GW/huntsville.png,GW/racine.png,1,,,,,,,,,,,,,,,
null,,html-keyboard-response,1218757,,<p></p>,,,,null,,,,,,,,,,,,,,,,,,,,,,,,,,
1081,,directmemory_phase,1219844,,GW/westpalmbeach.png,,,,51,,,1,1,GW/cornwall.png,GW/leesburg.png,GW/hotsprings.png,GW/hotsprings.png,GW/leesburg.png,GW/cornwall.png,1,,,,,,,,,,,,,,,
null,,html-keyboard-response,1220855,,<p></p>,,,,null,,,,,,,,,,,,,,,,,,,,,,,,,,
3473.899999976158,,directmemory_phase,1224334,,GW/peoria.png,,,,50,,,1,1,GW/boulder.png,GW/carmel.png,GW/hanover.png,GW/carmel.png,GW/boulder.png,GW/hanover.png,1,,,,,,,,,,,,,,,
null,,html-keyboard-response,1225344,,<p></p>,,,,null,,,,,,,,,,,,,,,,,,,,,,,,,,
1720.1000000238419,,directmemory_phase,1227069,,GW/racine.png,,,,51,,,1,1,GW/newhope.png,GW/huntsville.png,GW/hanover.png,GW/hanover.png,GW/huntsville.png,GW/newhope.png,1,,,,,,,,,,,,,,,
null,,html-keyboard-response,1228078,,<p></p>,,,,null,,,,,,,,,,,,,,,,,,,,,,,,,,
974.5,,directmemory_phase,1229057,,GW/carmel.png,,,,50,,,1,1,GW/shreveport.png,GW/peoria.png,GW/westpalmbeach.png,GW/peoria.png,GW/shreveport.png,GW/westpalmbeach.png,1,,,,,,,,,,,,,,,
null,,html-keyboard-response,1230065,,<p></p>,,,,null,,,,,,,,,,,,,,,,,,,,,,,,,,
1324.699999988079,,directmemory_phase,1231394,,GW/boulder.png,,,,49,,,1,1,GW/westpalmbeach.png,GW/carmel.png,GW/hotsprings.png,GW/westpalmbeach.png,GW/hotsprings.png,GW/carmel.png,1,,,,,,,,,,,,,,,
null,,html-keyboard-response,1232406,,<p></p>,,,,null,,,,,,,,,,,,,,,,,,,,,,,,,,
1826.3999999761581,,directmemory_phase,1234237,,GW/shreveport.png,,,,51,,,1,1,GW/hanover.png,GW/carmel.png,GW/hotsprings.png,GW/hotsprings.png,GW/carmel.png,GW/hanover.png,1,,,,,,,,,,,,,,,
null,,html-keyboard-response,1235245,,<p></p>,,,,null,,,,,,,,,,,,,,,,,,,,,,,,,,
1207.6000000238419,,directmemory_phase,1236458,,GW/huntsville.png,,,,49,,,1,1,GW/boulder.png,GW/hotsprings.png,GW/shreveport.png,GW/boulder.png,GW/shreveport.png,GW/hotsprings.png,1,,,,,,,,,,,,,,,
null,,html-keyboard-response,1237467,,<p></p>,,,,null,,,,,,,,,,,,,,,,,,,,,,,,,,
3098.5,,directmemory_phase,1240575,,GW/hotsprings.png,,,,49,,,1,1,GW/westpalmbeach.png,GW/huntsville.png,GW/racine.png,GW/westpalmbeach.png,GW/racine.png,GW/huntsville.png,1,,,,,,,,,,,,,,,
null,,html-keyboard-response,1241583,,<p></p>,,,,null,,,,,,,,,,,,,,,,,,,,,,,,,,
2346.199999988079,,directmemory_phase,1243941,,GW/hanover.png,,,,51,,,1,1,GW/hotsprings.png,GW/leesburg.png,GW/huntsville.png,GW/huntsville.png,GW/leesburg.png,GW/hotsprings.png,1,,,,,,,,,,,,,,,
null,,html-keyboard-response,1244948,,<p></p>,,,,null,,,,,,,,,,,,,,,,,,,,,,,,,,
2519.5,,directmemory_phase,1247473,,GW/newhope.png,,,,51,,,1,1,GW/racine.png,GW/boulder.png,GW/cornwall.png,GW/cornwall.png,GW/boulder.png,GW/racine.png,1,,,,,,,,,,,,,,,
null,,html-keyboard-response,1248483,,<p></p>,,,,null,,,,,,,,,,,,,,,,,,,,,,,,,,
3108.699999988079,,directmemory_phase,1251599,,GW/racine.png,,,,51,,,1,1,GW/peoria.png,GW/huntsville.png,GW/leesburg.png,GW/leesburg.png,GW/huntsville.png,GW/peoria.png,1,,,,,,,,,,,,,,,
null,,html-keyboard-response,1252607,,<p></p>,,,,null,,,,,,,,,,,,,,,,,,,,,,,,,,
29927.299999952316,,intro_1,1282540,,instruct,,0,,,,,,,,,,,,,,,,,,,,,,,,,,,,
24526.30000001192,,intro_2,1307075,,instruct,,1,Next,,,,,,,,,,,,,,,,,,,,,,,,,,,
8192.300000011921,,intro_3,1315277,,instruct,,1,Next,,,,,,,,,,,,,,,,,,,,,,,,,,,
18174.899999976158,,intro_4,1333462,,instruct,,1,Next,,,,,,,,,,,,,,,,,,,,,,,,,,,
18772.30000001192,,intro_5,1352243,,instruct,,1,Next,,,,,,,,,,,,,,,,,,,,,,,,,,,
17200.69999998808,,intro_6,1369451,,instruct,,1,Next,,,,,,,,,,,,,,,,,,,,,,,,,,,
29614.69999998808,,intro_7,1399076,,instruct,,1,Next,,,,,,,,,,,,,,,,,,,,,,,,,,,
28467.600000023842,,intro_8,1427551,,instruct,,1,Next,,,,,,,,,,,,,,,,,,,,,,,,,,,
null,,shortestpath_phase,1435062,,GW/leesburg.png,,,,null,GW/peoria.png,GW/cornwall.png,0,0,,,,GW/peoria.png,,,,Two Edge Diff,Four Edge Six Edge,,,,,,,,,,,,,
null,,warning_page,1438078,,warning,,,,null,,,,,,,,,,,,,,,,,,,,,,,,,,
null,,html-keyboard-response,1439081,,<p></p>,,,,null,,,,,,,,,,,,,,,,,,,,,,,,,,
2080.5,,shortestpath_phase,1441166,,GW/gatlinburg.png,,,,50,GW/newhope.png,GW/racine.png,1,0.5,,,,GW/racine.png,,,,Three Edge Diff,Two Edge Five Edge,,,,,,,,,,,,,
null,,html-keyboard-response,1442176,,<p></p>,,,,null,,,,,,,,,,,,,,,,,,,,,,,,,,
3044.900000035763,,shortestpath_phase,1445227,,GW/hanover.png,,,,49,GW/shreveport.png,GW/leesburg.png,0,0.3333333333333333,,,,GW/leesburg.png,,,,One Edge Diff,Two Edge Three Edge,,,,,,,,,,,,,
null,,html-keyboard-response,1446235,,<p></p>,,,,null,,,,,,,,,,,,,,,,,,,,,,,,,,
2787.800000011921,,shortestpath_phase,1449028,,GW/gatlinburg.png,,,,50,GW/huntsville.png,GW/cornwall.png,0,0.25,,,,GW/huntsville.png,,,,Four Edge Diff,Two Edge Six Edge,,,,,,,,,,,,,
null,,html-keyboard-response,1450036,,<p></p>,,,,null,,,,,,,,,,,,,,,,,,,,,,,,,,
2539.699999988079,,shortestpath_phase,1452580,,GW/leesburg.png,,,,50,GW/carmel.png,GW/hanover.png,1,0.4,,,,GW/hanover.png,,,,Three Edge Diff,Three Edge Six Edge,,,,,,,,,,,,,
null,,html-keyboard-response,1453587,,<p></p>,,,,null,,,,,,,,,,,,,,,,,,,,,,,,,,
2204.7000000476837,,shortestpath_phase,1455801,,GW/carmel.png,,,,49,GW/westpalmbeach.png,GW/leesburg.png,1,0.5,,,,GW/westpalmbeach.png,,,,Two Edge Diff,Three Edge Five Edge,,,,,,,,,,,,,
null,,html-keyboard-response,1456813,,<p></p>,,,,null,,,,,,,,,,,,,,,,,,,,,,,,,,
2416.099999964237,,shortestpath_phase,1459235,,GW/gatlinburg.png,,,,50,GW/huntsville.png,GW/carmel.png,0,0.42857142857142855,,,,GW/huntsville.png,,,,Four Edge Diff,Two Edge Six Edge,,,,,,,,,,,,,
null,,html-keyboard-response,1460245,,<p></p>,,,,null,,,,,,,,,,,,,,,,,,,,,,,,,,
1537.9000000357628,,shortestpath_phase,1461791,,GW/newhope.png,,,,49,GW/leesburg.png,GW/carmel.png,0,0.375,,,,GW/carmel.png,,,,Three Edge Diff,Three Edge Six Edge,,,,,,,,,,,,,
null,,html-keyboard-response,1462829,,<p></p>,,,,null,,,,,,,,,,,,,,,,,,,,,,,,,,
2629.5,,shortestpath_phase,1465471,,GW/cornwall.png,,,,50,GW/westpalmbeach.png,GW/gatlinburg.png,0,0.3333333333333333,,,,GW/westpalmbeach.png,,,,Two Edge Diff,Four Edge Six Edge,,,,,,,,,,,,,
null,,html-keyboard-response,1466482,,<p></p>,,,,null,,,,,,,,,,,,,,,,,,,,,,,,,,
2715.5,,shortestpath_phase,1469203,,GW/huntsville.png,,,,50,GW/leesburg.png,GW/cornwall.png,0,0.3,,,,GW/leesburg.png,,,,One Edge Diff,Three Edge Four Edge,,,,,,,,,,,,,
null,,html-keyboard-response,1470212,,<p></p>,,,,null,,,,,,,,,,,,,,,,,,,,,,,,,,
2078.400000035763,,shortestpath_phase,1472295,,GW/hanover.png,,,,50,GW/cornwall.png,GW/boulder.png,1,0.36363636363636365,,,,GW/boulder.png,,,,Three Edge Diff,Two Edge Five Edge,,,,,,,,,,,,,
null,,html-keyboard-response,1473302,,<p></p>,,,,null,,,,,,,,,,,,,,,,,,,,,,,,,,
2836.300000011921,,shortestpath_phase,1476146,,GW/huntsville.png,,,,50,GW/shreveport.png,GW/newhope.png,0,0.3333333333333333,,,,GW/shreveport.png,,,,One Edge Diff,Two Edge Three Edge,,,,,,,,,,,,,
null,,html-keyboard-response,1477154,,<p></p>,,,,null,,,,,,,,,,,,,,,,,,,,,,,,,,
2198.5,,shortestpath_phase,1479358,,GW/leesburg.png,,,,50,GW/cornwall.png,GW/hanover.png,1,0.38461538461538464,,,,GW/hanover.png,,,,Four Edge Diff,Two Edge Six Edge,,,,,,,,,,,,,
null,,html-keyboard-response,1480367,,<p></p>,,,,null,,,,,,,,,,,,,,,,,,,,,,,,,,
2643.800000011921,,shortestpath_phase,1483016,,GW/gatlinburg.png,,,,49,GW/cornwall.png,GW/newhope.png,0,0.35714285714285715,,,,GW/newhope.png,,,,One Edge Diff,Five Edge Six Edge,,,,,,,,,,,,,
null,,html-keyboard-response,1484026,,<p></p>,,,,null,,,,,,,,,,,,,,,,,,,,,,,,,,
3510.399999976158,,shortestpath_phase,1487544,,GW/leesburg.png,,,,49,GW/cornwall.png,GW/westpalmbeach.png,0,0.3333333333333333,,,,GW/westpalmbeach.png,,,,Four Edge Diff,Two Edge Six Edge,,,,,,,,,,,,,
null,,html-keyboard-response,1488554,,<p></p>,,,,null,,,,,,,,,,,,,,,,,,,,,,,,,,
2338,,shortestpath_phase,1490897,,GW/cornwall.png,,,,50,GW/carmel.png,GW/racine.png,0,0.3125,,,,GW/carmel.png,,,,Two Edge Diff,Three Edge Five Edge,,,,,,,,,,,,,
null,,html-keyboard-response,1491909,,<p></p>,,,,null,,,,,,,,,,,,,,,,,,,,,,,,,,
1843.8999999761581,,shortestpath_phase,1493758,,GW/gatlinburg.png,,,,50,GW/carmel.png,GW/newhope.png,1,0.35294117647058826,,,,GW/newhope.png,,,,One Edge Diff,Five Edge Six Edge,,,,,,,,,,,,,
null,,html-keyboard-response,1494769,,<p></p>,,,,null,,,,,,,,,,,,,,,,,,,,,,,,,,
2427.400000035763,,shortestpath_phase,1497202,,GW/cornwall.png,,,,49,GW/racine.png,GW/gatlinburg.png,1,0.3888888888888889,,,,GW/racine.png,,,,One Edge Diff,Five Edge Six Edge,,,,,,,,,,,,,
null,,html-keyboard-response,1498213,,<p></p>,,,,null,,,,,,,,,,,,,,,,,,,,,,,,,,
2356.599999964237,,shortestpath_phase,1500576,,GW/leesburg.png,,,,49,GW/newhope.png,GW/cornwall.png,1,0.42105263157894735,,,,GW/newhope.png,,,,One Edge Diff,Five Edge Six Edge,,,,,,,,,,,,,
null,,html-keyboard-response,1501587,,<p></p>,,,,null,,,,,,,,,,,,,,,,,,,,,,,,,,
2068.800000011921,,shortestpath_phase,1503661,,GW/cornwall.png,,,,49,GW/shreveport.png,GW/hanover.png,1,0.45,,,,GW/shreveport.png,,,,Three Edge Diff,Three Edge Six Edge,,,,,,,,,,,,,
null,,html-keyboard-response,1504670,,<p></p>,,,,null,,,,,,,,,,,,,,,,,,,,,,,,,,
1494.3999999761581,,shortestpath_phase,1506170,,GW/newhope.png,,,,50,GW/westpalmbeach.png,GW/hotsprings.png,1,0.47619047619047616,,,,GW/hotsprings.png,,,,One Edge Diff,Two Edge Three Edge,,,,,,,,,,,,,
null,,html-keyboard-response,1507178,,<p></p>,,,,null,,,,,,,,,,,,,,,,,,,,,,,,,,
1706.5999999642372,,shortestpath_phase,1508890,,GW/leesburg.png,,,,49,GW/newhope.png,GW/huntsville.png,0,0.45454545454545453,,,,GW/huntsville.png,,,,Two Edge Diff,Three Edge Five Edge,,,,,,,,,,,,,
null,,html-keyboard-response,1509897,,<p></p>,,,,null,,,,,,,,,,,,,,,,,,,,,,,,,,
1803.9000000357628,,shortestpath_phase,1511707,,GW/cornwall.png,,,,49,GW/hanover.png,GW/hotsprings.png,0,0.43478260869565216,,,,GW/hotsprings.png,,,,Two Edge Diff,Three Edge Five Edge,,,,,,,,,,,,,
null,,html-keyboard-response,1512715,,<p></p>,,,,null,,,,,,,,,,,,,,,,,,,,,,,,,,
2155.800000011921,,shortestpath_phase,1514877,,GW/carmel.png,,,,49,GW/huntsville.png,GW/newhope.png,0,0.4166666666666667,,,,GW/newhope.png,,,,Two Edge Diff,Two Edge Four Edge,,,,,,,,,,,,,
null,,html-keyboard-response,1515885,,<p></p>,,,,null,,,,,,,,,,,,,,,,,,,,,,,,,,
1992.5999999642372,,shortestpath_phase,1517894,,GW/hotsprings.png,,,,49,GW/gatlinburg.png,GW/racine.png,0,0.4,,,,GW/racine.png,,,,Two Edge Diff,Two Edge Four Edge,,,,,,,,,,,,,
null,,html-keyboard-response,1518909,,<p></p>,,,,null,,,,,,,,,,,,,,,,,,,,,,,,,,
2392.399999976158,,shortestpath_phase,1521306,,GW/hanover.png,,,,50,GW/newhope.png,GW/westpalmbeach.png,1,0.4230769230769231,,,,GW/westpalmbeach.png,,,,Two Edge Diff,Two Edge Four Edge,,,,,,,,,,,,,
null,,html-keyboard-response,1522316,,<p></p>,,,,null,,,,,,,,,,,,,,,,,,,,,,,,,,
1354.300000011921,,shortestpath_phase,1523678,,GW/leesburg.png,,,,49,GW/shreveport.png,GW/carmel.png,1,0.4444444444444444,,,,GW/shreveport.png,,,,One Edge Diff,Four Edge Five Edge,,,,,,,,,,,,,
null,,html-keyboard-response,1524692,,<p></p>,,,,null,,,,,,,,,,,,,,,,,,,,,,,,,,
1873.300000011921,,shortestpath_phase,1526570,,GW/hotsprings.png,,,,50,GW/carmel.png,GW/huntsville.png,0,0.42857142857142855,,,,GW/carmel.png,,,,One Edge Diff,Two Edge Three Edge,,,,,,,,,,,,,
null,,html-keyboard-response,1527581,,<p></p>,,,,null,,,,,,,,,,,,,,,,,,,,,,,,,,
1621.199999988079,,shortestpath_phase,1529208,,GW/gatlinburg.png,,,,50,GW/shreveport.png,GW/cornwall.png,0,0.41379310344827586,,,,GW/shreveport.png,,,,Two Edge Diff,Four Edge Six Edge,,,,,,,,,,,,,
null,,html-keyboard-response,1530215,,<p></p>,,,,null,,,,,,,,,,,,,,,,,,,,,,,,,,
2641,,shortestpath_phase,1532863,,GW/hanover.png,,,,50,GW/peoria.png,GW/westpalmbeach.png,1,0.43333333333333335,,,,GW/westpalmbeach.png,,,,Two Edge Diff,Two Edge Four Edge,,,,,,,,,,,,,
null,,html-keyboard-response,1533875,,<p></p>,,,,null,,,,,,,,,,,,,,,,,,,,,,,,,,
2017.800000011921,,shortestpath_phase,1535900,,GW/cornwall.png,,,,49,GW/hanover.png,GW/peoria.png,0,0.41935483870967744,,,,GW/peoria.png,,,,Three Edge Diff,Three Edge Six Edge,,,,,,,,,,,,,
null,,html-keyboard-response,1536907,,<p></p>,,,,null,,,,,,,,,,,,,,,,,,,,,,,,,,
1809.6000000238419,,shortestpath_phase,1538724,,GW/hanover.png,,,,50,GW/newhope.png,GW/shreveport.png,1,0.4375,,,,GW/shreveport.png,,,,One Edge Diff,Three Edge Four Edge,,,,,,,,,,,,,
null,,html-keyboard-response,1539733,,<p></p>,,,,null,,,,,,,,,,,,,,,,,,,,,,,,,,
1599.1000000238419,,shortestpath_phase,1541343,,GW/cornwall.png,,,,49,GW/gatlinburg.png,GW/peoria.png,0,0.42424242424242425,,,,GW/peoria.png,,,,Four Edge Diff,Two Edge Six Edge,,,,,,,,,,,,,
null,,html-keyboard-response,1542359,,<p></p>,,,,null,,,,,,,,,,,,,,,,,,,,,,,,,,
2000.2000000476837,,shortestpath_phase,1544366,,GW/gatlinburg.png,,,,49,GW/shreveport.png,GW/carmel.png,1,0.4411764705882353,,,,GW/shreveport.png,,,,Two Edge Diff,Four Edge Six Edge,,,,,,,,,,,,,
null,,html-keyboard-response,1545377,,<p></p>,,,,null,,,,,,,,,,,,,,,,,,,,,,,,,,
2180.300000011921,,shortestpath_phase,1547563,,GW/carmel.png,,,,50,GW/newhope.png,GW/leesburg.png,0,0.42857142857142855,,,,GW/newhope.png,,,,Three Edge Diff,Two Edge Five Edge,,,,,,,,,,,,,
null,,html-keyboard-response,1548571,,<p></p>,,,,null,,,,,,,,,,,,,,,,,,,,,,,,,,
1441.5999999642372,,shortestpath_phase,1550020,,GW/gatlinburg.png,,,,50,GW/newhope.png,GW/hotsprings.png,1,0.4444444444444444,,,,GW/hotsprings.png,,,,One Edge Diff,Four Edge Five Edge,,,,,,,,,,,,,
null,,html-keyboard-response,1551039,,<p></p>,,,,null,,,,,,,,,,,,,,,,,,,,,,,,,,
1541.199999988079,,shortestpath_phase,1552586,,GW/newhope.png,,,,49,GW/leesburg.png,GW/racine.png,0,0.43243243243243246,,,,GW/racine.png,,,,One Edge Diff,Four Edge Five Edge,,,,,,,,,,,,,
null,,html-keyboard-response,1553595,,<p></p>,,,,null,,,,,,,,,,,,,,,,,,,,,,,,,,
2434,,shortestpath_phase,1556036,,GW/gatlinburg.png,,,,50,GW/cornwall.png,GW/peoria.png,1,0.4473684210526316,,,,GW/peoria.png,,,,One Edge Diff,Five Edge Six Edge,,,,,,,,,,,,,
null,,html-keyboard-response,1557046,,<p></p>,,,,null,,,,,,,,,,,,,,,,,,,,,,,,,,
1857.6000000238419,,shortestpath_phase,1558909,,GW/carmel.png,,,,50,GW/leesburg.png,GW/shreveport.png,1,0.46153846153846156,,,,GW/shreveport.png,,,,Three Edge Diff,Two Edge Five Edge,,,,,,,,,,,,,
null,,html-keyboard-response,1559917,,<p></p>,,,,null,,,,,,,,,,,,,,,,,,,,,,,,,,
2025,,shortestpath_phase,1561949,,GW/newhope.png,,,,50,GW/gatlinburg.png,GW/hotsprings.png,1,0.475,,,,GW/hotsprings.png,,,,Three Edge Diff,Two Edge Five Edge,,,,,,,,,,,,,
null,,html-keyboard-response,1562958,,<p></p>,,,,null,,,,,,,,,,,,,,,,,,,,,,,,,,
1812.300000011921,,shortestpath_phase,1564778,,GW/racine.png,,,,49,GW/carmel.png,GW/huntsville.png,0,0.4634146341463415,,,,GW/huntsville.png,,,,Two Edge Diff,Two Edge Four Edge,,,,,,,,,,,,,
null,,html-keyboard-response,1565788,,<p></p>,,,,null,,,,,,,,,,,,,,,,,,,,,,,,,,
1434.699999988079,,shortestpath_phase,1567228,,GW/newhope.png,,,,49,GW/hanover.png,GW/gatlinburg.png,1,0.47619047619047616,,,,GW/hanover.png,,,,One Edge Diff,Four Edge Five Edge,,,,,,,,,,,,,
null,,html-keyboard-response,1568241,,<p></p>,,,,null,,,,,,,,,,,,,,,,,,,,,,,,,,
1545.300000011921,,shortestpath_phase,1569793,,GW/carmel.png,,,,49,GW/leesburg.png,GW/gatlinburg.png,1,0.4883720930232558,,,,GW/leesburg.png,,,,One Edge Diff,Five Edge Six Edge,,,,,,,,,,,,,
null,,html-keyboard-response,1570804,,<p></p>,,,,null,,,,,,,,,,,,,,,,,,,,,,,,,,
3015.300000011921,,shortestpath_phase,1573825,,GW/racine.png,,,,50,GW/cornwall.png,GW/gatlinburg.png,1,0.5,,,,GW/gatlinburg.png,,,,Three Edge Diff,Two Edge Five Edge,,,,,,,,,,,,,
null,,html-keyboard-response,1574837,,<p></p>,,,,null,,,,,,,,,,,,,,,,,,,,,,,,,,
1753.6000000238419,,shortestpath_phase,1576596,,GW/carmel.png,,,,49,GW/hotsprings.png,GW/gatlinburg.png,1,0.5111111111111111,,,,GW/hotsprings.png,,,,Four Edge Diff,Two Edge Six Edge,,,,,,,,,,,,,
null,,html-keyboard-response,1577607,,<p></p>,,,,null,,,,,,,,,,,,,,,,,,,,,,,,,,
1779.5999999642372,,shortestpath_phase,1579394,,GW/huntsville.png,,,,50,GW/racine.png,GW/cornwall.png,0,0.5,,,,GW/racine.png,,,,Two Edge Diff,Two Edge Four Edge,,,,,,,,,,,,,
null,,html-keyboard-response,1580403,,<p></p>,,,,null,,,,,,,,,,,,,,,,,,,,,,,,,,
1632.699999988079,,shortestpath_phase,1582041,,GW/cornwall.png,,,,49,GW/shreveport.png,GW/westpalmbeach.png,1,0.5106382978723404,,,,GW/shreveport.png,,,,Two Edge Diff,Two Edge Four Edge,,,,,,,,,,,,,
null,,html-keyboard-response,1583051,,<p></p>,,,,null,,,,,,,,,,,,,,,,,,,,,,,,,,
1085.7999999523163,,shortestpath_phase,1584143,,GW/newhope.png,,,,49,GW/huntsville.png,GW/carmel.png,0,0.5,,,,GW/carmel.png,,,,One Edge Diff,Two Edge Three Edge,,,,,,,,,,,,,
null,,html-keyboard-response,1585151,,<p></p>,,,,null,,,,,,,,,,,,,,,,,,,,,,,,,,
1379.5,,shortestpath_phase,1586571,,GW/gatlinburg.png,,,,49,GW/cornwall.png,GW/hotsprings.png,0,0.4897959183673469,,,,GW/hotsprings.png,,,,Two Edge Diff,Four Edge Six Edge,,,,,,,,,,,,,
null,,html-keyboard-response,1587580,,<p></p>,,,,null,,,,,,,,,,,,,,,,,,,,,,,,,,
2350.5,,shortestpath_phase,1589935,,GW/carmel.png,,,,49,GW/racine.png,GW/hanover.png,1,0.5,,,,GW/racine.png,,,,One Edge Diff,Four Edge Five Edge,,,,,,,,,,,,,
null,,html-keyboard-response,1590944,,<p></p>,,,,null,,,,,,,,,,,,,,,,,,,,,,,,,,
2474.5,,shortestpath_phase,1593423,,GW/gatlinburg.png,,,,50,GW/peoria.png,GW/huntsville.png,1,0.5098039215686274,,,,GW/huntsville.png,,,,Three Edge Diff,Two Edge Five Edge,,,,,,,,,,,,,
null,,html-keyboard-response,1594431,,<p></p>,,,,null,,,,,,,,,,,,,,,,,,,,,,,,,,
1830,,shortestpath_phase,1596266,,GW/carmel.png,,,,49,GW/westpalmbeach.png,GW/huntsville.png,1,0.5192307692307693,,,,GW/westpalmbeach.png,,,,One Edge Diff,Three Edge Four Edge,,,,,,,,,,,,,
null,,html-keyboard-response,1597276,,<p></p>,,,,null,,,,,,,,,,,,,,,,,,,,,,,,,,
2068.399999976158,,shortestpath_phase,1599351,,GW/gatlinburg.png,,,,50,GW/racine.png,GW/peoria.png,0,0.5094339622641509,,,,GW/racine.png,,,,Three Edge Diff,Two Edge Five Edge,,,,,,,,,,,,,
null,,html-keyboard-response,1600366,,<p></p>,,,,null,,,,,,,,,,,,,,,,,,,,,,,,,,
2372.5,,shortestpath_phase,1602744,,GW/huntsville.png,,,,49,GW/carmel.png,GW/hotsprings.png,0,0.5,,,,GW/hotsprings.png,,,,One Edge Diff,Three Edge Four Edge,,,,,,,,,,,,,
null,,html-keyboard-response,1603753,,<p></p>,,,,null,,,,,,,,,,,,,,,,,,,,,,,,,,
1232.1000000238419,,shortestpath_phase,1604991,,GW/gatlinburg.png,,,,50,GW/racine.png,GW/cornwall.png,0,0.4909090909090909,,,,GW/racine.png,,,,Four Edge Diff,Two Edge Six Edge,,,,,,,,,,,,,
null,,html-keyboard-response,1605999,,<p></p>,,,,null,,,,,,,,,,,,,,,,,,,,,,,,,,
1984,,shortestpath_phase,1607990,,GW/cornwall.png,,,,50,GW/racine.png,GW/peoria.png,1,0.5,,,,GW/peoria.png,,,,Three Edge Diff,Two Edge Five Edge,,,,,,,,,,,,,
null,,html-keyboard-response,1608999,,<p></p>,,,,null,,,,,,,,,,,,,,,,,,,,,,,,,,
1407.199999988079,,shortestpath_phase,1610413,,GW/gatlinburg.png,,,,50,GW/hotsprings.png,GW/carmel.png,0,0.49122807017543857,,,,GW/hotsprings.png,,,,Two Edge Diff,Four Edge Six Edge,,,,,,,,,,,,,
null,,html-keyboard-response,1611422,,<p></p>,,,,null,,,,,,,,,,,,,,,,,,,,,,,,,,
1360.7000000476837,,shortestpath_phase,1612789,,GW/cornwall.png,,,,49,GW/peoria.png,GW/leesburg.png,1,0.5,,,,GW/peoria.png,,,,Four Edge Diff,Two Edge Six Edge,,,,,,,,,,,,,
null,,html-keyboard-response,1613799,,<p></p>,,,,null,,,,,,,,,,,,,,,,,,,,,,,,,,
1090.8999999761581,,shortestpath_phase,1614897,,GW/carmel.png,,,,50,GW/shreveport.png,GW/leesburg.png,0,0.4915254237288136,,,,GW/shreveport.png,,,,Three Edge Diff,Three Edge Six Edge,,,,,,,,,,,,,
null,,html-keyboard-response,1615908,,<p></p>,,,,null,,,,,,,,,,,,,,,,,,,,,,,,,,
1759,,shortestpath_phase,1617672,,GW/peoria.png,,,,49,GW/cornwall.png,GW/gatlinburg.png,1,0.5,,,,GW/cornwall.png,,,,Three Edge Diff,Three Edge Six Edge,,,,,,,,,,,,,
null,,html-keyboard-response,1618681,,<p></p>,,,,null,,,,,,,,,,,,,,,,,,,,,,,,,,
1148.8999999761581,,shortestpath_phase,1619837,,GW/gatlinburg.png,,,,50,GW/carmel.png,GW/racine.png,1,0.5081967213114754,,,,GW/racine.png,,,,Four Edge Diff,Two Edge Six Edge,,,,,,,,,,,,,
null,,html-keyboard-response,1620844,,<p></p>,,,,null,,,,,,,,,,,,,,,,,,,,,,,,,,
1974.199999988079,,shortestpath_phase,1622825,,GW/hotsprings.png,,,,49,GW/boulder.png,GW/leesburg.png,1,0.5161290322580645,,,,GW/boulder.png,,,,One Edge Diff,Two Edge Three Edge,,,,,,,,,,,,,
null,,html-keyboard-response,1623835,,<p></p>,,,,null,,,,,,,,,,,,,,,,,,,,,,,,,,
1280.2000000476837,,shortestpath_phase,1625120,,GW/cornwall.png,,,,49,GW/shreveport.png,GW/racine.png,1,0.5238095238095238,,,,GW/shreveport.png,,,,Three Edge Diff,Two Edge Five Edge,,,,,,,,,,,,,
null,,html-keyboard-response,1626131,,<p></p>,,,,null,,,,,,,,,,,,,,,,,,,,,,,,,,
1290.8999999761581,,shortestpath_phase,1627428,,GW/peoria.png,,,,50,GW/boulder.png,GW/leesburg.png,0,0.515625,,,,GW/boulder.png,,,,Two Edge Diff,Two Edge Four Edge,,,,,,,,,,,,,
null,,html-keyboard-response,1628437,,<p></p>,,,,null,,,,,,,,,,,,,,,,,,,,,,,,,,
1402.800000011921,,shortestpath_phase,1629846,,GW/carmel.png,,,,50,GW/gatlinburg.png,GW/huntsville.png,1,0.5230769230769231,,,,GW/huntsville.png,,,,Two Edge Diff,Four Edge Six Edge,,,,,,,,,,,,,
null,,html-keyboard-response,1630858,,<p></p>,,,,null,,,,,,,,,,,,,,,,,,,,,,,,,,
