rt,responses,trial_type,time_elapsed,sequence,stimulus,graphorder,button_pressed,response,key_press,stimulus_left,stimulus_right,accuracy,cumulative_accuracy,stimulus_down_left,stimulus_down_mid,stimulus_down_right,stimulus_correct,stimulus_short,stimulus_far,weighted_accuracy,missedtrial,condition,specific_pairs,imgL_ID,imgR_ID,linedress,linedressed,detour_trial,linedressed_detor,problems,smooth,distraction,strategies,easier,similar,comments
9156.400000000373,{worker_id:5b5c3b266b25590001778ea1},id_enter,9158,interleaved,replication,GW/gatlinburg.png; GW/carmel.png; GW/hanover.png; GW/racine.png; GW/huntsville.png; GW/shreveport.png; GW/westpalmbeach.png; GW/newhope.png; GW/cornwall.png; GW/peoria.png; GW/leesburg.png; GW/hotsprings.png; GW/boulder.png,,,,,,,,,,,,,,,,,,,,,,,,,,,,,,
3498.300000000745,,fullscreen,12659,,fullscreen,,0,,,,,,,,,,,,,,,,,,,,,,,,,,,,,
5368.200000001118,,intro_1,18029,,instruct,,0,,,,,,,,,,,,,,,,,,,,,,,,,,,,,
7503.199999999255,,intro_2,25533,,instruct,,1,Next,,,,,,,,,,,,,,,,,,,,,,,,,,,,
6162.799999998882,,intro_3,31697,,instruct,,1,Next,,,,,,,,,,,,,,,,,,,,,,,,,,,,
null,,learn_prac_1,34700,,lean_prac_1,,,,null,,,,,,,,,,,,,,,,,,,,,,,,,,,
null,,html-keyboard-response,35704,,<p></p>,,,,null,,,,,,,,,,,,,,,,,,,,,,,,,,,
2031.4000000003725,,intro_1,37737,,instruct,,0,,,,,,,,,,,,,,,,,,,,,,,,,,,,,
8141,,intro_2,45879,,instruct,,1,Next,,,,,,,,,,,,,,,,,,,,,,,,,,,,
null,,learn_prac_2,48881,,lean_prac_2,,,,null,,,,,,,,,,,,,,,,,,,,,,,,,,,
null,,html-keyboard-response,49884,,<p></p>,,,,null,,,,,,,,,,,,,,,,,,,,,,,,,,,
2233.9000000003725,,intro_1,52119,,instruct,,0,,,,,,,,,,,,,,,,,,,,,,,,,,,,,
3021.0999999996275,,intro_2,55141,,instruct,,1,Next,,,,,,,,,,,,,,,,,,,,,,,,,,,,
19528.900000000373,,intro_3,74671,,instruct,,1,Next,,,,,,,,,,,,,,,,,,,,,,,,,,,,
null,,prac_atten_color_black,75342,,black_plus_sign,,,,null,,,,,,,,,,,,,,,,,,,,,,,,,,,
null,,prac_atten_color,76077,,prac_stop_color,,,,null,,,,,,,,,,,,,,,,,,,,,,,,,,,
null,,prac_atten_color_black,78079,,black_plus_sign,,,,null,,,,,,,,,,,,,,,,,,,,,,,,,,,
5655.699999999255,,attentioncheck_help,83738,,instruct,,,,32,,,,,,,,,,,,,,,,,,,,,,,,,,,
null,,prac_atten_color_black,84409,,black_plus_sign,,,,null,,,,,,,,,,,,,,,,,,,,,,,,,,,
null,,prac_atten_color,85375,,prac_stop_color,,,,null,,,,,,,,,,,,,,,,,,,,,,,,,,,
null,,prac_atten_color_black,87378,,black_plus_sign,,,,null,,,,,,,,,,,,,,,,,,,,,,,,,,,
2205.9000000003725,,attentioncheck_help,89586,,instruct,,,,32,,,,,,,,,,,,,,,,,,,,,,,,,,,
null,,prac_atten_color_black,90026,,black_plus_sign,,,,null,,,,,,,,,,,,,,,,,,,,,,,,,,,
null,,prac_atten_color,90723,,prac_stop_color,,,,null,,,,,,,,,,,,,,,,,,,,,,,,,,,
97.90000000037253,,prac_atten_color_black,92727,,black_plus_sign,,,,50,,,,,,,,,,,,,,,,,,,,,,,,,,,
null,,prac_atten_color_black,93437,,black_plus_sign,,,,null,,,,,,,,,,,,,,,,,,,,,,,,,,,
null,,prac_atten_color,93902,,prac_stop_color,,,,null,,,,,,,,,,,,,,,,,,,,,,,,,,,
216.5,,prac_atten_color_black,95903,,black_plus_sign,,,,49,,,,,,,,,,,,,,,,,,,,,,,,,,,
null,,prac_atten_color_black,96843,,black_plus_sign,,,,null,,,,,,,,,,,,,,,,,,,,,,,,,,,
null,,prac_atten_color,97294,,prac_stop_color,,,,null,,,,,,,,,,,,,,,,,,,,,,,,,,,
95.59999999962747,,prac_atten_color_black,99297,,black_plus_sign,,,,50,,,,,,,,,,,,,,,,,,,,,,,,,,,
null,,prac_atten_color_black,100252,,black_plus_sign,,,,null,,,,,,,,,,,,,,,,,,,,,,,,,,,
599.9000000003725,,prac_atten_color,101277,,prac_stop_color,,,,50,,,,,,,,,,,,,,,,,,,,,,,,,,,
null,,prac_atten_color_black,103280,,black_plus_sign,,,,null,,,,,,,,,,,,,,,,,,,,,,,,,,,
null,,prac_atten_color_black,103660,,black_plus_sign,,,,null,,,,,,,,,,,,,,,,,,,,,,,,,,,
386.30000000074506,,prac_atten_color,104460,,prac_stop_color,,,,49,,,,,,,,,,,,,,,,,,,,,,,,,,,
null,,prac_atten_color_black,106462,,black_plus_sign,,,,null,,,,,,,,,,,,,,,,,,,,,,,,,,,
null,,prac_atten_color_black,107068,,black_plus_sign,,,,null,,,,,,,,,,,,,,,,,,,,,,,,,,,
621,,prac_atten_color,108106,,prac_stop_color,,,,50,,,,,,,,,,,,,,,,,,,,,,,,,,,
null,,prac_atten_color_black,110109,,black_plus_sign,,,,null,,,,,,,,,,,,,,,,,,,,,,,,,,,
null,,prac_atten_color_black,110488,,black_plus_sign,,,,null,,,,,,,,,,,,,,,,,,,,,,,,,,,
520.9000000003725,,prac_atten_color,111248,,prac_stop_color,,,,49,,,,,,,,,,,,,,,,,,,,,,,,,,,
null,,prac_atten_color_black,113251,,black_plus_sign,,,,null,,,,,,,,,,,,,,,,,,,,,,,,,,,
null,,prac_atten_color_black,113898,,black_plus_sign,,,,null,,,,,,,,,,,,,,,,,,,,,,,,,,,
550.1999999992549,,prac_atten_color,114612,,prac_stop_color,,,,49,,,,,,,,,,,,,,,,,,,,,,,,,,,
null,,prac_atten_color_black,116615,,black_plus_sign,,,,null,,,,,,,,,,,,,,,,,,,,,,,,,,,
6261.0999999996275,,attentioncheck_feedback,122879,,cross_check_feedback,,0,,,,,,,,,,,,,,,,,,,,,,,,,,,,,
7873.5,,last_instruct,130753,,instruct,,,,32,,,,,,,,,,,,,,,,,,,,,,,,,,,
null,,learn_phase(without_color),133756,,black_plus_sign,,,,null,GW/newhope.png,GW/cornwall.png,,,,,,,,,,,,,,,,,,,,,,,,,
null,,black_cross(without_color),134788,,yellow,,,,null,GW/newhope.png,GW/cornwall.png,,,,,,,,,,,,,,,,,,,,,,,,,
null,,rt_plussign_withcolor,135290,,yellow,,,,null,GW/newhope.png,GW/cornwall.png,,,,,,,,,,,,,,,,,,,,,,,,,
1220.5999999996275,,rt_thecrossant_black,136263,,black_plus_sign,,,,50,,,1,1,,,,,,,,,,,,,,,,,,,,,,,
null,,color_black,136369,,black_plus_sign,,,,null,,,,,,,,,,,,,,,,,,,,,,,,,,,
null,,learn_phase(without_color),139372,,black_plus_sign,,,,null,GW/hanover.png,GW/shreveport.png,,,,,,,,,,,,,,,,,,,,,,,,,
null,,black_cross(without_color),140292,,yellow,,,,null,GW/hanover.png,GW/shreveport.png,,,,,,,,,,,,,,,,,,,,,,,,,
null,,rt_plussign_withcolor,140798,,yellow,,,,null,GW/hanover.png,GW/shreveport.png,,,,,,,,,,,,,,,,,,,,,,,,,
655.7000000011176,,rt_thecrossant_black,141883,,black_plus_sign,,,,50,,,1,1,,,,,,,,,,,,,,,,,,,,,,,
null,,color_black,141996,,black_plus_sign,,,,null,,,,,,,,,,,,,,,,,,,,,,,,,,,
null,,learn_phase(without_color),145000,,black_plus_sign,,,,null,GW/hanover.png,GW/carmel.png,,,,,,,,,,,,,,,,,,,,,,,,,
null,,black_cross(without_color),145498,,yellow,,,,null,GW/hanover.png,GW/carmel.png,,,,,,,,,,,,,,,,,,,,,,,,,
null,,rt_plussign_withcolor,146001,,yellow,,,,null,GW/hanover.png,GW/carmel.png,,,,,,,,,,,,,,,,,,,,,,,,,
1122.5,,rt_thecrossant_black,147510,,black_plus_sign,,,,50,,,1,1,,,,,,,,,,,,,,,,,,,,,,,
null,,color_black,147612,,black_plus_sign,,,,null,,,,,,,,,,,,,,,,,,,,,,,,,,,
null,,learn_phase(without_color),150616,,black_plus_sign,,,,null,GW/cornwall.png,GW/shreveport.png,,,,,,,,,,,,,,,,,,,,,,,,,
null,,black_cross(without_color),151587,,blue,,,,null,GW/cornwall.png,GW/shreveport.png,,,,,,,,,,,,,,,,,,,,,,,,,
480.19999999925494,,rt_plussign_withcolor,152089,,blue,,,,49,GW/cornwall.png,GW/shreveport.png,,,,,,,,,,,,,,,,,,,,,,,,,
null,,rt_thecrossant_black,153123,,black_plus_sign,,,,null,,,1,1,,,,,,,,,,,,,,,,,,,,,,,
null,,color_black,153228,,black_plus_sign,,,,null,,,,,,,,,,,,,,,,,,,,,,,,,,,
null,,learn_phase(without_color),156231,,black_plus_sign,,,,null,GW/carmel.png,GW/gatlinburg.png,,,,,,,,,,,,,,,,,,,,,,,,,
null,,black_cross(without_color),157034,,blue,,,,null,GW/carmel.png,GW/gatlinburg.png,,,,,,,,,,,,,,,,,,,,,,,,,
450.2999999988824,,rt_plussign_withcolor,157538,,blue,,,,49,GW/carmel.png,GW/gatlinburg.png,,,,,,,,,,,,,,,,,,,,,,,,,
null,,rt_thecrossant_black,158741,,black_plus_sign,,,,null,,,1,1,,,,,,,,,,,,,,,,,,,,,,,
null,,color_black,158852,,black_plus_sign,,,,null,,,,,,,,,,,,,,,,,,,,,,,,,,,
null,,learn_phase(without_color),161856,,black_plus_sign,,,,null,GW/shreveport.png,GW/hanover.png,,,,,,,,,,,,,,,,,,,,,,,,,
null,,black_cross(without_color),162854,,yellow,,,,null,GW/shreveport.png,GW/hanover.png,,,,,,,,,,,,,,,,,,,,,,,,,
null,,rt_plussign_withcolor,163357,,yellow,,,,null,GW/shreveport.png,GW/hanover.png,,,,,,,,,,,,,,,,,,,,,,,,,
936,,rt_thecrossant_black,164370,,black_plus_sign,,,,50,,,1,1,,,,,,,,,,,,,,,,,,,,,,,
null,,color_black,164473,,black_plus_sign,,,,null,,,,,,,,,,,,,,,,,,,,,,,,,,,
null,,learn_phase(without_color),167491,,black_plus_sign,,,,null,GW/carmel.png,GW/gatlinburg.png,,,,,,,,,,,,,,,,,,,,,,,,,
null,,black_cross(without_color),167988,,blue,,,,null,GW/carmel.png,GW/gatlinburg.png,,,,,,,,,,,,,,,,,,,,,,,,,
null,,rt_plussign_withcolor,168490,,blue,,,,null,GW/carmel.png,GW/gatlinburg.png,,,,,,,,,,,,,,,,,,,,,,,,,
1280.4000000003725,,rt_thecrossant_black,170008,,black_plus_sign,,,,49,,,1,1,,,,,,,,,,,,,,,,,,,,,,,
null,,color_black,170111,,black_plus_sign,,,,null,,,,,,,,,,,,,,,,,,,,,,,,,,,
null,,learn_phase(without_color),173114,,black_plus_sign,,,,null,GW/newhope.png,GW/westpalmbeach.png,,,,,,,,,,,,,,,,,,,,,,,,,
null,,black_cross(without_color),173590,,yellow,,,,null,GW/newhope.png,GW/westpalmbeach.png,,,,,,,,,,,,,,,,,,,,,,,,,
486.19999999925494,,rt_plussign_withcolor,174092,,yellow,,,,50,GW/newhope.png,GW/westpalmbeach.png,,,,,,,,,,,,,,,,,,,,,,,,,
null,,rt_thecrossant_black,175624,,black_plus_sign,,,,null,,,1,1,,,,,,,,,,,,,,,,,,,,,,,
null,,color_black,175728,,black_plus_sign,,,,null,,,,,,,,,,,,,,,,,,,,,,,,,,,
null,,learn_phase(without_color),178732,,black_plus_sign,,,,null,GW/carmel.png,GW/racine.png,,,,,,,,,,,,,,,,,,,,,,,,,
null,,black_cross(without_color),179519,,blue,,,,null,GW/carmel.png,GW/racine.png,,,,,,,,,,,,,,,,,,,,,,,,,
null,,rt_plussign_withcolor,180021,,blue,,,,null,GW/carmel.png,GW/racine.png,,,,,,,,,,,,,,,,,,,,,,,,,
597.3000000007451,,rt_thecrossant_black,181239,,black_plus_sign,,,,49,,,1,1,,,,,,,,,,,,,,,,,,,,,,,
null,,color_black,181342,,black_plus_sign,,,,null,,,,,,,,,,,,,,,,,,,,,,,,,,,
null,,learn_phase(without_color),184353,,black_plus_sign,,,,null,GW/cornwall.png,GW/westpalmbeach.png,,,,,,,,,,,,,,,,,,,,,,,,,
null,,black_cross(without_color),184982,,blue,,,,null,GW/cornwall.png,GW/westpalmbeach.png,,,,,,,,,,,,,,,,,,,,,,,,,
482.2000000011176,,rt_plussign_withcolor,185484,,blue,,,,49,GW/cornwall.png,GW/westpalmbeach.png,,,,,,,,,,,,,,,,,,,,,,,,,
null,,rt_thecrossant_black,186858,,black_plus_sign,,,,null,,,1,1,,,,,,,,,,,,,,,,,,,,,,,
null,,color_black,186961,,black_plus_sign,,,,null,,,,,,,,,,,,,,,,,,,,,,,,,,,
null,,learn_phase(without_color),189968,,black_plus_sign,,,,null,GW/westpalmbeach.png,GW/cornwall.png,,,,,,,,,,,,,,,,,,,,,,,,,
null,,black_cross(without_color),190392,,blue,,,,null,GW/westpalmbeach.png,GW/cornwall.png,,,,,,,,,,,,,,,,,,,,,,,,,
null,,rt_plussign_withcolor,190894,,blue,,,,null,GW/westpalmbeach.png,GW/cornwall.png,,,,,,,,,,,,,,,,,,,,,,,,,
814.5,,rt_thecrossant_black,192475,,black_plus_sign,,,,49,,,1,1,,,,,,,,,,,,,,,,,,,,,,,
null,,color_black,192578,,black_plus_sign,,,,null,,,,,,,,,,,,,,,,,,,,,,,,,,,
null,,learn_phase(without_color),195581,,black_plus_sign,,,,null,GW/huntsville.png,GW/racine.png,,,,,,,,,,,,,,,,,,,,,,,,,
null,,black_cross(without_color),196220,,yellow,,,,null,GW/huntsville.png,GW/racine.png,,,,,,,,,,,,,,,,,,,,,,,,,
null,,rt_plussign_withcolor,196724,,yellow,,,,null,GW/huntsville.png,GW/racine.png,,,,,,,,,,,,,,,,,,,,,,,,,
571.5999999996275,,rt_thecrossant_black,198090,,black_plus_sign,,,,50,,,1,1,,,,,,,,,,,,,,,,,,,,,,,
null,,color_black,198192,,black_plus_sign,,,,null,,,,,,,,,,,,,,,,,,,,,,,,,,,
null,,learn_phase(without_color),201210,,black_plus_sign,,,,null,GW/cornwall.png,GW/shreveport.png,,,,,,,,,,,,,,,,,,,,,,,,,
null,,black_cross(without_color),201709,,blue,,,,null,GW/cornwall.png,GW/shreveport.png,,,,,,,,,,,,,,,,,,,,,,,,,
458.59999999962747,,rt_plussign_withcolor,202212,,blue,,,,49,GW/cornwall.png,GW/shreveport.png,,,,,,,,,,,,,,,,,,,,,,,,,
null,,rt_thecrossant_black,203718,,black_plus_sign,,,,null,,,1,1,,,,,,,,,,,,,,,,,,,,,,,
null,,color_black,203821,,black_plus_sign,,,,null,,,,,,,,,,,,,,,,,,,,,,,,,,,
null,,learn_phase(without_color),206825,,black_plus_sign,,,,null,GW/hanover.png,GW/carmel.png,,,,,,,,,,,,,,,,,,,,,,,,,
null,,black_cross(without_color),207443,,yellow,,,,null,GW/hanover.png,GW/carmel.png,,,,,,,,,,,,,,,,,,,,,,,,,
null,,rt_plussign_withcolor,207946,,yellow,,,,null,GW/hanover.png,GW/carmel.png,,,,,,,,,,,,,,,,,,,,,,,,,
610.3999999985099,,rt_thecrossant_black,209333,,black_plus_sign,,,,50,,,1,1,,,,,,,,,,,,,,,,,,,,,,,
null,,color_black,209436,,black_plus_sign,,,,null,,,,,,,,,,,,,,,,,,,,,,,,,,,
null,,learn_phase(without_color),212440,,black_plus_sign,,,,null,GW/westpalmbeach.png,GW/boulder.png,,,,,,,,,,,,,,,,,,,,,,,,,
null,,black_cross(without_color),213035,,blue,,,,null,GW/westpalmbeach.png,GW/boulder.png,,,,,,,,,,,,,,,,,,,,,,,,,
null,,rt_plussign_withcolor,213537,,blue,,,,null,GW/westpalmbeach.png,GW/boulder.png,,,,,,,,,,,,,,,,,,,,,,,,,
1229,,rt_thecrossant_black,214946,,black_plus_sign,,,,49,,,1,1,,,,,,,,,,,,,,,,,,,,,,,
null,,color_black,215049,,black_plus_sign,,,,null,,,,,,,,,,,,,,,,,,,,,,,,,,,
null,,learn_phase(without_color),218055,,black_plus_sign,,,,null,GW/cornwall.png,GW/leesburg.png,,,,,,,,,,,,,,,,,,,,,,,,,
null,,black_cross(without_color),218913,,yellow,,,,null,GW/cornwall.png,GW/leesburg.png,,,,,,,,,,,,,,,,,,,,,,,,,
null,,rt_plussign_withcolor,219416,,yellow,,,,null,GW/cornwall.png,GW/leesburg.png,,,,,,,,,,,,,,,,,,,,,,,,,
711.6999999992549,,rt_thecrossant_black,220562,,black_plus_sign,,,,50,,,1,1,,,,,,,,,,,,,,,,,,,,,,,
null,,color_black,220665,,black_plus_sign,,,,null,,,,,,,,,,,,,,,,,,,,,,,,,,,
null,,learn_phase(without_color),223668,,black_plus_sign,,,,null,GW/cornwall.png,GW/shreveport.png,,,,,,,,,,,,,,,,,,,,,,,,,
null,,black_cross(without_color),224260,,blue,,,,null,GW/cornwall.png,GW/shreveport.png,,,,,,,,,,,,,,,,,,,,,,,,,
427.1000000014901,,rt_plussign_withcolor,224761,,blue,,,,49,GW/cornwall.png,GW/shreveport.png,,,,,,,,,,,,,,,,,,,,,,,,,
null,,rt_thecrossant_black,226176,,black_plus_sign,,,,null,,,1,1,,,,,,,,,,,,,,,,,,,,,,,
null,,color_black,226279,,black_plus_sign,,,,null,,,,,,,,,,,,,,,,,,,,,,,,,,,
null,,learn_phase(without_color),229295,,black_plus_sign,,,,null,GW/westpalmbeach.png,GW/newhope.png,,,,,,,,,,,,,,,,,,,,,,,,,
null,,black_cross(without_color),229831,,blue,,,,null,GW/westpalmbeach.png,GW/newhope.png,,,,,,,,,,,,,,,,,,,,,,,,,
484.7999999988824,,rt_plussign_withcolor,230333,,blue,,,,49,GW/westpalmbeach.png,GW/newhope.png,,,,,,,,,,,,,,,,,,,,,,,,,
null,,rt_thecrossant_black,231805,,black_plus_sign,,,,null,,,1,1,,,,,,,,,,,,,,,,,,,,,,,
null,,color_black,231907,,black_plus_sign,,,,null,,,,,,,,,,,,,,,,,,,,,,,,,,,
null,,learn_phase(without_color),234910,,black_plus_sign,,,,null,GW/cornwall.png,GW/newhope.png,,,,,,,,,,,,,,,,,,,,,,,,,
null,,black_cross(without_color),235467,,yellow,,,,null,GW/cornwall.png,GW/newhope.png,,,,,,,,,,,,,,,,,,,,,,,,,
366.19999999925494,,rt_plussign_withcolor,235969,,yellow,,,,50,GW/cornwall.png,GW/newhope.png,,,,,,,,,,,,,,,,,,,,,,,,,
null,,rt_thecrossant_black,237418,,black_plus_sign,,,,null,,,1,1,,,,,,,,,,,,,,,,,,,,,,,
null,,color_black,237522,,black_plus_sign,,,,null,,,,,,,,,,,,,,,,,,,,,,,,,,,
null,,learn_phase(without_color),240524,,black_plus_sign,,,,null,GW/hotsprings.png,GW/leesburg.png,,,,,,,,,,,,,,,,,,,,,,,,,
null,,black_cross(without_color),241513,,blue,,,,null,GW/hotsprings.png,GW/leesburg.png,,,,,,,,,,,,,,,,,,,,,,,,,
452,,rt_plussign_withcolor,242016,,blue,,,,49,GW/hotsprings.png,GW/leesburg.png,,,,,,,,,,,,,,,,,,,,,,,,,
null,,rt_thecrossant_black,243035,,black_plus_sign,,,,null,,,1,1,,,,,,,,,,,,,,,,,,,,,,,
null,,color_black,243137,,black_plus_sign,,,,null,,,,,,,,,,,,,,,,,,,,,,,,,,,
null,,learn_phase(without_color),246139,,black_plus_sign,,,,null,GW/racine.png,GW/hotsprings.png,,,,,,,,,,,,,,,,,,,,,,,,,
null,,black_cross(without_color),247179,,blue,,,,null,GW/racine.png,GW/hotsprings.png,,,,,,,,,,,,,,,,,,,,,,,,,
null,,rt_plussign_withcolor,247681,,blue,,,,null,GW/racine.png,GW/hotsprings.png,,,,,,,,,,,,,,,,,,,,,,,,,
1096.0999999996275,,rt_thecrossant_black,248645,,black_plus_sign,,,,49,,,1,1,,,,,,,,,,,,,,,,,,,,,,,
null,,color_black,248750,,black_plus_sign,,,,null,,,,,,,,,,,,,,,,,,,,,,,,,,,
null,,learn_phase(without_color),251753,,black_plus_sign,,,,null,GW/carmel.png,GW/racine.png,,,,,,,,,,,,,,,,,,,,,,,,,
null,,black_cross(without_color),252806,,blue,,,,null,GW/carmel.png,GW/racine.png,,,,,,,,,,,,,,,,,,,,,,,,,
null,,rt_plussign_withcolor,253309,,blue,,,,null,GW/carmel.png,GW/racine.png,,,,,,,,,,,,,,,,,,,,,,,,,
1258.7999999988824,,rt_thecrossant_black,254262,,black_plus_sign,,,,49,,,1,1,,,,,,,,,,,,,,,,,,,,,,,
null,,color_black,254378,,black_plus_sign,,,,null,,,,,,,,,,,,,,,,,,,,,,,,,,,
null,,learn_phase(without_color),257381,,black_plus_sign,,,,null,GW/westpalmbeach.png,GW/boulder.png,,,,,,,,,,,,,,,,,,,,,,,,,
null,,black_cross(without_color),257984,,blue,,,,null,GW/westpalmbeach.png,GW/boulder.png,,,,,,,,,,,,,,,,,,,,,,,,,
null,,rt_plussign_withcolor,258488,,blue,,,,null,GW/westpalmbeach.png,GW/boulder.png,,,,,,,,,,,,,,,,,,,,,,,,,
1175.5999999996275,,rt_thecrossant_black,259891,,black_plus_sign,,,,49,,,1,1,,,,,,,,,,,,,,,,,,,,,,,
null,,color_black,259994,,black_plus_sign,,,,null,,,,,,,,,,,,,,,,,,,,,,,,,,,
null,,learn_phase(without_color),262999,,black_plus_sign,,,,null,GW/shreveport.png,GW/westpalmbeach.png,,,,,,,,,,,,,,,,,,,,,,,,,
null,,black_cross(without_color),263871,,yellow,,,,null,GW/shreveport.png,GW/westpalmbeach.png,,,,,,,,,,,,,,,,,,,,,,,,,
494.69999999925494,,rt_plussign_withcolor,264373,,yellow,,,,50,GW/shreveport.png,GW/westpalmbeach.png,,,,,,,,,,,,,,,,,,,,,,,,,
null,,rt_thecrossant_black,265509,,black_plus_sign,,,,null,,,1,1,,,,,,,,,,,,,,,,,,,,,,,
null,,color_black,265612,,black_plus_sign,,,,null,,,,,,,,,,,,,,,,,,,,,,,,,,,
null,,learn_phase(without_color),268616,,black_plus_sign,,,,null,GW/carmel.png,GW/racine.png,,,,,,,,,,,,,,,,,,,,,,,,,
null,,black_cross(without_color),269121,,yellow,,,,null,GW/carmel.png,GW/racine.png,,,,,,,,,,,,,,,,,,,,,,,,,
null,,rt_plussign_withcolor,269625,,yellow,,,,null,GW/carmel.png,GW/racine.png,,,,,,,,,,,,,,,,,,,,,,,,,
1320.9000000003725,,rt_thecrossant_black,271126,,black_plus_sign,,,,50,,,1,1,,,,,,,,,,,,,,,,,,,,,,,
null,,color_black,271229,,black_plus_sign,,,,null,,,,,,,,,,,,,,,,,,,,,,,,,,,
null,,learn_phase(without_color),274232,,black_plus_sign,,,,null,GW/boulder.png,GW/westpalmbeach.png,,,,,,,,,,,,,,,,,,,,,,,,,
null,,black_cross(without_color),275226,,blue,,,,null,GW/boulder.png,GW/westpalmbeach.png,,,,,,,,,,,,,,,,,,,,,,,,,
447.30000000074506,,rt_plussign_withcolor,275738,,blue,,,,49,GW/boulder.png,GW/westpalmbeach.png,,,,,,,,,,,,,,,,,,,,,,,,,
null,,rt_thecrossant_black,276756,,black_plus_sign,,,,null,,,1,1,,,,,,,,,,,,,,,,,,,,,,,
null,,color_black,276858,,black_plus_sign,,,,null,,,,,,,,,,,,,,,,,,,,,,,,,,,
null,,learn_phase(without_color),279862,,black_plus_sign,,,,null,GW/hanover.png,GW/carmel.png,,,,,,,,,,,,,,,,,,,,,,,,,
null,,black_cross(without_color),280816,,yellow,,,,null,GW/hanover.png,GW/carmel.png,,,,,,,,,,,,,,,,,,,,,,,,,
460.30000000074506,,rt_plussign_withcolor,281319,,yellow,,,,50,GW/hanover.png,GW/carmel.png,,,,,,,,,,,,,,,,,,,,,,,,,
null,,rt_thecrossant_black,282369,,black_plus_sign,,,,null,,,1,1,,,,,,,,,,,,,,,,,,,,,,,
null,,color_black,282472,,black_plus_sign,,,,null,,,,,,,,,,,,,,,,,,,,,,,,,,,
null,,learn_phase(without_color),285486,,black_plus_sign,,,,null,GW/newhope.png,GW/westpalmbeach.png,,,,,,,,,,,,,,,,,,,,,,,,,
null,,black_cross(without_color),286319,,yellow,,,,null,GW/newhope.png,GW/westpalmbeach.png,,,,,,,,,,,,,,,,,,,,,,,,,
null,,rt_plussign_withcolor,286822,,yellow,,,,null,GW/newhope.png,GW/westpalmbeach.png,,,,,,,,,,,,,,,,,,,,,,,,,
1096.699999999255,,rt_thecrossant_black,287999,,black_plus_sign,,,,50,,,1,1,,,,,,,,,,,,,,,,,,,,,,,
null,,color_black,288102,,black_plus_sign,,,,null,,,,,,,,,,,,,,,,,,,,,,,,,,,
null,,learn_phase(without_color),291105,,black_plus_sign,,,,null,GW/shreveport.png,GW/westpalmbeach.png,,,,,,,,,,,,,,,,,,,,,,,,,
null,,black_cross(without_color),291528,,yellow,,,,null,GW/shreveport.png,GW/westpalmbeach.png,,,,,,,,,,,,,,,,,,,,,,,,,
null,,rt_plussign_withcolor,292030,,yellow,,,,null,GW/shreveport.png,GW/westpalmbeach.png,,,,,,,,,,,,,,,,,,,,,,,,,
961.5,,rt_thecrossant_black,293612,,black_plus_sign,,,,50,,,1,1,,,,,,,,,,,,,,,,,,,,,,,
null,,color_black,293720,,black_plus_sign,,,,null,,,,,,,,,,,,,,,,,,,,,,,,,,,
null,,learn_phase(without_color),296725,,black_plus_sign,,,,null,GW/cornwall.png,GW/westpalmbeach.png,,,,,,,,,,,,,,,,,,,,,,,,,
null,,black_cross(without_color),297285,,blue,,,,null,GW/cornwall.png,GW/westpalmbeach.png,,,,,,,,,,,,,,,,,,,,,,,,,
null,,rt_plussign_withcolor,297786,,blue,,,,null,GW/cornwall.png,GW/westpalmbeach.png,,,,,,,,,,,,,,,,,,,,,,,,,
715.2999999988824,,rt_thecrossant_black,299232,,black_plus_sign,,,,49,,,1,1,,,,,,,,,,,,,,,,,,,,,,,
null,,color_black,299335,,black_plus_sign,,,,null,,,,,,,,,,,,,,,,,,,,,,,,,,,
null,,learn_phase(without_color),302338,,black_plus_sign,,,,null,GW/shreveport.png,GW/cornwall.png,,,,,,,,,,,,,,,,,,,,,,,,,
null,,black_cross(without_color),302905,,yellow,,,,null,GW/shreveport.png,GW/cornwall.png,,,,,,,,,,,,,,,,,,,,,,,,,
null,,rt_plussign_withcolor,303407,,yellow,,,,null,GW/shreveport.png,GW/cornwall.png,,,,,,,,,,,,,,,,,,,,,,,,,
680.5,,rt_thecrossant_black,304845,,black_plus_sign,,,,50,,,1,1,,,,,,,,,,,,,,,,,,,,,,,
null,,color_black,304947,,black_plus_sign,,,,null,,,,,,,,,,,,,,,,,,,,,,,,,,,
null,,learn_phase(without_color),307950,,black_plus_sign,,,,null,GW/carmel.png,GW/racine.png,,,,,,,,,,,,,,,,,,,,,,,,,
null,,black_cross(without_color),308460,,blue,,,,null,GW/carmel.png,GW/racine.png,,,,,,,,,,,,,,,,,,,,,,,,,
null,,rt_plussign_withcolor,308962,,blue,,,,null,GW/carmel.png,GW/racine.png,,,,,,,,,,,,,,,,,,,,,,,,,
749.2999999988824,,rt_thecrossant_black,310456,,black_plus_sign,,,,49,,,1,1,,,,,,,,,,,,,,,,,,,,,,,
null,,color_black,310558,,black_plus_sign,,,,null,,,,,,,,,,,,,,,,,,,,,,,,,,,
null,,learn_phase(without_color),313564,,black_plus_sign,,,,null,GW/cornwall.png,GW/shreveport.png,,,,,,,,,,,,,,,,,,,,,,,,,
null,,black_cross(without_color),314378,,yellow,,,,null,GW/cornwall.png,GW/shreveport.png,,,,,,,,,,,,,,,,,,,,,,,,,
451.2999999988824,,rt_plussign_withcolor,314881,,yellow,,,,50,GW/cornwall.png,GW/shreveport.png,,,,,,,,,,,,,,,,,,,,,,,,,
null,,rt_thecrossant_black,316073,,black_plus_sign,,,,null,,,1,1,,,,,,,,,,,,,,,,,,,,,,,
null,,color_black,316176,,black_plus_sign,,,,null,,,,,,,,,,,,,,,,,,,,,,,,,,,
null,,learn_phase(without_color),319179,,black_plus_sign,,,,null,GW/cornwall.png,GW/leesburg.png,,,,,,,,,,,,,,,,,,,,,,,,,
null,,black_cross(without_color),319989,,yellow,,,,null,GW/cornwall.png,GW/leesburg.png,,,,,,,,,,,,,,,,,,,,,,,,,
null,,rt_plussign_withcolor,320491,,yellow,,,,null,GW/cornwall.png,GW/leesburg.png,,,,,,,,,,,,,,,,,,,,,,,,,
957.7000000011176,,rt_thecrossant_black,321688,,black_plus_sign,,,,50,,,1,1,,,,,,,,,,,,,,,,,,,,,,,
null,,color_black,321791,,black_plus_sign,,,,null,,,,,,,,,,,,,,,,,,,,,,,,,,,
null,,learn_phase(without_color),324807,,black_plus_sign,,,,null,GW/peoria.png,GW/newhope.png,,,,,,,,,,,,,,,,,,,,,,,,,
null,,black_cross(without_color),325735,,blue,,,,null,GW/peoria.png,GW/newhope.png,,,,,,,,,,,,,,,,,,,,,,,,,
376.7000000011176,,rt_plussign_withcolor,326238,,blue,,,,49,GW/peoria.png,GW/newhope.png,,,,,,,,,,,,,,,,,,,,,,,,,
null,,rt_thecrossant_black,327318,,black_plus_sign,,,,null,,,1,1,,,,,,,,,,,,,,,,,,,,,,,
null,,color_black,327420,,black_plus_sign,,,,null,,,,,,,,,,,,,,,,,,,,,,,,,,,
null,,learn_phase(without_color),330425,,black_plus_sign,,,,null,GW/racine.png,GW/carmel.png,,,,,,,,,,,,,,,,,,,,,,,,,
null,,black_cross(without_color),330934,,yellow,,,,null,GW/racine.png,GW/carmel.png,,,,,,,,,,,,,,,,,,,,,,,,,
null,,rt_plussign_withcolor,331436,,yellow,,,,null,GW/racine.png,GW/carmel.png,,,,,,,,,,,,,,,,,,,,,,,,,
1030.7999999988824,,rt_thecrossant_black,332930,,black_plus_sign,,,,50,,,1,1,,,,,,,,,,,,,,,,,,,,,,,
null,,color_black,333033,,black_plus_sign,,,,null,,,,,,,,,,,,,,,,,,,,,,,,,,,
null,,learn_phase(without_color),336036,,black_plus_sign,,,,null,GW/westpalmbeach.png,GW/shreveport.png,,,,,,,,,,,,,,,,,,,,,,,,,
null,,black_cross(without_color),337080,,blue,,,,null,GW/westpalmbeach.png,GW/shreveport.png,,,,,,,,,,,,,,,,,,,,,,,,,
475,,rt_plussign_withcolor,337583,,blue,,,,49,GW/westpalmbeach.png,GW/shreveport.png,,,,,,,,,,,,,,,,,,,,,,,,,
null,,rt_thecrossant_black,338545,,black_plus_sign,,,,null,,,1,1,,,,,,,,,,,,,,,,,,,,,,,
null,,color_black,338647,,black_plus_sign,,,,null,,,,,,,,,,,,,,,,,,,,,,,,,,,
null,,learn_phase(without_color),341652,,black_plus_sign,,,,null,GW/hanover.png,GW/shreveport.png,,,,,,,,,,,,,,,,,,,,,,,,,
null,,black_cross(without_color),342548,,blue,,,,null,GW/hanover.png,GW/shreveport.png,,,,,,,,,,,,,,,,,,,,,,,,,
498.7999999988824,,rt_plussign_withcolor,343050,,blue,,,,49,GW/hanover.png,GW/shreveport.png,,,,,,,,,,,,,,,,,,,,,,,,,
null,,rt_thecrossant_black,344159,,black_plus_sign,,,,null,,,1,1,,,,,,,,,,,,,,,,,,,,,,,
null,,color_black,344263,,black_plus_sign,,,,null,,,,,,,,,,,,,,,,,,,,,,,,,,,
null,,learn_phase(without_color),347266,,black_plus_sign,,,,null,GW/shreveport.png,GW/cornwall.png,,,,,,,,,,,,,,,,,,,,,,,,,
null,,black_cross(without_color),347728,,blue,,,,null,GW/shreveport.png,GW/cornwall.png,,,,,,,,,,,,,,,,,,,,,,,,,
null,,rt_plussign_withcolor,348231,,blue,,,,null,GW/shreveport.png,GW/cornwall.png,,,,,,,,,,,,,,,,,,,,,,,,,
1019.5,,rt_thecrossant_black,349779,,black_plus_sign,,,,49,,,1,1,,,,,,,,,,,,,,,,,,,,,,,
null,,color_black,349882,,black_plus_sign,,,,null,,,,,,,,,,,,,,,,,,,,,,,,,,,
null,,learn_phase(without_color),352886,,black_plus_sign,,,,null,GW/boulder.png,GW/westpalmbeach.png,,,,,,,,,,,,,,,,,,,,,,,,,
null,,black_cross(without_color),353745,,blue,,,,null,GW/boulder.png,GW/westpalmbeach.png,,,,,,,,,,,,,,,,,,,,,,,,,
488.5,,rt_plussign_withcolor,354246,,blue,,,,49,GW/boulder.png,GW/westpalmbeach.png,,,,,,,,,,,,,,,,,,,,,,,,,
null,,rt_thecrossant_black,355395,,black_plus_sign,,,,null,,,1,1,,,,,,,,,,,,,,,,,,,,,,,
null,,color_black,355497,,black_plus_sign,,,,null,,,,,,,,,,,,,,,,,,,,,,,,,,,
null,,learn_phase(without_color),358500,,black_plus_sign,,,,null,GW/hanover.png,GW/shreveport.png,,,,,,,,,,,,,,,,,,,,,,,,,
null,,black_cross(without_color),359331,,yellow,,,,null,GW/hanover.png,GW/shreveport.png,,,,,,,,,,,,,,,,,,,,,,,,,
400.2000000011176,,rt_plussign_withcolor,359834,,yellow,,,,49,GW/hanover.png,GW/shreveport.png,,,,,,,,,,,,,,,,,,,,,,,,,
null,,rt_thecrossant_black,361009,,black_plus_sign,,,,null,,,0,0.975609756097561,,,,,,,,,,,,,,,,,,,,,,,
null,,color_black,361111,,black_plus_sign,,,,null,,,,,,,,,,,,,,,,,,,,,,,,,,,
null,,learn_phase(without_color),364115,,black_plus_sign,,,,null,GW/newhope.png,GW/westpalmbeach.png,,,,,,,,,,,,,,,,,,,,,,,,,
null,,black_cross(without_color),365020,,yellow,,,,null,GW/newhope.png,GW/westpalmbeach.png,,,,,,,,,,,,,,,,,,,,,,,,,
363.30000000074506,,rt_plussign_withcolor,365522,,yellow,,,,50,GW/newhope.png,GW/westpalmbeach.png,,,,,,,,,,,,,,,,,,,,,,,,,
null,,rt_thecrossant_black,366622,,black_plus_sign,,,,null,,,1,0.9761904761904762,,,,,,,,,,,,,,,,,,,,,,,
null,,color_black,366726,,black_plus_sign,,,,null,,,,,,,,,,,,,,,,,,,,,,,,,,,
null,,learn_phase(without_color),369729,,black_plus_sign,,,,null,GW/newhope.png,GW/peoria.png,,,,,,,,,,,,,,,,,,,,,,,,,
null,,black_cross(without_color),370803,,yellow,,,,null,GW/newhope.png,GW/peoria.png,,,,,,,,,,,,,,,,,,,,,,,,,
379.40000000037253,,rt_plussign_withcolor,371306,,yellow,,,,50,GW/newhope.png,GW/peoria.png,,,,,,,,,,,,,,,,,,,,,,,,,
null,,rt_thecrossant_black,372239,,black_plus_sign,,,,null,,,1,0.9767441860465116,,,,,,,,,,,,,,,,,,,,,,,
null,,color_black,372341,,black_plus_sign,,,,null,,,,,,,,,,,,,,,,,,,,,,,,,,,
null,,learn_phase(without_color),375344,,black_plus_sign,,,,null,GW/newhope.png,GW/cornwall.png,,,,,,,,,,,,,,,,,,,,,,,,,
null,,black_cross(without_color),376377,,yellow,,,,null,GW/newhope.png,GW/cornwall.png,,,,,,,,,,,,,,,,,,,,,,,,,
null,,rt_plussign_withcolor,376879,,yellow,,,,null,GW/newhope.png,GW/cornwall.png,,,,,,,,,,,,,,,,,,,,,,,,,
1301.800000000745,,rt_thecrossant_black,377852,,black_plus_sign,,,,50,,,1,0.9772727272727273,,,,,,,,,,,,,,,,,,,,,,,
null,,color_black,377969,,black_plus_sign,,,,null,,,,,,,,,,,,,,,,,,,,,,,,,,,
null,,learn_phase(without_color),380973,,black_plus_sign,,,,null,GW/gatlinburg.png,GW/carmel.png,,,,,,,,,,,,,,,,,,,,,,,,,
null,,black_cross(without_color),381839,,yellow,,,,null,GW/gatlinburg.png,GW/carmel.png,,,,,,,,,,,,,,,,,,,,,,,,,
null,,rt_plussign_withcolor,382341,,yellow,,,,null,GW/gatlinburg.png,GW/carmel.png,,,,,,,,,,,,,,,,,,,,,,,,,
1133.4000000003725,,rt_thecrossant_black,383483,,black_plus_sign,,,,50,,,1,0.9777777777777777,,,,,,,,,,,,,,,,,,,,,,,
null,,color_black,383597,,black_plus_sign,,,,null,,,,,,,,,,,,,,,,,,,,,,,,,,,
null,,learn_phase(without_color),386602,,black_plus_sign,,,,null,GW/westpalmbeach.png,GW/shreveport.png,,,,,,,,,,,,,,,,,,,,,,,,,
null,,black_cross(without_color),387035,,blue,,,,null,GW/westpalmbeach.png,GW/shreveport.png,,,,,,,,,,,,,,,,,,,,,,,,,
500.09999999962747,,rt_plussign_withcolor,387538,,blue,,,,49,GW/westpalmbeach.png,GW/shreveport.png,,,,,,,,,,,,,,,,,,,,,,,,,
null,,rt_thecrossant_black,389111,,black_plus_sign,,,,null,,,1,0.9782608695652174,,,,,,,,,,,,,,,,,,,,,,,
null,,color_black,389215,,black_plus_sign,,,,null,,,,,,,,,,,,,,,,,,,,,,,,,,,
null,,learn_phase(without_color),392219,,black_plus_sign,,,,null,GW/hotsprings.png,GW/leesburg.png,,,,,,,,,,,,,,,,,,,,,,,,,
null,,black_cross(without_color),392710,,blue,,,,null,GW/hotsprings.png,GW/leesburg.png,,,,,,,,,,,,,,,,,,,,,,,,,
null,,rt_plussign_withcolor,393213,,blue,,,,null,GW/hotsprings.png,GW/leesburg.png,,,,,,,,,,,,,,,,,,,,,,,,,
560.5,,rt_thecrossant_black,394728,,black_plus_sign,,,,49,,,1,0.9787234042553191,,,,,,,,,,,,,,,,,,,,,,,
null,,color_black,394831,,black_plus_sign,,,,null,,,,,,,,,,,,,,,,,,,,,,,,,,,
null,,learn_phase(without_color),397835,,black_plus_sign,,,,null,GW/hotsprings.png,GW/racine.png,,,,,,,,,,,,,,,,,,,,,,,,,
null,,black_cross(without_color),398614,,blue,,,,null,GW/hotsprings.png,GW/racine.png,,,,,,,,,,,,,,,,,,,,,,,,,
408.59999999962747,,rt_plussign_withcolor,399116,,blue,,,,49,GW/hotsprings.png,GW/racine.png,,,,,,,,,,,,,,,,,,,,,,,,,
null,,rt_thecrossant_black,400342,,black_plus_sign,,,,null,,,1,0.9791666666666666,,,,,,,,,,,,,,,,,,,,,,,
null,,color_black,400459,,black_plus_sign,,,,null,,,,,,,,,,,,,,,,,,,,,,,,,,,
null,,learn_phase(without_color),403463,,black_plus_sign,,,,null,GW/carmel.png,GW/hanover.png,,,,,,,,,,,,,,,,,,,,,,,,,
null,,black_cross(without_color),404379,,blue,,,,null,GW/carmel.png,GW/hanover.png,,,,,,,,,,,,,,,,,,,,,,,,,
null,,rt_plussign_withcolor,404881,,blue,,,,null,GW/carmel.png,GW/hanover.png,,,,,,,,,,,,,,,,,,,,,,,,,
941.1000000014901,,rt_thecrossant_black,405973,,black_plus_sign,,,,49,,,1,0.9795918367346939,,,,,,,,,,,,,,,,,,,,,,,
null,,color_black,406076,,black_plus_sign,,,,null,,,,,,,,,,,,,,,,,,,,,,,,,,,
null,,learn_phase(without_color),409078,,black_plus_sign,,,,null,GW/leesburg.png,GW/hotsprings.png,,,,,,,,,,,,,,,,,,,,,,,,,
null,,black_cross(without_color),409952,,yellow,,,,null,GW/leesburg.png,GW/hotsprings.png,,,,,,,,,,,,,,,,,,,,,,,,,
484.40000000037253,,rt_plussign_withcolor,410455,,yellow,,,,50,GW/leesburg.png,GW/hotsprings.png,,,,,,,,,,,,,,,,,,,,,,,,,
null,,rt_thecrossant_black,411586,,black_plus_sign,,,,null,,,1,0.98,,,,,,,,,,,,,,,,,,,,,,,
null,,color_black,411689,,black_plus_sign,,,,null,,,,,,,,,,,,,,,,,,,,,,,,,,,
null,,learn_phase(without_color),414694,,black_plus_sign,,,,null,GW/leesburg.png,GW/hotsprings.png,,,,,,,,,,,,,,,,,,,,,,,,,
null,,black_cross(without_color),415294,,yellow,,,,null,GW/leesburg.png,GW/hotsprings.png,,,,,,,,,,,,,,,,,,,,,,,,,
381.7000000011176,,rt_plussign_withcolor,415796,,yellow,,,,50,GW/leesburg.png,GW/hotsprings.png,,,,,,,,,,,,,,,,,,,,,,,,,
null,,rt_thecrossant_black,417202,,black_plus_sign,,,,null,,,1,0.9803921568627451,,,,,,,,,,,,,,,,,,,,,,,
null,,color_black,417318,,black_plus_sign,,,,null,,,,,,,,,,,,,,,,,,,,,,,,,,,
null,,learn_phase(without_color),420332,,black_plus_sign,,,,null,GW/shreveport.png,GW/cornwall.png,,,,,,,,,,,,,,,,,,,,,,,,,
null,,black_cross(without_color),420974,,yellow,,,,null,GW/shreveport.png,GW/cornwall.png,,,,,,,,,,,,,,,,,,,,,,,,,
null,,rt_plussign_withcolor,421477,,yellow,,,,null,GW/shreveport.png,GW/cornwall.png,,,,,,,,,,,,,,,,,,,,,,,,,
706.0999999996275,,rt_thecrossant_black,422841,,black_plus_sign,,,,50,,,1,0.9807692307692307,,,,,,,,,,,,,,,,,,,,,,,
null,,color_black,422956,,black_plus_sign,,,,null,,,,,,,,,,,,,,,,,,,,,,,,,,,
null,,learn_phase(without_color),425959,,black_plus_sign,,,,null,GW/newhope.png,GW/cornwall.png,,,,,,,,,,,,,,,,,,,,,,,,,
null,,black_cross(without_color),427011,,yellow,,,,null,GW/newhope.png,GW/cornwall.png,,,,,,,,,,,,,,,,,,,,,,,,,
null,,rt_plussign_withcolor,427515,,yellow,,,,null,GW/newhope.png,GW/cornwall.png,,,,,,,,,,,,,,,,,,,,,,,,,
739.4000000003725,,rt_thecrossant_black,428469,,black_plus_sign,,,,50,,,1,0.9811320754716981,,,,,,,,,,,,,,,,,,,,,,,
null,,color_black,428572,,black_plus_sign,,,,null,,,,,,,,,,,,,,,,,,,,,,,,,,,
null,,learn_phase(without_color),431577,,black_plus_sign,,,,null,GW/hanover.png,GW/carmel.png,,,,,,,,,,,,,,,,,,,,,,,,,
null,,black_cross(without_color),432051,,blue,,,,null,GW/hanover.png,GW/carmel.png,,,,,,,,,,,,,,,,,,,,,,,,,
null,,rt_plussign_withcolor,432555,,blue,,,,null,GW/hanover.png,GW/carmel.png,,,,,,,,,,,,,,,,,,,,,,,,,
1180.2999999988824,,rt_thecrossant_black,434086,,black_plus_sign,,,,49,,,1,0.9814814814814815,,,,,,,,,,,,,,,,,,,,,,,
null,,color_black,434189,,black_plus_sign,,,,null,,,,,,,,,,,,,,,,,,,,,,,,,,,
null,,learn_phase(without_color),437193,,black_plus_sign,,,,null,GW/shreveport.png,GW/hanover.png,,,,,,,,,,,,,,,,,,,,,,,,,
null,,black_cross(without_color),437759,,yellow,,,,null,GW/shreveport.png,GW/hanover.png,,,,,,,,,,,,,,,,,,,,,,,,,
null,,rt_plussign_withcolor,438275,,yellow,,,,null,GW/shreveport.png,GW/hanover.png,,,,,,,,,,,,,,,,,,,,,,,,,
610,,rt_thecrossant_black,439716,,black_plus_sign,,,,50,,,1,0.9818181818181818,,,,,,,,,,,,,,,,,,,,,,,
null,,color_black,439820,,black_plus_sign,,,,null,,,,,,,,,,,,,,,,,,,,,,,,,,,
null,,learn_phase(without_color),442825,,black_plus_sign,,,,null,GW/newhope.png,GW/westpalmbeach.png,,,,,,,,,,,,,,,,,,,,,,,,,
null,,black_cross(without_color),443250,,blue,,,,null,GW/newhope.png,GW/westpalmbeach.png,,,,,,,,,,,,,,,,,,,,,,,,,
null,,rt_plussign_withcolor,443753,,blue,,,,null,GW/newhope.png,GW/westpalmbeach.png,,,,,,,,,,,,,,,,,,,,,,,,,
714.0999999996275,,rt_thecrossant_black,445334,,black_plus_sign,,,,49,,,1,0.9821428571428571,,,,,,,,,,,,,,,,,,,,,,,
null,,color_black,445436,,black_plus_sign,,,,null,,,,,,,,,,,,,,,,,,,,,,,,,,,
null,,learn_phase(without_color),448439,,black_plus_sign,,,,null,GW/racine.png,GW/huntsville.png,,,,,,,,,,,,,,,,,,,,,,,,,
null,,black_cross(without_color),449113,,blue,,,,null,GW/racine.png,GW/huntsville.png,,,,,,,,,,,,,,,,,,,,,,,,,
496.2999999988824,,rt_plussign_withcolor,449618,,blue,,,,49,GW/racine.png,GW/huntsville.png,,,,,,,,,,,,,,,,,,,,,,,,,
null,,rt_thecrossant_black,450952,,black_plus_sign,,,,null,,,1,0.9824561403508771,,,,,,,,,,,,,,,,,,,,,,,
null,,color_black,451055,,black_plus_sign,,,,null,,,,,,,,,,,,,,,,,,,,,,,,,,,
null,,learn_phase(without_color),454057,,black_plus_sign,,,,null,GW/westpalmbeach.png,GW/cornwall.png,,,,,,,,,,,,,,,,,,,,,,,,,
null,,black_cross(without_color),455068,,blue,,,,null,GW/westpalmbeach.png,GW/cornwall.png,,,,,,,,,,,,,,,,,,,,,,,,,
null,,rt_plussign_withcolor,455570,,blue,,,,null,GW/westpalmbeach.png,GW/cornwall.png,,,,,,,,,,,,,,,,,,,,,,,,,
1123.699999999255,,rt_thecrossant_black,456564,,black_plus_sign,,,,49,,,1,0.9827586206896551,,,,,,,,,,,,,,,,,,,,,,,
null,,color_black,456667,,black_plus_sign,,,,null,,,,,,,,,,,,,,,,,,,,,,,,,,,
null,,learn_phase(without_color),459670,,black_plus_sign,,,,null,GW/boulder.png,GW/westpalmbeach.png,,,,,,,,,,,,,,,,,,,,,,,,,
null,,black_cross(without_color),460443,,yellow,,,,null,GW/boulder.png,GW/westpalmbeach.png,,,,,,,,,,,,,,,,,,,,,,,,,
411.2999999988824,,rt_plussign_withcolor,460947,,yellow,,,,50,GW/boulder.png,GW/westpalmbeach.png,,,,,,,,,,,,,,,,,,,,,,,,,
null,,rt_thecrossant_black,462180,,black_plus_sign,,,,null,,,1,0.9830508474576272,,,,,,,,,,,,,,,,,,,,,,,
null,,color_black,462283,,black_plus_sign,,,,null,,,,,,,,,,,,,,,,,,,,,,,,,,,
null,,learn_phase(without_color),465298,,black_plus_sign,,,,null,GW/racine.png,GW/huntsville.png,,,,,,,,,,,,,,,,,,,,,,,,,
null,,black_cross(without_color),465952,,yellow,,,,null,GW/racine.png,GW/huntsville.png,,,,,,,,,,,,,,,,,,,,,,,,,
null,,rt_plussign_withcolor,466454,,yellow,,,,null,GW/racine.png,GW/huntsville.png,,,,,,,,,,,,,,,,,,,,,,,,,
911.6999999992549,,rt_thecrossant_black,467807,,black_plus_sign,,,,50,,,1,0.9833333333333333,,,,,,,,,,,,,,,,,,,,,,,
null,,color_black,467910,,black_plus_sign,,,,null,,,,,,,,,,,,,,,,,,,,,,,,,,,
null,,learn_phase(without_color),470915,,black_plus_sign,,,,null,GW/westpalmbeach.png,GW/cornwall.png,,,,,,,,,,,,,,,,,,,,,,,,,
null,,black_cross(without_color),471459,,blue,,,,null,GW/westpalmbeach.png,GW/cornwall.png,,,,,,,,,,,,,,,,,,,,,,,,,
489.7999999988824,,rt_plussign_withcolor,471961,,blue,,,,49,GW/westpalmbeach.png,GW/cornwall.png,,,,,,,,,,,,,,,,,,,,,,,,,
null,,rt_thecrossant_black,473424,,black_plus_sign,,,,null,,,1,0.9836065573770492,,,,,,,,,,,,,,,,,,,,,,,
null,,color_black,473526,,black_plus_sign,,,,null,,,,,,,,,,,,,,,,,,,,,,,,,,,
null,,learn_phase(without_color),476528,,black_plus_sign,,,,null,GW/racine.png,GW/hotsprings.png,,,,,,,,,,,,,,,,,,,,,,,,,
null,,black_cross(without_color),477192,,yellow,,,,null,GW/racine.png,GW/hotsprings.png,,,,,,,,,,,,,,,,,,,,,,,,,
476.90000000037253,,rt_plussign_withcolor,477694,,yellow,,,,50,GW/racine.png,GW/hotsprings.png,,,,,,,,,,,,,,,,,,,,,,,,,
null,,rt_thecrossant_black,479036,,black_plus_sign,,,,null,,,1,0.9838709677419355,,,,,,,,,,,,,,,,,,,,,,,
null,,color_black,479138,,black_plus_sign,,,,null,,,,,,,,,,,,,,,,,,,,,,,,,,,
null,,learn_phase(without_color),482142,,black_plus_sign,,,,null,GW/racine.png,GW/carmel.png,,,,,,,,,,,,,,,,,,,,,,,,,
null,,black_cross(without_color),483205,,yellow,,,,null,GW/racine.png,GW/carmel.png,,,,,,,,,,,,,,,,,,,,,,,,,
null,,rt_plussign_withcolor,483707,,yellow,,,,null,GW/racine.png,GW/carmel.png,,,,,,,,,,,,,,,,,,,,,,,,,
771.9000000003725,,rt_thecrossant_black,484651,,black_plus_sign,,,,50,,,1,0.9841269841269841,,,,,,,,,,,,,,,,,,,,,,,
null,,color_black,484754,,black_plus_sign,,,,null,,,,,,,,,,,,,,,,,,,,,,,,,,,
null,,learn_phase(without_color),487758,,black_plus_sign,,,,null,GW/racine.png,GW/hotsprings.png,,,,,,,,,,,,,,,,,,,,,,,,,
null,,black_cross(without_color),488354,,yellow,,,,null,GW/racine.png,GW/hotsprings.png,,,,,,,,,,,,,,,,,,,,,,,,,
417.2000000011176,,rt_plussign_withcolor,488858,,yellow,,,,50,GW/racine.png,GW/hotsprings.png,,,,,,,,,,,,,,,,,,,,,,,,,
null,,rt_thecrossant_black,490278,,black_plus_sign,,,,null,,,1,0.984375,,,,,,,,,,,,,,,,,,,,,,,
null,,color_black,490381,,black_plus_sign,,,,null,,,,,,,,,,,,,,,,,,,,,,,,,,,
13012.699999999255,,learn_break,503396,,learn_break,,,,32,,,,,,,,,,,,,,,,,,,,,,,,,,,
null,,html-keyboard-response,504400,,<p></p>,,,,null,,,,,,,,,,,,,,,,,,,,,,,,,,,
null,,learn_phase(without_color),507404,,black_plus_sign,,,,null,GW/westpalmbeach.png,GW/newhope.png,,,,,,,,,,,,,,,,,,,,,,,,,
null,,black_cross(without_color),507865,,blue,,,,null,GW/westpalmbeach.png,GW/newhope.png,,,,,,,,,,,,,,,,,,,,,,,,,
null,,rt_plussign_withcolor,508368,,blue,,,,null,GW/westpalmbeach.png,GW/newhope.png,,,,,,,,,,,,,,,,,,,,,,,,,
818,,rt_thecrossant_black,509914,,black_plus_sign,,,,49,,,1,0.9846153846153847,,,,,,,,,,,,,,,,,,,,,,,
null,,color_black,510017,,black_plus_sign,,,,null,,,,,,,,,,,,,,,,,,,,,,,,,,,
null,,learn_phase(without_color),513027,,black_plus_sign,,,,null,GW/leesburg.png,GW/hanover.png,,,,,,,,,,,,,,,,,,,,,,,,,
null,,black_cross(without_color),513475,,blue,,,,null,GW/leesburg.png,GW/hanover.png,,,,,,,,,,,,,,,,,,,,,,,,,
null,,rt_plussign_withcolor,513978,,blue,,,,null,GW/leesburg.png,GW/hanover.png,,,,,,,,,,,,,,,,,,,,,,,,,
605.1999999992549,,rt_thecrossant_black,515543,,black_plus_sign,,,,49,,,1,0.9848484848484849,,,,,,,,,,,,,,,,,,,,,,,
null,,color_black,515646,,black_plus_sign,,,,null,,,,,,,,,,,,,,,,,,,,,,,,,,,
null,,learn_phase(without_color),518649,,black_plus_sign,,,,null,GW/cornwall.png,GW/leesburg.png,,,,,,,,,,,,,,,,,,,,,,,,,
null,,black_cross(without_color),519414,,blue,,,,null,GW/cornwall.png,GW/leesburg.png,,,,,,,,,,,,,,,,,,,,,,,,,
472.40000000037253,,rt_plussign_withcolor,519917,,blue,,,,49,GW/cornwall.png,GW/leesburg.png,,,,,,,,,,,,,,,,,,,,,,,,,
null,,rt_thecrossant_black,521158,,black_plus_sign,,,,null,,,1,0.9850746268656716,,,,,,,,,,,,,,,,,,,,,,,
null,,color_black,521261,,black_plus_sign,,,,null,,,,,,,,,,,,,,,,,,,,,,,,,,,
null,,learn_phase(without_color),524264,,black_plus_sign,,,,null,GW/newhope.png,GW/peoria.png,,,,,,,,,,,,,,,,,,,,,,,,,
null,,black_cross(without_color),525271,,yellow,,,,null,GW/newhope.png,GW/peoria.png,,,,,,,,,,,,,,,,,,,,,,,,,
486.59999999962747,,rt_plussign_withcolor,525773,,yellow,,,,50,GW/newhope.png,GW/peoria.png,,,,,,,,,,,,,,,,,,,,,,,,,
null,,rt_thecrossant_black,526772,,black_plus_sign,,,,null,,,1,0.9852941176470589,,,,,,,,,,,,,,,,,,,,,,,
null,,color_black,526875,,black_plus_sign,,,,null,,,,,,,,,,,,,,,,,,,,,,,,,,,
null,,learn_phase(without_color),529879,,black_plus_sign,,,,null,GW/racine.png,GW/huntsville.png,,,,,,,,,,,,,,,,,,,,,,,,,
null,,black_cross(without_color),530949,,blue,,,,null,GW/racine.png,GW/huntsville.png,,,,,,,,,,,,,,,,,,,,,,,,,
null,,rt_plussign_withcolor,531451,,blue,,,,null,GW/racine.png,GW/huntsville.png,,,,,,,,,,,,,,,,,,,,,,,,,
1220.5999999996275,,rt_thecrossant_black,532386,,black_plus_sign,,,,49,,,1,0.9855072463768116,,,,,,,,,,,,,,,,,,,,,,,
null,,color_black,532488,,black_plus_sign,,,,null,,,,,,,,,,,,,,,,,,,,,,,,,,,
null,,learn_phase(without_color),535502,,black_plus_sign,,,,null,GW/newhope.png,GW/westpalmbeach.png,,,,,,,,,,,,,,,,,,,,,,,,,
null,,black_cross(without_color),536252,,blue,,,,null,GW/newhope.png,GW/westpalmbeach.png,,,,,,,,,,,,,,,,,,,,,,,,,
null,,rt_plussign_withcolor,536756,,blue,,,,null,GW/newhope.png,GW/westpalmbeach.png,,,,,,,,,,,,,,,,,,,,,,,,,
1246,,rt_thecrossant_black,538010,,black_plus_sign,,,,49,,,1,0.9857142857142858,,,,,,,,,,,,,,,,,,,,,,,
null,,color_black,538113,,black_plus_sign,,,,null,,,,,,,,,,,,,,,,,,,,,,,,,,,
null,,learn_phase(without_color),541120,,black_plus_sign,,,,null,GW/hotsprings.png,GW/leesburg.png,,,,,,,,,,,,,,,,,,,,,,,,,
null,,black_cross(without_color),541718,,yellow,,,,null,GW/hotsprings.png,GW/leesburg.png,,,,,,,,,,,,,,,,,,,,,,,,,
444.30000000074506,,rt_plussign_withcolor,542221,,yellow,,,,50,GW/hotsprings.png,GW/leesburg.png,,,,,,,,,,,,,,,,,,,,,,,,,
null,,rt_thecrossant_black,543629,,black_plus_sign,,,,null,,,1,0.9859154929577465,,,,,,,,,,,,,,,,,,,,,,,
null,,color_black,543732,,black_plus_sign,,,,null,,,,,,,,,,,,,,,,,,,,,,,,,,,
null,,learn_phase(without_color),546736,,black_plus_sign,,,,null,GW/cornwall.png,GW/newhope.png,,,,,,,,,,,,,,,,,,,,,,,,,
null,,black_cross(without_color),547279,,blue,,,,null,GW/cornwall.png,GW/newhope.png,,,,,,,,,,,,,,,,,,,,,,,,,
479.09999999962747,,rt_plussign_withcolor,547781,,blue,,,,49,GW/cornwall.png,GW/newhope.png,,,,,,,,,,,,,,,,,,,,,,,,,
null,,rt_thecrossant_black,549257,,black_plus_sign,,,,null,,,1,0.9861111111111112,,,,,,,,,,,,,,,,,,,,,,,
null,,color_black,549360,,black_plus_sign,,,,null,,,,,,,,,,,,,,,,,,,,,,,,,,,
null,,learn_phase(without_color),552365,,black_plus_sign,,,,null,GW/newhope.png,GW/peoria.png,,,,,,,,,,,,,,,,,,,,,,,,,
null,,black_cross(without_color),552865,,blue,,,,null,GW/newhope.png,GW/peoria.png,,,,,,,,,,,,,,,,,,,,,,,,,
399.2000000011176,,rt_plussign_withcolor,553371,,blue,,,,49,GW/newhope.png,GW/peoria.png,,,,,,,,,,,,,,,,,,,,,,,,,
null,,rt_thecrossant_black,554879,,black_plus_sign,,,,null,,,1,0.9863013698630136,,,,,,,,,,,,,,,,,,,,,,,
null,,color_black,554981,,black_plus_sign,,,,null,,,,,,,,,,,,,,,,,,,,,,,,,,,
null,,learn_phase(without_color),557985,,black_plus_sign,,,,null,GW/carmel.png,GW/racine.png,,,,,,,,,,,,,,,,,,,,,,,,,
null,,black_cross(without_color),558602,,blue,,,,null,GW/carmel.png,GW/racine.png,,,,,,,,,,,,,,,,,,,,,,,,,
401.2000000011176,,rt_plussign_withcolor,559105,,blue,,,,49,GW/carmel.png,GW/racine.png,,,,,,,,,,,,,,,,,,,,,,,,,
null,,rt_thecrossant_black,560509,,black_plus_sign,,,,null,,,1,0.9864864864864865,,,,,,,,,,,,,,,,,,,,,,,
null,,color_black,560612,,black_plus_sign,,,,null,,,,,,,,,,,,,,,,,,,,,,,,,,,
null,,learn_phase(without_color),563616,,black_plus_sign,,,,null,GW/westpalmbeach.png,GW/boulder.png,,,,,,,,,,,,,,,,,,,,,,,,,
null,,black_cross(without_color),564268,,blue,,,,null,GW/westpalmbeach.png,GW/boulder.png,,,,,,,,,,,,,,,,,,,,,,,,,
373.69999999925494,,rt_plussign_withcolor,564771,,blue,,,,49,GW/westpalmbeach.png,GW/boulder.png,,,,,,,,,,,,,,,,,,,,,,,,,
null,,rt_thecrossant_black,566124,,black_plus_sign,,,,null,,,1,0.9866666666666667,,,,,,,,,,,,,,,,,,,,,,,
null,,color_black,566228,,black_plus_sign,,,,null,,,,,,,,,,,,,,,,,,,,,,,,,,,
null,,learn_phase(without_color),569233,,black_plus_sign,,,,null,GW/carmel.png,GW/hanover.png,,,,,,,,,,,,,,,,,,,,,,,,,
null,,black_cross(without_color),570265,,yellow,,,,null,GW/carmel.png,GW/hanover.png,,,,,,,,,,,,,,,,,,,,,,,,,
308.40000000037253,,rt_plussign_withcolor,570768,,yellow,,,,50,GW/carmel.png,GW/hanover.png,,,,,,,,,,,,,,,,,,,,,,,,,
null,,rt_thecrossant_black,571743,,black_plus_sign,,,,null,,,1,0.9868421052631579,,,,,,,,,,,,,,,,,,,,,,,
null,,color_black,571846,,black_plus_sign,,,,null,,,,,,,,,,,,,,,,,,,,,,,,,,,
null,,learn_phase(without_color),574849,,black_plus_sign,,,,null,GW/huntsville.png,GW/racine.png,,,,,,,,,,,,,,,,,,,,,,,,,
null,,black_cross(without_color),575829,,yellow,,,,null,GW/huntsville.png,GW/racine.png,,,,,,,,,,,,,,,,,,,,,,,,,
363.40000000037253,,rt_plussign_withcolor,576331,,yellow,,,,50,GW/huntsville.png,GW/racine.png,,,,,,,,,,,,,,,,,,,,,,,,,
null,,rt_thecrossant_black,577365,,black_plus_sign,,,,null,,,1,0.987012987012987,,,,,,,,,,,,,,,,,,,,,,,
null,,color_black,577468,,black_plus_sign,,,,null,,,,,,,,,,,,,,,,,,,,,,,,,,,
null,,learn_phase(without_color),580471,,black_plus_sign,,,,null,GW/hotsprings.png,GW/leesburg.png,,,,,,,,,,,,,,,,,,,,,,,,,
null,,black_cross(without_color),581142,,yellow,,,,null,GW/hotsprings.png,GW/leesburg.png,,,,,,,,,,,,,,,,,,,,,,,,,
382.6000000014901,,rt_plussign_withcolor,581645,,yellow,,,,50,GW/hotsprings.png,GW/leesburg.png,,,,,,,,,,,,,,,,,,,,,,,,,
null,,rt_thecrossant_black,582980,,black_plus_sign,,,,null,,,1,0.9871794871794872,,,,,,,,,,,,,,,,,,,,,,,
null,,color_black,583084,,black_plus_sign,,,,null,,,,,,,,,,,,,,,,,,,,,,,,,,,
null,,learn_phase(without_color),586086,,black_plus_sign,,,,null,GW/westpalmbeach.png,GW/cornwall.png,,,,,,,,,,,,,,,,,,,,,,,,,
null,,black_cross(without_color),586565,,yellow,,,,null,GW/westpalmbeach.png,GW/cornwall.png,,,,,,,,,,,,,,,,,,,,,,,,,
360,,rt_plussign_withcolor,587068,,yellow,,,,50,GW/westpalmbeach.png,GW/cornwall.png,,,,,,,,,,,,,,,,,,,,,,,,,
null,,rt_thecrossant_black,588595,,black_plus_sign,,,,null,,,1,0.9873417721518988,,,,,,,,,,,,,,,,,,,,,,,
null,,color_black,588698,,black_plus_sign,,,,null,,,,,,,,,,,,,,,,,,,,,,,,,,,
null,,learn_phase(without_color),591702,,black_plus_sign,,,,null,GW/gatlinburg.png,GW/carmel.png,,,,,,,,,,,,,,,,,,,,,,,,,
null,,black_cross(without_color),592288,,yellow,,,,null,GW/gatlinburg.png,GW/carmel.png,,,,,,,,,,,,,,,,,,,,,,,,,
495.59999999962747,,rt_plussign_withcolor,592790,,yellow,,,,50,GW/gatlinburg.png,GW/carmel.png,,,,,,,,,,,,,,,,,,,,,,,,,
null,,rt_thecrossant_black,594210,,black_plus_sign,,,,null,,,1,0.9875,,,,,,,,,,,,,,,,,,,,,,,
null,,color_black,594312,,black_plus_sign,,,,null,,,,,,,,,,,,,,,,,,,,,,,,,,,
null,,learn_phase(without_color),597317,,black_plus_sign,,,,null,GW/racine.png,GW/hotsprings.png,,,,,,,,,,,,,,,,,,,,,,,,,
null,,black_cross(without_color),598054,,yellow,,,,null,GW/racine.png,GW/hotsprings.png,,,,,,,,,,,,,,,,,,,,,,,,,
483.80000000074506,,rt_plussign_withcolor,598555,,yellow,,,,50,GW/racine.png,GW/hotsprings.png,,,,,,,,,,,,,,,,,,,,,,,,,
null,,rt_thecrossant_black,599824,,black_plus_sign,,,,null,,,1,0.9876543209876543,,,,,,,,,,,,,,,,,,,,,,,
null,,color_black,599928,,black_plus_sign,,,,null,,,,,,,,,,,,,,,,,,,,,,,,,,,
null,,learn_phase(without_color),602932,,black_plus_sign,,,,null,GW/shreveport.png,GW/hanover.png,,,,,,,,,,,,,,,,,,,,,,,,,
null,,black_cross(without_color),603468,,yellow,,,,null,GW/shreveport.png,GW/hanover.png,,,,,,,,,,,,,,,,,,,,,,,,,
459.5,,rt_plussign_withcolor,603969,,yellow,,,,50,GW/shreveport.png,GW/hanover.png,,,,,,,,,,,,,,,,,,,,,,,,,
null,,rt_thecrossant_black,605437,,black_plus_sign,,,,null,,,1,0.9878048780487805,,,,,,,,,,,,,,,,,,,,,,,
null,,color_black,605540,,black_plus_sign,,,,null,,,,,,,,,,,,,,,,,,,,,,,,,,,
null,,learn_phase(without_color),608544,,black_plus_sign,,,,null,GW/cornwall.png,GW/westpalmbeach.png,,,,,,,,,,,,,,,,,,,,,,,,,
null,,black_cross(without_color),609308,,yellow,,,,null,GW/cornwall.png,GW/westpalmbeach.png,,,,,,,,,,,,,,,,,,,,,,,,,
438,,rt_plussign_withcolor,609811,,yellow,,,,50,GW/cornwall.png,GW/westpalmbeach.png,,,,,,,,,,,,,,,,,,,,,,,,,
null,,rt_thecrossant_black,611060,,black_plus_sign,,,,null,,,1,0.9879518072289156,,,,,,,,,,,,,,,,,,,,,,,
null,,color_black,611164,,black_plus_sign,,,,null,,,,,,,,,,,,,,,,,,,,,,,,,,,
null,,learn_phase(without_color),614168,,black_plus_sign,,,,null,GW/racine.png,GW/hotsprings.png,,,,,,,,,,,,,,,,,,,,,,,,,
null,,black_cross(without_color),614595,,yellow,,,,null,GW/racine.png,GW/hotsprings.png,,,,,,,,,,,,,,,,,,,,,,,,,
433.69999999925494,,rt_plussign_withcolor,615097,,yellow,,,,50,GW/racine.png,GW/hotsprings.png,,,,,,,,,,,,,,,,,,,,,,,,,
null,,rt_thecrossant_black,616676,,black_plus_sign,,,,null,,,1,0.9880952380952381,,,,,,,,,,,,,,,,,,,,,,,
null,,color_black,616779,,black_plus_sign,,,,null,,,,,,,,,,,,,,,,,,,,,,,,,,,
null,,learn_phase(without_color),619795,,black_plus_sign,,,,null,GW/leesburg.png,GW/hanover.png,,,,,,,,,,,,,,,,,,,,,,,,,
null,,black_cross(without_color),620761,,yellow,,,,null,GW/leesburg.png,GW/hanover.png,,,,,,,,,,,,,,,,,,,,,,,,,
388.80000000074506,,rt_plussign_withcolor,621264,,yellow,,,,50,GW/leesburg.png,GW/hanover.png,,,,,,,,,,,,,,,,,,,,,,,,,
null,,rt_thecrossant_black,622304,,black_plus_sign,,,,null,,,1,0.9882352941176471,,,,,,,,,,,,,,,,,,,,,,,
null,,color_black,622408,,black_plus_sign,,,,null,,,,,,,,,,,,,,,,,,,,,,,,,,,
null,,learn_phase(without_color),625411,,black_plus_sign,,,,null,GW/shreveport.png,GW/westpalmbeach.png,,,,,,,,,,,,,,,,,,,,,,,,,
null,,black_cross(without_color),626148,,blue,,,,null,GW/shreveport.png,GW/westpalmbeach.png,,,,,,,,,,,,,,,,,,,,,,,,,
null,,rt_plussign_withcolor,626651,,blue,,,,null,GW/shreveport.png,GW/westpalmbeach.png,,,,,,,,,,,,,,,,,,,,,,,,,
1078.4000000003725,,rt_thecrossant_black,627919,,black_plus_sign,,,,49,,,1,0.9883720930232558,,,,,,,,,,,,,,,,,,,,,,,
null,,color_black,628023,,black_plus_sign,,,,null,,,,,,,,,,,,,,,,,,,,,,,,,,,
null,,learn_phase(without_color),631030,,black_plus_sign,,,,null,GW/leesburg.png,GW/cornwall.png,,,,,,,,,,,,,,,,,,,,,,,,,
null,,black_cross(without_color),631931,,blue,,,,null,GW/leesburg.png,GW/cornwall.png,,,,,,,,,,,,,,,,,,,,,,,,,
421.1000000014901,,rt_plussign_withcolor,632434,,blue,,,,49,GW/leesburg.png,GW/cornwall.png,,,,,,,,,,,,,,,,,,,,,,,,,
null,,rt_thecrossant_black,633540,,black_plus_sign,,,,null,,,1,0.9885057471264368,,,,,,,,,,,,,,,,,,,,,,,
null,,color_black,633642,,black_plus_sign,,,,null,,,,,,,,,,,,,,,,,,,,,,,,,,,
null,,learn_phase(without_color),636647,,black_plus_sign,,,,null,GW/cornwall.png,GW/leesburg.png,,,,,,,,,,,,,,,,,,,,,,,,,
null,,black_cross(without_color),637165,,yellow,,,,null,GW/cornwall.png,GW/leesburg.png,,,,,,,,,,,,,,,,,,,,,,,,,
458.30000000074506,,rt_plussign_withcolor,637668,,yellow,,,,50,GW/cornwall.png,GW/leesburg.png,,,,,,,,,,,,,,,,,,,,,,,,,
null,,rt_thecrossant_black,639155,,black_plus_sign,,,,null,,,1,0.9886363636363636,,,,,,,,,,,,,,,,,,,,,,,
null,,color_black,639258,,black_plus_sign,,,,null,,,,,,,,,,,,,,,,,,,,,,,,,,,
null,,learn_phase(without_color),642262,,black_plus_sign,,,,null,GW/shreveport.png,GW/westpalmbeach.png,,,,,,,,,,,,,,,,,,,,,,,,,
null,,black_cross(without_color),642682,,yellow,,,,null,GW/shreveport.png,GW/westpalmbeach.png,,,,,,,,,,,,,,,,,,,,,,,,,
378.2999999988824,,rt_plussign_withcolor,643185,,yellow,,,,50,GW/shreveport.png,GW/westpalmbeach.png,,,,,,,,,,,,,,,,,,,,,,,,,
null,,rt_thecrossant_black,644771,,black_plus_sign,,,,null,,,1,0.9887640449438202,,,,,,,,,,,,,,,,,,,,,,,
null,,color_black,644875,,black_plus_sign,,,,null,,,,,,,,,,,,,,,,,,,,,,,,,,,
null,,learn_phase(without_color),647879,,black_plus_sign,,,,null,GW/hanover.png,GW/leesburg.png,,,,,,,,,,,,,,,,,,,,,,,,,
null,,black_cross(without_color),648424,,yellow,,,,null,GW/hanover.png,GW/leesburg.png,,,,,,,,,,,,,,,,,,,,,,,,,
396.69999999925494,,rt_plussign_withcolor,648927,,yellow,,,,50,GW/hanover.png,GW/leesburg.png,,,,,,,,,,,,,,,,,,,,,,,,,
null,,rt_thecrossant_black,650398,,black_plus_sign,,,,null,,,1,0.9888888888888889,,,,,,,,,,,,,,,,,,,,,,,
null,,color_black,650501,,black_plus_sign,,,,null,,,,,,,,,,,,,,,,,,,,,,,,,,,
null,,learn_phase(without_color),653518,,black_plus_sign,,,,null,GW/westpalmbeach.png,GW/boulder.png,,,,,,,,,,,,,,,,,,,,,,,,,
null,,black_cross(without_color),654481,,yellow,,,,null,GW/westpalmbeach.png,GW/boulder.png,,,,,,,,,,,,,,,,,,,,,,,,,
425,,rt_plussign_withcolor,654984,,yellow,,,,50,GW/westpalmbeach.png,GW/boulder.png,,,,,,,,,,,,,,,,,,,,,,,,,
null,,rt_thecrossant_black,656026,,black_plus_sign,,,,null,,,1,0.989010989010989,,,,,,,,,,,,,,,,,,,,,,,
null,,color_black,656129,,black_plus_sign,,,,null,,,,,,,,,,,,,,,,,,,,,,,,,,,
null,,learn_phase(without_color),659144,,black_plus_sign,,,,null,GW/newhope.png,GW/westpalmbeach.png,,,,,,,,,,,,,,,,,,,,,,,,,
null,,black_cross(without_color),659852,,yellow,,,,null,GW/newhope.png,GW/westpalmbeach.png,,,,,,,,,,,,,,,,,,,,,,,,,
null,,rt_plussign_withcolor,660354,,yellow,,,,null,GW/newhope.png,GW/westpalmbeach.png,,,,,,,,,,,,,,,,,,,,,,,,,
1069.9000000003725,,rt_thecrossant_black,661654,,black_plus_sign,,,,50,,,1,0.9891304347826086,,,,,,,,,,,,,,,,,,,,,,,
null,,color_black,661758,,black_plus_sign,,,,null,,,,,,,,,,,,,,,,,,,,,,,,,,,
null,,learn_phase(without_color),664762,,black_plus_sign,,,,null,GW/hanover.png,GW/carmel.png,,,,,,,,,,,,,,,,,,,,,,,,,
null,,black_cross(without_color),665694,,blue,,,,null,GW/hanover.png,GW/carmel.png,,,,,,,,,,,,,,,,,,,,,,,,,
436.5,,rt_plussign_withcolor,666196,,blue,,,,49,GW/hanover.png,GW/carmel.png,,,,,,,,,,,,,,,,,,,,,,,,,
null,,rt_thecrossant_black,667269,,black_plus_sign,,,,null,,,1,0.989247311827957,,,,,,,,,,,,,,,,,,,,,,,
null,,color_black,667371,,black_plus_sign,,,,null,,,,,,,,,,,,,,,,,,,,,,,,,,,
null,,learn_phase(without_color),670375,,black_plus_sign,,,,null,GW/peoria.png,GW/newhope.png,,,,,,,,,,,,,,,,,,,,,,,,,
null,,black_cross(without_color),671446,,blue,,,,null,GW/peoria.png,GW/newhope.png,,,,,,,,,,,,,,,,,,,,,,,,,
392.40000000037253,,rt_plussign_withcolor,671949,,blue,,,,49,GW/peoria.png,GW/newhope.png,,,,,,,,,,,,,,,,,,,,,,,,,
null,,rt_thecrossant_black,672885,,black_plus_sign,,,,null,,,1,0.9893617021276596,,,,,,,,,,,,,,,,,,,,,,,
null,,color_black,672990,,black_plus_sign,,,,null,,,,,,,,,,,,,,,,,,,,,,,,,,,
null,,learn_phase(without_color),675994,,black_plus_sign,,,,null,GW/carmel.png,GW/gatlinburg.png,,,,,,,,,,,,,,,,,,,,,,,,,
null,,black_cross(without_color),677092,,blue,,,,null,GW/carmel.png,GW/gatlinburg.png,,,,,,,,,,,,,,,,,,,,,,,,,
379.19999999925494,,rt_plussign_withcolor,677595,,blue,,,,49,GW/carmel.png,GW/gatlinburg.png,,,,,,,,,,,,,,,,,,,,,,,,,
null,,rt_thecrossant_black,678504,,black_plus_sign,,,,null,,,1,0.9894736842105263,,,,,,,,,,,,,,,,,,,,,,,
null,,color_black,678608,,black_plus_sign,,,,null,,,,,,,,,,,,,,,,,,,,,,,,,,,
null,,learn_phase(without_color),681612,,black_plus_sign,,,,null,GW/newhope.png,GW/peoria.png,,,,,,,,,,,,,,,,,,,,,,,,,
null,,black_cross(without_color),682287,,blue,,,,null,GW/newhope.png,GW/peoria.png,,,,,,,,,,,,,,,,,,,,,,,,,
381,,rt_plussign_withcolor,682790,,blue,,,,49,GW/newhope.png,GW/peoria.png,,,,,,,,,,,,,,,,,,,,,,,,,
null,,rt_thecrossant_black,684120,,black_plus_sign,,,,null,,,1,0.9895833333333334,,,,,,,,,,,,,,,,,,,,,,,
null,,color_black,684222,,black_plus_sign,,,,null,,,,,,,,,,,,,,,,,,,,,,,,,,,
null,,learn_phase(without_color),687228,,black_plus_sign,,,,null,GW/hanover.png,GW/leesburg.png,,,,,,,,,,,,,,,,,,,,,,,,,
null,,black_cross(without_color),687825,,blue,,,,null,GW/hanover.png,GW/leesburg.png,,,,,,,,,,,,,,,,,,,,,,,,,
424.30000000074506,,rt_plussign_withcolor,688327,,blue,,,,49,GW/hanover.png,GW/leesburg.png,,,,,,,,,,,,,,,,,,,,,,,,,
null,,rt_thecrossant_black,689737,,black_plus_sign,,,,null,,,1,0.9896907216494846,,,,,,,,,,,,,,,,,,,,,,,
null,,color_black,689839,,black_plus_sign,,,,null,,,,,,,,,,,,,,,,,,,,,,,,,,,
null,,learn_phase(without_color),692842,,black_plus_sign,,,,null,GW/hanover.png,GW/shreveport.png,,,,,,,,,,,,,,,,,,,,,,,,,
null,,black_cross(without_color),693944,,blue,,,,null,GW/hanover.png,GW/shreveport.png,,,,,,,,,,,,,,,,,,,,,,,,,
410.90000000037253,,rt_plussign_withcolor,694446,,blue,,,,49,GW/hanover.png,GW/shreveport.png,,,,,,,,,,,,,,,,,,,,,,,,,
null,,rt_thecrossant_black,695352,,black_plus_sign,,,,null,,,1,0.9897959183673469,,,,,,,,,,,,,,,,,,,,,,,
null,,color_black,695455,,black_plus_sign,,,,null,,,,,,,,,,,,,,,,,,,,,,,,,,,
null,,learn_phase(without_color),698458,,black_plus_sign,,,,null,GW/boulder.png,GW/westpalmbeach.png,,,,,,,,,,,,,,,,,,,,,,,,,
null,,black_cross(without_color),699007,,blue,,,,null,GW/boulder.png,GW/westpalmbeach.png,,,,,,,,,,,,,,,,,,,,,,,,,
372.59999999962747,,rt_plussign_withcolor,699509,,blue,,,,49,GW/boulder.png,GW/westpalmbeach.png,,,,,,,,,,,,,,,,,,,,,,,,,
null,,rt_thecrossant_black,700966,,black_plus_sign,,,,null,,,1,0.98989898989899,,,,,,,,,,,,,,,,,,,,,,,
null,,color_black,701070,,black_plus_sign,,,,null,,,,,,,,,,,,,,,,,,,,,,,,,,,
null,,learn_phase(without_color),704074,,black_plus_sign,,,,null,GW/shreveport.png,GW/hanover.png,,,,,,,,,,,,,,,,,,,,,,,,,
null,,black_cross(without_color),704782,,blue,,,,null,GW/shreveport.png,GW/hanover.png,,,,,,,,,,,,,,,,,,,,,,,,,
381.59999999962747,,rt_plussign_withcolor,705285,,blue,,,,49,GW/shreveport.png,GW/hanover.png,,,,,,,,,,,,,,,,,,,,,,,,,
null,,rt_thecrossant_black,706584,,black_plus_sign,,,,null,,,1,0.99,,,,,,,,,,,,,,,,,,,,,,,
null,,color_black,706687,,black_plus_sign,,,,null,,,,,,,,,,,,,,,,,,,,,,,,,,,
null,,learn_phase(without_color),709692,,black_plus_sign,,,,null,GW/racine.png,GW/huntsville.png,,,,,,,,,,,,,,,,,,,,,,,,,
null,,black_cross(without_color),710790,,yellow,,,,null,GW/racine.png,GW/huntsville.png,,,,,,,,,,,,,,,,,,,,,,,,,
485.59999999962747,,rt_plussign_withcolor,711292,,yellow,,,,50,GW/racine.png,GW/huntsville.png,,,,,,,,,,,,,,,,,,,,,,,,,
null,,rt_thecrossant_black,712202,,black_plus_sign,,,,null,,,1,0.9900990099009901,,,,,,,,,,,,,,,,,,,,,,,
null,,color_black,712311,,black_plus_sign,,,,null,,,,,,,,,,,,,,,,,,,,,,,,,,,
null,,learn_phase(without_color),715315,,black_plus_sign,,,,null,GW/carmel.png,GW/racine.png,,,,,,,,,,,,,,,,,,,,,,,,,
null,,black_cross(without_color),716118,,yellow,,,,null,GW/carmel.png,GW/racine.png,,,,,,,,,,,,,,,,,,,,,,,,,
424.6000000014901,,rt_plussign_withcolor,716621,,yellow,,,,50,GW/carmel.png,GW/racine.png,,,,,,,,,,,,,,,,,,,,,,,,,
null,,rt_thecrossant_black,717824,,black_plus_sign,,,,null,,,1,0.9901960784313726,,,,,,,,,,,,,,,,,,,,,,,
null,,color_black,717926,,black_plus_sign,,,,null,,,,,,,,,,,,,,,,,,,,,,,,,,,
null,,learn_phase(without_color),720930,,black_plus_sign,,,,null,GW/racine.png,GW/hotsprings.png,,,,,,,,,,,,,,,,,,,,,,,,,
null,,black_cross(without_color),721585,,blue,,,,null,GW/racine.png,GW/hotsprings.png,,,,,,,,,,,,,,,,,,,,,,,,,
452.2000000011176,,rt_plussign_withcolor,722087,,blue,,,,49,GW/racine.png,GW/hotsprings.png,,,,,,,,,,,,,,,,,,,,,,,,,
null,,rt_thecrossant_black,723439,,black_plus_sign,,,,null,,,1,0.9902912621359223,,,,,,,,,,,,,,,,,,,,,,,
null,,color_black,723543,,black_plus_sign,,,,null,,,,,,,,,,,,,,,,,,,,,,,,,,,
null,,learn_phase(without_color),726548,,black_plus_sign,,,,null,GW/westpalmbeach.png,GW/cornwall.png,,,,,,,,,,,,,,,,,,,,,,,,,
null,,black_cross(without_color),727637,,yellow,,,,null,GW/westpalmbeach.png,GW/cornwall.png,,,,,,,,,,,,,,,,,,,,,,,,,
null,,rt_plussign_withcolor,728139,,yellow,,,,null,GW/westpalmbeach.png,GW/cornwall.png,,,,,,,,,,,,,,,,,,,,,,,,,
780.1999999992549,,rt_thecrossant_black,729059,,black_plus_sign,,,,50,,,1,0.9903846153846154,,,,,,,,,,,,,,,,,,,,,,,
null,,color_black,729162,,black_plus_sign,,,,null,,,,,,,,,,,,,,,,,,,,,,,,,,,
null,,learn_phase(without_color),732167,,black_plus_sign,,,,null,GW/shreveport.png,GW/westpalmbeach.png,,,,,,,,,,,,,,,,,,,,,,,,,
null,,black_cross(without_color),733210,,yellow,,,,null,GW/shreveport.png,GW/westpalmbeach.png,,,,,,,,,,,,,,,,,,,,,,,,,
485.90000000037253,,rt_plussign_withcolor,733712,,yellow,,,,50,GW/shreveport.png,GW/westpalmbeach.png,,,,,,,,,,,,,,,,,,,,,,,,,
null,,rt_thecrossant_black,734675,,black_plus_sign,,,,null,,,1,0.9904761904761905,,,,,,,,,,,,,,,,,,,,,,,
null,,color_black,734778,,black_plus_sign,,,,null,,,,,,,,,,,,,,,,,,,,,,,,,,,
null,,learn_phase(without_color),737781,,black_plus_sign,,,,null,GW/newhope.png,GW/cornwall.png,,,,,,,,,,,,,,,,,,,,,,,,,
null,,black_cross(without_color),738319,,blue,,,,null,GW/newhope.png,GW/cornwall.png,,,,,,,,,,,,,,,,,,,,,,,,,
null,,rt_plussign_withcolor,738821,,blue,,,,null,GW/newhope.png,GW/cornwall.png,,,,,,,,,,,,,,,,,,,,,,,,,
1263,,rt_thecrossant_black,740289,,black_plus_sign,,,,49,,,1,0.9905660377358491,,,,,,,,,,,,,,,,,,,,,,,
null,,color_black,740393,,black_plus_sign,,,,null,,,,,,,,,,,,,,,,,,,,,,,,,,,
null,,learn_phase(without_color),743397,,black_plus_sign,,,,null,GW/cornwall.png,GW/leesburg.png,,,,,,,,,,,,,,,,,,,,,,,,,
null,,black_cross(without_color),744171,,yellow,,,,null,GW/cornwall.png,GW/leesburg.png,,,,,,,,,,,,,,,,,,,,,,,,,
466.2999999988824,,rt_plussign_withcolor,744674,,yellow,,,,50,GW/cornwall.png,GW/leesburg.png,,,,,,,,,,,,,,,,,,,,,,,,,
null,,rt_thecrossant_black,745904,,black_plus_sign,,,,null,,,1,0.9906542056074766,,,,,,,,,,,,,,,,,,,,,,,
null,,color_black,746015,,black_plus_sign,,,,null,,,,,,,,,,,,,,,,,,,,,,,,,,,
null,,learn_phase(without_color),749020,,black_plus_sign,,,,null,GW/cornwall.png,GW/shreveport.png,,,,,,,,,,,,,,,,,,,,,,,,,
null,,black_cross(without_color),749542,,yellow,,,,null,GW/cornwall.png,GW/shreveport.png,,,,,,,,,,,,,,,,,,,,,,,,,
472.19999999925494,,rt_plussign_withcolor,750047,,yellow,,,,50,GW/cornwall.png,GW/shreveport.png,,,,,,,,,,,,,,,,,,,,,,,,,
null,,rt_thecrossant_black,751532,,black_plus_sign,,,,null,,,1,0.9907407407407407,,,,,,,,,,,,,,,,,,,,,,,
null,,color_black,751636,,black_plus_sign,,,,null,,,,,,,,,,,,,,,,,,,,,,,,,,,
null,,learn_phase(without_color),754640,,black_plus_sign,,,,null,GW/gatlinburg.png,GW/carmel.png,,,,,,,,,,,,,,,,,,,,,,,,,
null,,black_cross(without_color),755694,,yellow,,,,null,GW/gatlinburg.png,GW/carmel.png,,,,,,,,,,,,,,,,,,,,,,,,,
null,,rt_plussign_withcolor,756196,,yellow,,,,null,GW/gatlinburg.png,GW/carmel.png,,,,,,,,,,,,,,,,,,,,,,,,,
655.0999999996275,,rt_thecrossant_black,757149,,black_plus_sign,,,,50,,,1,0.9908256880733946,,,,,,,,,,,,,,,,,,,,,,,
null,,color_black,757253,,black_plus_sign,,,,null,,,,,,,,,,,,,,,,,,,,,,,,,,,
null,,learn_phase(without_color),760257,,black_plus_sign,,,,null,GW/cornwall.png,GW/leesburg.png,,,,,,,,,,,,,,,,,,,,,,,,,
null,,black_cross(without_color),760978,,yellow,,,,null,GW/cornwall.png,GW/leesburg.png,,,,,,,,,,,,,,,,,,,,,,,,,
451.8999999985099,,rt_plussign_withcolor,761480,,yellow,,,,50,GW/cornwall.png,GW/leesburg.png,,,,,,,,,,,,,,,,,,,,,,,,,
null,,rt_thecrossant_black,762765,,black_plus_sign,,,,null,,,1,0.990909090909091,,,,,,,,,,,,,,,,,,,,,,,
null,,color_black,762868,,black_plus_sign,,,,null,,,,,,,,,,,,,,,,,,,,,,,,,,,
null,,learn_phase(without_color),765873,,black_plus_sign,,,,null,GW/hotsprings.png,GW/leesburg.png,,,,,,,,,,,,,,,,,,,,,,,,,
null,,black_cross(without_color),766699,,blue,,,,null,GW/hotsprings.png,GW/leesburg.png,,,,,,,,,,,,,,,,,,,,,,,,,
430.09999999962747,,rt_plussign_withcolor,767201,,blue,,,,49,GW/hotsprings.png,GW/leesburg.png,,,,,,,,,,,,,,,,,,,,,,,,,
null,,rt_thecrossant_black,768381,,black_plus_sign,,,,null,,,1,0.990990990990991,,,,,,,,,,,,,,,,,,,,,,,
null,,color_black,768484,,black_plus_sign,,,,null,,,,,,,,,,,,,,,,,,,,,,,,,,,
null,,learn_phase(without_color),771488,,black_plus_sign,,,,null,GW/hanover.png,GW/carmel.png,,,,,,,,,,,,,,,,,,,,,,,,,
null,,black_cross(without_color),772380,,yellow,,,,null,GW/hanover.png,GW/carmel.png,,,,,,,,,,,,,,,,,,,,,,,,,
453.30000000074506,,rt_plussign_withcolor,772882,,yellow,,,,50,GW/hanover.png,GW/carmel.png,,,,,,,,,,,,,,,,,,,,,,,,,
null,,rt_thecrossant_black,773998,,black_plus_sign,,,,null,,,1,0.9910714285714286,,,,,,,,,,,,,,,,,,,,,,,
null,,color_black,774101,,black_plus_sign,,,,null,,,,,,,,,,,,,,,,,,,,,,,,,,,
null,,learn_phase(without_color),777105,,black_plus_sign,,,,null,GW/leesburg.png,GW/hanover.png,,,,,,,,,,,,,,,,,,,,,,,,,
null,,black_cross(without_color),777852,,blue,,,,null,GW/leesburg.png,GW/hanover.png,,,,,,,,,,,,,,,,,,,,,,,,,
443.30000000074506,,rt_plussign_withcolor,778361,,blue,,,,49,GW/leesburg.png,GW/hanover.png,,,,,,,,,,,,,,,,,,,,,,,,,
null,,rt_thecrossant_black,779623,,black_plus_sign,,,,null,,,1,0.9911504424778761,,,,,,,,,,,,,,,,,,,,,,,
null,,color_black,779726,,black_plus_sign,,,,null,,,,,,,,,,,,,,,,,,,,,,,,,,,
null,,learn_phase(without_color),782730,,black_plus_sign,,,,null,GW/leesburg.png,GW/hanover.png,,,,,,,,,,,,,,,,,,,,,,,,,
null,,black_cross(without_color),783631,,yellow,,,,null,GW/leesburg.png,GW/hanover.png,,,,,,,,,,,,,,,,,,,,,,,,,
419.09999999962747,,rt_plussign_withcolor,784134,,yellow,,,,50,GW/leesburg.png,GW/hanover.png,,,,,,,,,,,,,,,,,,,,,,,,,
null,,rt_thecrossant_black,785239,,black_plus_sign,,,,null,,,1,0.9912280701754386,,,,,,,,,,,,,,,,,,,,,,,
null,,color_black,785341,,black_plus_sign,,,,null,,,,,,,,,,,,,,,,,,,,,,,,,,,
null,,learn_phase(without_color),788345,,black_plus_sign,,,,null,GW/cornwall.png,GW/newhope.png,,,,,,,,,,,,,,,,,,,,,,,,,
null,,black_cross(without_color),789294,,blue,,,,null,GW/cornwall.png,GW/newhope.png,,,,,,,,,,,,,,,,,,,,,,,,,
null,,rt_plussign_withcolor,789797,,blue,,,,null,GW/cornwall.png,GW/newhope.png,,,,,,,,,,,,,,,,,,,,,,,,,
1094.800000000745,,rt_thecrossant_black,790855,,black_plus_sign,,,,49,,,1,0.991304347826087,,,,,,,,,,,,,,,,,,,,,,,
null,,color_black,790958,,black_plus_sign,,,,null,,,,,,,,,,,,,,,,,,,,,,,,,,,
null,,learn_phase(without_color),793961,,black_plus_sign,,,,null,GW/newhope.png,GW/cornwall.png,,,,,,,,,,,,,,,,,,,,,,,,,
null,,black_cross(without_color),794940,,blue,,,,null,GW/newhope.png,GW/cornwall.png,,,,,,,,,,,,,,,,,,,,,,,,,
476.2000000011176,,rt_plussign_withcolor,795443,,blue,,,,49,GW/newhope.png,GW/cornwall.png,,,,,,,,,,,,,,,,,,,,,,,,,
null,,rt_thecrossant_black,796469,,black_plus_sign,,,,null,,,1,0.9913793103448276,,,,,,,,,,,,,,,,,,,,,,,
null,,color_black,796573,,black_plus_sign,,,,null,,,,,,,,,,,,,,,,,,,,,,,,,,,
null,,learn_phase(without_color),799577,,black_plus_sign,,,,null,GW/cornwall.png,GW/leesburg.png,,,,,,,,,,,,,,,,,,,,,,,,,
null,,black_cross(without_color),800233,,yellow,,,,null,GW/cornwall.png,GW/leesburg.png,,,,,,,,,,,,,,,,,,,,,,,,,
347.90000000037253,,rt_plussign_withcolor,800736,,yellow,,,,50,GW/cornwall.png,GW/leesburg.png,,,,,,,,,,,,,,,,,,,,,,,,,
null,,rt_thecrossant_black,802095,,black_plus_sign,,,,null,,,1,0.9914529914529915,,,,,,,,,,,,,,,,,,,,,,,
null,,color_black,802199,,black_plus_sign,,,,null,,,,,,,,,,,,,,,,,,,,,,,,,,,
null,,learn_phase(without_color),805203,,black_plus_sign,,,,null,GW/newhope.png,GW/peoria.png,,,,,,,,,,,,,,,,,,,,,,,,,
null,,black_cross(without_color),806216,,yellow,,,,null,GW/newhope.png,GW/peoria.png,,,,,,,,,,,,,,,,,,,,,,,,,
366.09999999962747,,rt_plussign_withcolor,806719,,yellow,,,,50,GW/newhope.png,GW/peoria.png,,,,,,,,,,,,,,,,,,,,,,,,,
null,,rt_thecrossant_black,807714,,black_plus_sign,,,,null,,,1,0.9915254237288136,,,,,,,,,,,,,,,,,,,,,,,
null,,color_black,807817,,black_plus_sign,,,,null,,,,,,,,,,,,,,,,,,,,,,,,,,,
null,,learn_phase(without_color),810822,,black_plus_sign,,,,null,GW/westpalmbeach.png,GW/shreveport.png,,,,,,,,,,,,,,,,,,,,,,,,,
null,,black_cross(without_color),811247,,blue,,,,null,GW/westpalmbeach.png,GW/shreveport.png,,,,,,,,,,,,,,,,,,,,,,,,,
471.69999999925494,,rt_plussign_withcolor,811749,,blue,,,,49,GW/westpalmbeach.png,GW/shreveport.png,,,,,,,,,,,,,,,,,,,,,,,,,
null,,rt_thecrossant_black,813333,,black_plus_sign,,,,null,,,1,0.9915966386554622,,,,,,,,,,,,,,,,,,,,,,,
null,,color_black,813436,,black_plus_sign,,,,null,,,,,,,,,,,,,,,,,,,,,,,,,,,
null,,learn_phase(without_color),816440,,black_plus_sign,,,,null,GW/hanover.png,GW/leesburg.png,,,,,,,,,,,,,,,,,,,,,,,,,
null,,black_cross(without_color),817095,,yellow,,,,null,GW/hanover.png,GW/leesburg.png,,,,,,,,,,,,,,,,,,,,,,,,,
441,,rt_plussign_withcolor,817598,,yellow,,,,50,GW/hanover.png,GW/leesburg.png,,,,,,,,,,,,,,,,,,,,,,,,,
null,,rt_thecrossant_black,818953,,black_plus_sign,,,,null,,,1,0.9916666666666667,,,,,,,,,,,,,,,,,,,,,,,
null,,color_black,819057,,black_plus_sign,,,,null,,,,,,,,,,,,,,,,,,,,,,,,,,,
null,,learn_phase(without_color),822061,,black_plus_sign,,,,null,GW/newhope.png,GW/peoria.png,,,,,,,,,,,,,,,,,,,,,,,,,
null,,black_cross(without_color),823125,,blue,,,,null,GW/newhope.png,GW/peoria.png,,,,,,,,,,,,,,,,,,,,,,,,,
326.8999999985099,,rt_plussign_withcolor,823627,,blue,,,,49,GW/newhope.png,GW/peoria.png,,,,,,,,,,,,,,,,,,,,,,,,,
null,,rt_thecrossant_black,824573,,black_plus_sign,,,,null,,,1,0.9917355371900827,,,,,,,,,,,,,,,,,,,,,,,
null,,color_black,824677,,black_plus_sign,,,,null,,,,,,,,,,,,,,,,,,,,,,,,,,,
null,,learn_phase(without_color),827681,,black_plus_sign,,,,null,GW/huntsville.png,GW/racine.png,,,,,,,,,,,,,,,,,,,,,,,,,
null,,black_cross(without_color),828490,,blue,,,,null,GW/huntsville.png,GW/racine.png,,,,,,,,,,,,,,,,,,,,,,,,,
423.69999999925494,,rt_plussign_withcolor,828994,,blue,,,,49,GW/huntsville.png,GW/racine.png,,,,,,,,,,,,,,,,,,,,,,,,,
null,,rt_thecrossant_black,830192,,black_plus_sign,,,,null,,,1,0.9918032786885246,,,,,,,,,,,,,,,,,,,,,,,
null,,color_black,830298,,black_plus_sign,,,,null,,,,,,,,,,,,,,,,,,,,,,,,,,,
null,,learn_phase(without_color),833301,,black_plus_sign,,,,null,GW/hanover.png,GW/leesburg.png,,,,,,,,,,,,,,,,,,,,,,,,,
null,,black_cross(without_color),834027,,blue,,,,null,GW/hanover.png,GW/leesburg.png,,,,,,,,,,,,,,,,,,,,,,,,,
340.90000000037253,,rt_plussign_withcolor,834529,,blue,,,,49,GW/hanover.png,GW/leesburg.png,,,,,,,,,,,,,,,,,,,,,,,,,
null,,rt_thecrossant_black,835812,,black_plus_sign,,,,null,,,1,0.991869918699187,,,,,,,,,,,,,,,,,,,,,,,
null,,color_black,835917,,black_plus_sign,,,,null,,,,,,,,,,,,,,,,,,,,,,,,,,,
null,,learn_phase(without_color),838922,,black_plus_sign,,,,null,GW/leesburg.png,GW/hotsprings.png,,,,,,,,,,,,,,,,,,,,,,,,,
null,,black_cross(without_color),839889,,blue,,,,null,GW/leesburg.png,GW/hotsprings.png,,,,,,,,,,,,,,,,,,,,,,,,,
363.19999999925494,,rt_plussign_withcolor,840392,,blue,,,,49,GW/leesburg.png,GW/hotsprings.png,,,,,,,,,,,,,,,,,,,,,,,,,
null,,rt_thecrossant_black,841431,,black_plus_sign,,,,null,,,1,0.9919354838709677,,,,,,,,,,,,,,,,,,,,,,,
null,,color_black,841535,,black_plus_sign,,,,null,,,,,,,,,,,,,,,,,,,,,,,,,,,
null,,learn_phase(without_color),844539,,black_plus_sign,,,,null,GW/gatlinburg.png,GW/carmel.png,,,,,,,,,,,,,,,,,,,,,,,,,
null,,black_cross(without_color),845394,,yellow,,,,null,GW/gatlinburg.png,GW/carmel.png,,,,,,,,,,,,,,,,,,,,,,,,,
451,,rt_plussign_withcolor,845896,,yellow,,,,50,GW/gatlinburg.png,GW/carmel.png,,,,,,,,,,,,,,,,,,,,,,,,,
null,,rt_thecrossant_black,847047,,black_plus_sign,,,,null,,,1,0.992,,,,,,,,,,,,,,,,,,,,,,,
null,,color_black,847150,,black_plus_sign,,,,null,,,,,,,,,,,,,,,,,,,,,,,,,,,
null,,learn_phase(without_color),850155,,black_plus_sign,,,,null,GW/gatlinburg.png,GW/carmel.png,,,,,,,,,,,,,,,,,,,,,,,,,
null,,black_cross(without_color),851152,,blue,,,,null,GW/gatlinburg.png,GW/carmel.png,,,,,,,,,,,,,,,,,,,,,,,,,
452,,rt_plussign_withcolor,851654,,blue,,,,49,GW/gatlinburg.png,GW/carmel.png,,,,,,,,,,,,,,,,,,,,,,,,,
null,,rt_thecrossant_black,852668,,black_plus_sign,,,,null,,,1,0.9920634920634921,,,,,,,,,,,,,,,,,,,,,,,
null,,color_black,852772,,black_plus_sign,,,,null,,,,,,,,,,,,,,,,,,,,,,,,,,,
null,,learn_phase(without_color),855785,,black_plus_sign,,,,null,GW/racine.png,GW/huntsville.png,,,,,,,,,,,,,,,,,,,,,,,,,
null,,black_cross(without_color),856758,,yellow,,,,null,GW/racine.png,GW/huntsville.png,,,,,,,,,,,,,,,,,,,,,,,,,
496.40000000037253,,rt_plussign_withcolor,857260,,yellow,,,,50,GW/racine.png,GW/huntsville.png,,,,,,,,,,,,,,,,,,,,,,,,,
null,,rt_thecrossant_black,858309,,black_plus_sign,,,,null,,,1,0.9921259842519685,,,,,,,,,,,,,,,,,,,,,,,
null,,color_black,858413,,black_plus_sign,,,,null,,,,,,,,,,,,,,,,,,,,,,,,,,,
null,,learn_phase(without_color),861418,,black_plus_sign,,,,null,GW/racine.png,GW/hotsprings.png,,,,,,,,,,,,,,,,,,,,,,,,,
null,,black_cross(without_color),862152,,blue,,,,null,GW/racine.png,GW/hotsprings.png,,,,,,,,,,,,,,,,,,,,,,,,,
396.09999999962747,,rt_plussign_withcolor,862656,,blue,,,,49,GW/racine.png,GW/hotsprings.png,,,,,,,,,,,,,,,,,,,,,,,,,
null,,rt_thecrossant_black,863944,,black_plus_sign,,,,null,,,1,0.9921875,,,,,,,,,,,,,,,,,,,,,,,
null,,color_black,864047,,black_plus_sign,,,,null,,,,,,,,,,,,,,,,,,,,,,,,,,,
3085.699999999255,,learn_break,867136,,learn_break,,,,32,,,,,,,,,,,,,,,,,,,,,,,,,,,
14126.400000000373,,intro_1,881264,,instruct,,0,Start,,,,,,,,,,,,,,,,,,,,,,,,,,,,
3354.699999999255,,directmemory_phase,884621,,GW/leesburg.png,,,,51,,,1,1,GW/huntsville.png,GW/westpalmbeach.png,GW/cornwall.png,GW/cornwall.png,GW/westpalmbeach.png,GW/huntsville.png,1,,,,,,,,,,,,,,,,
null,,html-keyboard-response,885629,,<p></p>,,,,null,,,,,,,,,,,,,,,,,,,,,,,,,,,
2869.2000000011176,,directmemory_phase,888501,,GW/racine.png,,,,51,,,1,1,GW/newhope.png,GW/leesburg.png,GW/hotsprings.png,GW/hotsprings.png,GW/leesburg.png,GW/newhope.png,1,,,,,,,,,,,,,,,,
null,,html-keyboard-response,889506,,<p></p>,,,,null,,,,,,,,,,,,,,,,,,,,,,,,,,,
2427.0999999996275,,directmemory_phase,891936,,GW/shreveport.png,,,,50,,,1,1,GW/newhope.png,GW/hanover.png,GW/racine.png,GW/hanover.png,GW/newhope.png,GW/racine.png,1,,,,,,,,,,,,,,,,
null,,html-keyboard-response,892940,,<p></p>,,,,null,,,,,,,,,,,,,,,,,,,,,,,,,,,
1070.699999999255,,directmemory_phase,894013,,GW/huntsville.png,,,,49,,,1,1,GW/racine.png,GW/hanover.png,GW/carmel.png,GW/racine.png,GW/carmel.png,GW/hanover.png,1,,,,,,,,,,,,,,,,
null,,html-keyboard-response,895018,,<p></p>,,,,null,,,,,,,,,,,,,,,,,,,,,,,,,,,
1263,,directmemory_phase,896284,,GW/hotsprings.png,,,,49,,,1,1,GW/leesburg.png,GW/gatlinburg.png,GW/hanover.png,GW/leesburg.png,GW/hanover.png,GW/gatlinburg.png,1,,,,,,,,,,,,,,,,
null,,html-keyboard-response,897288,,<p></p>,,,,null,,,,,,,,,,,,,,,,,,,,,,,,,,,
1871.4000000003725,,directmemory_phase,899163,,GW/cornwall.png,,,,51,,,1,1,GW/racine.png,GW/peoria.png,GW/shreveport.png,GW/shreveport.png,GW/peoria.png,GW/racine.png,1,,,,,,,,,,,,,,,,
null,,html-keyboard-response,900167,,<p></p>,,,,null,,,,,,,,,,,,,,,,,,,,,,,,,,,
2415.60000000149,,directmemory_phase,902585,,GW/racine.png,,,,49,,,1,1,GW/carmel.png,GW/newhope.png,GW/leesburg.png,GW/carmel.png,GW/leesburg.png,GW/newhope.png,1,,,,,,,,,,,,,,,,
null,,html-keyboard-response,903595,,<p></p>,,,,null,,,,,,,,,,,,,,,,,,,,,,,,,,,
1282.8999999985099,,directmemory_phase,904881,,GW/hanover.png,,,,51,,,1,1,GW/boulder.png,GW/cornwall.png,GW/shreveport.png,GW/shreveport.png,GW/cornwall.png,GW/boulder.png,1,,,,,,,,,,,,,,,,
null,,html-keyboard-response,905884,,<p></p>,,,,null,,,,,,,,,,,,,,,,,,,,,,,,,,,
1043.7999999988824,,directmemory_phase,906930,,GW/peoria.png,,,,49,,,1,1,GW/newhope.png,GW/hotsprings.png,GW/cornwall.png,GW/newhope.png,GW/cornwall.png,GW/hotsprings.png,1,,,,,,,,,,,,,,,,
null,,html-keyboard-response,907934,,<p></p>,,,,null,,,,,,,,,,,,,,,,,,,,,,,,,,,
2468.5,,directmemory_phase,910405,,GW/cornwall.png,,,,50,,,1,1,GW/hotsprings.png,GW/leesburg.png,GW/huntsville.png,GW/leesburg.png,GW/hotsprings.png,GW/huntsville.png,1,,,,,,,,,,,,,,,,
null,,html-keyboard-response,911408,,<p></p>,,,,null,,,,,,,,,,,,,,,,,,,,,,,,,,,
3228.5,,directmemory_phase,914639,,GW/westpalmbeach.png,,,,50,,,0,0.9090909090909091,GW/shreveport.png,GW/carmel.png,GW/peoria.png,GW/shreveport.png,GW/peoria.png,GW/carmel.png,0.5,closer,,,,,,,,,,,,,,,
null,,html-keyboard-response,915644,,<p></p>,,,,null,,,,,,,,,,,,,,,,,,,,,,,,,,,
3169.4000000003725,,directmemory_phase,918817,,GW/newhope.png,,,,51,,,0,0.8333333333333334,GW/boulder.png,GW/cornwall.png,GW/carmel.png,GW/cornwall.png,GW/boulder.png,GW/carmel.png,0.5,closer,,,,,,,,,,,,,,,
null,,html-keyboard-response,919821,,<p></p>,,,,null,,,,,,,,,,,,,,,,,,,,,,,,,,,
1752.0999999996275,,directmemory_phase,921579,,GW/carmel.png,,,,51,,,1,0.8461538461538461,GW/boulder.png,GW/shreveport.png,GW/racine.png,GW/racine.png,GW/shreveport.png,GW/boulder.png,1,,,,,,,,,,,,,,,,
null,,html-keyboard-response,922584,,<p></p>,,,,null,,,,,,,,,,,,,,,,,,,,,,,,,,,
1760.4000000003725,,directmemory_phase,924346,,GW/hanover.png,,,,49,,,1,0.8571428571428571,GW/leesburg.png,GW/peoria.png,GW/gatlinburg.png,GW/leesburg.png,GW/gatlinburg.png,GW/peoria.png,1,,,,,,,,,,,,,,,,
null,,html-keyboard-response,925350,,<p></p>,,,,null,,,,,,,,,,,,,,,,,,,,,,,,,,,
1254.2000000011176,,directmemory_phase,926607,,GW/boulder.png,,,,50,,,1,0.8666666666666667,GW/shreveport.png,GW/westpalmbeach.png,GW/hanover.png,GW/westpalmbeach.png,GW/shreveport.png,GW/hanover.png,1,,,,,,,,,,,,,,,,
null,,html-keyboard-response,927612,,<p></p>,,,,null,,,,,,,,,,,,,,,,,,,,,,,,,,,
2340.5,,directmemory_phase,929955,,GW/carmel.png,,,,50,,,0,0.8125,GW/westpalmbeach.png,GW/leesburg.png,GW/hanover.png,GW/hanover.png,GW/leesburg.png,GW/westpalmbeach.png,0.5,closer,,,,,,,,,,,,,,,
null,,html-keyboard-response,930960,,<p></p>,,,,null,,,,,,,,,,,,,,,,,,,,,,,,,,,
3456.5,,directmemory_phase,934419,,GW/leesburg.png,,,,49,,,1,0.8235294117647058,GW/hotsprings.png,GW/huntsville.png,GW/westpalmbeach.png,GW/hotsprings.png,GW/westpalmbeach.png,GW/huntsville.png,1,,,,,,,,,,,,,,,,
null,,html-keyboard-response,935423,,<p></p>,,,,null,,,,,,,,,,,,,,,,,,,,,,,,,,,
1167.2000000011176,,directmemory_phase,936593,,GW/westpalmbeach.png,,,,50,,,1,0.8333333333333334,GW/hanover.png,GW/boulder.png,GW/hotsprings.png,GW/boulder.png,GW/hanover.png,GW/hotsprings.png,1,,,,,,,,,,,,,,,,
null,,html-keyboard-response,937597,,<p></p>,,,,null,,,,,,,,,,,,,,,,,,,,,,,,,,,
3281.10000000149,,directmemory_phase,940879,,GW/hotsprings.png,,,,51,,,1,0.8421052631578947,GW/peoria.png,GW/carmel.png,GW/racine.png,GW/racine.png,GW/carmel.png,GW/peoria.png,1,,,,,,,,,,,,,,,,
null,,html-keyboard-response,941883,,<p></p>,,,,null,,,,,,,,,,,,,,,,,,,,,,,,,,,
3579.2000000011176,,directmemory_phase,945466,,GW/westpalmbeach.png,,,,51,,,1,0.85,GW/carmel.png,GW/peoria.png,GW/cornwall.png,GW/cornwall.png,GW/peoria.png,GW/carmel.png,1,,,,,,,,,,,,,,,,
null,,html-keyboard-response,946469,,<p></p>,,,,null,,,,,,,,,,,,,,,,,,,,,,,,,,,
2187.300000000745,,directmemory_phase,948659,,GW/leesburg.png,,,,49,,,0,0.8095238095238095,GW/boulder.png,GW/newhope.png,GW/hanover.png,GW/hanover.png,GW/newhope.png,GW/boulder.png,0.5,closer,,,,,,,,,,,,,,,
null,,html-keyboard-response,949663,,<p></p>,,,,null,,,,,,,,,,,,,,,,,,,,,,,,,,,
1861.7999999988824,,directmemory_phase,951528,,GW/cornwall.png,,,,49,,,1,0.8181818181818182,GW/westpalmbeach.png,GW/huntsville.png,GW/boulder.png,GW/westpalmbeach.png,GW/boulder.png,GW/huntsville.png,1,,,,,,,,,,,,,,,,
null,,html-keyboard-response,952533,,<p></p>,,,,null,,,,,,,,,,,,,,,,,,,,,,,,,,,
2563.699999999255,,directmemory_phase,955099,,GW/newhope.png,,,,49,,,1,0.8260869565217391,GW/peoria.png,GW/racine.png,GW/shreveport.png,GW/peoria.png,GW/shreveport.png,GW/racine.png,1,,,,,,,,,,,,,,,,
null,,html-keyboard-response,956103,,<p></p>,,,,null,,,,,,,,,,,,,,,,,,,,,,,,,,,
1381,,directmemory_phase,957486,,GW/gatlinburg.png,,,,50,,,1,0.8333333333333334,GW/racine.png,GW/carmel.png,GW/shreveport.png,GW/carmel.png,GW/racine.png,GW/shreveport.png,1,,,,,,,,,,,,,,,,
null,,html-keyboard-response,958491,,<p></p>,,,,null,,,,,,,,,,,,,,,,,,,,,,,,,,,
1360.5,,directmemory_phase,959854,,GW/westpalmbeach.png,,,,50,,,0,0.8,GW/newhope.png,GW/hotsprings.png,GW/leesburg.png,GW/newhope.png,GW/leesburg.png,GW/hotsprings.png,0.5,closer,,,,,,,,,,,,,,,
null,,html-keyboard-response,960858,,<p></p>,,,,null,,,,,,,,,,,,,,,,,,,,,,,,,,,
1223.6000000014901,,directmemory_phase,962084,,GW/hanover.png,,,,51,,,1,0.8076923076923077,GW/boulder.png,GW/cornwall.png,GW/carmel.png,GW/carmel.png,GW/cornwall.png,GW/boulder.png,1,,,,,,,,,,,,,,,,
null,,html-keyboard-response,963103,,<p></p>,,,,null,,,,,,,,,,,,,,,,,,,,,,,,,,,
2352.7999999988824,,directmemory_phase,965458,,GW/newhope.png,,,,50,,,1,0.8148148148148148,GW/leesburg.png,GW/westpalmbeach.png,GW/racine.png,GW/westpalmbeach.png,GW/leesburg.png,GW/racine.png,1,,,,,,,,,,,,,,,,
null,,html-keyboard-response,966462,,<p></p>,,,,null,,,,,,,,,,,,,,,,,,,,,,,,,,,
1407.0999999996275,,directmemory_phase,967873,,GW/shreveport.png,,,,49,,,1,0.8214285714285714,GW/cornwall.png,GW/racine.png,GW/newhope.png,GW/cornwall.png,GW/newhope.png,GW/racine.png,1,,,,,,,,,,,,,,,,
null,,html-keyboard-response,968876,,<p></p>,,,,null,,,,,,,,,,,,,,,,,,,,,,,,,,,
2376.0999999996275,,directmemory_phase,971253,,GW/carmel.png,,,,49,,,0,0.7931034482758621,GW/shreveport.png,GW/gatlinburg.png,GW/boulder.png,GW/gatlinburg.png,GW/shreveport.png,GW/boulder.png,0.5,closer,,,,,,,,,,,,,,,
null,,html-keyboard-response,972257,,<p></p>,,,,null,,,,,,,,,,,,,,,,,,,,,,,,,,,
2332,,directmemory_phase,974591,,GW/shreveport.png,,,,50,,,1,0.8,GW/boulder.png,GW/westpalmbeach.png,GW/racine.png,GW/westpalmbeach.png,GW/boulder.png,GW/racine.png,1,,,,,,,,,,,,,,,,
null,,html-keyboard-response,975595,,<p></p>,,,,null,,,,,,,,,,,,,,,,,,,,,,,,,,,
1834.300000000745,,directmemory_phase,977433,,GW/racine.png,,,,51,,,1,0.8064516129032258,GW/shreveport.png,GW/gatlinburg.png,GW/huntsville.png,GW/huntsville.png,GW/gatlinburg.png,GW/shreveport.png,1,,,,,,,,,,,,,,,,
null,,html-keyboard-response,978438,,<p></p>,,,,null,,,,,,,,,,,,,,,,,,,,,,,,,,,
2562.60000000149,,directmemory_phase,981004,,GW/cornwall.png,,,,50,,,0,0.78125,GW/newhope.png,GW/huntsville.png,GW/peoria.png,GW/newhope.png,GW/peoria.png,GW/huntsville.png,0.5,closer,,,,,,,,,,,,,,,
null,,html-keyboard-response,982009,,<p></p>,,,,null,,,,,,,,,,,,,,,,,,,,,,,,,,,
12046,,intro_1,994056,,instruct,,0,,,,,,,,,,,,,,,,,,,,,,,,,,,,,
8464.400000000373,,intro_2,1002522,,instruct,,1,Next,,,,,,,,,,,,,,,,,,,,,,,,,,,,
5596.4000000003725,,intro_3,1008120,,instruct,,1,Next,,,,,,,,,,,,,,,,,,,,,,,,,,,,
5330.800000000745,,intro_4,1013452,,instruct,,1,Next,,,,,,,,,,,,,,,,,,,,,,,,,,,,
9946.599999999627,,intro_5,1023400,,instruct,,1,Next,,,,,,,,,,,,,,,,,,,,,,,,,,,,
7375.5,,intro_6,1030777,,instruct,,1,Next,,,,,,,,,,,,,,,,,,,,,,,,,,,,
7280.300000000745,,intro_7,1038059,,instruct,,1,Next,,,,,,,,,,,,,,,,,,,,,,,,,,,,
4232.4000000003725,,intro_8,1042293,,instruct,,1,Next,,,,,,,,,,,,,,,,,,,,,,,,,,,,
4063.199999999255,,shortestpath_phase,1046358,,GW/huntsville.png,,,,50,GW/boulder.png,GW/shreveport.png,1,1,,,,GW/shreveport.png,,,,,Two Edge Diff,Four Edge Six Edge,,,,,,,,,,,,,
null,,html-keyboard-response,1047364,,<p></p>,,,,null,,,,,,,,,,,,,,,,,,,,,,,,,,,
1772.4000000003725,,shortestpath_phase,1049138,,GW/racine.png,,,,50,GW/peoria.png,GW/gatlinburg.png,1,1,,,,GW/gatlinburg.png,,,,,Three Edge Diff,Two Edge Five Edge,,,,,,,,,,,,,
null,,html-keyboard-response,1050145,,<p></p>,,,,null,,,,,,,,,,,,,,,,,,,,,,,,,,,
1143.2999999988824,,shortestpath_phase,1051290,,GW/huntsville.png,,,,49,GW/westpalmbeach.png,GW/peoria.png,1,1,,,,GW/westpalmbeach.png,,,,,One Edge Diff,Five Edge Six Edge,,,,,,,,,,,,,
null,,html-keyboard-response,1052295,,<p></p>,,,,null,,,,,,,,,,,,,,,,,,,,,,,,,,,
1277.9000000003725,,shortestpath_phase,1053576,,GW/boulder.png,,,,50,GW/peoria.png,GW/racine.png,0,0.75,,,,GW/peoria.png,,,,,Two Edge Diff,Three Edge Five Edge,,,,,,,,,,,,,
null,,html-keyboard-response,1054583,,<p></p>,,,,null,,,,,,,,,,,,,,,,,,,,,,,,,,,
1932.7999999988824,,shortestpath_phase,1056517,,GW/huntsville.png,,,,50,GW/boulder.png,GW/carmel.png,1,0.8,,,,GW/carmel.png,,,,,Four Edge Diff,Two Edge Six Edge,,,,,,,,,,,,,
null,,html-keyboard-response,1057520,,<p></p>,,,,null,,,,,,,,,,,,,,,,,,,,,,,,,,,
1686,,shortestpath_phase,1059208,,GW/peoria.png,,,,50,GW/cornwall.png,GW/gatlinburg.png,0,0.6666666666666666,,,,GW/cornwall.png,,,,,Four Edge Diff,Two Edge Six Edge,,,,,,,,,,,,,
null,,html-keyboard-response,1060212,,<p></p>,,,,null,,,,,,,,,,,,,,,,,,,,,,,,,,,
1412,,shortestpath_phase,1061627,,GW/racine.png,,,,49,GW/leesburg.png,GW/peoria.png,1,0.7142857142857143,,,,GW/leesburg.png,,,,,Three Edge Diff,Three Edge Six Edge,,,,,,,,,,,,,
null,,html-keyboard-response,1062630,,<p></p>,,,,null,,,,,,,,,,,,,,,,,,,,,,,,,,,
1608.9000000003725,,shortestpath_phase,1064241,,GW/peoria.png,,,,49,GW/gatlinburg.png,GW/carmel.png,0,0.625,,,,GW/carmel.png,,,,,One Edge Diff,Five Edge Six Edge,,,,,,,,,,,,,
null,,html-keyboard-response,1065246,,<p></p>,,,,null,,,,,,,,,,,,,,,,,,,,,,,,,,,
1430.2999999988824,,shortestpath_phase,1066678,,GW/gatlinburg.png,,,,49,GW/boulder.png,GW/racine.png,0,0.5555555555555556,,,,GW/racine.png,,,,,Three Edge Diff,Three Edge Six Edge,,,,,,,,,,,,,
null,,html-keyboard-response,1067683,,<p></p>,,,,null,,,,,,,,,,,,,,,,,,,,,,,,,,,
1277.699999999255,,shortestpath_phase,1068963,,GW/boulder.png,,,,49,GW/cornwall.png,GW/racine.png,1,0.6,,,,GW/cornwall.png,,,,,Three Edge Diff,Two Edge Five Edge,,,,,,,,,,,,,
null,,html-keyboard-response,1069967,,<p></p>,,,,null,,,,,,,,,,,,,,,,,,,,,,,,,,,
1553.6000000014901,,shortestpath_phase,1071523,,GW/peoria.png,,,,49,GW/hotsprings.png,GW/gatlinburg.png,1,0.6363636363636364,,,,GW/hotsprings.png,,,,,Two Edge Diff,Four Edge Six Edge,,,,,,,,,,,,,
null,,html-keyboard-response,1072527,,<p></p>,,,,null,,,,,,,,,,,,,,,,,,,,,,,,,,,
1179.2000000011176,,shortestpath_phase,1073708,,GW/racine.png,,,,50,GW/boulder.png,GW/newhope.png,1,0.6666666666666666,,,,GW/newhope.png,,,,,One Edge Diff,Four Edge Five Edge,,,,,,,,,,,,,
null,,html-keyboard-response,1074721,,<p></p>,,,,null,,,,,,,,,,,,,,,,,,,,,,,,,,,
2273.60000000149,,shortestpath_phase,1076998,,GW/peoria.png,,,,49,GW/huntsville.png,GW/cornwall.png,0,0.6153846153846154,,,,GW/cornwall.png,,,,,Four Edge Diff,Two Edge Six Edge,,,,,,,,,,,,,
null,,html-keyboard-response,1078003,,<p></p>,,,,null,,,,,,,,,,,,,,,,,,,,,,,,,,,
1242.5999999996275,,shortestpath_phase,1079248,,GW/hotsprings.png,,,,49,GW/boulder.png,GW/carmel.png,0,0.5714285714285714,,,,GW/carmel.png,,,,,Two Edge Diff,Two Edge Four Edge,,,,,,,,,,,,,
null,,html-keyboard-response,1080252,,<p></p>,,,,null,,,,,,,,,,,,,,,,,,,,,,,,,,,
1893,,shortestpath_phase,1082148,,GW/peoria.png,,,,50,GW/cornwall.png,GW/racine.png,0,0.5333333333333333,,,,GW/cornwall.png,,,,,Three Edge Diff,Three Edge Six Edge,,,,,,,,,,,,,
null,,html-keyboard-response,1083152,,<p></p>,,,,null,,,,,,,,,,,,,,,,,,,,,,,,,,,
1401.2000000011176,,shortestpath_phase,1084556,,GW/huntsville.png,,,,50,GW/hotsprings.png,GW/newhope.png,0,0.5,,,,GW/hotsprings.png,,,,,Three Edge Diff,Three Edge Six Edge,,,,,,,,,,,,,
null,,html-keyboard-response,1085561,,<p></p>,,,,null,,,,,,,,,,,,,,,,,,,,,,,,,,,
2053.2000000011176,,shortestpath_phase,1087618,,GW/racine.png,,,,50,GW/peoria.png,GW/shreveport.png,1,0.5294117647058824,,,,GW/shreveport.png,,,,,Two Edge Diff,Three Edge Five Edge,,,,,,,,,,,,,
null,,html-keyboard-response,1088623,,<p></p>,,,,null,,,,,,,,,,,,,,,,,,,,,,,,,,,
1363.4000000003725,,shortestpath_phase,1089988,,GW/huntsville.png,,,,49,GW/westpalmbeach.png,GW/hanover.png,0,0.5,,,,GW/hanover.png,,,,,Two Edge Diff,Three Edge Five Edge,,,,,,,,,,,,,
null,,html-keyboard-response,1090993,,<p></p>,,,,null,,,,,,,,,,,,,,,,,,,,,,,,,,,
2031,,shortestpath_phase,1093026,,GW/gatlinburg.png,,,,50,GW/newhope.png,GW/hotsprings.png,1,0.5263157894736842,,,,GW/hotsprings.png,,,,,Two Edge Diff,Three Edge Five Edge,,,,,,,,,,,,,
null,,html-keyboard-response,1094035,,<p></p>,,,,null,,,,,,,,,,,,,,,,,,,,,,,,,,,
1516.5999999996275,,shortestpath_phase,1095554,,GW/racine.png,,,,50,GW/peoria.png,GW/hanover.png,1,0.55,,,,GW/hanover.png,,,,,Three Edge Diff,Three Edge Six Edge,,,,,,,,,,,,,
null,,html-keyboard-response,1096558,,<p></p>,,,,null,,,,,,,,,,,,,,,,,,,,,,,,,,,
1140.699999999255,,shortestpath_phase,1097700,,GW/huntsville.png,,,,50,GW/boulder.png,GW/newhope.png,1,0.5714285714285714,,,,GW/newhope.png,,,,,One Edge Diff,Five Edge Six Edge,,,,,,,,,,,,,
null,,html-keyboard-response,1098704,,<p></p>,,,,null,,,,,,,,,,,,,,,,,,,,,,,,,,,
1394,,shortestpath_phase,1100101,,GW/racine.png,,,,50,GW/peoria.png,GW/westpalmbeach.png,1,0.5909090909090909,,,,GW/westpalmbeach.png,,,,,One Edge Diff,Four Edge Five Edge,,,,,,,,,,,,,
null,,html-keyboard-response,1101106,,<p></p>,,,,null,,,,,,,,,,,,,,,,,,,,,,,,,,,
1671,,shortestpath_phase,1102780,,GW/huntsville.png,,,,50,GW/peoria.png,GW/shreveport.png,1,0.6086956521739131,,,,GW/shreveport.png,,,,,Two Edge Diff,Four Edge Six Edge,,,,,,,,,,,,,
null,,html-keyboard-response,1103784,,<p></p>,,,,null,,,,,,,,,,,,,,,,,,,,,,,,,,,
2292.699999999255,,shortestpath_phase,1106079,,GW/westpalmbeach.png,,,,49,GW/hotsprings.png,GW/gatlinburg.png,1,0.625,,,,GW/hotsprings.png,,,,,One Edge Diff,Three Edge Four Edge,,,,,,,,,,,,,
null,,html-keyboard-response,1107084,,<p></p>,,,,null,,,,,,,,,,,,,,,,,,,,,,,,,,,
1797.5999999996275,,shortestpath_phase,1108884,,GW/gatlinburg.png,,,,50,GW/shreveport.png,GW/boulder.png,0,0.6,,,,GW/shreveport.png,,,,,Two Edge Diff,Three Edge Five Edge,,,,,,,,,,,,,
null,,html-keyboard-response,1109890,,<p></p>,,,,null,,,,,,,,,,,,,,,,,,,,,,,,,,,
1690.800000000745,,shortestpath_phase,1111583,,GW/huntsville.png,,,,49,GW/boulder.png,GW/hotsprings.png,0,0.5769230769230769,,,,GW/hotsprings.png,,,,,Four Edge Diff,Two Edge Six Edge,,,,,,,,,,,,,
null,,html-keyboard-response,1112587,,<p></p>,,,,null,,,,,,,,,,,,,,,,,,,,,,,,,,,
2672.5,,shortestpath_phase,1115263,,GW/peoria.png,,,,50,GW/hanover.png,GW/huntsville.png,0,0.5555555555555556,,,,GW/hanover.png,,,,,Two Edge Diff,Four Edge Six Edge,,,,,,,,,,,,,
null,,html-keyboard-response,1116266,,<p></p>,,,,null,,,,,,,,,,,,,,,,,,,,,,,,,,,
934,,shortestpath_phase,1117203,,GW/huntsville.png,,,,50,GW/hotsprings.png,GW/peoria.png,0,0.5357142857142857,,,,GW/hotsprings.png,,,,,Four Edge Diff,Two Edge Six Edge,,,,,,,,,,,,,
null,,html-keyboard-response,1118208,,<p></p>,,,,null,,,,,,,,,,,,,,,,,,,,,,,,,,,
1548.800000000745,,shortestpath_phase,1119760,,GW/newhope.png,,,,49,GW/boulder.png,GW/racine.png,1,0.5517241379310345,,,,GW/boulder.png,,,,,Two Edge Diff,Two Edge Four Edge,,,,,,,,,,,,,
null,,html-keyboard-response,1120765,,<p></p>,,,,null,,,,,,,,,,,,,,,,,,,,,,,,,,,
1835,,shortestpath_phase,1122602,,GW/peoria.png,,,,49,GW/hotsprings.png,GW/racine.png,1,0.5666666666666667,,,,GW/hotsprings.png,,,,,One Edge Diff,Four Edge Five Edge,,,,,,,,,,,,,
null,,html-keyboard-response,1123606,,<p></p>,,,,null,,,,,,,,,,,,,,,,,,,,,,,,,,,
2318.4000000003725,,shortestpath_phase,1125926,,GW/racine.png,,,,50,GW/newhope.png,GW/shreveport.png,1,0.5806451612903226,,,,GW/shreveport.png,,,,,One Edge Diff,Three Edge Four Edge,,,,,,,,,,,,,
null,,html-keyboard-response,1126931,,<p></p>,,,,null,,,,,,,,,,,,,,,,,,,,,,,,,,,
1111.300000000745,,shortestpath_phase,1128046,,GW/huntsville.png,,,,50,GW/peoria.png,GW/cornwall.png,1,0.59375,,,,GW/cornwall.png,,,,,Two Edge Diff,Four Edge Six Edge,,,,,,,,,,,,,
null,,html-keyboard-response,1129053,,<p></p>,,,,null,,,,,,,,,,,,,,,,,,,,,,,,,,,
1856.699999999255,,shortestpath_phase,1130913,,GW/racine.png,,,,50,GW/peoria.png,GW/hanover.png,1,0.6060606060606061,,,,GW/hanover.png,,,,,Three Edge Diff,Two Edge Five Edge,,,,,,,,,,,,,
null,,html-keyboard-response,1131917,,<p></p>,,,,null,,,,,,,,,,,,,,,,,,,,,,,,,,,
2399,,shortestpath_phase,1134318,,GW/carmel.png,,,,50,GW/peoria.png,GW/shreveport.png,1,0.6176470588235294,,,,GW/shreveport.png,,,,,Three Edge Diff,Two Edge Five Edge,,,,,,,,,,,,,
null,,html-keyboard-response,1135322,,<p></p>,,,,null,,,,,,,,,,,,,,,,,,,,,,,,,,,
2021.8999999985099,,shortestpath_phase,1137347,,GW/gatlinburg.png,,,,49,GW/newhope.png,GW/huntsville.png,0,0.6,,,,GW/huntsville.png,,,,,Two Edge Diff,Three Edge Five Edge,,,,,,,,,,,,,
null,,html-keyboard-response,1138352,,<p></p>,,,,null,,,,,,,,,,,,,,,,,,,,,,,,,,,
2094.7999999988824,,shortestpath_phase,1140450,,GW/carmel.png,,,,49,GW/leesburg.png,GW/peoria.png,1,0.6111111111111112,,,,GW/leesburg.png,,,,,Three Edge Diff,Three Edge Six Edge,,,,,,,,,,,,,
null,,html-keyboard-response,1141455,,<p></p>,,,,null,,,,,,,,,,,,,,,,,,,,,,,,,,,
856.2000000011176,,shortestpath_phase,1142314,,GW/racine.png,,,,50,GW/hanover.png,GW/westpalmbeach.png,0,0.5945945945945946,,,,GW/hanover.png,,,,,Two Edge Diff,Two Edge Four Edge,,,,,,,,,,,,,
null,,html-keyboard-response,1143318,,<p></p>,,,,null,,,,,,,,,,,,,,,,,,,,,,,,,,,
1527.199999999255,,shortestpath_phase,1144846,,GW/carmel.png,,,,49,GW/peoria.png,GW/huntsville.png,0,0.5789473684210527,,,,GW/huntsville.png,,,,,Three Edge Diff,Three Edge Six Edge,,,,,,,,,,,,,
null,,html-keyboard-response,1145851,,<p></p>,,,,null,,,,,,,,,,,,,,,,,,,,,,,,,,,
1458.199999999255,,shortestpath_phase,1147312,,GW/gatlinburg.png,,,,50,GW/leesburg.png,GW/newhope.png,0,0.5641025641025641,,,,GW/leesburg.png,,,,,Two Edge Diff,Three Edge Five Edge,,,,,,,,,,,,,
null,,html-keyboard-response,1148316,,<p></p>,,,,null,,,,,,,,,,,,,,,,,,,,,,,,,,,
1769.7000000011176,,shortestpath_phase,1150089,,GW/boulder.png,,,,49,GW/shreveport.png,GW/huntsville.png,1,0.575,,,,GW/shreveport.png,,,,,Four Edge Diff,Two Edge Six Edge,,,,,,,,,,,,,
null,,html-keyboard-response,1151104,,<p></p>,,,,null,,,,,,,,,,,,,,,,,,,,,,,,,,,
1615.9000000003725,,shortestpath_phase,1152723,,GW/gatlinburg.png,,,,50,GW/westpalmbeach.png,GW/peoria.png,0,0.5609756097560976,,,,GW/westpalmbeach.png,,,,,Two Edge Diff,Four Edge Six Edge,,,,,,,,,,,,,
null,,html-keyboard-response,1153730,,<p></p>,,,,null,,,,,,,,,,,,,,,,,,,,,,,,,,,
2114.5999999996275,,shortestpath_phase,1155848,,GW/boulder.png,,,,49,GW/cornwall.png,GW/gatlinburg.png,1,0.5714285714285714,,,,GW/cornwall.png,,,,,Three Edge Diff,Three Edge Six Edge,,,,,,,,,,,,,
null,,html-keyboard-response,1156852,,<p></p>,,,,null,,,,,,,,,,,,,,,,,,,,,,,,,,,
1702.9000000003725,,shortestpath_phase,1158558,,GW/gatlinburg.png,,,,50,GW/peoria.png,GW/newhope.png,1,0.5813953488372093,,,,GW/newhope.png,,,,,One Edge Diff,Five Edge Six Edge,,,,,,,,,,,,,
null,,html-keyboard-response,1159563,,<p></p>,,,,null,,,,,,,,,,,,,,,,,,,,,,,,,,,
2081.199999999255,,shortestpath_phase,1161646,,GW/peoria.png,,,,49,GW/huntsville.png,GW/westpalmbeach.png,0,0.5681818181818182,,,,GW/westpalmbeach.png,,,,,Four Edge Diff,Two Edge Six Edge,,,,,,,,,,,,,
null,,html-keyboard-response,1162653,,<p></p>,,,,null,,,,,,,,,,,,,,,,,,,,,,,,,,,
1303.5,,shortestpath_phase,1163959,,GW/gatlinburg.png,,,,50,GW/cornwall.png,GW/hanover.png,1,0.5777777777777777,,,,GW/hanover.png,,,,,Two Edge Diff,Two Edge Four Edge,,,,,,,,,,,,,
null,,html-keyboard-response,1164964,,<p></p>,,,,null,,,,,,,,,,,,,,,,,,,,,,,,,,,
1842.4000000003725,,shortestpath_phase,1166809,,GW/peoria.png,,,,50,GW/westpalmbeach.png,GW/gatlinburg.png,0,0.5652173913043478,,,,GW/westpalmbeach.png,,,,,Four Edge Diff,Two Edge Six Edge,,,,,,,,,,,,,
null,,html-keyboard-response,1167814,,<p></p>,,,,null,,,,,,,,,,,,,,,,,,,,,,,,,,,
2163.7999999988824,,shortestpath_phase,1169980,,GW/hotsprings.png,,,,49,GW/newhope.png,GW/peoria.png,1,0.574468085106383,,,,GW/newhope.png,,,,,One Edge Diff,Three Edge Four Edge,,,,,,,,,,,,,
null,,html-keyboard-response,1170985,,<p></p>,,,,null,,,,,,,,,,,,,,,,,,,,,,,,,,,
2008.800000000745,,shortestpath_phase,1172997,,GW/shreveport.png,,,,49,GW/carmel.png,GW/peoria.png,1,0.5833333333333334,,,,GW/carmel.png,,,,,One Edge Diff,Two Edge Three Edge,,,,,,,,,,,,,
null,,html-keyboard-response,1174001,,<p></p>,,,,null,,,,,,,,,,,,,,,,,,,,,,,,,,,
1234.300000000745,,shortestpath_phase,1175237,,GW/gatlinburg.png,,,,50,GW/newhope.png,GW/racine.png,1,0.5918367346938775,,,,GW/racine.png,,,,,Three Edge Diff,Two Edge Five Edge,,,,,,,,,,,,,
null,,html-keyboard-response,1176249,,<p></p>,,,,null,,,,,,,,,,,,,,,,,,,,,,,,,,,
1531.199999999255,,shortestpath_phase,1177784,,GW/westpalmbeach.png,,,,50,GW/huntsville.png,GW/leesburg.png,1,0.6,,,,GW/leesburg.png,,,,,Three Edge Diff,Two Edge Five Edge,,,,,,,,,,,,,
null,,html-keyboard-response,1178789,,<p></p>,,,,null,,,,,,,,,,,,,,,,,,,,,,,,,,,
1428.300000000745,,shortestpath_phase,1180221,,GW/hanover.png,,,,49,GW/racine.png,GW/peoria.png,1,0.6078431372549019,,,,GW/racine.png,,,,,Two Edge Diff,Two Edge Four Edge,,,,,,,,,,,,,
null,,html-keyboard-response,1181226,,<p></p>,,,,null,,,,,,,,,,,,,,,,,,,,,,,,,,,
2006.5999999996275,,shortestpath_phase,1183234,,GW/newhope.png,,,,49,GW/boulder.png,GW/huntsville.png,1,0.6153846153846154,,,,GW/boulder.png,,,,,Three Edge Diff,Two Edge Five Edge,,,,,,,,,,,,,
null,,html-keyboard-response,1184239,,<p></p>,,,,null,,,,,,,,,,,,,,,,,,,,,,,,,,,
1689.3999999985099,,shortestpath_phase,1185931,,GW/hotsprings.png,,,,50,GW/peoria.png,GW/cornwall.png,1,0.6226415094339622,,,,GW/cornwall.png,,,,,Two Edge Diff,Two Edge Four Edge,,,,,,,,,,,,,
null,,html-keyboard-response,1186938,,<p></p>,,,,null,,,,,,,,,,,,,,,,,,,,,,,,,,,
1635.9000000003725,,shortestpath_phase,1188576,,GW/gatlinburg.png,,,,50,GW/racine.png,GW/peoria.png,0,0.6111111111111112,,,,GW/racine.png,,,,,Four Edge Diff,Two Edge Six Edge,,,,,,,,,,,,,
null,,html-keyboard-response,1189580,,<p></p>,,,,null,,,,,,,,,,,,,,,,,,,,,,,,,,,
2210.89999999851,,shortestpath_phase,1191793,,GW/peoria.png,,,,50,GW/leesburg.png,GW/hanover.png,0,0.6,,,,GW/leesburg.png,,,,,One Edge Diff,Three Edge Four Edge,,,,,,,,,,,,,
null,,html-keyboard-response,1192797,,<p></p>,,,,null,,,,,,,,,,,,,,,,,,,,,,,,,,,
2226.0999999996275,,shortestpath_phase,1195026,,GW/newhope.png,,,,49,GW/shreveport.png,GW/huntsville.png,1,0.6071428571428571,,,,GW/shreveport.png,,,,,Three Edge Diff,Two Edge Five Edge,,,,,,,,,,,,,
null,,html-keyboard-response,1196031,,<p></p>,,,,null,,,,,,,,,,,,,,,,,,,,,,,,,,,
1924.699999999255,,shortestpath_phase,1197959,,GW/huntsville.png,,,,50,GW/peoria.png,GW/carmel.png,1,0.6140350877192983,,,,GW/carmel.png,,,,,Four Edge Diff,Two Edge Six Edge,,,,,,,,,,,,,
null,,html-keyboard-response,1198964,,<p></p>,,,,null,,,,,,,,,,,,,,,,,,,,,,,,,,,
1628.7000000011176,,shortestpath_phase,1200596,,GW/newhope.png,,,,50,GW/leesburg.png,GW/gatlinburg.png,0,0.603448275862069,,,,GW/leesburg.png,,,,,Three Edge Diff,Two Edge Five Edge,,,,,,,,,,,,,
null,,html-keyboard-response,1201600,,<p></p>,,,,null,,,,,,,,,,,,,,,,,,,,,,,,,,,
1730.3999999985099,,shortestpath_phase,1203333,,GW/peoria.png,,,,50,GW/shreveport.png,GW/hotsprings.png,0,0.5932203389830508,,,,GW/shreveport.png,,,,,One Edge Diff,Three Edge Four Edge,,,,,,,,,,,,,
null,,html-keyboard-response,1204335,,<p></p>,,,,null,,,,,,,,,,,,,,,,,,,,,,,,,,,
1140.0999999996275,,shortestpath_phase,1205478,,GW/huntsville.png,,,,49,GW/newhope.png,GW/peoria.png,1,0.6,,,,GW/newhope.png,,,,,One Edge Diff,Five Edge Six Edge,,,,,,,,,,,,,
null,,html-keyboard-response,1206483,,<p></p>,,,,null,,,,,,,,,,,,,,,,,,,,,,,,,,,
1108.800000000745,,shortestpath_phase,1207594,,GW/carmel.png,,,,50,GW/newhope.png,GW/westpalmbeach.png,1,0.6065573770491803,,,,GW/westpalmbeach.png,,,,,One Edge Diff,Three Edge Four Edge,,,,,,,,,,,,,
null,,html-keyboard-response,1208599,,<p></p>,,,,null,,,,,,,,,,,,,,,,,,,,,,,,,,,
1667.1000000014901,,shortestpath_phase,1210269,,GW/newhope.png,,,,49,GW/shreveport.png,GW/gatlinburg.png,1,0.6129032258064516,,,,GW/shreveport.png,,,,,Three Edge Diff,Three Edge Six Edge,,,,,,,,,,,,,
null,,html-keyboard-response,1211274,,<p></p>,,,,null,,,,,,,,,,,,,,,,,,,,,,,,,,,
1829.9000000003725,,shortestpath_phase,1213106,,GW/hanover.png,,,,50,GW/boulder.png,GW/racine.png,1,0.6190476190476191,,,,GW/racine.png,,,,,One Edge Diff,Two Edge Three Edge,,,,,,,,,,,,,
