rt,responses,trial_type,time_elapsed,sequence,stimulus,graphorder,button_pressed,response,key_press,stimulus_left,stimulus_right,accuracy,cumulative_accuracy,stimulus_down_left,stimulus_down_mid,stimulus_down_right,stimulus_correct,stimulus_short,stimulus_far,weighted_accuracy,missedtrial,condition,specific_pairs,imgL_ID,imgR_ID,linedress,linedressed,detour_trial,linedressed_detor,problems,smooth,distraction,strategies,easier,similar,comments
7208.899999999441,{worker_id:66885d217777eda6f3a9b8dd},id_enter,7210,interleaved,replication,GW/westpalmbeach.png; GW/hotsprings.png; GW/gatlinburg.png; GW/cornwall.png; GW/racine.png; GW/newhope.png; GW/shreveport.png; GW/huntsville.png; GW/hanover.png; GW/peoria.png; GW/carmel.png; GW/boulder.png; GW/leesburg.png,,,,,,,,,,,,,,,,,,,,,,,,,,,,,,
26974.400000000373,,fullscreen,34187,,fullscreen,,0,,,,,,,,,,,,,,,,,,,,,,,,,,,,,
29656,,intro_1,63843,,instruct,,0,,,,,,,,,,,,,,,,,,,,,,,,,,,,,
10631.899999999441,,intro_2,74477,,instruct,,1,Next,,,,,,,,,,,,,,,,,,,,,,,,,,,,
4814.299999999814,,intro_3,79292,,instruct,,1,Next,,,,,,,,,,,,,,,,,,,,,,,,,,,,
null,,learn_prac_1,82293,,lean_prac_1,,,,null,,,,,,,,,,,,,,,,,,,,,,,,,,,
null,,html-keyboard-response,83296,,<p></p>,,,,null,,,,,,,,,,,,,,,,,,,,,,,,,,,
1948.1000000005588,,intro_1,85245,,instruct,,0,,,,,,,,,,,,,,,,,,,,,,,,,,,,,
5046.9000000003725,,intro_2,90293,,instruct,,1,Next,,,,,,,,,,,,,,,,,,,,,,,,,,,,
null,,learn_prac_2,93295,,lean_prac_2,,,,null,,,,,,,,,,,,,,,,,,,,,,,,,,,
null,,html-keyboard-response,94297,,<p></p>,,,,null,,,,,,,,,,,,,,,,,,,,,,,,,,,
1610.800000000745,,intro_1,95909,,instruct,,0,,,,,,,,,,,,,,,,,,,,,,,,,,,,,
1551.3999999994412,,intro_2,97461,,instruct,,1,Next,,,,,,,,,,,,,,,,,,,,,,,,,,,,
15719,,intro_3,113181,,instruct,,1,Next,,,,,,,,,,,,,,,,,,,,,,,,,,,,
null,,prac_atten_color_black,114083,,black_plus_sign,,,,null,,,,,,,,,,,,,,,,,,,,,,,,,,,
null,,prac_atten_color,114583,,prac_stop_color,,,,null,,,,,,,,,,,,,,,,,,,,,,,,,,,
1380.699999999255,,prac_atten_color_black,116585,,black_plus_sign,,,,49,,,,,,,,,,,,,,,,,,,,,,,,,,,
null,,prac_atten_color_black,117489,,black_plus_sign,,,,null,,,,,,,,,,,,,,,,,,,,,,,,,,,
null,,prac_atten_color,118092,,prac_stop_color,,,,null,,,,,,,,,,,,,,,,,,,,,,,,,,,
176.90000000037253,,prac_atten_color_black,120093,,black_plus_sign,,,,50,,,,,,,,,,,,,,,,,,,,,,,,,,,
null,,prac_atten_color_black,120894,,black_plus_sign,,,,null,,,,,,,,,,,,,,,,,,,,,,,,,,,
654.0999999996275,,prac_atten_color,121846,,prac_stop_color,,,,50,,,,,,,,,,,,,,,,,,,,,,,,,,,
null,,prac_atten_color_black,123848,,black_plus_sign,,,,null,,,,,,,,,,,,,,,,,,,,,,,,,,,
null,,prac_atten_color_black,124300,,black_plus_sign,,,,null,,,,,,,,,,,,,,,,,,,,,,,,,,,
344.90000000037253,,prac_atten_color,124907,,prac_stop_color,,,,49,,,,,,,,,,,,,,,,,,,,,,,,,,,
null,,prac_atten_color_black,126909,,black_plus_sign,,,,null,,,,,,,,,,,,,,,,,,,,,,,,,,,
null,,prac_atten_color_black,127706,,black_plus_sign,,,,null,,,,,,,,,,,,,,,,,,,,,,,,,,,
null,,prac_atten_color,128325,,prac_stop_color,,,,null,,,,,,,,,,,,,,,,,,,,,,,,,,,
263.8999999994412,,prac_atten_color_black,130327,,black_plus_sign,,,,50,,,,,,,,,,,,,,,,,,,,,,,,,,,
null,,prac_atten_color_black,131112,,black_plus_sign,,,,null,,,,,,,,,,,,,,,,,,,,,,,,,,,
789.2000000001863,,prac_atten_color,132171,,prac_stop_color,,,,50,,,,,,,,,,,,,,,,,,,,,,,,,,,
null,,prac_atten_color_black,134172,,black_plus_sign,,,,null,,,,,,,,,,,,,,,,,,,,,,,,,,,
null,,prac_atten_color_black,134518,,black_plus_sign,,,,null,,,,,,,,,,,,,,,,,,,,,,,,,,,
null,,prac_atten_color,135194,,prac_stop_color,,,,null,,,,,,,,,,,,,,,,,,,,,,,,,,,
186.79999999981374,,prac_atten_color_black,137196,,black_plus_sign,,,,49,,,,,,,,,,,,,,,,,,,,,,,,,,,
null,,prac_atten_color_black,137924,,black_plus_sign,,,,null,,,,,,,,,,,,,,,,,,,,,,,,,,,
null,,prac_atten_color,138335,,prac_stop_color,,,,null,,,,,,,,,,,,,,,,,,,,,,,,,,,
325.59999999962747,,prac_atten_color_black,140338,,black_plus_sign,,,,50,,,,,,,,,,,,,,,,,,,,,,,,,,,
null,,prac_atten_color_black,141332,,black_plus_sign,,,,null,,,,,,,,,,,,,,,,,,,,,,,,,,,
null,,prac_atten_color,141740,,prac_stop_color,,,,null,,,,,,,,,,,,,,,,,,,,,,,,,,,
121.70000000018626,,prac_atten_color_black,143741,,black_plus_sign,,,,49,,,,,,,,,,,,,,,,,,,,,,,,,,,
null,,prac_atten_color_black,144737,,black_plus_sign,,,,null,,,,,,,,,,,,,,,,,,,,,,,,,,,
667.2999999998137,,prac_atten_color,145528,,prac_stop_color,,,,49,,,,,,,,,,,,,,,,,,,,,,,,,,,
null,,prac_atten_color_black,147529,,black_plus_sign,,,,null,,,,,,,,,,,,,,,,,,,,,,,,,,,
2107.4000000003725,,attentioncheck_feedback,149638,,cross_check_feedback,,0,,,,,,,,,,,,,,,,,,,,,,,,,,,,,
11736.5,,last_instruct,161375,,instruct,,,,32,,,,,,,,,,,,,,,,,,,,,,,,,,,
null,,learn_phase(without_color),164380,,black_plus_sign,,,,null,GW/hanover.png,GW/carmel.png,,,,,,,,,,,,,,,,,,,,,,,,,
null,,black_cross(without_color),165329,,yellow,,,,null,GW/hanover.png,GW/carmel.png,,,,,,,,,,,,,,,,,,,,,,,,,
null,,rt_plussign_withcolor,165831,,yellow,,,,null,GW/hanover.png,GW/carmel.png,,,,,,,,,,,,,,,,,,,,,,,,,
1693.5,,rt_thecrossant_black,166886,,black_plus_sign,,,,50,,,1,1,,,,,,,,,,,,,,,,,,,,,,,
null,,color_black,166988,,black_plus_sign,,,,null,,,,,,,,,,,,,,,,,,,,,,,,,,,
null,,learn_phase(without_color),169991,,black_plus_sign,,,,null,GW/gatlinburg.png,GW/newhope.png,,,,,,,,,,,,,,,,,,,,,,,,,
null,,black_cross(without_color),170395,,blue,,,,null,GW/gatlinburg.png,GW/newhope.png,,,,,,,,,,,,,,,,,,,,,,,,,
null,,rt_plussign_withcolor,170896,,blue,,,,null,GW/gatlinburg.png,GW/newhope.png,,,,,,,,,,,,,,,,,,,,,,,,,
1322.2999999998137,,rt_thecrossant_black,172496,,black_plus_sign,,,,49,,,1,1,,,,,,,,,,,,,,,,,,,,,,,
null,,color_black,172598,,black_plus_sign,,,,null,,,,,,,,,,,,,,,,,,,,,,,,,,,
null,,learn_phase(without_color),175600,,black_plus_sign,,,,null,GW/racine.png,GW/cornwall.png,,,,,,,,,,,,,,,,,,,,,,,,,
null,,black_cross(without_color),176038,,yellow,,,,null,GW/racine.png,GW/cornwall.png,,,,,,,,,,,,,,,,,,,,,,,,,
null,,rt_plussign_withcolor,176539,,yellow,,,,null,GW/racine.png,GW/cornwall.png,,,,,,,,,,,,,,,,,,,,,,,,,
728.0999999996275,,rt_thecrossant_black,178105,,black_plus_sign,,,,50,,,1,1,,,,,,,,,,,,,,,,,,,,,,,
null,,color_black,178207,,black_plus_sign,,,,null,,,,,,,,,,,,,,,,,,,,,,,,,,,
null,,learn_phase(without_color),181209,,black_plus_sign,,,,null,GW/cornwall.png,GW/hotsprings.png,,,,,,,,,,,,,,,,,,,,,,,,,
null,,black_cross(without_color),182305,,yellow,,,,null,GW/cornwall.png,GW/hotsprings.png,,,,,,,,,,,,,,,,,,,,,,,,,
null,,rt_plussign_withcolor,182806,,yellow,,,,null,GW/cornwall.png,GW/hotsprings.png,,,,,,,,,,,,,,,,,,,,,,,,,
976.1000000005588,,rt_thecrossant_black,183714,,black_plus_sign,,,,50,,,1,1,,,,,,,,,,,,,,,,,,,,,,,
null,,color_black,183818,,black_plus_sign,,,,null,,,,,,,,,,,,,,,,,,,,,,,,,,,
null,,learn_phase(without_color),186828,,black_plus_sign,,,,null,GW/shreveport.png,GW/huntsville.png,,,,,,,,,,,,,,,,,,,,,,,,,
null,,black_cross(without_color),187278,,yellow,,,,null,GW/shreveport.png,GW/huntsville.png,,,,,,,,,,,,,,,,,,,,,,,,,
null,,rt_plussign_withcolor,187779,,yellow,,,,null,GW/shreveport.png,GW/huntsville.png,,,,,,,,,,,,,,,,,,,,,,,,,
1540.699999999255,,rt_thecrossant_black,189333,,black_plus_sign,,,,49,,,0,0.8,,,,,,,,,,,,,,,,,,,,,,,
null,,color_black,189436,,black_plus_sign,,,,null,,,,,,,,,,,,,,,,,,,,,,,,,,,
null,,learn_phase(without_color),192438,,black_plus_sign,,,,null,GW/cornwall.png,GW/hotsprings.png,,,,,,,,,,,,,,,,,,,,,,,,,
null,,black_cross(without_color),193079,,blue,,,,null,GW/cornwall.png,GW/hotsprings.png,,,,,,,,,,,,,,,,,,,,,,,,,
null,,rt_plussign_withcolor,193581,,blue,,,,null,GW/cornwall.png,GW/hotsprings.png,,,,,,,,,,,,,,,,,,,,,,,,,
869.7999999998137,,rt_thecrossant_black,194943,,black_plus_sign,,,,49,,,1,0.8333333333333334,,,,,,,,,,,,,,,,,,,,,,,
null,,color_black,195044,,black_plus_sign,,,,null,,,,,,,,,,,,,,,,,,,,,,,,,,,
null,,learn_phase(without_color),198046,,black_plus_sign,,,,null,GW/huntsville.png,GW/hanover.png,,,,,,,,,,,,,,,,,,,,,,,,,
null,,black_cross(without_color),198604,,blue,,,,null,GW/huntsville.png,GW/hanover.png,,,,,,,,,,,,,,,,,,,,,,,,,
null,,rt_plussign_withcolor,199106,,blue,,,,null,GW/huntsville.png,GW/hanover.png,,,,,,,,,,,,,,,,,,,,,,,,,
888.7000000001863,,rt_thecrossant_black,200552,,black_plus_sign,,,,49,,,1,0.8571428571428571,,,,,,,,,,,,,,,,,,,,,,,
null,,color_black,200654,,black_plus_sign,,,,null,,,,,,,,,,,,,,,,,,,,,,,,,,,
null,,learn_phase(without_color),203655,,black_plus_sign,,,,null,GW/shreveport.png,GW/hanover.png,,,,,,,,,,,,,,,,,,,,,,,,,
null,,black_cross(without_color),204282,,blue,,,,null,GW/shreveport.png,GW/hanover.png,,,,,,,,,,,,,,,,,,,,,,,,,
null,,rt_plussign_withcolor,204783,,blue,,,,null,GW/shreveport.png,GW/hanover.png,,,,,,,,,,,,,,,,,,,,,,,,,
855.9000000003725,,rt_thecrossant_black,206160,,black_plus_sign,,,,49,,,1,0.875,,,,,,,,,,,,,,,,,,,,,,,
null,,color_black,206262,,black_plus_sign,,,,null,,,,,,,,,,,,,,,,,,,,,,,,,,,
null,,learn_phase(without_color),209263,,black_plus_sign,,,,null,GW/huntsville.png,GW/peoria.png,,,,,,,,,,,,,,,,,,,,,,,,,
null,,black_cross(without_color),209870,,yellow,,,,null,GW/huntsville.png,GW/peoria.png,,,,,,,,,,,,,,,,,,,,,,,,,
368.90000000037253,,rt_plussign_withcolor,210372,,yellow,,,,50,GW/huntsville.png,GW/peoria.png,,,,,,,,,,,,,,,,,,,,,,,,,
null,,rt_thecrossant_black,211769,,black_plus_sign,,,,null,,,1,0.8888888888888888,,,,,,,,,,,,,,,,,,,,,,,
null,,color_black,211871,,black_plus_sign,,,,null,,,,,,,,,,,,,,,,,,,,,,,,,,,
null,,learn_phase(without_color),214873,,black_plus_sign,,,,null,GW/hotsprings.png,GW/westpalmbeach.png,,,,,,,,,,,,,,,,,,,,,,,,,
null,,black_cross(without_color),215828,,yellow,,,,null,GW/hotsprings.png,GW/westpalmbeach.png,,,,,,,,,,,,,,,,,,,,,,,,,
491.90000000037253,,rt_plussign_withcolor,216329,,yellow,,,,50,GW/hotsprings.png,GW/westpalmbeach.png,,,,,,,,,,,,,,,,,,,,,,,,,
null,,rt_thecrossant_black,217380,,black_plus_sign,,,,null,,,1,0.9,,,,,,,,,,,,,,,,,,,,,,,
null,,color_black,217482,,black_plus_sign,,,,null,,,,,,,,,,,,,,,,,,,,,,,,,,,
null,,learn_phase(without_color),220484,,black_plus_sign,,,,null,GW/hotsprings.png,GW/gatlinburg.png,,,,,,,,,,,,,,,,,,,,,,,,,
null,,black_cross(without_color),221032,,yellow,,,,null,GW/hotsprings.png,GW/gatlinburg.png,,,,,,,,,,,,,,,,,,,,,,,,,
null,,rt_plussign_withcolor,221533,,yellow,,,,null,GW/hotsprings.png,GW/gatlinburg.png,,,,,,,,,,,,,,,,,,,,,,,,,
1311.3999999994412,,rt_thecrossant_black,222989,,black_plus_sign,,,,50,,,1,0.9090909090909091,,,,,,,,,,,,,,,,,,,,,,,
null,,color_black,223091,,black_plus_sign,,,,null,,,,,,,,,,,,,,,,,,,,,,,,,,,
null,,learn_phase(without_color),226093,,black_plus_sign,,,,null,GW/newhope.png,GW/hanover.png,,,,,,,,,,,,,,,,,,,,,,,,,
null,,black_cross(without_color),226514,,blue,,,,null,GW/newhope.png,GW/hanover.png,,,,,,,,,,,,,,,,,,,,,,,,,
null,,rt_plussign_withcolor,227015,,blue,,,,null,GW/newhope.png,GW/hanover.png,,,,,,,,,,,,,,,,,,,,,,,,,
846.2999999998137,,rt_thecrossant_black,228598,,black_plus_sign,,,,49,,,1,0.9166666666666666,,,,,,,,,,,,,,,,,,,,,,,
null,,color_black,228700,,black_plus_sign,,,,null,,,,,,,,,,,,,,,,,,,,,,,,,,,
null,,learn_phase(without_color),231701,,black_plus_sign,,,,null,GW/gatlinburg.png,GW/hotsprings.png,,,,,,,,,,,,,,,,,,,,,,,,,
null,,black_cross(without_color),232552,,blue,,,,null,GW/gatlinburg.png,GW/hotsprings.png,,,,,,,,,,,,,,,,,,,,,,,,,
null,,rt_plussign_withcolor,233053,,blue,,,,null,GW/gatlinburg.png,GW/hotsprings.png,,,,,,,,,,,,,,,,,,,,,,,,,
681.5,,rt_thecrossant_black,234205,,black_plus_sign,,,,49,,,1,0.9230769230769231,,,,,,,,,,,,,,,,,,,,,,,
null,,color_black,234308,,black_plus_sign,,,,null,,,,,,,,,,,,,,,,,,,,,,,,,,,
null,,learn_phase(without_color),237310,,black_plus_sign,,,,null,GW/newhope.png,GW/hanover.png,,,,,,,,,,,,,,,,,,,,,,,,,
null,,black_cross(without_color),238238,,yellow,,,,null,GW/newhope.png,GW/hanover.png,,,,,,,,,,,,,,,,,,,,,,,,,
442.6000000005588,,rt_plussign_withcolor,238739,,yellow,,,,50,GW/newhope.png,GW/hanover.png,,,,,,,,,,,,,,,,,,,,,,,,,
null,,rt_thecrossant_black,239815,,black_plus_sign,,,,null,,,1,0.9285714285714286,,,,,,,,,,,,,,,,,,,,,,,
null,,color_black,239928,,black_plus_sign,,,,null,,,,,,,,,,,,,,,,,,,,,,,,,,,
null,,learn_phase(without_color),242930,,black_plus_sign,,,,null,GW/leesburg.png,GW/shreveport.png,,,,,,,,,,,,,,,,,,,,,,,,,
null,,black_cross(without_color),243378,,yellow,,,,null,GW/leesburg.png,GW/shreveport.png,,,,,,,,,,,,,,,,,,,,,,,,,
null,,rt_plussign_withcolor,243879,,yellow,,,,null,GW/leesburg.png,GW/shreveport.png,,,,,,,,,,,,,,,,,,,,,,,,,
1131.5,,rt_thecrossant_black,245436,,black_plus_sign,,,,49,,,0,0.8666666666666667,,,,,,,,,,,,,,,,,,,,,,,
null,,color_black,245538,,black_plus_sign,,,,null,,,,,,,,,,,,,,,,,,,,,,,,,,,
null,,learn_phase(without_color),248539,,black_plus_sign,,,,null,GW/boulder.png,GW/cornwall.png,,,,,,,,,,,,,,,,,,,,,,,,,
null,,black_cross(without_color),249309,,blue,,,,null,GW/boulder.png,GW/cornwall.png,,,,,,,,,,,,,,,,,,,,,,,,,
null,,rt_plussign_withcolor,249811,,blue,,,,null,GW/boulder.png,GW/cornwall.png,,,,,,,,,,,,,,,,,,,,,,,,,
1142.1000000005588,,rt_thecrossant_black,251045,,black_plus_sign,,,,49,,,1,0.875,,,,,,,,,,,,,,,,,,,,,,,
null,,color_black,251147,,black_plus_sign,,,,null,,,,,,,,,,,,,,,,,,,,,,,,,,,
null,,learn_phase(without_color),254149,,black_plus_sign,,,,null,GW/hanover.png,GW/shreveport.png,,,,,,,,,,,,,,,,,,,,,,,,,
null,,black_cross(without_color),254873,,yellow,,,,null,GW/hanover.png,GW/shreveport.png,,,,,,,,,,,,,,,,,,,,,,,,,
null,,rt_plussign_withcolor,255374,,yellow,,,,null,GW/hanover.png,GW/shreveport.png,,,,,,,,,,,,,,,,,,,,,,,,,
989.7999999998137,,rt_thecrossant_black,256654,,black_plus_sign,,,,50,,,1,0.8823529411764706,,,,,,,,,,,,,,,,,,,,,,,
null,,color_black,256758,,black_plus_sign,,,,null,,,,,,,,,,,,,,,,,,,,,,,,,,,
null,,learn_phase(without_color),259760,,black_plus_sign,,,,null,GW/gatlinburg.png,GW/carmel.png,,,,,,,,,,,,,,,,,,,,,,,,,
null,,black_cross(without_color),260428,,blue,,,,null,GW/gatlinburg.png,GW/carmel.png,,,,,,,,,,,,,,,,,,,,,,,,,
null,,rt_plussign_withcolor,260930,,blue,,,,null,GW/gatlinburg.png,GW/carmel.png,,,,,,,,,,,,,,,,,,,,,,,,,
868.6999999992549,,rt_thecrossant_black,262266,,black_plus_sign,,,,49,,,1,0.8888888888888888,,,,,,,,,,,,,,,,,,,,,,,
null,,color_black,262368,,black_plus_sign,,,,null,,,,,,,,,,,,,,,,,,,,,,,,,,,
null,,learn_phase(without_color),265371,,black_plus_sign,,,,null,GW/leesburg.png,GW/shreveport.png,,,,,,,,,,,,,,,,,,,,,,,,,
null,,black_cross(without_color),266265,,blue,,,,null,GW/leesburg.png,GW/shreveport.png,,,,,,,,,,,,,,,,,,,,,,,,,
null,,rt_plussign_withcolor,266766,,blue,,,,null,GW/leesburg.png,GW/shreveport.png,,,,,,,,,,,,,,,,,,,,,,,,,
943.4000000003725,,rt_thecrossant_black,267875,,black_plus_sign,,,,49,,,1,0.8947368421052632,,,,,,,,,,,,,,,,,,,,,,,
null,,color_black,267990,,black_plus_sign,,,,null,,,,,,,,,,,,,,,,,,,,,,,,,,,
null,,learn_phase(without_color),270991,,black_plus_sign,,,,null,GW/boulder.png,GW/carmel.png,,,,,,,,,,,,,,,,,,,,,,,,,
null,,black_cross(without_color),271878,,blue,,,,null,GW/boulder.png,GW/carmel.png,,,,,,,,,,,,,,,,,,,,,,,,,
null,,rt_plussign_withcolor,272381,,blue,,,,null,GW/boulder.png,GW/carmel.png,,,,,,,,,,,,,,,,,,,,,,,,,
1085.2000000001863,,rt_thecrossant_black,273498,,black_plus_sign,,,,49,,,1,0.9,,,,,,,,,,,,,,,,,,,,,,,
null,,color_black,273600,,black_plus_sign,,,,null,,,,,,,,,,,,,,,,,,,,,,,,,,,
null,,learn_phase(without_color),276602,,black_plus_sign,,,,null,GW/boulder.png,GW/cornwall.png,,,,,,,,,,,,,,,,,,,,,,,,,
null,,black_cross(without_color),277480,,blue,,,,null,GW/boulder.png,GW/cornwall.png,,,,,,,,,,,,,,,,,,,,,,,,,
null,,rt_plussign_withcolor,277981,,blue,,,,null,GW/boulder.png,GW/cornwall.png,,,,,,,,,,,,,,,,,,,,,,,,,
1213.0999999996275,,rt_thecrossant_black,279114,,black_plus_sign,,,,49,,,1,0.9047619047619048,,,,,,,,,,,,,,,,,,,,,,,
null,,color_black,279223,,black_plus_sign,,,,null,,,,,,,,,,,,,,,,,,,,,,,,,,,
null,,learn_phase(without_color),282224,,black_plus_sign,,,,null,GW/hotsprings.png,GW/gatlinburg.png,,,,,,,,,,,,,,,,,,,,,,,,,
null,,black_cross(without_color),282801,,blue,,,,null,GW/hotsprings.png,GW/gatlinburg.png,,,,,,,,,,,,,,,,,,,,,,,,,
null,,rt_plussign_withcolor,283303,,blue,,,,null,GW/hotsprings.png,GW/gatlinburg.png,,,,,,,,,,,,,,,,,,,,,,,,,
1234.2999999998137,,rt_thecrossant_black,284730,,black_plus_sign,,,,49,,,1,0.9090909090909091,,,,,,,,,,,,,,,,,,,,,,,
null,,color_black,284831,,black_plus_sign,,,,null,,,,,,,,,,,,,,,,,,,,,,,,,,,
null,,learn_phase(without_color),287832,,black_plus_sign,,,,null,GW/cornwall.png,GW/racine.png,,,,,,,,,,,,,,,,,,,,,,,,,
null,,black_cross(without_color),288909,,yellow,,,,null,GW/cornwall.png,GW/racine.png,,,,,,,,,,,,,,,,,,,,,,,,,
364.69999999925494,,rt_plussign_withcolor,289411,,yellow,,,,50,GW/cornwall.png,GW/racine.png,,,,,,,,,,,,,,,,,,,,,,,,,
null,,rt_thecrossant_black,290338,,black_plus_sign,,,,null,,,1,0.9130434782608695,,,,,,,,,,,,,,,,,,,,,,,
null,,color_black,290440,,black_plus_sign,,,,null,,,,,,,,,,,,,,,,,,,,,,,,,,,
null,,learn_phase(without_color),293442,,black_plus_sign,,,,null,GW/hanover.png,GW/shreveport.png,,,,,,,,,,,,,,,,,,,,,,,,,
null,,black_cross(without_color),294083,,yellow,,,,null,GW/hanover.png,GW/shreveport.png,,,,,,,,,,,,,,,,,,,,,,,,,
null,,rt_plussign_withcolor,294584,,yellow,,,,null,GW/hanover.png,GW/shreveport.png,,,,,,,,,,,,,,,,,,,,,,,,,
1472.7999999998137,,rt_thecrossant_black,295947,,black_plus_sign,,,,50,,,1,0.9166666666666666,,,,,,,,,,,,,,,,,,,,,,,
null,,color_black,296048,,black_plus_sign,,,,null,,,,,,,,,,,,,,,,,,,,,,,,,,,
null,,learn_phase(without_color),299050,,black_plus_sign,,,,null,GW/gatlinburg.png,GW/carmel.png,,,,,,,,,,,,,,,,,,,,,,,,,
null,,black_cross(without_color),300043,,blue,,,,null,GW/gatlinburg.png,GW/carmel.png,,,,,,,,,,,,,,,,,,,,,,,,,
null,,rt_plussign_withcolor,300545,,blue,,,,null,GW/gatlinburg.png,GW/carmel.png,,,,,,,,,,,,,,,,,,,,,,,,,
923.2999999998137,,rt_thecrossant_black,301556,,black_plus_sign,,,,49,,,1,0.92,,,,,,,,,,,,,,,,,,,,,,,
null,,color_black,301657,,black_plus_sign,,,,null,,,,,,,,,,,,,,,,,,,,,,,,,,,
null,,learn_phase(without_color),304659,,black_plus_sign,,,,null,GW/hanover.png,GW/newhope.png,,,,,,,,,,,,,,,,,,,,,,,,,
null,,black_cross(without_color),305700,,blue,,,,null,GW/hanover.png,GW/newhope.png,,,,,,,,,,,,,,,,,,,,,,,,,
null,,rt_plussign_withcolor,306201,,blue,,,,null,GW/hanover.png,GW/newhope.png,,,,,,,,,,,,,,,,,,,,,,,,,
1211.7999999998137,,rt_thecrossant_black,307164,,black_plus_sign,,,,49,,,1,0.9230769230769231,,,,,,,,,,,,,,,,,,,,,,,
null,,color_black,307275,,black_plus_sign,,,,null,,,,,,,,,,,,,,,,,,,,,,,,,,,
null,,learn_phase(without_color),310278,,black_plus_sign,,,,null,GW/hanover.png,GW/shreveport.png,,,,,,,,,,,,,,,,,,,,,,,,,
null,,black_cross(without_color),310703,,blue,,,,null,GW/hanover.png,GW/shreveport.png,,,,,,,,,,,,,,,,,,,,,,,,,
499.40000000037253,,rt_plussign_withcolor,311204,,blue,,,,49,GW/hanover.png,GW/shreveport.png,,,,,,,,,,,,,,,,,,,,,,,,,
null,,rt_thecrossant_black,312782,,black_plus_sign,,,,null,,,1,0.9259259259259259,,,,,,,,,,,,,,,,,,,,,,,
null,,color_black,312884,,black_plus_sign,,,,null,,,,,,,,,,,,,,,,,,,,,,,,,,,
null,,learn_phase(without_color),315885,,black_plus_sign,,,,null,GW/huntsville.png,GW/hanover.png,,,,,,,,,,,,,,,,,,,,,,,,,
null,,black_cross(without_color),316801,,blue,,,,null,GW/huntsville.png,GW/hanover.png,,,,,,,,,,,,,,,,,,,,,,,,,
null,,rt_plussign_withcolor,317303,,blue,,,,null,GW/huntsville.png,GW/hanover.png,,,,,,,,,,,,,,,,,,,,,,,,,
573.7999999998137,,rt_thecrossant_black,318389,,black_plus_sign,,,,49,,,1,0.9285714285714286,,,,,,,,,,,,,,,,,,,,,,,
null,,color_black,318490,,black_plus_sign,,,,null,,,,,,,,,,,,,,,,,,,,,,,,,,,
null,,learn_phase(without_color),321492,,black_plus_sign,,,,null,GW/gatlinburg.png,GW/newhope.png,,,,,,,,,,,,,,,,,,,,,,,,,
null,,black_cross(without_color),322410,,yellow,,,,null,GW/gatlinburg.png,GW/newhope.png,,,,,,,,,,,,,,,,,,,,,,,,,
null,,rt_plussign_withcolor,322912,,yellow,,,,null,GW/gatlinburg.png,GW/newhope.png,,,,,,,,,,,,,,,,,,,,,,,,,
1137.7000000001863,,rt_thecrossant_black,323996,,black_plus_sign,,,,50,,,1,0.9310344827586207,,,,,,,,,,,,,,,,,,,,,,,
null,,color_black,324098,,black_plus_sign,,,,null,,,,,,,,,,,,,,,,,,,,,,,,,,,
null,,learn_phase(without_color),327100,,black_plus_sign,,,,null,GW/hotsprings.png,GW/westpalmbeach.png,,,,,,,,,,,,,,,,,,,,,,,,,
null,,black_cross(without_color),328115,,blue,,,,null,GW/hotsprings.png,GW/westpalmbeach.png,,,,,,,,,,,,,,,,,,,,,,,,,
null,,rt_plussign_withcolor,328617,,blue,,,,null,GW/hotsprings.png,GW/westpalmbeach.png,,,,,,,,,,,,,,,,,,,,,,,,,
1274.0999999996275,,rt_thecrossant_black,329606,,black_plus_sign,,,,49,,,1,0.9333333333333333,,,,,,,,,,,,,,,,,,,,,,,
null,,color_black,329708,,black_plus_sign,,,,null,,,,,,,,,,,,,,,,,,,,,,,,,,,
null,,learn_phase(without_color),332710,,black_plus_sign,,,,null,GW/westpalmbeach.png,GW/hotsprings.png,,,,,,,,,,,,,,,,,,,,,,,,,
null,,black_cross(without_color),333382,,yellow,,,,null,GW/westpalmbeach.png,GW/hotsprings.png,,,,,,,,,,,,,,,,,,,,,,,,,
null,,rt_plussign_withcolor,333884,,yellow,,,,null,GW/westpalmbeach.png,GW/hotsprings.png,,,,,,,,,,,,,,,,,,,,,,,,,
1399.5,,rt_thecrossant_black,335214,,black_plus_sign,,,,50,,,1,0.9354838709677419,,,,,,,,,,,,,,,,,,,,,,,
null,,color_black,335323,,black_plus_sign,,,,null,,,,,,,,,,,,,,,,,,,,,,,,,,,
null,,learn_phase(without_color),338324,,black_plus_sign,,,,null,GW/huntsville.png,GW/shreveport.png,,,,,,,,,,,,,,,,,,,,,,,,,
null,,black_cross(without_color),338944,,yellow,,,,null,GW/huntsville.png,GW/shreveport.png,,,,,,,,,,,,,,,,,,,,,,,,,
475.1000000005588,,rt_plussign_withcolor,339445,,yellow,,,,50,GW/huntsville.png,GW/shreveport.png,,,,,,,,,,,,,,,,,,,,,,,,,
null,,rt_thecrossant_black,340829,,black_plus_sign,,,,null,,,1,0.9375,,,,,,,,,,,,,,,,,,,,,,,
null,,color_black,340930,,black_plus_sign,,,,null,,,,,,,,,,,,,,,,,,,,,,,,,,,
null,,learn_phase(without_color),343933,,black_plus_sign,,,,null,GW/huntsville.png,GW/hanover.png,,,,,,,,,,,,,,,,,,,,,,,,,
null,,black_cross(without_color),344565,,yellow,,,,null,GW/huntsville.png,GW/hanover.png,,,,,,,,,,,,,,,,,,,,,,,,,
470.1000000005588,,rt_plussign_withcolor,345065,,yellow,,,,50,GW/huntsville.png,GW/hanover.png,,,,,,,,,,,,,,,,,,,,,,,,,
null,,rt_thecrossant_black,346437,,black_plus_sign,,,,null,,,1,0.9393939393939394,,,,,,,,,,,,,,,,,,,,,,,
null,,color_black,346538,,black_plus_sign,,,,null,,,,,,,,,,,,,,,,,,,,,,,,,,,
null,,learn_phase(without_color),349539,,black_plus_sign,,,,null,GW/huntsville.png,GW/peoria.png,,,,,,,,,,,,,,,,,,,,,,,,,
null,,black_cross(without_color),350167,,yellow,,,,null,GW/huntsville.png,GW/peoria.png,,,,,,,,,,,,,,,,,,,,,,,,,
null,,rt_plussign_withcolor,350668,,yellow,,,,null,GW/huntsville.png,GW/peoria.png,,,,,,,,,,,,,,,,,,,,,,,,,
952.2999999998137,,rt_thecrossant_black,352044,,black_plus_sign,,,,49,,,0,0.9117647058823529,,,,,,,,,,,,,,,,,,,,,,,
null,,color_black,352146,,black_plus_sign,,,,null,,,,,,,,,,,,,,,,,,,,,,,,,,,
null,,learn_phase(without_color),355147,,black_plus_sign,,,,null,GW/peoria.png,GW/huntsville.png,,,,,,,,,,,,,,,,,,,,,,,,,
null,,black_cross(without_color),355649,,yellow,,,,null,GW/peoria.png,GW/huntsville.png,,,,,,,,,,,,,,,,,,,,,,,,,
null,,rt_plussign_withcolor,356150,,yellow,,,,null,GW/peoria.png,GW/huntsville.png,,,,,,,,,,,,,,,,,,,,,,,,,
null,,rt_thecrossant_black,357652,,black_plus_sign,,,,null,,,,0.9117647058823529,,,,,,,,,,,,,,,,,,,,,,,
null,,warning_page,360655,,warning,,,,null,,,,,,,,,,,,,,,,,,,,,,,,,,,
null,,color_black,360757,,black_plus_sign,,,,null,,,,,,,,,,,,,,,,,,,,,,,,,,,
null,,learn_phase(without_color),363759,,black_plus_sign,,,,null,GW/racine.png,GW/cornwall.png,,,,,,,,,,,,,,,,,,,,,,,,,
null,,black_cross(without_color),364780,,blue,,,,null,GW/racine.png,GW/cornwall.png,,,,,,,,,,,,,,,,,,,,,,,,,
null,,rt_plussign_withcolor,365281,,blue,,,,null,GW/racine.png,GW/cornwall.png,,,,,,,,,,,,,,,,,,,,,,,,,
731.1999999992549,,rt_thecrossant_black,366263,,black_plus_sign,,,,50,,,0,0.8857142857142857,,,,,,,,,,,,,,,,,,,,,,,
null,,warning_page,369265,,warning,,,,null,,,,,,,,,,,,,,,,,,,,,,,,,,,
null,,color_black,369367,,black_plus_sign,,,,null,,,,,,,,,,,,,,,,,,,,,,,,,,,
null,,learn_phase(without_color),372370,,black_plus_sign,,,,null,GW/gatlinburg.png,GW/hotsprings.png,,,,,,,,,,,,,,,,,,,,,,,,,
null,,black_cross(without_color),373143,,yellow,,,,null,GW/gatlinburg.png,GW/hotsprings.png,,,,,,,,,,,,,,,,,,,,,,,,,
null,,rt_plussign_withcolor,373645,,yellow,,,,null,GW/gatlinburg.png,GW/hotsprings.png,,,,,,,,,,,,,,,,,,,,,,,,,
1653.6000000005588,,rt_thecrossant_black,374875,,black_plus_sign,,,,50,,,1,0.8888888888888888,,,,,,,,,,,,,,,,,,,,,,,
null,,color_black,374981,,black_plus_sign,,,,null,,,,,,,,,,,,,,,,,,,,,,,,,,,
null,,learn_phase(without_color),377983,,black_plus_sign,,,,null,GW/carmel.png,GW/boulder.png,,,,,,,,,,,,,,,,,,,,,,,,,
null,,black_cross(without_color),378462,,blue,,,,null,GW/carmel.png,GW/boulder.png,,,,,,,,,,,,,,,,,,,,,,,,,
null,,rt_plussign_withcolor,378964,,blue,,,,null,GW/carmel.png,GW/boulder.png,,,,,,,,,,,,,,,,,,,,,,,,,
1063.5,,rt_thecrossant_black,380501,,black_plus_sign,,,,49,,,1,0.8918918918918919,,,,,,,,,,,,,,,,,,,,,,,
null,,color_black,380603,,black_plus_sign,,,,null,,,,,,,,,,,,,,,,,,,,,,,,,,,
null,,learn_phase(without_color),383605,,black_plus_sign,,,,null,GW/carmel.png,GW/hanover.png,,,,,,,,,,,,,,,,,,,,,,,,,
null,,black_cross(without_color),384602,,yellow,,,,null,GW/carmel.png,GW/hanover.png,,,,,,,,,,,,,,,,,,,,,,,,,
null,,rt_plussign_withcolor,385104,,yellow,,,,null,GW/carmel.png,GW/hanover.png,,,,,,,,,,,,,,,,,,,,,,,,,
964.7000000001863,,rt_thecrossant_black,386111,,black_plus_sign,,,,50,,,1,0.8947368421052632,,,,,,,,,,,,,,,,,,,,,,,
null,,color_black,386213,,black_plus_sign,,,,null,,,,,,,,,,,,,,,,,,,,,,,,,,,
null,,learn_phase(without_color),389216,,black_plus_sign,,,,null,GW/leesburg.png,GW/shreveport.png,,,,,,,,,,,,,,,,,,,,,,,,,
null,,black_cross(without_color),389923,,yellow,,,,null,GW/leesburg.png,GW/shreveport.png,,,,,,,,,,,,,,,,,,,,,,,,,
null,,rt_plussign_withcolor,390424,,yellow,,,,null,GW/leesburg.png,GW/shreveport.png,,,,,,,,,,,,,,,,,,,,,,,,,
1297.9000000003725,,rt_thecrossant_black,391722,,black_plus_sign,,,,50,,,1,0.8974358974358975,,,,,,,,,,,,,,,,,,,,,,,
null,,color_black,391824,,black_plus_sign,,,,null,,,,,,,,,,,,,,,,,,,,,,,,,,,
null,,learn_phase(without_color),394827,,black_plus_sign,,,,null,GW/shreveport.png,GW/huntsville.png,,,,,,,,,,,,,,,,,,,,,,,,,
null,,black_cross(without_color),395454,,blue,,,,null,GW/shreveport.png,GW/huntsville.png,,,,,,,,,,,,,,,,,,,,,,,,,
382.59999999962747,,rt_plussign_withcolor,395956,,blue,,,,49,GW/shreveport.png,GW/huntsville.png,,,,,,,,,,,,,,,,,,,,,,,,,
null,,rt_thecrossant_black,397332,,black_plus_sign,,,,null,,,1,0.9,,,,,,,,,,,,,,,,,,,,,,,
null,,color_black,397433,,black_plus_sign,,,,null,,,,,,,,,,,,,,,,,,,,,,,,,,,
null,,learn_phase(without_color),400435,,black_plus_sign,,,,null,GW/shreveport.png,GW/leesburg.png,,,,,,,,,,,,,,,,,,,,,,,,,
null,,black_cross(without_color),401396,,blue,,,,null,GW/shreveport.png,GW/leesburg.png,,,,,,,,,,,,,,,,,,,,,,,,,
473.20000000018626,,rt_plussign_withcolor,401897,,blue,,,,49,GW/shreveport.png,GW/leesburg.png,,,,,,,,,,,,,,,,,,,,,,,,,
null,,rt_thecrossant_black,402939,,black_plus_sign,,,,null,,,1,0.9024390243902439,,,,,,,,,,,,,,,,,,,,,,,
null,,color_black,403040,,black_plus_sign,,,,null,,,,,,,,,,,,,,,,,,,,,,,,,,,
null,,learn_phase(without_color),406042,,black_plus_sign,,,,null,GW/gatlinburg.png,GW/newhope.png,,,,,,,,,,,,,,,,,,,,,,,,,
null,,black_cross(without_color),406900,,yellow,,,,null,GW/gatlinburg.png,GW/newhope.png,,,,,,,,,,,,,,,,,,,,,,,,,
null,,rt_plussign_withcolor,407402,,yellow,,,,null,GW/gatlinburg.png,GW/newhope.png,,,,,,,,,,,,,,,,,,,,,,,,,
1181.5999999996275,,rt_thecrossant_black,408546,,black_plus_sign,,,,50,,,1,0.9047619047619048,,,,,,,,,,,,,,,,,,,,,,,
null,,color_black,408647,,black_plus_sign,,,,null,,,,,,,,,,,,,,,,,,,,,,,,,,,
null,,learn_phase(without_color),411649,,black_plus_sign,,,,null,GW/gatlinburg.png,GW/newhope.png,,,,,,,,,,,,,,,,,,,,,,,,,
null,,black_cross(without_color),412554,,yellow,,,,null,GW/gatlinburg.png,GW/newhope.png,,,,,,,,,,,,,,,,,,,,,,,,,
387.20000000018626,,rt_plussign_withcolor,413055,,yellow,,,,50,GW/gatlinburg.png,GW/newhope.png,,,,,,,,,,,,,,,,,,,,,,,,,
null,,rt_thecrossant_black,414153,,black_plus_sign,,,,null,,,1,0.9069767441860465,,,,,,,,,,,,,,,,,,,,,,,
null,,color_black,414255,,black_plus_sign,,,,null,,,,,,,,,,,,,,,,,,,,,,,,,,,
null,,learn_phase(without_color),417258,,black_plus_sign,,,,null,GW/carmel.png,GW/gatlinburg.png,,,,,,,,,,,,,,,,,,,,,,,,,
null,,black_cross(without_color),417972,,yellow,,,,null,GW/carmel.png,GW/gatlinburg.png,,,,,,,,,,,,,,,,,,,,,,,,,
457.40000000037253,,rt_plussign_withcolor,418473,,yellow,,,,50,GW/carmel.png,GW/gatlinburg.png,,,,,,,,,,,,,,,,,,,,,,,,,
null,,rt_thecrossant_black,419763,,black_plus_sign,,,,null,,,1,0.9090909090909091,,,,,,,,,,,,,,,,,,,,,,,
null,,color_black,419864,,black_plus_sign,,,,null,,,,,,,,,,,,,,,,,,,,,,,,,,,
null,,learn_phase(without_color),422867,,black_plus_sign,,,,null,GW/carmel.png,GW/hanover.png,,,,,,,,,,,,,,,,,,,,,,,,,
null,,black_cross(without_color),423610,,blue,,,,null,GW/carmel.png,GW/hanover.png,,,,,,,,,,,,,,,,,,,,,,,,,
null,,rt_plussign_withcolor,424111,,blue,,,,null,GW/carmel.png,GW/hanover.png,,,,,,,,,,,,,,,,,,,,,,,,,
818,,rt_thecrossant_black,425372,,black_plus_sign,,,,49,,,1,0.9111111111111111,,,,,,,,,,,,,,,,,,,,,,,
null,,color_black,425473,,black_plus_sign,,,,null,,,,,,,,,,,,,,,,,,,,,,,,,,,
null,,learn_phase(without_color),428476,,black_plus_sign,,,,null,GW/racine.png,GW/cornwall.png,,,,,,,,,,,,,,,,,,,,,,,,,
null,,black_cross(without_color),429521,,blue,,,,null,GW/racine.png,GW/cornwall.png,,,,,,,,,,,,,,,,,,,,,,,,,
null,,rt_plussign_withcolor,430023,,blue,,,,null,GW/racine.png,GW/cornwall.png,,,,,,,,,,,,,,,,,,,,,,,,,
871.8000000007451,,rt_thecrossant_black,430980,,black_plus_sign,,,,49,,,1,0.9130434782608695,,,,,,,,,,,,,,,,,,,,,,,
null,,color_black,431082,,black_plus_sign,,,,null,,,,,,,,,,,,,,,,,,,,,,,,,,,
null,,learn_phase(without_color),434085,,black_plus_sign,,,,null,GW/peoria.png,GW/huntsville.png,,,,,,,,,,,,,,,,,,,,,,,,,
null,,black_cross(without_color),434570,,yellow,,,,null,GW/peoria.png,GW/huntsville.png,,,,,,,,,,,,,,,,,,,,,,,,,
null,,rt_plussign_withcolor,435072,,yellow,,,,null,GW/peoria.png,GW/huntsville.png,,,,,,,,,,,,,,,,,,,,,,,,,
1453.2999999998137,,rt_thecrossant_black,436589,,black_plus_sign,,,,50,,,1,0.9148936170212766,,,,,,,,,,,,,,,,,,,,,,,
null,,color_black,436691,,black_plus_sign,,,,null,,,,,,,,,,,,,,,,,,,,,,,,,,,
null,,learn_phase(without_color),439692,,black_plus_sign,,,,null,GW/hotsprings.png,GW/gatlinburg.png,,,,,,,,,,,,,,,,,,,,,,,,,
null,,black_cross(without_color),440119,,yellow,,,,null,GW/hotsprings.png,GW/gatlinburg.png,,,,,,,,,,,,,,,,,,,,,,,,,
null,,rt_plussign_withcolor,440620,,yellow,,,,null,GW/hotsprings.png,GW/gatlinburg.png,,,,,,,,,,,,,,,,,,,,,,,,,
648.7999999998137,,rt_thecrossant_black,442196,,black_plus_sign,,,,50,,,1,0.9166666666666666,,,,,,,,,,,,,,,,,,,,,,,
null,,color_black,442298,,black_plus_sign,,,,null,,,,,,,,,,,,,,,,,,,,,,,,,,,
null,,learn_phase(without_color),445300,,black_plus_sign,,,,null,GW/gatlinburg.png,GW/hotsprings.png,,,,,,,,,,,,,,,,,,,,,,,,,
null,,black_cross(without_color),446284,,yellow,,,,null,GW/gatlinburg.png,GW/hotsprings.png,,,,,,,,,,,,,,,,,,,,,,,,,
null,,rt_plussign_withcolor,446785,,yellow,,,,null,GW/gatlinburg.png,GW/hotsprings.png,,,,,,,,,,,,,,,,,,,,,,,,,
562.5,,rt_thecrossant_black,447805,,black_plus_sign,,,,50,,,1,0.9183673469387755,,,,,,,,,,,,,,,,,,,,,,,
null,,color_black,447906,,black_plus_sign,,,,null,,,,,,,,,,,,,,,,,,,,,,,,,,,
null,,learn_phase(without_color),450908,,black_plus_sign,,,,null,GW/shreveport.png,GW/newhope.png,,,,,,,,,,,,,,,,,,,,,,,,,
null,,black_cross(without_color),451398,,yellow,,,,null,GW/shreveport.png,GW/newhope.png,,,,,,,,,,,,,,,,,,,,,,,,,
414.90000000037253,,rt_plussign_withcolor,451900,,yellow,,,,50,GW/shreveport.png,GW/newhope.png,,,,,,,,,,,,,,,,,,,,,,,,,
null,,rt_thecrossant_black,453413,,black_plus_sign,,,,null,,,1,0.92,,,,,,,,,,,,,,,,,,,,,,,
null,,color_black,453514,,black_plus_sign,,,,null,,,,,,,,,,,,,,,,,,,,,,,,,,,
null,,learn_phase(without_color),456516,,black_plus_sign,,,,null,GW/boulder.png,GW/carmel.png,,,,,,,,,,,,,,,,,,,,,,,,,
null,,black_cross(without_color),457539,,blue,,,,null,GW/boulder.png,GW/carmel.png,,,,,,,,,,,,,,,,,,,,,,,,,
null,,rt_plussign_withcolor,458041,,blue,,,,null,GW/boulder.png,GW/carmel.png,,,,,,,,,,,,,,,,,,,,,,,,,
802.5,,rt_thecrossant_black,459036,,black_plus_sign,,,,49,,,1,0.9215686274509803,,,,,,,,,,,,,,,,,,,,,,,
null,,color_black,459137,,black_plus_sign,,,,null,,,,,,,,,,,,,,,,,,,,,,,,,,,
null,,learn_phase(without_color),462139,,black_plus_sign,,,,null,GW/peoria.png,GW/huntsville.png,,,,,,,,,,,,,,,,,,,,,,,,,
null,,black_cross(without_color),462795,,blue,,,,null,GW/peoria.png,GW/huntsville.png,,,,,,,,,,,,,,,,,,,,,,,,,
467.79999999981374,,rt_plussign_withcolor,463296,,blue,,,,49,GW/peoria.png,GW/huntsville.png,,,,,,,,,,,,,,,,,,,,,,,,,
null,,rt_thecrossant_black,464643,,black_plus_sign,,,,null,,,1,0.9230769230769231,,,,,,,,,,,,,,,,,,,,,,,
null,,color_black,464745,,black_plus_sign,,,,null,,,,,,,,,,,,,,,,,,,,,,,,,,,
null,,learn_phase(without_color),467748,,black_plus_sign,,,,null,GW/cornwall.png,GW/boulder.png,,,,,,,,,,,,,,,,,,,,,,,,,
null,,black_cross(without_color),468445,,yellow,,,,null,GW/cornwall.png,GW/boulder.png,,,,,,,,,,,,,,,,,,,,,,,,,
353.90000000037253,,rt_plussign_withcolor,468948,,yellow,,,,50,GW/cornwall.png,GW/boulder.png,,,,,,,,,,,,,,,,,,,,,,,,,
null,,rt_thecrossant_black,470254,,black_plus_sign,,,,null,,,1,0.9245283018867925,,,,,,,,,,,,,,,,,,,,,,,
null,,color_black,470356,,black_plus_sign,,,,null,,,,,,,,,,,,,,,,,,,,,,,,,,,
null,,learn_phase(without_color),473358,,black_plus_sign,,,,null,GW/gatlinburg.png,GW/hotsprings.png,,,,,,,,,,,,,,,,,,,,,,,,,
null,,black_cross(without_color),474211,,yellow,,,,null,GW/gatlinburg.png,GW/hotsprings.png,,,,,,,,,,,,,,,,,,,,,,,,,
474.80000000074506,,rt_plussign_withcolor,474712,,yellow,,,,50,GW/gatlinburg.png,GW/hotsprings.png,,,,,,,,,,,,,,,,,,,,,,,,,
null,,rt_thecrossant_black,475863,,black_plus_sign,,,,null,,,1,0.9259259259259259,,,,,,,,,,,,,,,,,,,,,,,
null,,color_black,475964,,black_plus_sign,,,,null,,,,,,,,,,,,,,,,,,,,,,,,,,,
null,,learn_phase(without_color),478967,,black_plus_sign,,,,null,GW/shreveport.png,GW/leesburg.png,,,,,,,,,,,,,,,,,,,,,,,,,
null,,black_cross(without_color),479676,,blue,,,,null,GW/shreveport.png,GW/leesburg.png,,,,,,,,,,,,,,,,,,,,,,,,,
451.29999999981374,,rt_plussign_withcolor,480177,,blue,,,,49,GW/shreveport.png,GW/leesburg.png,,,,,,,,,,,,,,,,,,,,,,,,,
null,,rt_thecrossant_black,481473,,black_plus_sign,,,,null,,,1,0.9272727272727272,,,,,,,,,,,,,,,,,,,,,,,
null,,color_black,481575,,black_plus_sign,,,,null,,,,,,,,,,,,,,,,,,,,,,,,,,,
null,,learn_phase(without_color),484576,,black_plus_sign,,,,null,GW/huntsville.png,GW/shreveport.png,,,,,,,,,,,,,,,,,,,,,,,,,
null,,black_cross(without_color),485089,,yellow,,,,null,GW/huntsville.png,GW/shreveport.png,,,,,,,,,,,,,,,,,,,,,,,,,
422.3999999994412,,rt_plussign_withcolor,485591,,yellow,,,,50,GW/huntsville.png,GW/shreveport.png,,,,,,,,,,,,,,,,,,,,,,,,,
null,,rt_thecrossant_black,487083,,black_plus_sign,,,,null,,,1,0.9285714285714286,,,,,,,,,,,,,,,,,,,,,,,
null,,color_black,487184,,black_plus_sign,,,,null,,,,,,,,,,,,,,,,,,,,,,,,,,,
null,,learn_phase(without_color),490186,,black_plus_sign,,,,null,GW/huntsville.png,GW/hanover.png,,,,,,,,,,,,,,,,,,,,,,,,,
null,,black_cross(without_color),491006,,blue,,,,null,GW/huntsville.png,GW/hanover.png,,,,,,,,,,,,,,,,,,,,,,,,,
393.3999999994412,,rt_plussign_withcolor,491508,,blue,,,,49,GW/huntsville.png,GW/hanover.png,,,,,,,,,,,,,,,,,,,,,,,,,
null,,rt_thecrossant_black,492691,,black_plus_sign,,,,null,,,1,0.9298245614035088,,,,,,,,,,,,,,,,,,,,,,,
null,,color_black,492793,,black_plus_sign,,,,null,,,,,,,,,,,,,,,,,,,,,,,,,,,
null,,learn_phase(without_color),495795,,black_plus_sign,,,,null,GW/hanover.png,GW/huntsville.png,,,,,,,,,,,,,,,,,,,,,,,,,
null,,black_cross(without_color),496881,,yellow,,,,null,GW/hanover.png,GW/huntsville.png,,,,,,,,,,,,,,,,,,,,,,,,,
398.8999999994412,,rt_plussign_withcolor,497384,,yellow,,,,50,GW/hanover.png,GW/huntsville.png,,,,,,,,,,,,,,,,,,,,,,,,,
null,,rt_thecrossant_black,498302,,black_plus_sign,,,,null,,,1,0.9310344827586207,,,,,,,,,,,,,,,,,,,,,,,
null,,color_black,498404,,black_plus_sign,,,,null,,,,,,,,,,,,,,,,,,,,,,,,,,,
null,,learn_phase(without_color),501407,,black_plus_sign,,,,null,GW/hanover.png,GW/newhope.png,,,,,,,,,,,,,,,,,,,,,,,,,
null,,black_cross(without_color),502349,,yellow,,,,null,GW/hanover.png,GW/newhope.png,,,,,,,,,,,,,,,,,,,,,,,,,
395,,rt_plussign_withcolor,502850,,yellow,,,,50,GW/hanover.png,GW/newhope.png,,,,,,,,,,,,,,,,,,,,,,,,,
null,,rt_thecrossant_black,503911,,black_plus_sign,,,,null,,,1,0.9322033898305084,,,,,,,,,,,,,,,,,,,,,,,
null,,color_black,504013,,black_plus_sign,,,,null,,,,,,,,,,,,,,,,,,,,,,,,,,,
null,,learn_phase(without_color),507016,,black_plus_sign,,,,null,GW/shreveport.png,GW/newhope.png,,,,,,,,,,,,,,,,,,,,,,,,,
null,,black_cross(without_color),507553,,blue,,,,null,GW/shreveport.png,GW/newhope.png,,,,,,,,,,,,,,,,,,,,,,,,,
null,,rt_plussign_withcolor,508054,,blue,,,,null,GW/shreveport.png,GW/newhope.png,,,,,,,,,,,,,,,,,,,,,,,,,
1113,,rt_thecrossant_black,509521,,black_plus_sign,,,,49,,,1,0.9333333333333333,,,,,,,,,,,,,,,,,,,,,,,
null,,color_black,509623,,black_plus_sign,,,,null,,,,,,,,,,,,,,,,,,,,,,,,,,,
null,,learn_phase(without_color),512624,,black_plus_sign,,,,null,GW/newhope.png,GW/shreveport.png,,,,,,,,,,,,,,,,,,,,,,,,,
null,,black_cross(without_color),513204,,yellow,,,,null,GW/newhope.png,GW/shreveport.png,,,,,,,,,,,,,,,,,,,,,,,,,
404,,rt_plussign_withcolor,513706,,yellow,,,,50,GW/newhope.png,GW/shreveport.png,,,,,,,,,,,,,,,,,,,,,,,,,
null,,rt_thecrossant_black,515130,,black_plus_sign,,,,null,,,1,0.9344262295081968,,,,,,,,,,,,,,,,,,,,,,,
null,,color_black,515231,,black_plus_sign,,,,null,,,,,,,,,,,,,,,,,,,,,,,,,,,
null,,learn_phase(without_color),518233,,black_plus_sign,,,,null,GW/newhope.png,GW/gatlinburg.png,,,,,,,,,,,,,,,,,,,,,,,,,
null,,black_cross(without_color),518676,,yellow,,,,null,GW/newhope.png,GW/gatlinburg.png,,,,,,,,,,,,,,,,,,,,,,,,,
null,,rt_plussign_withcolor,519177,,yellow,,,,null,GW/newhope.png,GW/gatlinburg.png,,,,,,,,,,,,,,,,,,,,,,,,,
692.2000000001863,,rt_thecrossant_black,520751,,black_plus_sign,,,,50,,,1,0.9354838709677419,,,,,,,,,,,,,,,,,,,,,,,
null,,color_black,520853,,black_plus_sign,,,,null,,,,,,,,,,,,,,,,,,,,,,,,,,,
null,,learn_phase(without_color),523855,,black_plus_sign,,,,null,GW/hanover.png,GW/huntsville.png,,,,,,,,,,,,,,,,,,,,,,,,,
null,,black_cross(without_color),524423,,blue,,,,null,GW/hanover.png,GW/huntsville.png,,,,,,,,,,,,,,,,,,,,,,,,,
393.5,,rt_plussign_withcolor,524925,,blue,,,,49,GW/hanover.png,GW/huntsville.png,,,,,,,,,,,,,,,,,,,,,,,,,
null,,rt_thecrossant_black,526361,,black_plus_sign,,,,null,,,1,0.9365079365079365,,,,,,,,,,,,,,,,,,,,,,,
null,,color_black,526463,,black_plus_sign,,,,null,,,,,,,,,,,,,,,,,,,,,,,,,,,
5969.4000000003725,,learn_break,532433,,learn_break,,,,32,,,,,,,,,,,,,,,,,,,,,,,,,,,
null,,html-keyboard-response,533435,,<p></p>,,,,null,,,,,,,,,,,,,,,,,,,,,,,,,,,
null,,learn_phase(without_color),536436,,black_plus_sign,,,,null,GW/cornwall.png,GW/hotsprings.png,,,,,,,,,,,,,,,,,,,,,,,,,
null,,black_cross(without_color),536899,,yellow,,,,null,GW/cornwall.png,GW/hotsprings.png,,,,,,,,,,,,,,,,,,,,,,,,,
null,,rt_plussign_withcolor,537400,,yellow,,,,null,GW/cornwall.png,GW/hotsprings.png,,,,,,,,,,,,,,,,,,,,,,,,,
1266.5,,rt_thecrossant_black,538940,,black_plus_sign,,,,50,,,1,0.9375,,,,,,,,,,,,,,,,,,,,,,,
null,,color_black,539042,,black_plus_sign,,,,null,,,,,,,,,,,,,,,,,,,,,,,,,,,
null,,learn_phase(without_color),542045,,black_plus_sign,,,,null,GW/gatlinburg.png,GW/carmel.png,,,,,,,,,,,,,,,,,,,,,,,,,
null,,black_cross(without_color),543151,,blue,,,,null,GW/gatlinburg.png,GW/carmel.png,,,,,,,,,,,,,,,,,,,,,,,,,
401.6000000005588,,rt_plussign_withcolor,543653,,blue,,,,49,GW/gatlinburg.png,GW/carmel.png,,,,,,,,,,,,,,,,,,,,,,,,,
null,,rt_thecrossant_black,544559,,black_plus_sign,,,,null,,,1,0.9384615384615385,,,,,,,,,,,,,,,,,,,,,,,
null,,color_black,544661,,black_plus_sign,,,,null,,,,,,,,,,,,,,,,,,,,,,,,,,,
null,,learn_phase(without_color),547663,,black_plus_sign,,,,null,GW/newhope.png,GW/hanover.png,,,,,,,,,,,,,,,,,,,,,,,,,
null,,black_cross(without_color),548464,,yellow,,,,null,GW/newhope.png,GW/hanover.png,,,,,,,,,,,,,,,,,,,,,,,,,
384.70000000018626,,rt_plussign_withcolor,548966,,yellow,,,,50,GW/newhope.png,GW/hanover.png,,,,,,,,,,,,,,,,,,,,,,,,,
null,,rt_thecrossant_black,550168,,black_plus_sign,,,,null,,,1,0.9393939393939394,,,,,,,,,,,,,,,,,,,,,,,
null,,color_black,550270,,black_plus_sign,,,,null,,,,,,,,,,,,,,,,,,,,,,,,,,,
null,,learn_phase(without_color),553272,,black_plus_sign,,,,null,GW/hanover.png,GW/carmel.png,,,,,,,,,,,,,,,,,,,,,,,,,
null,,black_cross(without_color),554216,,yellow,,,,null,GW/hanover.png,GW/carmel.png,,,,,,,,,,,,,,,,,,,,,,,,,
null,,rt_plussign_withcolor,554718,,yellow,,,,null,GW/hanover.png,GW/carmel.png,,,,,,,,,,,,,,,,,,,,,,,,,
1005.3999999994412,,rt_thecrossant_black,555779,,black_plus_sign,,,,50,,,1,0.9402985074626866,,,,,,,,,,,,,,,,,,,,,,,
null,,color_black,555880,,black_plus_sign,,,,null,,,,,,,,,,,,,,,,,,,,,,,,,,,
null,,learn_phase(without_color),558882,,black_plus_sign,,,,null,GW/shreveport.png,GW/hanover.png,,,,,,,,,,,,,,,,,,,,,,,,,
null,,black_cross(without_color),559858,,blue,,,,null,GW/shreveport.png,GW/hanover.png,,,,,,,,,,,,,,,,,,,,,,,,,
374.70000000018626,,rt_plussign_withcolor,560360,,blue,,,,49,GW/shreveport.png,GW/hanover.png,,,,,,,,,,,,,,,,,,,,,,,,,
null,,rt_thecrossant_black,561387,,black_plus_sign,,,,null,,,1,0.9411764705882353,,,,,,,,,,,,,,,,,,,,,,,
null,,color_black,561489,,black_plus_sign,,,,null,,,,,,,,,,,,,,,,,,,,,,,,,,,
null,,learn_phase(without_color),564491,,black_plus_sign,,,,null,GW/gatlinburg.png,GW/hotsprings.png,,,,,,,,,,,,,,,,,,,,,,,,,
null,,black_cross(without_color),565546,,yellow,,,,null,GW/gatlinburg.png,GW/hotsprings.png,,,,,,,,,,,,,,,,,,,,,,,,,
471.59999999962747,,rt_plussign_withcolor,566048,,yellow,,,,50,GW/gatlinburg.png,GW/hotsprings.png,,,,,,,,,,,,,,,,,,,,,,,,,
null,,rt_thecrossant_black,566997,,black_plus_sign,,,,null,,,1,0.9420289855072463,,,,,,,,,,,,,,,,,,,,,,,
null,,color_black,567099,,black_plus_sign,,,,null,,,,,,,,,,,,,,,,,,,,,,,,,,,
null,,learn_phase(without_color),570100,,black_plus_sign,,,,null,GW/leesburg.png,GW/shreveport.png,,,,,,,,,,,,,,,,,,,,,,,,,
null,,black_cross(without_color),570603,,yellow,,,,null,GW/leesburg.png,GW/shreveport.png,,,,,,,,,,,,,,,,,,,,,,,,,
431.5,,rt_plussign_withcolor,571104,,yellow,,,,50,GW/leesburg.png,GW/shreveport.png,,,,,,,,,,,,,,,,,,,,,,,,,
null,,rt_thecrossant_black,572618,,black_plus_sign,,,,null,,,1,0.9428571428571428,,,,,,,,,,,,,,,,,,,,,,,
null,,color_black,572720,,black_plus_sign,,,,null,,,,,,,,,,,,,,,,,,,,,,,,,,,
null,,learn_phase(without_color),575722,,black_plus_sign,,,,null,GW/gatlinburg.png,GW/newhope.png,,,,,,,,,,,,,,,,,,,,,,,,,
null,,black_cross(without_color),576308,,yellow,,,,null,GW/gatlinburg.png,GW/newhope.png,,,,,,,,,,,,,,,,,,,,,,,,,
366.09999999962747,,rt_plussign_withcolor,576810,,yellow,,,,50,GW/gatlinburg.png,GW/newhope.png,,,,,,,,,,,,,,,,,,,,,,,,,
null,,rt_thecrossant_black,578234,,black_plus_sign,,,,null,,,1,0.9436619718309859,,,,,,,,,,,,,,,,,,,,,,,
null,,color_black,578336,,black_plus_sign,,,,null,,,,,,,,,,,,,,,,,,,,,,,,,,,
null,,learn_phase(without_color),581338,,black_plus_sign,,,,null,GW/cornwall.png,GW/boulder.png,,,,,,,,,,,,,,,,,,,,,,,,,
null,,black_cross(without_color),582260,,blue,,,,null,GW/cornwall.png,GW/boulder.png,,,,,,,,,,,,,,,,,,,,,,,,,
334.5,,rt_plussign_withcolor,582761,,blue,,,,49,GW/cornwall.png,GW/boulder.png,,,,,,,,,,,,,,,,,,,,,,,,,
null,,rt_thecrossant_black,583843,,black_plus_sign,,,,null,,,1,0.9444444444444444,,,,,,,,,,,,,,,,,,,,,,,
null,,color_black,583944,,black_plus_sign,,,,null,,,,,,,,,,,,,,,,,,,,,,,,,,,
null,,learn_phase(without_color),586946,,black_plus_sign,,,,null,GW/hanover.png,GW/shreveport.png,,,,,,,,,,,,,,,,,,,,,,,,,
null,,black_cross(without_color),587511,,yellow,,,,null,GW/hanover.png,GW/shreveport.png,,,,,,,,,,,,,,,,,,,,,,,,,
339,,rt_plussign_withcolor,588012,,yellow,,,,50,GW/hanover.png,GW/shreveport.png,,,,,,,,,,,,,,,,,,,,,,,,,
null,,rt_thecrossant_black,589451,,black_plus_sign,,,,null,,,1,0.9452054794520548,,,,,,,,,,,,,,,,,,,,,,,
null,,color_black,589553,,black_plus_sign,,,,null,,,,,,,,,,,,,,,,,,,,,,,,,,,
null,,learn_phase(without_color),592555,,black_plus_sign,,,,null,GW/carmel.png,GW/gatlinburg.png,,,,,,,,,,,,,,,,,,,,,,,,,
null,,black_cross(without_color),593623,,blue,,,,null,GW/carmel.png,GW/gatlinburg.png,,,,,,,,,,,,,,,,,,,,,,,,,
371.20000000018626,,rt_plussign_withcolor,594125,,blue,,,,49,GW/carmel.png,GW/gatlinburg.png,,,,,,,,,,,,,,,,,,,,,,,,,
null,,rt_thecrossant_black,595060,,black_plus_sign,,,,null,,,1,0.9459459459459459,,,,,,,,,,,,,,,,,,,,,,,
null,,color_black,595161,,black_plus_sign,,,,null,,,,,,,,,,,,,,,,,,,,,,,,,,,
null,,learn_phase(without_color),598162,,black_plus_sign,,,,null,GW/shreveport.png,GW/newhope.png,,,,,,,,,,,,,,,,,,,,,,,,,
null,,black_cross(without_color),598591,,blue,,,,null,GW/shreveport.png,GW/newhope.png,,,,,,,,,,,,,,,,,,,,,,,,,
427.1000000005588,,rt_plussign_withcolor,599092,,blue,,,,49,GW/shreveport.png,GW/newhope.png,,,,,,,,,,,,,,,,,,,,,,,,,
null,,rt_thecrossant_black,600666,,black_plus_sign,,,,null,,,1,0.9466666666666667,,,,,,,,,,,,,,,,,,,,,,,
null,,color_black,600768,,black_plus_sign,,,,null,,,,,,,,,,,,,,,,,,,,,,,,,,,
null,,learn_phase(without_color),603770,,black_plus_sign,,,,null,GW/westpalmbeach.png,GW/hotsprings.png,,,,,,,,,,,,,,,,,,,,,,,,,
null,,black_cross(without_color),604861,,yellow,,,,null,GW/westpalmbeach.png,GW/hotsprings.png,,,,,,,,,,,,,,,,,,,,,,,,,
382.29999999981374,,rt_plussign_withcolor,605362,,yellow,,,,50,GW/westpalmbeach.png,GW/hotsprings.png,,,,,,,,,,,,,,,,,,,,,,,,,
null,,rt_thecrossant_black,606275,,black_plus_sign,,,,null,,,1,0.9473684210526315,,,,,,,,,,,,,,,,,,,,,,,
null,,color_black,606377,,black_plus_sign,,,,null,,,,,,,,,,,,,,,,,,,,,,,,,,,
null,,learn_phase(without_color),609379,,black_plus_sign,,,,null,GW/boulder.png,GW/carmel.png,,,,,,,,,,,,,,,,,,,,,,,,,
null,,black_cross(without_color),609878,,yellow,,,,null,GW/boulder.png,GW/carmel.png,,,,,,,,,,,,,,,,,,,,,,,,,
null,,rt_plussign_withcolor,610379,,yellow,,,,null,GW/boulder.png,GW/carmel.png,,,,,,,,,,,,,,,,,,,,,,,,,
1203.7999999998137,,rt_thecrossant_black,611884,,black_plus_sign,,,,50,,,1,0.948051948051948,,,,,,,,,,,,,,,,,,,,,,,
null,,color_black,611986,,black_plus_sign,,,,null,,,,,,,,,,,,,,,,,,,,,,,,,,,
null,,learn_phase(without_color),614988,,black_plus_sign,,,,null,GW/shreveport.png,GW/huntsville.png,,,,,,,,,,,,,,,,,,,,,,,,,
null,,black_cross(without_color),615616,,blue,,,,null,GW/shreveport.png,GW/huntsville.png,,,,,,,,,,,,,,,,,,,,,,,,,
354.20000000018626,,rt_plussign_withcolor,616118,,blue,,,,49,GW/shreveport.png,GW/huntsville.png,,,,,,,,,,,,,,,,,,,,,,,,,
null,,rt_thecrossant_black,617494,,black_plus_sign,,,,null,,,1,0.9487179487179487,,,,,,,,,,,,,,,,,,,,,,,
null,,color_black,617603,,black_plus_sign,,,,null,,,,,,,,,,,,,,,,,,,,,,,,,,,
null,,learn_phase(without_color),620605,,black_plus_sign,,,,null,GW/cornwall.png,GW/boulder.png,,,,,,,,,,,,,,,,,,,,,,,,,
null,,black_cross(without_color),621480,,blue,,,,null,GW/cornwall.png,GW/boulder.png,,,,,,,,,,,,,,,,,,,,,,,,,
338.59999999962747,,rt_plussign_withcolor,621986,,blue,,,,49,GW/cornwall.png,GW/boulder.png,,,,,,,,,,,,,,,,,,,,,,,,,
null,,rt_thecrossant_black,623114,,black_plus_sign,,,,null,,,1,0.9493670886075949,,,,,,,,,,,,,,,,,,,,,,,
null,,color_black,623222,,black_plus_sign,,,,null,,,,,,,,,,,,,,,,,,,,,,,,,,,
null,,learn_phase(without_color),626224,,black_plus_sign,,,,null,GW/racine.png,GW/cornwall.png,,,,,,,,,,,,,,,,,,,,,,,,,
null,,black_cross(without_color),626720,,blue,,,,null,GW/racine.png,GW/cornwall.png,,,,,,,,,,,,,,,,,,,,,,,,,
419.59999999962747,,rt_plussign_withcolor,627221,,blue,,,,49,GW/racine.png,GW/cornwall.png,,,,,,,,,,,,,,,,,,,,,,,,,
null,,rt_thecrossant_black,628729,,black_plus_sign,,,,null,,,1,0.95,,,,,,,,,,,,,,,,,,,,,,,
null,,color_black,628831,,black_plus_sign,,,,null,,,,,,,,,,,,,,,,,,,,,,,,,,,
null,,learn_phase(without_color),631834,,black_plus_sign,,,,null,GW/shreveport.png,GW/huntsville.png,,,,,,,,,,,,,,,,,,,,,,,,,
null,,black_cross(without_color),632756,,yellow,,,,null,GW/shreveport.png,GW/huntsville.png,,,,,,,,,,,,,,,,,,,,,,,,,
367.5,,rt_plussign_withcolor,633258,,yellow,,,,50,GW/shreveport.png,GW/huntsville.png,,,,,,,,,,,,,,,,,,,,,,,,,
null,,rt_thecrossant_black,634339,,black_plus_sign,,,,null,,,1,0.9506172839506173,,,,,,,,,,,,,,,,,,,,,,,
null,,color_black,634441,,black_plus_sign,,,,null,,,,,,,,,,,,,,,,,,,,,,,,,,,
null,,learn_phase(without_color),637443,,black_plus_sign,,,,null,GW/newhope.png,GW/hanover.png,,,,,,,,,,,,,,,,,,,,,,,,,
null,,black_cross(without_color),638429,,blue,,,,null,GW/newhope.png,GW/hanover.png,,,,,,,,,,,,,,,,,,,,,,,,,
407,,rt_plussign_withcolor,638930,,blue,,,,49,GW/newhope.png,GW/hanover.png,,,,,,,,,,,,,,,,,,,,,,,,,
null,,rt_thecrossant_black,639948,,black_plus_sign,,,,null,,,1,0.9512195121951219,,,,,,,,,,,,,,,,,,,,,,,
null,,color_black,640050,,black_plus_sign,,,,null,,,,,,,,,,,,,,,,,,,,,,,,,,,
null,,learn_phase(without_color),643053,,black_plus_sign,,,,null,GW/newhope.png,GW/gatlinburg.png,,,,,,,,,,,,,,,,,,,,,,,,,
null,,black_cross(without_color),644134,,yellow,,,,null,GW/newhope.png,GW/gatlinburg.png,,,,,,,,,,,,,,,,,,,,,,,,,
453.70000000018626,,rt_plussign_withcolor,644637,,yellow,,,,50,GW/newhope.png,GW/gatlinburg.png,,,,,,,,,,,,,,,,,,,,,,,,,
null,,rt_thecrossant_black,645559,,black_plus_sign,,,,null,,,1,0.9518072289156626,,,,,,,,,,,,,,,,,,,,,,,
null,,color_black,645661,,black_plus_sign,,,,null,,,,,,,,,,,,,,,,,,,,,,,,,,,
null,,learn_phase(without_color),648663,,black_plus_sign,,,,null,GW/newhope.png,GW/hanover.png,,,,,,,,,,,,,,,,,,,,,,,,,
null,,black_cross(without_color),649359,,blue,,,,null,GW/newhope.png,GW/hanover.png,,,,,,,,,,,,,,,,,,,,,,,,,
405.29999999981374,,rt_plussign_withcolor,649861,,blue,,,,49,GW/newhope.png,GW/hanover.png,,,,,,,,,,,,,,,,,,,,,,,,,
null,,rt_thecrossant_black,651171,,black_plus_sign,,,,null,,,1,0.9523809523809523,,,,,,,,,,,,,,,,,,,,,,,
null,,color_black,651272,,black_plus_sign,,,,null,,,,,,,,,,,,,,,,,,,,,,,,,,,
null,,learn_phase(without_color),654274,,black_plus_sign,,,,null,GW/boulder.png,GW/carmel.png,,,,,,,,,,,,,,,,,,,,,,,,,
null,,black_cross(without_color),654961,,yellow,,,,null,GW/boulder.png,GW/carmel.png,,,,,,,,,,,,,,,,,,,,,,,,,
419,,rt_plussign_withcolor,655462,,yellow,,,,50,GW/boulder.png,GW/carmel.png,,,,,,,,,,,,,,,,,,,,,,,,,
null,,rt_thecrossant_black,656779,,black_plus_sign,,,,null,,,1,0.9529411764705882,,,,,,,,,,,,,,,,,,,,,,,
null,,color_black,656880,,black_plus_sign,,,,null,,,,,,,,,,,,,,,,,,,,,,,,,,,
null,,learn_phase(without_color),659882,,black_plus_sign,,,,null,GW/cornwall.png,GW/racine.png,,,,,,,,,,,,,,,,,,,,,,,,,
null,,black_cross(without_color),660602,,yellow,,,,null,GW/cornwall.png,GW/racine.png,,,,,,,,,,,,,,,,,,,,,,,,,
482.79999999981374,,rt_plussign_withcolor,661104,,yellow,,,,50,GW/cornwall.png,GW/racine.png,,,,,,,,,,,,,,,,,,,,,,,,,
null,,rt_thecrossant_black,662403,,black_plus_sign,,,,null,,,1,0.9534883720930233,,,,,,,,,,,,,,,,,,,,,,,
null,,color_black,662506,,black_plus_sign,,,,null,,,,,,,,,,,,,,,,,,,,,,,,,,,
null,,learn_phase(without_color),665508,,black_plus_sign,,,,null,GW/hotsprings.png,GW/westpalmbeach.png,,,,,,,,,,,,,,,,,,,,,,,,,
null,,black_cross(without_color),666432,,yellow,,,,null,GW/hotsprings.png,GW/westpalmbeach.png,,,,,,,,,,,,,,,,,,,,,,,,,
388.3999999994412,,rt_plussign_withcolor,666934,,yellow,,,,50,GW/hotsprings.png,GW/westpalmbeach.png,,,,,,,,,,,,,,,,,,,,,,,,,
null,,rt_thecrossant_black,668013,,black_plus_sign,,,,null,,,1,0.9540229885057471,,,,,,,,,,,,,,,,,,,,,,,
null,,color_black,668115,,black_plus_sign,,,,null,,,,,,,,,,,,,,,,,,,,,,,,,,,
null,,learn_phase(without_color),671117,,black_plus_sign,,,,null,GW/cornwall.png,GW/boulder.png,,,,,,,,,,,,,,,,,,,,,,,,,
null,,black_cross(without_color),671898,,yellow,,,,null,GW/cornwall.png,GW/boulder.png,,,,,,,,,,,,,,,,,,,,,,,,,
386.80000000074506,,rt_plussign_withcolor,672399,,yellow,,,,50,GW/cornwall.png,GW/boulder.png,,,,,,,,,,,,,,,,,,,,,,,,,
null,,rt_thecrossant_black,673623,,black_plus_sign,,,,null,,,1,0.9545454545454546,,,,,,,,,,,,,,,,,,,,,,,
null,,color_black,673736,,black_plus_sign,,,,null,,,,,,,,,,,,,,,,,,,,,,,,,,,
null,,learn_phase(without_color),676738,,black_plus_sign,,,,null,GW/hanover.png,GW/newhope.png,,,,,,,,,,,,,,,,,,,,,,,,,
null,,black_cross(without_color),677382,,blue,,,,null,GW/hanover.png,GW/newhope.png,,,,,,,,,,,,,,,,,,,,,,,,,
446.5,,rt_plussign_withcolor,677884,,blue,,,,49,GW/hanover.png,GW/newhope.png,,,,,,,,,,,,,,,,,,,,,,,,,
null,,rt_thecrossant_black,679242,,black_plus_sign,,,,null,,,1,0.9550561797752809,,,,,,,,,,,,,,,,,,,,,,,
null,,color_black,679345,,black_plus_sign,,,,null,,,,,,,,,,,,,,,,,,,,,,,,,,,
null,,learn_phase(without_color),682354,,black_plus_sign,,,,null,GW/huntsville.png,GW/shreveport.png,,,,,,,,,,,,,,,,,,,,,,,,,
null,,black_cross(without_color),683098,,yellow,,,,null,GW/huntsville.png,GW/shreveport.png,,,,,,,,,,,,,,,,,,,,,,,,,
363.30000000074506,,rt_plussign_withcolor,683599,,yellow,,,,50,GW/huntsville.png,GW/shreveport.png,,,,,,,,,,,,,,,,,,,,,,,,,
null,,rt_thecrossant_black,684859,,black_plus_sign,,,,null,,,1,0.9555555555555556,,,,,,,,,,,,,,,,,,,,,,,
null,,color_black,684961,,black_plus_sign,,,,null,,,,,,,,,,,,,,,,,,,,,,,,,,,
null,,learn_phase(without_color),687963,,black_plus_sign,,,,null,GW/hanover.png,GW/huntsville.png,,,,,,,,,,,,,,,,,,,,,,,,,
null,,black_cross(without_color),688606,,yellow,,,,null,GW/hanover.png,GW/huntsville.png,,,,,,,,,,,,,,,,,,,,,,,,,
407,,rt_plussign_withcolor,689108,,yellow,,,,50,GW/hanover.png,GW/huntsville.png,,,,,,,,,,,,,,,,,,,,,,,,,
null,,rt_thecrossant_black,690469,,black_plus_sign,,,,null,,,1,0.9560439560439561,,,,,,,,,,,,,,,,,,,,,,,
null,,color_black,690571,,black_plus_sign,,,,null,,,,,,,,,,,,,,,,,,,,,,,,,,,
null,,learn_phase(without_color),693573,,black_plus_sign,,,,null,GW/shreveport.png,GW/newhope.png,,,,,,,,,,,,,,,,,,,,,,,,,
null,,black_cross(without_color),694213,,blue,,,,null,GW/shreveport.png,GW/newhope.png,,,,,,,,,,,,,,,,,,,,,,,,,
400.69999999925494,,rt_plussign_withcolor,694714,,blue,,,,49,GW/shreveport.png,GW/newhope.png,,,,,,,,,,,,,,,,,,,,,,,,,
null,,rt_thecrossant_black,696078,,black_plus_sign,,,,null,,,1,0.9565217391304348,,,,,,,,,,,,,,,,,,,,,,,
null,,color_black,696180,,black_plus_sign,,,,null,,,,,,,,,,,,,,,,,,,,,,,,,,,
null,,learn_phase(without_color),699182,,black_plus_sign,,,,null,GW/carmel.png,GW/boulder.png,,,,,,,,,,,,,,,,,,,,,,,,,
null,,black_cross(without_color),700205,,blue,,,,null,GW/carmel.png,GW/boulder.png,,,,,,,,,,,,,,,,,,,,,,,,,
455.70000000018626,,rt_plussign_withcolor,700706,,blue,,,,49,GW/carmel.png,GW/boulder.png,,,,,,,,,,,,,,,,,,,,,,,,,
null,,rt_thecrossant_black,701688,,black_plus_sign,,,,null,,,1,0.956989247311828,,,,,,,,,,,,,,,,,,,,,,,
null,,color_black,701789,,black_plus_sign,,,,null,,,,,,,,,,,,,,,,,,,,,,,,,,,
null,,learn_phase(without_color),704792,,black_plus_sign,,,,null,GW/shreveport.png,GW/leesburg.png,,,,,,,,,,,,,,,,,,,,,,,,,
null,,black_cross(without_color),705691,,yellow,,,,null,GW/shreveport.png,GW/leesburg.png,,,,,,,,,,,,,,,,,,,,,,,,,
450.90000000037253,,rt_plussign_withcolor,706192,,yellow,,,,50,GW/shreveport.png,GW/leesburg.png,,,,,,,,,,,,,,,,,,,,,,,,,
null,,rt_thecrossant_black,707298,,black_plus_sign,,,,null,,,1,0.9574468085106383,,,,,,,,,,,,,,,,,,,,,,,
null,,color_black,707400,,black_plus_sign,,,,null,,,,,,,,,,,,,,,,,,,,,,,,,,,
null,,learn_phase(without_color),710402,,black_plus_sign,,,,null,GW/peoria.png,GW/huntsville.png,,,,,,,,,,,,,,,,,,,,,,,,,
null,,black_cross(without_color),711473,,yellow,,,,null,GW/peoria.png,GW/huntsville.png,,,,,,,,,,,,,,,,,,,,,,,,,
null,,rt_plussign_withcolor,711974,,yellow,,,,null,GW/peoria.png,GW/huntsville.png,,,,,,,,,,,,,,,,,,,,,,,,,
1003,,rt_thecrossant_black,712907,,black_plus_sign,,,,50,,,1,0.9578947368421052,,,,,,,,,,,,,,,,,,,,,,,
null,,color_black,713009,,black_plus_sign,,,,null,,,,,,,,,,,,,,,,,,,,,,,,,,,
null,,learn_phase(without_color),716011,,black_plus_sign,,,,null,GW/newhope.png,GW/gatlinburg.png,,,,,,,,,,,,,,,,,,,,,,,,,
null,,black_cross(without_color),716549,,blue,,,,null,GW/newhope.png,GW/gatlinburg.png,,,,,,,,,,,,,,,,,,,,,,,,,
400.79999999981374,,rt_plussign_withcolor,717051,,blue,,,,49,GW/newhope.png,GW/gatlinburg.png,,,,,,,,,,,,,,,,,,,,,,,,,
null,,rt_thecrossant_black,718519,,black_plus_sign,,,,null,,,1,0.9583333333333334,,,,,,,,,,,,,,,,,,,,,,,
null,,color_black,718620,,black_plus_sign,,,,null,,,,,,,,,,,,,,,,,,,,,,,,,,,
null,,learn_phase(without_color),721623,,black_plus_sign,,,,null,GW/cornwall.png,GW/hotsprings.png,,,,,,,,,,,,,,,,,,,,,,,,,
null,,black_cross(without_color),722178,,yellow,,,,null,GW/cornwall.png,GW/hotsprings.png,,,,,,,,,,,,,,,,,,,,,,,,,
null,,rt_plussign_withcolor,722679,,yellow,,,,null,GW/cornwall.png,GW/hotsprings.png,,,,,,,,,,,,,,,,,,,,,,,,,
681.6999999992549,,rt_thecrossant_black,724139,,black_plus_sign,,,,50,,,1,0.9587628865979382,,,,,,,,,,,,,,,,,,,,,,,
null,,color_black,724241,,black_plus_sign,,,,null,,,,,,,,,,,,,,,,,,,,,,,,,,,
null,,learn_phase(without_color),727243,,black_plus_sign,,,,null,GW/cornwall.png,GW/hotsprings.png,,,,,,,,,,,,,,,,,,,,,,,,,
null,,black_cross(without_color),728077,,blue,,,,null,GW/cornwall.png,GW/hotsprings.png,,,,,,,,,,,,,,,,,,,,,,,,,
361.59999999962747,,rt_plussign_withcolor,728577,,blue,,,,49,GW/cornwall.png,GW/hotsprings.png,,,,,,,,,,,,,,,,,,,,,,,,,
null,,rt_thecrossant_black,729748,,black_plus_sign,,,,null,,,1,0.9591836734693877,,,,,,,,,,,,,,,,,,,,,,,
null,,color_black,729850,,black_plus_sign,,,,null,,,,,,,,,,,,,,,,,,,,,,,,,,,
null,,learn_phase(without_color),732851,,black_plus_sign,,,,null,GW/hanover.png,GW/shreveport.png,,,,,,,,,,,,,,,,,,,,,,,,,
null,,black_cross(without_color),733830,,yellow,,,,null,GW/hanover.png,GW/shreveport.png,,,,,,,,,,,,,,,,,,,,,,,,,
456.40000000037253,,rt_plussign_withcolor,734332,,yellow,,,,50,GW/hanover.png,GW/shreveport.png,,,,,,,,,,,,,,,,,,,,,,,,,
null,,rt_thecrossant_black,735372,,black_plus_sign,,,,null,,,1,0.9595959595959596,,,,,,,,,,,,,,,,,,,,,,,
null,,color_black,735474,,black_plus_sign,,,,null,,,,,,,,,,,,,,,,,,,,,,,,,,,
null,,learn_phase(without_color),738476,,black_plus_sign,,,,null,GW/carmel.png,GW/hanover.png,,,,,,,,,,,,,,,,,,,,,,,,,
null,,black_cross(without_color),739469,,yellow,,,,null,GW/carmel.png,GW/hanover.png,,,,,,,,,,,,,,,,,,,,,,,,,
null,,rt_plussign_withcolor,739971,,yellow,,,,null,GW/carmel.png,GW/hanover.png,,,,,,,,,,,,,,,,,,,,,,,,,
1177.2000000001863,,rt_thecrossant_black,740982,,black_plus_sign,,,,50,,,1,0.96,,,,,,,,,,,,,,,,,,,,,,,
null,,color_black,741084,,black_plus_sign,,,,null,,,,,,,,,,,,,,,,,,,,,,,,,,,
null,,learn_phase(without_color),744086,,black_plus_sign,,,,null,GW/shreveport.png,GW/leesburg.png,,,,,,,,,,,,,,,,,,,,,,,,,
null,,black_cross(without_color),745113,,yellow,,,,null,GW/shreveport.png,GW/leesburg.png,,,,,,,,,,,,,,,,,,,,,,,,,
374.20000000018626,,rt_plussign_withcolor,745614,,yellow,,,,50,GW/shreveport.png,GW/leesburg.png,,,,,,,,,,,,,,,,,,,,,,,,,
null,,rt_thecrossant_black,746592,,black_plus_sign,,,,null,,,1,0.9603960396039604,,,,,,,,,,,,,,,,,,,,,,,
null,,color_black,746695,,black_plus_sign,,,,null,,,,,,,,,,,,,,,,,,,,,,,,,,,
null,,learn_phase(without_color),749697,,black_plus_sign,,,,null,GW/cornwall.png,GW/racine.png,,,,,,,,,,,,,,,,,,,,,,,,,
null,,black_cross(without_color),750547,,blue,,,,null,GW/cornwall.png,GW/racine.png,,,,,,,,,,,,,,,,,,,,,,,,,
null,,rt_plussign_withcolor,751050,,blue,,,,null,GW/cornwall.png,GW/racine.png,,,,,,,,,,,,,,,,,,,,,,,,,
1161.0999999996275,,rt_thecrossant_black,752204,,black_plus_sign,,,,49,,,1,0.9607843137254902,,,,,,,,,,,,,,,,,,,,,,,
null,,color_black,752309,,black_plus_sign,,,,null,,,,,,,,,,,,,,,,,,,,,,,,,,,
null,,learn_phase(without_color),755311,,black_plus_sign,,,,null,GW/shreveport.png,GW/huntsville.png,,,,,,,,,,,,,,,,,,,,,,,,,
null,,black_cross(without_color),756198,,blue,,,,null,GW/shreveport.png,GW/huntsville.png,,,,,,,,,,,,,,,,,,,,,,,,,
449,,rt_plussign_withcolor,756699,,blue,,,,49,GW/shreveport.png,GW/huntsville.png,,,,,,,,,,,,,,,,,,,,,,,,,
null,,rt_thecrossant_black,757838,,black_plus_sign,,,,null,,,1,0.9611650485436893,,,,,,,,,,,,,,,,,,,,,,,
null,,color_black,757940,,black_plus_sign,,,,null,,,,,,,,,,,,,,,,,,,,,,,,,,,
null,,learn_phase(without_color),760942,,black_plus_sign,,,,null,GW/huntsville.png,GW/peoria.png,,,,,,,,,,,,,,,,,,,,,,,,,
null,,black_cross(without_color),762004,,yellow,,,,null,GW/huntsville.png,GW/peoria.png,,,,,,,,,,,,,,,,,,,,,,,,,
299.5,,rt_plussign_withcolor,762506,,yellow,,,,50,GW/huntsville.png,GW/peoria.png,,,,,,,,,,,,,,,,,,,,,,,,,
null,,rt_thecrossant_black,763448,,black_plus_sign,,,,null,,,1,0.9615384615384616,,,,,,,,,,,,,,,,,,,,,,,
null,,color_black,763550,,black_plus_sign,,,,null,,,,,,,,,,,,,,,,,,,,,,,,,,,
null,,learn_phase(without_color),766553,,black_plus_sign,,,,null,GW/boulder.png,GW/carmel.png,,,,,,,,,,,,,,,,,,,,,,,,,
null,,black_cross(without_color),767097,,yellow,,,,null,GW/boulder.png,GW/carmel.png,,,,,,,,,,,,,,,,,,,,,,,,,
374.59999999962747,,rt_plussign_withcolor,767599,,yellow,,,,50,GW/boulder.png,GW/carmel.png,,,,,,,,,,,,,,,,,,,,,,,,,
null,,rt_thecrossant_black,769058,,black_plus_sign,,,,null,,,1,0.9619047619047619,,,,,,,,,,,,,,,,,,,,,,,
null,,color_black,769161,,black_plus_sign,,,,null,,,,,,,,,,,,,,,,,,,,,,,,,,,
null,,learn_phase(without_color),772163,,black_plus_sign,,,,null,GW/huntsville.png,GW/peoria.png,,,,,,,,,,,,,,,,,,,,,,,,,
null,,black_cross(without_color),772628,,yellow,,,,null,GW/huntsville.png,GW/peoria.png,,,,,,,,,,,,,,,,,,,,,,,,,
379.90000000037253,,rt_plussign_withcolor,773130,,yellow,,,,50,GW/huntsville.png,GW/peoria.png,,,,,,,,,,,,,,,,,,,,,,,,,
null,,rt_thecrossant_black,774671,,black_plus_sign,,,,null,,,1,0.9622641509433962,,,,,,,,,,,,,,,,,,,,,,,
null,,color_black,774773,,black_plus_sign,,,,null,,,,,,,,,,,,,,,,,,,,,,,,,,,
null,,learn_phase(without_color),777776,,black_plus_sign,,,,null,GW/westpalmbeach.png,GW/hotsprings.png,,,,,,,,,,,,,,,,,,,,,,,,,
null,,black_cross(without_color),778679,,yellow,,,,null,GW/westpalmbeach.png,GW/hotsprings.png,,,,,,,,,,,,,,,,,,,,,,,,,
400.29999999981374,,rt_plussign_withcolor,779181,,yellow,,,,50,GW/westpalmbeach.png,GW/hotsprings.png,,,,,,,,,,,,,,,,,,,,,,,,,
null,,rt_thecrossant_black,780282,,black_plus_sign,,,,null,,,1,0.9626168224299065,,,,,,,,,,,,,,,,,,,,,,,
null,,color_black,780384,,black_plus_sign,,,,null,,,,,,,,,,,,,,,,,,,,,,,,,,,
null,,learn_phase(without_color),783387,,black_plus_sign,,,,null,GW/cornwall.png,GW/hotsprings.png,,,,,,,,,,,,,,,,,,,,,,,,,
null,,black_cross(without_color),784334,,blue,,,,null,GW/cornwall.png,GW/hotsprings.png,,,,,,,,,,,,,,,,,,,,,,,,,
442.29999999981374,,rt_plussign_withcolor,784835,,blue,,,,49,GW/cornwall.png,GW/hotsprings.png,,,,,,,,,,,,,,,,,,,,,,,,,
null,,rt_thecrossant_black,785892,,black_plus_sign,,,,null,,,1,0.9629629629629629,,,,,,,,,,,,,,,,,,,,,,,
null,,color_black,785994,,black_plus_sign,,,,null,,,,,,,,,,,,,,,,,,,,,,,,,,,
null,,learn_phase(without_color),788995,,black_plus_sign,,,,null,GW/newhope.png,GW/shreveport.png,,,,,,,,,,,,,,,,,,,,,,,,,
null,,black_cross(without_color),789490,,yellow,,,,null,GW/newhope.png,GW/shreveport.png,,,,,,,,,,,,,,,,,,,,,,,,,
421.70000000018626,,rt_plussign_withcolor,789991,,yellow,,,,50,GW/newhope.png,GW/shreveport.png,,,,,,,,,,,,,,,,,,,,,,,,,
null,,rt_thecrossant_black,791500,,black_plus_sign,,,,null,,,1,0.963302752293578,,,,,,,,,,,,,,,,,,,,,,,
null,,color_black,791602,,black_plus_sign,,,,null,,,,,,,,,,,,,,,,,,,,,,,,,,,
null,,learn_phase(without_color),794604,,black_plus_sign,,,,null,GW/westpalmbeach.png,GW/hotsprings.png,,,,,,,,,,,,,,,,,,,,,,,,,
null,,black_cross(without_color),795641,,blue,,,,null,GW/westpalmbeach.png,GW/hotsprings.png,,,,,,,,,,,,,,,,,,,,,,,,,
343.5,,rt_plussign_withcolor,796142,,blue,,,,49,GW/westpalmbeach.png,GW/hotsprings.png,,,,,,,,,,,,,,,,,,,,,,,,,
null,,rt_thecrossant_black,797109,,black_plus_sign,,,,null,,,1,0.9636363636363636,,,,,,,,,,,,,,,,,,,,,,,
null,,color_black,797211,,black_plus_sign,,,,null,,,,,,,,,,,,,,,,,,,,,,,,,,,
null,,learn_phase(without_color),800214,,black_plus_sign,,,,null,GW/carmel.png,GW/hanover.png,,,,,,,,,,,,,,,,,,,,,,,,,
null,,black_cross(without_color),801168,,yellow,,,,null,GW/carmel.png,GW/hanover.png,,,,,,,,,,,,,,,,,,,,,,,,,
343.70000000018626,,rt_plussign_withcolor,801671,,yellow,,,,50,GW/carmel.png,GW/hanover.png,,,,,,,,,,,,,,,,,,,,,,,,,
null,,rt_thecrossant_black,802719,,black_plus_sign,,,,null,,,1,0.963963963963964,,,,,,,,,,,,,,,,,,,,,,,
null,,color_black,802821,,black_plus_sign,,,,null,,,,,,,,,,,,,,,,,,,,,,,,,,,
null,,learn_phase(without_color),805823,,black_plus_sign,,,,null,GW/cornwall.png,GW/boulder.png,,,,,,,,,,,,,,,,,,,,,,,,,
null,,black_cross(without_color),806799,,blue,,,,null,GW/cornwall.png,GW/boulder.png,,,,,,,,,,,,,,,,,,,,,,,,,
417.29999999981374,,rt_plussign_withcolor,807301,,blue,,,,49,GW/cornwall.png,GW/boulder.png,,,,,,,,,,,,,,,,,,,,,,,,,
null,,rt_thecrossant_black,808329,,black_plus_sign,,,,null,,,1,0.9642857142857143,,,,,,,,,,,,,,,,,,,,,,,
null,,color_black,808430,,black_plus_sign,,,,null,,,,,,,,,,,,,,,,,,,,,,,,,,,
null,,learn_phase(without_color),811433,,black_plus_sign,,,,null,GW/cornwall.png,GW/hotsprings.png,,,,,,,,,,,,,,,,,,,,,,,,,
null,,black_cross(without_color),812355,,yellow,,,,null,GW/cornwall.png,GW/hotsprings.png,,,,,,,,,,,,,,,,,,,,,,,,,
null,,rt_plussign_withcolor,812858,,yellow,,,,null,GW/cornwall.png,GW/hotsprings.png,,,,,,,,,,,,,,,,,,,,,,,,,
1096.7000000001863,,rt_thecrossant_black,813941,,black_plus_sign,,,,50,,,1,0.9646017699115044,,,,,,,,,,,,,,,,,,,,,,,
null,,color_black,814043,,black_plus_sign,,,,null,,,,,,,,,,,,,,,,,,,,,,,,,,,
null,,learn_phase(without_color),817045,,black_plus_sign,,,,null,GW/gatlinburg.png,GW/carmel.png,,,,,,,,,,,,,,,,,,,,,,,,,
null,,black_cross(without_color),817568,,blue,,,,null,GW/gatlinburg.png,GW/carmel.png,,,,,,,,,,,,,,,,,,,,,,,,,
464.8999999994412,,rt_plussign_withcolor,818070,,blue,,,,49,GW/gatlinburg.png,GW/carmel.png,,,,,,,,,,,,,,,,,,,,,,,,,
null,,rt_thecrossant_black,819549,,black_plus_sign,,,,null,,,1,0.9649122807017544,,,,,,,,,,,,,,,,,,,,,,,
null,,color_black,819651,,black_plus_sign,,,,null,,,,,,,,,,,,,,,,,,,,,,,,,,,
null,,learn_phase(without_color),822654,,black_plus_sign,,,,null,GW/carmel.png,GW/boulder.png,,,,,,,,,,,,,,,,,,,,,,,,,
null,,black_cross(without_color),823572,,yellow,,,,null,GW/carmel.png,GW/boulder.png,,,,,,,,,,,,,,,,,,,,,,,,,
356.20000000018626,,rt_plussign_withcolor,824074,,yellow,,,,50,GW/carmel.png,GW/boulder.png,,,,,,,,,,,,,,,,,,,,,,,,,
null,,rt_thecrossant_black,825160,,black_plus_sign,,,,null,,,1,0.9652173913043478,,,,,,,,,,,,,,,,,,,,,,,
null,,color_black,825262,,black_plus_sign,,,,null,,,,,,,,,,,,,,,,,,,,,,,,,,,
null,,learn_phase(without_color),828264,,black_plus_sign,,,,null,GW/shreveport.png,GW/hanover.png,,,,,,,,,,,,,,,,,,,,,,,,,
null,,black_cross(without_color),829256,,blue,,,,null,GW/shreveport.png,GW/hanover.png,,,,,,,,,,,,,,,,,,,,,,,,,
392.90000000037253,,rt_plussign_withcolor,829758,,blue,,,,49,GW/shreveport.png,GW/hanover.png,,,,,,,,,,,,,,,,,,,,,,,,,
null,,rt_thecrossant_black,830775,,black_plus_sign,,,,null,,,1,0.9655172413793104,,,,,,,,,,,,,,,,,,,,,,,
null,,color_black,830878,,black_plus_sign,,,,null,,,,,,,,,,,,,,,,,,,,,,,,,,,
null,,learn_phase(without_color),833879,,black_plus_sign,,,,null,GW/gatlinburg.png,GW/carmel.png,,,,,,,,,,,,,,,,,,,,,,,,,
null,,black_cross(without_color),834828,,yellow,,,,null,GW/gatlinburg.png,GW/carmel.png,,,,,,,,,,,,,,,,,,,,,,,,,
317.3999999994412,,rt_plussign_withcolor,835330,,yellow,,,,50,GW/gatlinburg.png,GW/carmel.png,,,,,,,,,,,,,,,,,,,,,,,,,
null,,rt_thecrossant_black,836386,,black_plus_sign,,,,null,,,1,0.9658119658119658,,,,,,,,,,,,,,,,,,,,,,,
null,,color_black,836489,,black_plus_sign,,,,null,,,,,,,,,,,,,,,,,,,,,,,,,,,
null,,learn_phase(without_color),839491,,black_plus_sign,,,,null,GW/newhope.png,GW/shreveport.png,,,,,,,,,,,,,,,,,,,,,,,,,
null,,black_cross(without_color),840454,,yellow,,,,null,GW/newhope.png,GW/shreveport.png,,,,,,,,,,,,,,,,,,,,,,,,,
387.5,,rt_plussign_withcolor,840956,,yellow,,,,50,GW/newhope.png,GW/shreveport.png,,,,,,,,,,,,,,,,,,,,,,,,,
null,,rt_thecrossant_black,841997,,black_plus_sign,,,,null,,,1,0.9661016949152542,,,,,,,,,,,,,,,,,,,,,,,
null,,color_black,842099,,black_plus_sign,,,,null,,,,,,,,,,,,,,,,,,,,,,,,,,,
null,,learn_phase(without_color),845101,,black_plus_sign,,,,null,GW/hanover.png,GW/huntsville.png,,,,,,,,,,,,,,,,,,,,,,,,,
null,,black_cross(without_color),845755,,blue,,,,null,GW/hanover.png,GW/huntsville.png,,,,,,,,,,,,,,,,,,,,,,,,,
350.3999999994412,,rt_plussign_withcolor,846256,,blue,,,,49,GW/hanover.png,GW/huntsville.png,,,,,,,,,,,,,,,,,,,,,,,,,
null,,rt_thecrossant_black,847606,,black_plus_sign,,,,null,,,1,0.9663865546218487,,,,,,,,,,,,,,,,,,,,,,,
null,,color_black,847708,,black_plus_sign,,,,null,,,,,,,,,,,,,,,,,,,,,,,,,,,
null,,learn_phase(without_color),850711,,black_plus_sign,,,,null,GW/westpalmbeach.png,GW/hotsprings.png,,,,,,,,,,,,,,,,,,,,,,,,,
null,,black_cross(without_color),851350,,yellow,,,,null,GW/westpalmbeach.png,GW/hotsprings.png,,,,,,,,,,,,,,,,,,,,,,,,,
364,,rt_plussign_withcolor,851852,,yellow,,,,50,GW/westpalmbeach.png,GW/hotsprings.png,,,,,,,,,,,,,,,,,,,,,,,,,
null,,rt_thecrossant_black,853226,,black_plus_sign,,,,null,,,1,0.9666666666666667,,,,,,,,,,,,,,,,,,,,,,,
null,,color_black,853328,,black_plus_sign,,,,null,,,,,,,,,,,,,,,,,,,,,,,,,,,
null,,learn_phase(without_color),856330,,black_plus_sign,,,,null,GW/hanover.png,GW/carmel.png,,,,,,,,,,,,,,,,,,,,,,,,,
null,,black_cross(without_color),857340,,blue,,,,null,GW/hanover.png,GW/carmel.png,,,,,,,,,,,,,,,,,,,,,,,,,
342.29999999981374,,rt_plussign_withcolor,857841,,blue,,,,49,GW/hanover.png,GW/carmel.png,,,,,,,,,,,,,,,,,,,,,,,,,
null,,rt_thecrossant_black,858836,,black_plus_sign,,,,null,,,1,0.9669421487603306,,,,,,,,,,,,,,,,,,,,,,,
null,,color_black,858939,,black_plus_sign,,,,null,,,,,,,,,,,,,,,,,,,,,,,,,,,
null,,learn_phase(without_color),861941,,black_plus_sign,,,,null,GW/newhope.png,GW/shreveport.png,,,,,,,,,,,,,,,,,,,,,,,,,
null,,black_cross(without_color),862736,,yellow,,,,null,GW/newhope.png,GW/shreveport.png,,,,,,,,,,,,,,,,,,,,,,,,,
385.29999999981374,,rt_plussign_withcolor,863237,,yellow,,,,50,GW/newhope.png,GW/shreveport.png,,,,,,,,,,,,,,,,,,,,,,,,,
null,,rt_thecrossant_black,864446,,black_plus_sign,,,,null,,,1,0.9672131147540983,,,,,,,,,,,,,,,,,,,,,,,
null,,color_black,864548,,black_plus_sign,,,,null,,,,,,,,,,,,,,,,,,,,,,,,,,,
null,,learn_phase(without_color),867551,,black_plus_sign,,,,null,GW/cornwall.png,GW/racine.png,,,,,,,,,,,,,,,,,,,,,,,,,
null,,black_cross(without_color),868242,,yellow,,,,null,GW/cornwall.png,GW/racine.png,,,,,,,,,,,,,,,,,,,,,,,,,
376.5,,rt_plussign_withcolor,868744,,yellow,,,,50,GW/cornwall.png,GW/racine.png,,,,,,,,,,,,,,,,,,,,,,,,,
null,,rt_thecrossant_black,870061,,black_plus_sign,,,,null,,,1,0.967479674796748,,,,,,,,,,,,,,,,,,,,,,,
null,,color_black,870163,,black_plus_sign,,,,null,,,,,,,,,,,,,,,,,,,,,,,,,,,
null,,learn_phase(without_color),873165,,black_plus_sign,,,,null,GW/hotsprings.png,GW/cornwall.png,,,,,,,,,,,,,,,,,,,,,,,,,
null,,black_cross(without_color),874243,,yellow,,,,null,GW/hotsprings.png,GW/cornwall.png,,,,,,,,,,,,,,,,,,,,,,,,,
407.3999999994412,,rt_plussign_withcolor,874745,,yellow,,,,50,GW/hotsprings.png,GW/cornwall.png,,,,,,,,,,,,,,,,,,,,,,,,,
null,,rt_thecrossant_black,875670,,black_plus_sign,,,,null,,,1,0.967741935483871,,,,,,,,,,,,,,,,,,,,,,,
null,,color_black,875772,,black_plus_sign,,,,null,,,,,,,,,,,,,,,,,,,,,,,,,,,
null,,learn_phase(without_color),878774,,black_plus_sign,,,,null,GW/gatlinburg.png,GW/carmel.png,,,,,,,,,,,,,,,,,,,,,,,,,
null,,black_cross(without_color),879183,,yellow,,,,null,GW/gatlinburg.png,GW/carmel.png,,,,,,,,,,,,,,,,,,,,,,,,,
443.79999999981374,,rt_plussign_withcolor,879684,,yellow,,,,50,GW/gatlinburg.png,GW/carmel.png,,,,,,,,,,,,,,,,,,,,,,,,,
null,,rt_thecrossant_black,881279,,black_plus_sign,,,,null,,,1,0.968,,,,,,,,,,,,,,,,,,,,,,,
null,,color_black,881382,,black_plus_sign,,,,null,,,,,,,,,,,,,,,,,,,,,,,,,,,
null,,learn_phase(without_color),884384,,black_plus_sign,,,,null,GW/cornwall.png,GW/boulder.png,,,,,,,,,,,,,,,,,,,,,,,,,
null,,black_cross(without_color),885068,,blue,,,,null,GW/cornwall.png,GW/boulder.png,,,,,,,,,,,,,,,,,,,,,,,,,
366.80000000074506,,rt_plussign_withcolor,885570,,blue,,,,49,GW/cornwall.png,GW/boulder.png,,,,,,,,,,,,,,,,,,,,,,,,,
null,,rt_thecrossant_black,886890,,black_plus_sign,,,,null,,,1,0.9682539682539683,,,,,,,,,,,,,,,,,,,,,,,
null,,color_black,886991,,black_plus_sign,,,,null,,,,,,,,,,,,,,,,,,,,,,,,,,,
null,,learn_phase(without_color),889994,,black_plus_sign,,,,null,GW/hanover.png,GW/carmel.png,,,,,,,,,,,,,,,,,,,,,,,,,
null,,black_cross(without_color),890848,,blue,,,,null,GW/hanover.png,GW/carmel.png,,,,,,,,,,,,,,,,,,,,,,,,,
339,,rt_plussign_withcolor,891349,,blue,,,,49,GW/hanover.png,GW/carmel.png,,,,,,,,,,,,,,,,,,,,,,,,,
null,,rt_thecrossant_black,892498,,black_plus_sign,,,,null,,,1,0.968503937007874,,,,,,,,,,,,,,,,,,,,,,,
null,,color_black,892600,,black_plus_sign,,,,null,,,,,,,,,,,,,,,,,,,,,,,,,,,
1961.7000000001863,,learn_break,894563,,learn_break,,,,32,,,,,,,,,,,,,,,,,,,,,,,,,,,
12608.899999999441,,intro_1,907173,,instruct,,0,Start,,,,,,,,,,,,,,,,,,,,,,,,,,,,
2070,,directmemory_phase,909244,,GW/peoria.png,,,,50,,,1,1,GW/hanover.png,GW/huntsville.png,GW/leesburg.png,GW/huntsville.png,GW/hanover.png,GW/leesburg.png,1,,,,,,,,,,,,,,,,
null,,html-keyboard-response,910246,,<p></p>,,,,null,,,,,,,,,,,,,,,,,,,,,,,,,,,
2845.2000000001863,,directmemory_phase,913092,,GW/carmel.png,,,,51,,,1,1,GW/peoria.png,GW/hotsprings.png,GW/hanover.png,GW/hanover.png,GW/hotsprings.png,GW/peoria.png,1,,,,,,,,,,,,,,,,
null,,html-keyboard-response,914095,,<p></p>,,,,null,,,,,,,,,,,,,,,,,,,,,,,,,,,
3172,,directmemory_phase,917268,,GW/hotsprings.png,,,,51,,,1,1,GW/shreveport.png,GW/boulder.png,GW/westpalmbeach.png,GW/westpalmbeach.png,GW/boulder.png,GW/shreveport.png,1,,,,,,,,,,,,,,,,
null,,html-keyboard-response,918270,,<p></p>,,,,null,,,,,,,,,,,,,,,,,,,,,,,,,,,
1885.5,,directmemory_phase,920157,,GW/shreveport.png,,,,51,,,1,1,GW/cornwall.png,GW/gatlinburg.png,GW/hanover.png,GW/hanover.png,GW/gatlinburg.png,GW/cornwall.png,1,,,,,,,,,,,,,,,,
null,,html-keyboard-response,921159,,<p></p>,,,,null,,,,,,,,,,,,,,,,,,,,,,,,,,,
3405.199999999255,,directmemory_phase,924565,,GW/carmel.png,,,,51,,,0,0.8,GW/boulder.png,GW/peoria.png,GW/cornwall.png,GW/boulder.png,GW/cornwall.png,GW/peoria.png,0.5,closer,,,,,,,,,,,,,,,
null,,html-keyboard-response,925567,,<p></p>,,,,null,,,,,,,,,,,,,,,,,,,,,,,,,,,
3900.7000000001863,,directmemory_phase,929469,,GW/huntsville.png,,,,50,,,0,0.6666666666666666,GW/boulder.png,GW/newhope.png,GW/shreveport.png,GW/shreveport.png,GW/newhope.png,GW/boulder.png,0.5,closer,,,,,,,,,,,,,,,
null,,html-keyboard-response,930473,,<p></p>,,,,null,,,,,,,,,,,,,,,,,,,,,,,,,,,
2402.0999999996275,,directmemory_phase,932877,,GW/hotsprings.png,,,,49,,,1,0.7142857142857143,GW/cornwall.png,GW/hanover.png,GW/newhope.png,GW/cornwall.png,GW/newhope.png,GW/hanover.png,1,,,,,,,,,,,,,,,,
null,,html-keyboard-response,933879,,<p></p>,,,,null,,,,,,,,,,,,,,,,,,,,,,,,,,,
4989.5999999996275,,directmemory_phase,938869,,GW/boulder.png,,,,50,,,0,0.625,GW/shreveport.png,GW/hotsprings.png,GW/carmel.png,GW/carmel.png,GW/hotsprings.png,GW/shreveport.png,0.5,closer,,,,,,,,,,,,,,,
null,,html-keyboard-response,939871,,<p></p>,,,,null,,,,,,,,,,,,,,,,,,,,,,,,,,,
1805.3999999994412,,directmemory_phase,941677,,GW/racine.png,,,,51,,,1,0.6666666666666666,GW/gatlinburg.png,GW/hotsprings.png,GW/cornwall.png,GW/cornwall.png,GW/hotsprings.png,GW/gatlinburg.png,1,,,,,,,,,,,,,,,,
null,,html-keyboard-response,942680,,<p></p>,,,,null,,,,,,,,,,,,,,,,,,,,,,,,,,,
3340.4000000003725,,directmemory_phase,946021,,GW/gatlinburg.png,,,,51,,,0,0.6,GW/cornwall.png,GW/carmel.png,GW/leesburg.png,GW/carmel.png,GW/cornwall.png,GW/leesburg.png,0.5,closer,,,,,,,,,,,,,,,
null,,html-keyboard-response,947023,,<p></p>,,,,null,,,,,,,,,,,,,,,,,,,,,,,,,,,
2388.7000000001863,,directmemory_phase,949413,,GW/boulder.png,,,,50,,,0,0.5454545454545454,GW/leesburg.png,GW/hanover.png,GW/cornwall.png,GW/cornwall.png,GW/hanover.png,GW/leesburg.png,0.5,closer,,,,,,,,,,,,,,,
null,,html-keyboard-response,950414,,<p></p>,,,,null,,,,,,,,,,,,,,,,,,,,,,,,,,,
1854.7999999998137,,directmemory_phase,952269,,GW/hanover.png,,,,50,,,1,0.5833333333333334,GW/gatlinburg.png,GW/shreveport.png,GW/racine.png,GW/shreveport.png,GW/gatlinburg.png,GW/racine.png,1,,,,,,,,,,,,,,,,
null,,html-keyboard-response,953271,,<p></p>,,,,null,,,,,,,,,,,,,,,,,,,,,,,,,,,
2365.4000000003725,,directmemory_phase,955637,,GW/newhope.png,,,,49,,,0,0.5384615384615384,GW/peoria.png,GW/carmel.png,GW/gatlinburg.png,GW/gatlinburg.png,GW/carmel.png,GW/peoria.png,0.5,closer,,,,,,,,,,,,,,,
null,,html-keyboard-response,956639,,<p></p>,,,,null,,,,,,,,,,,,,,,,,,,,,,,,,,,
1324.8999999994412,,directmemory_phase,957965,,GW/westpalmbeach.png,,,,49,,,1,0.5714285714285714,GW/hotsprings.png,GW/carmel.png,GW/gatlinburg.png,GW/hotsprings.png,GW/gatlinburg.png,GW/carmel.png,1,,,,,,,,,,,,,,,,
null,,html-keyboard-response,958967,,<p></p>,,,,null,,,,,,,,,,,,,,,,,,,,,,,,,,,
1486.2000000001863,,directmemory_phase,960454,,GW/shreveport.png,,,,49,,,1,0.6,GW/newhope.png,GW/cornwall.png,GW/gatlinburg.png,GW/newhope.png,GW/gatlinburg.png,GW/cornwall.png,1,,,,,,,,,,,,,,,,
null,,html-keyboard-response,961456,,<p></p>,,,,null,,,,,,,,,,,,,,,,,,,,,,,,,,,
1004.7999999998137,,directmemory_phase,962462,,GW/huntsville.png,,,,51,,,1,0.625,GW/cornwall.png,GW/newhope.png,GW/peoria.png,GW/peoria.png,GW/newhope.png,GW/cornwall.png,1,,,,,,,,,,,,,,,,
null,,html-keyboard-response,963464,,<p></p>,,,,null,,,,,,,,,,,,,,,,,,,,,,,,,,,
2356.5,,directmemory_phase,965822,,GW/hanover.png,,,,51,,,0,0.5882352941176471,GW/boulder.png,GW/newhope.png,GW/hotsprings.png,GW/newhope.png,GW/boulder.png,GW/hotsprings.png,0.5,closer,,,,,,,,,,,,,,,
null,,html-keyboard-response,966823,,<p></p>,,,,null,,,,,,,,,,,,,,,,,,,,,,,,,,,
3502.199999999255,,directmemory_phase,970326,,GW/leesburg.png,,,,49,,,0,0.5555555555555556,GW/hanover.png,GW/shreveport.png,GW/carmel.png,GW/shreveport.png,GW/hanover.png,GW/carmel.png,0.5,closer,,,,,,,,,,,,,,,
null,,html-keyboard-response,971328,,<p></p>,,,,null,,,,,,,,,,,,,,,,,,,,,,,,,,,
3444.5,,directmemory_phase,974774,,GW/hotsprings.png,,,,51,,,0,0.5263157894736842,GW/gatlinburg.png,GW/leesburg.png,GW/carmel.png,GW/gatlinburg.png,GW/carmel.png,GW/leesburg.png,0.5,closer,,,,,,,,,,,,,,,
null,,html-keyboard-response,975776,,<p></p>,,,,null,,,,,,,,,,,,,,,,,,,,,,,,,,,
4981.299999999814,,directmemory_phase,980758,,GW/shreveport.png,,,,50,,,0,0.5,GW/hotsprings.png,GW/carmel.png,GW/leesburg.png,GW/leesburg.png,GW/carmel.png,GW/hotsprings.png,0.5,closer,,,,,,,,,,,,,,,
null,,html-keyboard-response,981760,,<p></p>,,,,null,,,,,,,,,,,,,,,,,,,,,,,,,,,
3084.5999999996275,,directmemory_phase,984846,,GW/gatlinburg.png,,,,49,,,0,0.47619047619047616,GW/leesburg.png,GW/westpalmbeach.png,GW/hotsprings.png,GW/hotsprings.png,GW/westpalmbeach.png,GW/leesburg.png,0.5,closer,,,,,,,,,,,,,,,
null,,html-keyboard-response,985848,,<p></p>,,,,null,,,,,,,,,,,,,,,,,,,,,,,,,,,
2797.7999999998137,,directmemory_phase,988647,,GW/hanover.png,,,,50,,,0,0.45454545454545453,GW/westpalmbeach.png,GW/peoria.png,GW/huntsville.png,GW/huntsville.png,GW/peoria.png,GW/westpalmbeach.png,0.5,closer,,,,,,,,,,,,,,,
null,,html-keyboard-response,989649,,<p></p>,,,,null,,,,,,,,,,,,,,,,,,,,,,,,,,,
3036.899999999441,,directmemory_phase,992687,,GW/newhope.png,,,,51,,,1,0.4782608695652174,GW/boulder.png,GW/hotsprings.png,GW/shreveport.png,GW/shreveport.png,GW/hotsprings.png,GW/boulder.png,1,,,,,,,,,,,,,,,,
null,,html-keyboard-response,993689,,<p></p>,,,,null,,,,,,,,,,,,,,,,,,,,,,,,,,,
4445.200000000186,,directmemory_phase,998135,,GW/huntsville.png,,,,51,,,0,0.4583333333333333,GW/hanover.png,GW/hotsprings.png,GW/newhope.png,GW/hanover.png,GW/newhope.png,GW/hotsprings.png,0.5,closer,,,,,,,,,,,,,,,
null,,html-keyboard-response,999137,,<p></p>,,,,null,,,,,,,,,,,,,,,,,,,,,,,,,,,
1380.2000000001863,,directmemory_phase,1000518,,GW/cornwall.png,,,,51,,,1,0.48,GW/shreveport.png,GW/westpalmbeach.png,GW/racine.png,GW/racine.png,GW/westpalmbeach.png,GW/shreveport.png,1,,,,,,,,,,,,,,,,
null,,html-keyboard-response,1001520,,<p></p>,,,,null,,,,,,,,,,,,,,,,,,,,,,,,,,,
1902.5,,directmemory_phase,1003423,,GW/newhope.png,,,,51,,,1,0.5,GW/boulder.png,GW/carmel.png,GW/hanover.png,GW/hanover.png,GW/carmel.png,GW/boulder.png,1,,,,,,,,,,,,,,,,
null,,html-keyboard-response,1004426,,<p></p>,,,,null,,,,,,,,,,,,,,,,,,,,,,,,,,,
3716.0999999996275,,directmemory_phase,1008143,,GW/cornwall.png,,,,50,,,1,0.5185185185185185,GW/westpalmbeach.png,GW/hotsprings.png,GW/hanover.png,GW/hotsprings.png,GW/westpalmbeach.png,GW/hanover.png,1,,,,,,,,,,,,,,,,
null,,html-keyboard-response,1009144,,<p></p>,,,,null,,,,,,,,,,,,,,,,,,,,,,,,,,,
4702.299999999814,,directmemory_phase,1013848,,GW/gatlinburg.png,,,,50,,,1,0.5357142857142857,GW/hanover.png,GW/newhope.png,GW/racine.png,GW/newhope.png,GW/hanover.png,GW/racine.png,1,,,,,,,,,,,,,,,,
null,,html-keyboard-response,1014850,,<p></p>,,,,null,,,,,,,,,,,,,,,,,,,,,,,,,,,
4308.5,,directmemory_phase,1019160,,GW/cornwall.png,,,,51,,,1,0.5517241379310345,GW/shreveport.png,GW/westpalmbeach.png,GW/boulder.png,GW/boulder.png,GW/westpalmbeach.png,GW/shreveport.png,1,,,,,,,,,,,,,,,,
null,,html-keyboard-response,1020162,,<p></p>,,,,null,,,,,,,,,,,,,,,,,,,,,,,,,,,
3428.9000000003725,,directmemory_phase,1023592,,GW/carmel.png,,,,49,,,0,0.5333333333333333,GW/leesburg.png,GW/newhope.png,GW/gatlinburg.png,GW/gatlinburg.png,GW/newhope.png,GW/leesburg.png,0.5,closer,,,,,,,,,,,,,,,
null,,html-keyboard-response,1024594,,<p></p>,,,,null,,,,,,,,,,,,,,,,,,,,,,,,,,,
2820.0999999996275,,directmemory_phase,1027415,,GW/shreveport.png,,,,49,,,0,0.5161290322580645,GW/boulder.png,GW/gatlinburg.png,GW/huntsville.png,GW/huntsville.png,GW/gatlinburg.png,GW/boulder.png,0.5,closer,,,,,,,,,,,,,,,
null,,html-keyboard-response,1028417,,<p></p>,,,,null,,,,,,,,,,,,,,,,,,,,,,,,,,,
4734.4000000003725,,directmemory_phase,1033152,,GW/hanover.png,,,,49,,,1,0.53125,GW/carmel.png,GW/westpalmbeach.png,GW/boulder.png,GW/carmel.png,GW/boulder.png,GW/westpalmbeach.png,1,,,,,,,,,,,,,,,,
null,,html-keyboard-response,1034154,,<p></p>,,,,null,,,,,,,,,,,,,,,,,,,,,,,,,,,
30389.299999999814,,intro_1,1064544,,instruct,,0,,,,,,,,,,,,,,,,,,,,,,,,,,,,,
7263.700000000186,,intro_2,1071809,,instruct,,1,Next,,,,,,,,,,,,,,,,,,,,,,,,,,,,
3062.7999999998137,,intro_3,1074874,,instruct,,1,Next,,,,,,,,,,,,,,,,,,,,,,,,,,,,
3478.7000000001863,,intro_4,1078353,,instruct,,1,Next,,,,,,,,,,,,,,,,,,,,,,,,,,,,
7943.299999999814,,intro_5,1086298,,instruct,,1,Next,,,,,,,,,,,,,,,,,,,,,,,,,,,,
7694.5999999996275,,intro_6,1093994,,instruct,,1,Next,,,,,,,,,,,,,,,,,,,,,,,,,,,,
26799.5,,intro_7,1120795,,instruct,,1,Next,,,,,,,,,,,,,,,,,,,,,,,,,,,,
9158,,intro_8,1129954,,instruct,,1,Next,,,,,,,,,,,,,,,,,,,,,,,,,,,,
3047.7000000001863,,shortestpath_phase,1133003,,GW/leesburg.png,,,,50,GW/racine.png,GW/newhope.png,1,1,,,,GW/newhope.png,,,,,Four Edge Diff,Two Edge Six Edge,,,,,,,,,,,,,
null,,html-keyboard-response,1134005,,<p></p>,,,,null,,,,,,,,,,,,,,,,,,,,,,,,,,,
3997.100000000559,,shortestpath_phase,1138003,,GW/racine.png,,,,50,GW/hotsprings.png,GW/shreveport.png,0,0.5,,,,GW/hotsprings.png,,,,,Three Edge Diff,Three Edge Six Edge,,,,,,,,,,,,,
null,,html-keyboard-response,1139006,,<p></p>,,,,null,,,,,,,,,,,,,,,,,,,,,,,,,,,
1908,,shortestpath_phase,1140914,,GW/cornwall.png,,,,50,GW/gatlinburg.png,GW/newhope.png,0,0.3333333333333333,,,,GW/gatlinburg.png,,,,,One Edge Diff,Two Edge Three Edge,,,,,,,,,,,,,
null,,html-keyboard-response,1141915,,<p></p>,,,,null,,,,,,,,,,,,,,,,,,,,,,,,,,,
2285.699999999255,,shortestpath_phase,1144202,,GW/hotsprings.png,,,,49,GW/boulder.png,GW/peoria.png,1,0.5,,,,GW/boulder.png,,,,,Three Edge Diff,Two Edge Five Edge,,,,,,,,,,,,,
null,,html-keyboard-response,1145204,,<p></p>,,,,null,,,,,,,,,,,,,,,,,,,,,,,,,,,
3510.5999999996275,,shortestpath_phase,1148715,,GW/huntsville.png,,,,49,GW/carmel.png,GW/racine.png,1,0.6,,,,GW/carmel.png,,,,,Three Edge Diff,Three Edge Six Edge,,,,,,,,,,,,,
null,,html-keyboard-response,1149717,,<p></p>,,,,null,,,,,,,,,,,,,,,,,,,,,,,,,,,
2908.7000000001863,,shortestpath_phase,1152627,,GW/peoria.png,,,,50,GW/hotsprings.png,GW/racine.png,0,0.5,,,,GW/hotsprings.png,,,,,One Edge Diff,Five Edge Six Edge,,,,,,,,,,,,,
null,,html-keyboard-response,1153629,,<p></p>,,,,null,,,,,,,,,,,,,,,,,,,,,,,,,,,
2142.2000000001863,,shortestpath_phase,1155772,,GW/carmel.png,,,,49,GW/newhope.png,GW/peoria.png,1,0.5714285714285714,,,,GW/newhope.png,,,,,One Edge Diff,Two Edge Three Edge,,,,,,,,,,,,,
null,,html-keyboard-response,1156773,,<p></p>,,,,null,,,,,,,,,,,,,,,,,,,,,,,,,,,
3605.800000000745,,shortestpath_phase,1160380,,GW/hotsprings.png,,,,50,GW/boulder.png,GW/hanover.png,0,0.5,,,,GW/boulder.png,,,,,One Edge Diff,Two Edge Three Edge,,,,,,,,,,,,,
null,,html-keyboard-response,1161381,,<p></p>,,,,null,,,,,,,,,,,,,,,,,,,,,,,,,,,
3141,,shortestpath_phase,1164523,,GW/huntsville.png,,,,49,GW/cornwall.png,GW/leesburg.png,0,0.4444444444444444,,,,GW/leesburg.png,,,,,Two Edge Diff,Two Edge Four Edge,,,,,,,,,,,,,
null,,html-keyboard-response,1165525,,<p></p>,,,,null,,,,,,,,,,,,,,,,,,,,,,,,,,,
1812.5999999996275,,shortestpath_phase,1167339,,GW/westpalmbeach.png,,,,49,GW/carmel.png,GW/huntsville.png,1,0.5,,,,GW/carmel.png,,,,,Two Edge Diff,Three Edge Five Edge,,,,,,,,,,,,,
null,,html-keyboard-response,1168341,,<p></p>,,,,null,,,,,,,,,,,,,,,,,,,,,,,,,,,
1805,,shortestpath_phase,1170147,,GW/hotsprings.png,,,,49,GW/racine.png,GW/huntsville.png,1,0.5454545454545454,,,,GW/racine.png,,,,,Two Edge Diff,Two Edge Four Edge,,,,,,,,,,,,,
null,,html-keyboard-response,1171149,,<p></p>,,,,null,,,,,,,,,,,,,,,,,,,,,,,,,,,
3126.2000000001863,,shortestpath_phase,1174276,,GW/cornwall.png,,,,50,GW/peoria.png,GW/westpalmbeach.png,1,0.5833333333333334,,,,GW/westpalmbeach.png,,,,,Three Edge Diff,Three Edge Six Edge,,,,,,,,,,,,,
null,,html-keyboard-response,1175278,,<p></p>,,,,null,,,,,,,,,,,,,,,,,,,,,,,,,,,
1700.5,,shortestpath_phase,1176980,,GW/racine.png,,,,50,GW/leesburg.png,GW/boulder.png,1,0.6153846153846154,,,,GW/boulder.png,,,,,Four Edge Diff,Two Edge Six Edge,,,,,,,,,,,,,
null,,html-keyboard-response,1177998,,<p></p>,,,,null,,,,,,,,,,,,,,,,,,,,,,,,,,,
4277.299999999814,,shortestpath_phase,1182277,,GW/cornwall.png,,,,49,GW/westpalmbeach.png,GW/peoria.png,1,0.6428571428571429,,,,GW/westpalmbeach.png,,,,,Three Edge Diff,Two Edge Five Edge,,,,,,,,,,,,,
null,,html-keyboard-response,1183279,,<p></p>,,,,null,,,,,,,,,,,,,,,,,,,,,,,,,,,
2124.7000000001863,,shortestpath_phase,1185405,,GW/huntsville.png,,,,50,GW/racine.png,GW/newhope.png,1,0.6666666666666666,,,,GW/newhope.png,,,,,Three Edge Diff,Two Edge Five Edge,,,,,,,,,,,,,
null,,html-keyboard-response,1186406,,<p></p>,,,,null,,,,,,,,,,,,,,,,,,,,,,,,,,,
3965,,shortestpath_phase,1190373,,GW/leesburg.png,,,,49,GW/hotsprings.png,GW/westpalmbeach.png,1,0.6875,,,,GW/hotsprings.png,,,,,One Edge Diff,Four Edge Five Edge,,,,,,,,,,,,,
null,,html-keyboard-response,1191374,,<p></p>,,,,null,,,,,,,,,,,,,,,,,,,,,,,,,,,
2381.2999999998137,,shortestpath_phase,1193757,,GW/cornwall.png,,,,50,GW/peoria.png,GW/newhope.png,1,0.7058823529411765,,,,GW/newhope.png,,,,,Two Edge Diff,Three Edge Five Edge,,,,,,,,,,,,,
null,,html-keyboard-response,1194759,,<p></p>,,,,null,,,,,,,,,,,,,,,,,,,,,,,,,,,
1172,,shortestpath_phase,1195932,,GW/leesburg.png,,,,50,GW/westpalmbeach.png,GW/peoria.png,1,0.7222222222222222,,,,GW/peoria.png,,,,,Two Edge Diff,Three Edge Five Edge,,,,,,,,,,,,,
null,,html-keyboard-response,1196935,,<p></p>,,,,null,,,,,,,,,,,,,,,,,,,,,,,,,,,
996.9000000003725,,shortestpath_phase,1197933,,GW/newhope.png,,,,50,GW/boulder.png,GW/huntsville.png,1,0.7368421052631579,,,,GW/huntsville.png,,,,,One Edge Diff,Two Edge Three Edge,,,,,,,,,,,,,
null,,html-keyboard-response,1198935,,<p></p>,,,,null,,,,,,,,,,,,,,,,,,,,,,,,,,,
3869,,shortestpath_phase,1202805,,GW/westpalmbeach.png,,,,49,GW/peoria.png,GW/leesburg.png,0,0.7,,,,GW/leesburg.png,,,,,One Edge Diff,Five Edge Six Edge,,,,,,,,,,,,,
null,,html-keyboard-response,1203806,,<p></p>,,,,null,,,,,,,,,,,,,,,,,,,,,,,,,,,
1933.0999999996275,,shortestpath_phase,1205741,,GW/racine.png,,,,50,GW/newhope.png,GW/hotsprings.png,1,0.7142857142857143,,,,GW/hotsprings.png,,,,,Two Edge Diff,Two Edge Four Edge,,,,,,,,,,,,,
null,,html-keyboard-response,1206742,,<p></p>,,,,null,,,,,,,,,,,,,,,,,,,,,,,,,,,
1381.4000000003725,,shortestpath_phase,1208125,,GW/huntsville.png,,,,50,GW/westpalmbeach.png,GW/leesburg.png,1,0.7272727272727273,,,,GW/leesburg.png,,,,,Three Edge Diff,Two Edge Five Edge,,,,,,,,,,,,,
null,,html-keyboard-response,1209141,,<p></p>,,,,null,,,,,,,,,,,,,,,,,,,,,,,,,,,
2559.4000000003725,,shortestpath_phase,1211701,,GW/boulder.png,,,,49,GW/leesburg.png,GW/racine.png,0,0.6956521739130435,,,,GW/racine.png,,,,,Two Edge Diff,Two Edge Four Edge,,,,,,,,,,,,,
null,,html-keyboard-response,1212703,,<p></p>,,,,null,,,,,,,,,,,,,,,,,,,,,,,,,,,
2108.9000000003725,,shortestpath_phase,1214813,,GW/cornwall.png,,,,49,GW/carmel.png,GW/peoria.png,1,0.7083333333333334,,,,GW/carmel.png,,,,,Three Edge Diff,Two Edge Five Edge,,,,,,,,,,,,,
null,,html-keyboard-response,1215816,,<p></p>,,,,null,,,,,,,,,,,,,,,,,,,,,,,,,,,
2644.4000000003725,,shortestpath_phase,1218461,,GW/racine.png,,,,49,GW/hanover.png,GW/leesburg.png,1,0.72,,,,GW/hanover.png,,,,,Two Edge Diff,Four Edge Six Edge,,,,,,,,,,,,,
null,,html-keyboard-response,1219463,,<p></p>,,,,null,,,,,,,,,,,,,,,,,,,,,,,,,,,
3404.9000000003725,,shortestpath_phase,1222869,,GW/leesburg.png,,,,50,GW/hotsprings.png,GW/cornwall.png,0,0.6923076923076923,,,,GW/hotsprings.png,,,,,One Edge Diff,Four Edge Five Edge,,,,,,,,,,,,,
null,,html-keyboard-response,1223870,,<p></p>,,,,null,,,,,,,,,,,,,,,,,,,,,,,,,,,
4254.0999999996275,,shortestpath_phase,1228126,,GW/racine.png,,,,49,GW/shreveport.png,GW/hanover.png,0,0.6666666666666666,,,,GW/hanover.png,,,,,One Edge Diff,Four Edge Five Edge,,,,,,,,,,,,,
null,,html-keyboard-response,1229129,,<p></p>,,,,null,,,,,,,,,,,,,,,,,,,,,,,,,,,
3124.2999999998137,,shortestpath_phase,1232254,,GW/westpalmbeach.png,,,,49,GW/leesburg.png,GW/gatlinburg.png,0,0.6428571428571429,,,,GW/gatlinburg.png,,,,,Three Edge Diff,Three Edge Six Edge,,,,,,,,,,,,,
null,,html-keyboard-response,1233256,,<p></p>,,,,null,,,,,,,,,,,,,,,,,,,,,,,,,,,
1269.0999999996275,,shortestpath_phase,1234526,,GW/leesburg.png,,,,49,GW/racine.png,GW/boulder.png,0,0.6206896551724138,,,,GW/boulder.png,,,,,Two Edge Diff,Four Edge Six Edge,,,,,,,,,,,,,
null,,html-keyboard-response,1235528,,<p></p>,,,,null,,,,,,,,,,,,,,,,,,,,,,,,,,,
1220.9000000003725,,shortestpath_phase,1236750,,GW/racine.png,,,,50,GW/leesburg.png,GW/hotsprings.png,1,0.6333333333333333,,,,GW/hotsprings.png,,,,,Four Edge Diff,Two Edge Six Edge,,,,,,,,,,,,,
null,,html-keyboard-response,1237752,,<p></p>,,,,null,,,,,,,,,,,,,,,,,,,,,,,,,,,
1188.5999999996275,,shortestpath_phase,1238941,,GW/peoria.png,,,,49,GW/gatlinburg.png,GW/racine.png,1,0.6451612903225806,,,,GW/gatlinburg.png,,,,,Two Edge Diff,Four Edge Six Edge,,,,,,,,,,,,,
null,,html-keyboard-response,1239942,,<p></p>,,,,null,,,,,,,,,,,,,,,,,,,,,,,,,,,
1590,,shortestpath_phase,1241534,,GW/leesburg.png,,,,49,GW/hanover.png,GW/westpalmbeach.png,1,0.65625,,,,GW/hanover.png,,,,,Three Edge Diff,Three Edge Six Edge,,,,,,,,,,,,,
null,,html-keyboard-response,1242536,,<p></p>,,,,null,,,,,,,,,,,,,,,,,,,,,,,,,,,
1477.199999999255,,shortestpath_phase,1244014,,GW/racine.png,,,,49,GW/leesburg.png,GW/shreveport.png,0,0.6363636363636364,,,,GW/shreveport.png,,,,,One Edge Diff,Five Edge Six Edge,,,,,,,,,,,,,
null,,html-keyboard-response,1245016,,<p></p>,,,,null,,,,,,,,,,,,,,,,,,,,,,,,,,,
2085,,shortestpath_phase,1247102,,GW/peoria.png,,,,49,GW/boulder.png,GW/racine.png,1,0.6470588235294118,,,,GW/boulder.png,,,,,Two Edge Diff,Four Edge Six Edge,,,,,,,,,,,,,
null,,html-keyboard-response,1248104,,<p></p>,,,,null,,,,,,,,,,,,,,,,,,,,,,,,,,,
1556.9000000003725,,shortestpath_phase,1249661,,GW/racine.png,,,,50,GW/huntsville.png,GW/peoria.png,0,0.6285714285714286,,,,GW/huntsville.png,,,,,One Edge Diff,Five Edge Six Edge,,,,,,,,,,,,,
null,,html-keyboard-response,1250663,,<p></p>,,,,null,,,,,,,,,,,,,,,,,,,,,,,,,,,
1358.300000000745,,shortestpath_phase,1252022,,GW/peoria.png,,,,49,GW/shreveport.png,GW/westpalmbeach.png,1,0.6388888888888888,,,,GW/shreveport.png,,,,,Four Edge Diff,Two Edge Six Edge,,,,,,,,,,,,,
null,,html-keyboard-response,1253024,,<p></p>,,,,null,,,,,,,,,,,,,,,,,,,,,,,,,,,
1085.2000000001863,,shortestpath_phase,1254111,,GW/huntsville.png,,,,50,GW/racine.png,GW/leesburg.png,1,0.6486486486486487,,,,GW/leesburg.png,,,,,Three Edge Diff,Two Edge Five Edge,,,,,,,,,,,,,
null,,html-keyboard-response,1255112,,<p></p>,,,,null,,,,,,,,,,,,,,,,,,,,,,,,,,,
1308.9000000003725,,shortestpath_phase,1256422,,GW/racine.png,,,,50,GW/newhope.png,GW/leesburg.png,0,0.631578947368421,,,,GW/newhope.png,,,,,Two Edge Diff,Four Edge Six Edge,,,,,,,,,,,,,
null,,html-keyboard-response,1257424,,<p></p>,,,,null,,,,,,,,,,,,,,,,,,,,,,,,,,,
1308.7999999998137,,shortestpath_phase,1258734,,GW/westpalmbeach.png,,,,49,GW/boulder.png,GW/leesburg.png,1,0.6410256410256411,,,,GW/boulder.png,,,,,Two Edge Diff,Three Edge Five Edge,,,,,,,,,,,,,
null,,html-keyboard-response,1259735,,<p></p>,,,,null,,,,,,,,,,,,,,,,,,,,,,,,,,,
2470,,shortestpath_phase,1262207,,GW/huntsville.png,,,,50,GW/gatlinburg.png,GW/carmel.png,1,0.65,,,,GW/carmel.png,,,,,One Edge Diff,Two Edge Three Edge,,,,,,,,,,,,,
null,,html-keyboard-response,1263209,,<p></p>,,,,null,,,,,,,,,,,,,,,,,,,,,,,,,,,
964.8999999994412,,shortestpath_phase,1264175,,GW/boulder.png,,,,50,GW/leesburg.png,GW/hotsprings.png,1,0.6585365853658537,,,,GW/hotsprings.png,,,,,Two Edge Diff,Two Edge Four Edge,,,,,,,,,,,,,
null,,html-keyboard-response,1265178,,<p></p>,,,,null,,,,,,,,,,,,,,,,,,,,,,,,,,,
1539.6000000005588,,shortestpath_phase,1266719,,GW/peoria.png,,,,49,GW/hanover.png,GW/westpalmbeach.png,1,0.6666666666666666,,,,GW/hanover.png,,,,,Four Edge Diff,Two Edge Six Edge,,,,,,,,,,,,,
null,,html-keyboard-response,1267732,,<p></p>,,,,null,,,,,,,,,,,,,,,,,,,,,,,,,,,
3225.5,,shortestpath_phase,1270958,,GW/boulder.png,,,,50,GW/gatlinburg.png,GW/newhope.png,0,0.6511627906976745,,,,GW/gatlinburg.png,,,,,One Edge Diff,Two Edge Three Edge,,,,,,,,,,,,,
null,,html-keyboard-response,1271970,,<p></p>,,,,null,,,,,,,,,,,,,,,,,,,,,,,,,,,
3291.5,,shortestpath_phase,1275263,,GW/leesburg.png,,,,50,GW/hanover.png,GW/racine.png,0,0.6363636363636364,,,,GW/hanover.png,,,,,Four Edge Diff,Two Edge Six Edge,,,,,,,,,,,,,
null,,html-keyboard-response,1276265,,<p></p>,,,,null,,,,,,,,,,,,,,,,,,,,,,,,,,,
1973.2000000001863,,shortestpath_phase,1278239,,GW/cornwall.png,,,,49,GW/shreveport.png,GW/westpalmbeach.png,0,0.6222222222222222,,,,GW/westpalmbeach.png,,,,,Two Edge Diff,Two Edge Four Edge,,,,,,,,,,,,,
null,,html-keyboard-response,1279240,,<p></p>,,,,null,,,,,,,,,,,,,,,,,,,,,,,,,,,
2180.7999999998137,,shortestpath_phase,1281422,,GW/huntsville.png,,,,49,GW/carmel.png,GW/racine.png,1,0.6304347826086957,,,,GW/carmel.png,,,,,Three Edge Diff,Two Edge Five Edge,,,,,,,,,,,,,
null,,html-keyboard-response,1282424,,<p></p>,,,,null,,,,,,,,,,,,,,,,,,,,,,,,,,,
1525.9000000003725,,shortestpath_phase,1283951,,GW/leesburg.png,,,,49,GW/gatlinburg.png,GW/westpalmbeach.png,1,0.6382978723404256,,,,GW/gatlinburg.png,,,,,Two Edge Diff,Three Edge Five Edge,,,,,,,,,,,,,
null,,html-keyboard-response,1284953,,<p></p>,,,,null,,,,,,,,,,,,,,,,,,,,,,,,,,,
2349,,shortestpath_phase,1287304,,GW/huntsville.png,,,,49,GW/carmel.png,GW/westpalmbeach.png,1,0.6458333333333334,,,,GW/carmel.png,,,,,Three Edge Diff,Two Edge Five Edge,,,,,,,,,,,,,
null,,html-keyboard-response,1288306,,<p></p>,,,,null,,,,,,,,,,,,,,,,,,,,,,,,,,,
1316.6000000005588,,shortestpath_phase,1289623,,GW/peoria.png,,,,50,GW/hotsprings.png,GW/hanover.png,1,0.6530612244897959,,,,GW/hanover.png,,,,,Three Edge Diff,Three Edge Six Edge,,,,,,,,,,,,,
null,,html-keyboard-response,1290626,,<p></p>,,,,null,,,,,,,,,,,,,,,,,,,,,,,,,,,
2492.0999999996275,,shortestpath_phase,1293119,,GW/cornwall.png,,,,49,GW/leesburg.png,GW/huntsville.png,0,0.64,,,,GW/huntsville.png,,,,,One Edge Diff,Four Edge Five Edge,,,,,,,,,,,,,
null,,html-keyboard-response,1294128,,<p></p>,,,,null,,,,,,,,,,,,,,,,,,,,,,,,,,,
1462.8999999994412,,shortestpath_phase,1295592,,GW/westpalmbeach.png,,,,50,GW/huntsville.png,GW/shreveport.png,1,0.6470588235294118,,,,GW/shreveport.png,,,,,One Edge Diff,Four Edge Five Edge,,,,,,,,,,,,,
null,,html-keyboard-response,1296594,,<p></p>,,,,null,,,,,,,,,,,,,,,,,,,,,,,,,,,
1853,,shortestpath_phase,1298448,,GW/cornwall.png,,,,50,GW/leesburg.png,GW/gatlinburg.png,1,0.6538461538461539,,,,GW/gatlinburg.png,,,,,Three Edge Diff,Three Edge Six Edge,,,,,,,,,,,,,
null,,html-keyboard-response,1299450,,<p></p>,,,,null,,,,,,,,,,,,,,,,,,,,,,,,,,,
3548.2999999998137,,shortestpath_phase,1303000,,GW/hotsprings.png,,,,49,GW/peoria.png,GW/huntsville.png,0,0.6415094339622641,,,,GW/huntsville.png,,,,,One Edge Diff,Four Edge Five Edge,,,,,,,,,,,,,
null,,html-keyboard-response,1304002,,<p></p>,,,,null,,,,,,,,,,,,,,,,,,,,,,,,,,,
1109,,shortestpath_phase,1305112,,GW/cornwall.png,,,,50,GW/peoria.png,GW/gatlinburg.png,1,0.6481481481481481,,,,GW/gatlinburg.png,,,,,Three Edge Diff,Two Edge Five Edge,,,,,,,,,,,,,
null,,html-keyboard-response,1306114,,<p></p>,,,,null,,,,,,,,,,,,,,,,,,,,,,,,,,,
1548.9000000003725,,shortestpath_phase,1307664,,GW/huntsville.png,,,,50,GW/westpalmbeach.png,GW/leesburg.png,1,0.6545454545454545,,,,GW/leesburg.png,,,,,Three Edge Diff,Three Edge Six Edge,,,,,,,,,,,,,
null,,html-keyboard-response,1308667,,<p></p>,,,,null,,,,,,,,,,,,,,,,,,,,,,,,,,,
1515.2999999998137,,shortestpath_phase,1310183,,GW/peoria.png,,,,50,GW/gatlinburg.png,GW/hanover.png,1,0.6607142857142857,,,,GW/hanover.png,,,,,Two Edge Diff,Two Edge Four Edge,,,,,,,,,,,,,
null,,html-keyboard-response,1311185,,<p></p>,,,,null,,,,,,,,,,,,,,,,,,,,,,,,,,,
1549.9000000003725,,shortestpath_phase,1312736,,GW/huntsville.png,,,,49,GW/hotsprings.png,GW/carmel.png,0,0.6491228070175439,,,,GW/carmel.png,,,,,Two Edge Diff,Two Edge Four Edge,,,,,,,,,,,,,
null,,html-keyboard-response,1313738,,<p></p>,,,,null,,,,,,,,,,,,,,,,,,,,,,,,,,,
1804.5,,shortestpath_phase,1315544,,GW/hanover.png,,,,49,GW/westpalmbeach.png,GW/cornwall.png,0,0.6379310344827587,,,,GW/cornwall.png,,,,,One Edge Diff,Three Edge Four Edge,,,,,,,,,,,,,
null,,html-keyboard-response,1316546,,<p></p>,,,,null,,,,,,,,,,,,,,,,,,,,,,,,,,,
2228.800000000745,,shortestpath_phase,1318776,,GW/racine.png,,,,49,GW/shreveport.png,GW/peoria.png,1,0.6440677966101694,,,,GW/shreveport.png,,,,,One Edge Diff,Five Edge Six Edge,,,,,,,,,,,,,
null,,html-keyboard-response,1319779,,<p></p>,,,,null,,,,,,,,,,,,,,,,,,,,,,,,,,,
3132.600000000559,,shortestpath_phase,1322913,,GW/leesburg.png,,,,50,GW/cornwall.png,GW/hanover.png,1,0.65,,,,GW/hanover.png,,,,,Three Edge Diff,Two Edge Five Edge,,,,,,,,,,,,,
null,,html-keyboard-response,1323915,,<p></p>,,,,null,,,,,,,,,,,,,,,,,,,,,,,,,,,
