rt,responses,trial_type,time_elapsed,sequence,stimulus,graphorder,button_pressed,response,key_press,stimulus_left,stimulus_right,accuracy,cumulative_accuracy,stimulus_down_left,stimulus_down_mid,stimulus_down_right,stimulus_correct,stimulus_short,stimulus_far,weighted_accuracy,missedtrial,condition,specific_pairs,imgL_ID,imgR_ID,linedress,linedressed,linedressed_detor,detour_trial,problems,smooth,distraction,strategies,easier,similar,comments
4913,{worker_id:663bc31529719b8501c52820},id_enter,4915,interleaved,replication,GW/leesburg.png; GW/carmel.png; GW/hotsprings.png; GW/racine.png; GW/peoria.png; GW/huntsville.png; GW/boulder.png; GW/shreveport.png; GW/cornwall.png; GW/westpalmbeach.png; GW/newhope.png; GW/hanover.png; GW/gatlinburg.png,,,,,,,,,,,,,,,,,,,,,,,,,,,,,,
22642.70000001788,,fullscreen,27561,,fullscreen,,0,,,,,,,,,,,,,,,,,,,,,,,,,,,,,
13313.299999982119,,intro_1,40877,,instruct,,0,,,,,,,,,,,,,,,,,,,,,,,,,,,,,
56994.5,,intro_2,97873,,instruct,,1,Next,,,,,,,,,,,,,,,,,,,,,,,,,,,,
8226.59999999404,,intro_3,106101,,instruct,,1,Next,,,,,,,,,,,,,,,,,,,,,,,,,,,,
null,,learn_prac_1,109103,,lean_prac_1,,,,null,,,,,,,,,,,,,,,,,,,,,,,,,,,
null,,html-keyboard-response,110105,,<p></p>,,,,null,,,,,,,,,,,,,,,,,,,,,,,,,,,
2592,,intro_1,112698,,instruct,,0,,,,,,,,,,,,,,,,,,,,,,,,,,,,,
6017.9000000059605,,intro_2,118717,,instruct,,1,Next,,,,,,,,,,,,,,,,,,,,,,,,,,,,
null,,learn_prac_2,121719,,lean_prac_2,,,,null,,,,,,,,,,,,,,,,,,,,,,,,,,,
null,,html-keyboard-response,122722,,<p></p>,,,,null,,,,,,,,,,,,,,,,,,,,,,,,,,,
1982.699999988079,,intro_1,124705,,instruct,,0,,,,,,,,,,,,,,,,,,,,,,,,,,,,,
5530.5999999940395,,intro_2,130237,,instruct,,1,Next,,,,,,,,,,,,,,,,,,,,,,,,,,,,
20008.29999998212,,intro_3,150246,,instruct,,1,Next,,,,,,,,,,,,,,,,,,,,,,,,,,,,
null,,prac_atten_color_black,151213,,black_plus_sign,,,,null,,,,,,,,,,,,,,,,,,,,,,,,,,,
null,,prac_atten_color,151650,,prac_stop_color,,,,null,,,,,,,,,,,,,,,,,,,,,,,,,,,
27.69999998807907,,prac_atten_color_black,153666,,black_plus_sign,,,,49,,,,,,,,,,,,,,,,,,,,,,,,,,,
null,,prac_atten_color_black,154633,,black_plus_sign,,,,null,,,,,,,,,,,,,,,,,,,,,,,,,,,
null,,prac_atten_color,155210,,prac_stop_color,,,,null,,,,,,,,,,,,,,,,,,,,,,,,,,,
192,,prac_atten_color_black,157213,,black_plus_sign,,,,50,,,,,,,,,,,,,,,,,,,,,,,,,,,
null,,prac_atten_color_black,158040,,black_plus_sign,,,,null,,,,,,,,,,,,,,,,,,,,,,,,,,,
null,,prac_atten_color,159024,,prac_stop_color,,,,null,,,,,,,,,,,,,,,,,,,,,,,,,,,
149,,prac_atten_color_black,161026,,black_plus_sign,,,,50,,,,,,,,,,,,,,,,,,,,,,,,,,,
null,,prac_atten_color_black,161445,,black_plus_sign,,,,null,,,,,,,,,,,,,,,,,,,,,,,,,,,
360.10000002384186,,prac_atten_color,162420,,prac_stop_color,,,,49,,,,,,,,,,,,,,,,,,,,,,,,,,,
null,,prac_atten_color_black,164422,,black_plus_sign,,,,null,,,,,,,,,,,,,,,,,,,,,,,,,,,
null,,prac_atten_color_black,164851,,black_plus_sign,,,,null,,,,,,,,,,,,,,,,,,,,,,,,,,,
509.69999998807907,,prac_atten_color,165593,,prac_stop_color,,,,50,,,,,,,,,,,,,,,,,,,,,,,,,,,
null,,prac_atten_color_black,167595,,black_plus_sign,,,,null,,,,,,,,,,,,,,,,,,,,,,,,,,,
null,,prac_atten_color_black,168256,,black_plus_sign,,,,null,,,,,,,,,,,,,,,,,,,,,,,,,,,
385.39999997615814,,prac_atten_color,168768,,prac_stop_color,,,,50,,,,,,,,,,,,,,,,,,,,,,,,,,,
null,,prac_atten_color_black,170770,,black_plus_sign,,,,null,,,,,,,,,,,,,,,,,,,,,,,,,,,
null,,prac_atten_color_black,171662,,black_plus_sign,,,,null,,,,,,,,,,,,,,,,,,,,,,,,,,,
null,,prac_atten_color,172149,,prac_stop_color,,,,null,,,,,,,,,,,,,,,,,,,,,,,,,,,
18.69999998807907,,prac_atten_color_black,174150,,black_plus_sign,,,,49,,,,,,,,,,,,,,,,,,,,,,,,,,,
null,,prac_atten_color_black,175067,,black_plus_sign,,,,null,,,,,,,,,,,,,,,,,,,,,,,,,,,
404.69999998807907,,prac_atten_color,175621,,prac_stop_color,,,,50,,,,,,,,,,,,,,,,,,,,,,,,,,,
null,,prac_atten_color_black,177623,,black_plus_sign,,,,null,,,,,,,,,,,,,,,,,,,,,,,,,,,
null,,prac_atten_color_black,178479,,black_plus_sign,,,,null,,,,,,,,,,,,,,,,,,,,,,,,,,,
298.89999997615814,,prac_atten_color,179197,,prac_stop_color,,,,49,,,,,,,,,,,,,,,,,,,,,,,,,,,
null,,prac_atten_color_black,181198,,black_plus_sign,,,,null,,,,,,,,,,,,,,,,,,,,,,,,,,,
null,,prac_atten_color_black,181885,,black_plus_sign,,,,null,,,,,,,,,,,,,,,,,,,,,,,,,,,
436,,prac_atten_color,182914,,prac_stop_color,,,,49,,,,,,,,,,,,,,,,,,,,,,,,,,,
null,,prac_atten_color_black,184916,,black_plus_sign,,,,null,,,,,,,,,,,,,,,,,,,,,,,,,,,
7791.5,,attentioncheck_feedback,192709,,cross_check_feedback,,0,,,,,,,,,,,,,,,,,,,,,,,,,,,,,
18662.29999998212,,last_instruct,211371,,instruct,,,,32,,,,,,,,,,,,,,,,,,,,,,,,,,,
null,,learn_phase(without_color),214372,,black_plus_sign,,,,null,GW/leesburg.png,GW/carmel.png,,,,,,,,,,,,,,,,,,,,,,,,,
null,,black_cross(without_color),215355,,yellow,,,,null,GW/leesburg.png,GW/carmel.png,,,,,,,,,,,,,,,,,,,,,,,,,
367.59999999403954,,rt_plussign_withcolor,215857,,yellow,,,,49,GW/leesburg.png,GW/carmel.png,,,,,,,,,,,,,,,,,,,,,,,,,
null,,rt_thecrossant_black,216881,,black_plus_sign,,,,null,,,0,0,,,,,,,,,,,,,,,,,,,,,,,
null,,color_black,216984,,black_plus_sign,,,,null,,,,,,,,,,,,,,,,,,,,,,,,,,,
null,,learn_phase(without_color),219986,,black_plus_sign,,,,null,GW/gatlinburg.png,GW/boulder.png,,,,,,,,,,,,,,,,,,,,,,,,,
null,,black_cross(without_color),221006,,blue,,,,null,GW/gatlinburg.png,GW/boulder.png,,,,,,,,,,,,,,,,,,,,,,,,,
384.7999999821186,,rt_plussign_withcolor,221508,,blue,,,,49,GW/gatlinburg.png,GW/boulder.png,,,,,,,,,,,,,,,,,,,,,,,,,
null,,rt_thecrossant_black,222492,,black_plus_sign,,,,null,,,1,0.5,,,,,,,,,,,,,,,,,,,,,,,
null,,color_black,222594,,black_plus_sign,,,,null,,,,,,,,,,,,,,,,,,,,,,,,,,,
null,,learn_phase(without_color),225597,,black_plus_sign,,,,null,GW/boulder.png,GW/huntsville.png,,,,,,,,,,,,,,,,,,,,,,,,,
null,,black_cross(without_color),226551,,blue,,,,null,GW/boulder.png,GW/huntsville.png,,,,,,,,,,,,,,,,,,,,,,,,,
440.80000001192093,,rt_plussign_withcolor,227052,,blue,,,,49,GW/boulder.png,GW/huntsville.png,,,,,,,,,,,,,,,,,,,,,,,,,
null,,rt_thecrossant_black,228115,,black_plus_sign,,,,null,,,1,0.6666666666666666,,,,,,,,,,,,,,,,,,,,,,,
null,,color_black,228216,,black_plus_sign,,,,null,,,,,,,,,,,,,,,,,,,,,,,,,,,
null,,learn_phase(without_color),231220,,black_plus_sign,,,,null,GW/hanover.png,GW/newhope.png,,,,,,,,,,,,,,,,,,,,,,,,,
null,,black_cross(without_color),231903,,blue,,,,null,GW/hanover.png,GW/newhope.png,,,,,,,,,,,,,,,,,,,,,,,,,
446.80000001192093,,rt_plussign_withcolor,232404,,blue,,,,49,GW/hanover.png,GW/newhope.png,,,,,,,,,,,,,,,,,,,,,,,,,
null,,rt_thecrossant_black,233725,,black_plus_sign,,,,null,,,1,0.75,,,,,,,,,,,,,,,,,,,,,,,
null,,color_black,233827,,black_plus_sign,,,,null,,,,,,,,,,,,,,,,,,,,,,,,,,,
null,,learn_phase(without_color),236829,,black_plus_sign,,,,null,GW/carmel.png,GW/leesburg.png,,,,,,,,,,,,,,,,,,,,,,,,,
null,,black_cross(without_color),237731,,yellow,,,,null,GW/carmel.png,GW/leesburg.png,,,,,,,,,,,,,,,,,,,,,,,,,
408.19999998807907,,rt_plussign_withcolor,238233,,yellow,,,,50,GW/carmel.png,GW/leesburg.png,,,,,,,,,,,,,,,,,,,,,,,,,
null,,rt_thecrossant_black,239335,,black_plus_sign,,,,null,,,1,0.8,,,,,,,,,,,,,,,,,,,,,,,
null,,color_black,239437,,black_plus_sign,,,,null,,,,,,,,,,,,,,,,,,,,,,,,,,,
null,,learn_phase(without_color),242439,,black_plus_sign,,,,null,GW/hotsprings.png,GW/huntsville.png,,,,,,,,,,,,,,,,,,,,,,,,,
null,,black_cross(without_color),243338,,blue,,,,null,GW/hotsprings.png,GW/huntsville.png,,,,,,,,,,,,,,,,,,,,,,,,,
416.80000001192093,,rt_plussign_withcolor,243839,,blue,,,,49,GW/hotsprings.png,GW/huntsville.png,,,,,,,,,,,,,,,,,,,,,,,,,
null,,rt_thecrossant_black,244945,,black_plus_sign,,,,null,,,1,0.8333333333333334,,,,,,,,,,,,,,,,,,,,,,,
null,,color_black,245047,,black_plus_sign,,,,null,,,,,,,,,,,,,,,,,,,,,,,,,,,
null,,learn_phase(without_color),248049,,black_plus_sign,,,,null,GW/peoria.png,GW/racine.png,,,,,,,,,,,,,,,,,,,,,,,,,
null,,black_cross(without_color),249145,,yellow,,,,null,GW/peoria.png,GW/racine.png,,,,,,,,,,,,,,,,,,,,,,,,,
407.90000000596046,,rt_plussign_withcolor,249646,,yellow,,,,50,GW/peoria.png,GW/racine.png,,,,,,,,,,,,,,,,,,,,,,,,,
null,,rt_thecrossant_black,250558,,black_plus_sign,,,,null,,,1,0.8571428571428571,,,,,,,,,,,,,,,,,,,,,,,
null,,color_black,250667,,black_plus_sign,,,,null,,,,,,,,,,,,,,,,,,,,,,,,,,,
null,,learn_phase(without_color),253669,,black_plus_sign,,,,null,GW/hotsprings.png,GW/newhope.png,,,,,,,,,,,,,,,,,,,,,,,,,
null,,black_cross(without_color),254574,,blue,,,,null,GW/hotsprings.png,GW/newhope.png,,,,,,,,,,,,,,,,,,,,,,,,,
null,,rt_plussign_withcolor,255075,,blue,,,,null,GW/hotsprings.png,GW/newhope.png,,,,,,,,,,,,,,,,,,,,,,,,,
1274.4000000059605,,rt_thecrossant_black,256174,,black_plus_sign,,,,49,,,1,0.875,,,,,,,,,,,,,,,,,,,,,,,
null,,color_black,256276,,black_plus_sign,,,,null,,,,,,,,,,,,,,,,,,,,,,,,,,,
null,,learn_phase(without_color),259278,,black_plus_sign,,,,null,GW/boulder.png,GW/shreveport.png,,,,,,,,,,,,,,,,,,,,,,,,,
null,,black_cross(without_color),260123,,blue,,,,null,GW/boulder.png,GW/shreveport.png,,,,,,,,,,,,,,,,,,,,,,,,,
null,,rt_plussign_withcolor,260625,,blue,,,,null,GW/boulder.png,GW/shreveport.png,,,,,,,,,,,,,,,,,,,,,,,,,
1045.7000000178814,,rt_thecrossant_black,261783,,black_plus_sign,,,,49,,,1,0.8888888888888888,,,,,,,,,,,,,,,,,,,,,,,
null,,color_black,261884,,black_plus_sign,,,,null,,,,,,,,,,,,,,,,,,,,,,,,,,,
null,,learn_phase(without_color),264886,,black_plus_sign,,,,null,GW/gatlinburg.png,GW/boulder.png,,,,,,,,,,,,,,,,,,,,,,,,,
null,,black_cross(without_color),265500,,yellow,,,,null,GW/gatlinburg.png,GW/boulder.png,,,,,,,,,,,,,,,,,,,,,,,,,
379.19999998807907,,rt_plussign_withcolor,266002,,yellow,,,,50,GW/gatlinburg.png,GW/boulder.png,,,,,,,,,,,,,,,,,,,,,,,,,
null,,rt_thecrossant_black,267393,,black_plus_sign,,,,null,,,1,0.9,,,,,,,,,,,,,,,,,,,,,,,
null,,color_black,267496,,black_plus_sign,,,,null,,,,,,,,,,,,,,,,,,,,,,,,,,,
null,,learn_phase(without_color),270508,,black_plus_sign,,,,null,GW/hanover.png,GW/racine.png,,,,,,,,,,,,,,,,,,,,,,,,,
null,,black_cross(without_color),271404,,yellow,,,,null,GW/hanover.png,GW/racine.png,,,,,,,,,,,,,,,,,,,,,,,,,
381.59999999403954,,rt_plussign_withcolor,271906,,yellow,,,,50,GW/hanover.png,GW/racine.png,,,,,,,,,,,,,,,,,,,,,,,,,
null,,rt_thecrossant_black,273012,,black_plus_sign,,,,null,,,1,0.9090909090909091,,,,,,,,,,,,,,,,,,,,,,,
null,,color_black,273114,,black_plus_sign,,,,null,,,,,,,,,,,,,,,,,,,,,,,,,,,
null,,learn_phase(without_color),276117,,black_plus_sign,,,,null,GW/boulder.png,GW/shreveport.png,,,,,,,,,,,,,,,,,,,,,,,,,
null,,black_cross(without_color),276739,,blue,,,,null,GW/boulder.png,GW/shreveport.png,,,,,,,,,,,,,,,,,,,,,,,,,
null,,rt_plussign_withcolor,277240,,blue,,,,null,GW/boulder.png,GW/shreveport.png,,,,,,,,,,,,,,,,,,,,,,,,,
1234.5,,rt_thecrossant_black,278621,,black_plus_sign,,,,49,,,1,0.9166666666666666,,,,,,,,,,,,,,,,,,,,,,,
null,,color_black,278723,,black_plus_sign,,,,null,,,,,,,,,,,,,,,,,,,,,,,,,,,
null,,learn_phase(without_color),281734,,black_plus_sign,,,,null,GW/shreveport.png,GW/boulder.png,,,,,,,,,,,,,,,,,,,,,,,,,
null,,black_cross(without_color),282753,,blue,,,,null,GW/shreveport.png,GW/boulder.png,,,,,,,,,,,,,,,,,,,,,,,,,
374.69999998807907,,rt_plussign_withcolor,283254,,blue,,,,49,GW/shreveport.png,GW/boulder.png,,,,,,,,,,,,,,,,,,,,,,,,,
null,,rt_thecrossant_black,284239,,black_plus_sign,,,,null,,,1,0.9230769230769231,,,,,,,,,,,,,,,,,,,,,,,
null,,color_black,284341,,black_plus_sign,,,,null,,,,,,,,,,,,,,,,,,,,,,,,,,,
null,,learn_phase(without_color),287343,,black_plus_sign,,,,null,GW/boulder.png,GW/cornwall.png,,,,,,,,,,,,,,,,,,,,,,,,,
null,,black_cross(without_color),287916,,yellow,,,,null,GW/boulder.png,GW/cornwall.png,,,,,,,,,,,,,,,,,,,,,,,,,
466.2000000178814,,rt_plussign_withcolor,288418,,yellow,,,,50,GW/boulder.png,GW/cornwall.png,,,,,,,,,,,,,,,,,,,,,,,,,
null,,rt_thecrossant_black,289849,,black_plus_sign,,,,null,,,1,0.9285714285714286,,,,,,,,,,,,,,,,,,,,,,,
null,,color_black,289951,,black_plus_sign,,,,null,,,,,,,,,,,,,,,,,,,,,,,,,,,
null,,learn_phase(without_color),292963,,black_plus_sign,,,,null,GW/cornwall.png,GW/shreveport.png,,,,,,,,,,,,,,,,,,,,,,,,,
null,,black_cross(without_color),293387,,yellow,,,,null,GW/cornwall.png,GW/shreveport.png,,,,,,,,,,,,,,,,,,,,,,,,,
404.40000000596046,,rt_plussign_withcolor,293888,,yellow,,,,50,GW/cornwall.png,GW/shreveport.png,,,,,,,,,,,,,,,,,,,,,,,,,
null,,rt_thecrossant_black,295467,,black_plus_sign,,,,null,,,1,0.9333333333333333,,,,,,,,,,,,,,,,,,,,,,,
null,,color_black,295570,,black_plus_sign,,,,null,,,,,,,,,,,,,,,,,,,,,,,,,,,
null,,learn_phase(without_color),298572,,black_plus_sign,,,,null,GW/cornwall.png,GW/boulder.png,,,,,,,,,,,,,,,,,,,,,,,,,
null,,black_cross(without_color),299373,,yellow,,,,null,GW/cornwall.png,GW/boulder.png,,,,,,,,,,,,,,,,,,,,,,,,,
392.5,,rt_plussign_withcolor,299874,,yellow,,,,50,GW/cornwall.png,GW/boulder.png,,,,,,,,,,,,,,,,,,,,,,,,,
null,,rt_thecrossant_black,301077,,black_plus_sign,,,,null,,,1,0.9375,,,,,,,,,,,,,,,,,,,,,,,
null,,color_black,301181,,black_plus_sign,,,,null,,,,,,,,,,,,,,,,,,,,,,,,,,,
null,,learn_phase(without_color),304197,,black_plus_sign,,,,null,GW/peoria.png,GW/racine.png,,,,,,,,,,,,,,,,,,,,,,,,,
null,,black_cross(without_color),305184,,yellow,,,,null,GW/peoria.png,GW/racine.png,,,,,,,,,,,,,,,,,,,,,,,,,
394,,rt_plussign_withcolor,305686,,yellow,,,,50,GW/peoria.png,GW/racine.png,,,,,,,,,,,,,,,,,,,,,,,,,
null,,rt_thecrossant_black,306703,,black_plus_sign,,,,null,,,1,0.9411764705882353,,,,,,,,,,,,,,,,,,,,,,,
null,,color_black,306805,,black_plus_sign,,,,null,,,,,,,,,,,,,,,,,,,,,,,,,,,
null,,learn_phase(without_color),309807,,black_plus_sign,,,,null,GW/cornwall.png,GW/shreveport.png,,,,,,,,,,,,,,,,,,,,,,,,,
null,,black_cross(without_color),310711,,yellow,,,,null,GW/cornwall.png,GW/shreveport.png,,,,,,,,,,,,,,,,,,,,,,,,,
382.40000000596046,,rt_plussign_withcolor,311212,,yellow,,,,50,GW/cornwall.png,GW/shreveport.png,,,,,,,,,,,,,,,,,,,,,,,,,
null,,rt_thecrossant_black,312312,,black_plus_sign,,,,null,,,1,0.9444444444444444,,,,,,,,,,,,,,,,,,,,,,,
null,,color_black,312415,,black_plus_sign,,,,null,,,,,,,,,,,,,,,,,,,,,,,,,,,
null,,learn_phase(without_color),315416,,black_plus_sign,,,,null,GW/newhope.png,GW/hanover.png,,,,,,,,,,,,,,,,,,,,,,,,,
null,,black_cross(without_color),315857,,blue,,,,null,GW/newhope.png,GW/hanover.png,,,,,,,,,,,,,,,,,,,,,,,,,
479.59999999403954,,rt_plussign_withcolor,316359,,blue,,,,49,GW/newhope.png,GW/hanover.png,,,,,,,,,,,,,,,,,,,,,,,,,
null,,rt_thecrossant_black,317921,,black_plus_sign,,,,null,,,1,0.9473684210526315,,,,,,,,,,,,,,,,,,,,,,,
null,,color_black,318022,,black_plus_sign,,,,null,,,,,,,,,,,,,,,,,,,,,,,,,,,
null,,learn_phase(without_color),321024,,black_plus_sign,,,,null,GW/shreveport.png,GW/westpalmbeach.png,,,,,,,,,,,,,,,,,,,,,,,,,
null,,black_cross(without_color),321900,,blue,,,,null,GW/shreveport.png,GW/westpalmbeach.png,,,,,,,,,,,,,,,,,,,,,,,,,
418,,rt_plussign_withcolor,322402,,blue,,,,49,GW/shreveport.png,GW/westpalmbeach.png,,,,,,,,,,,,,,,,,,,,,,,,,
null,,rt_thecrossant_black,323533,,black_plus_sign,,,,null,,,1,0.95,,,,,,,,,,,,,,,,,,,,,,,
null,,color_black,323635,,black_plus_sign,,,,null,,,,,,,,,,,,,,,,,,,,,,,,,,,
null,,learn_phase(without_color),326637,,black_plus_sign,,,,null,GW/newhope.png,GW/hotsprings.png,,,,,,,,,,,,,,,,,,,,,,,,,
null,,black_cross(without_color),327590,,yellow,,,,null,GW/newhope.png,GW/hotsprings.png,,,,,,,,,,,,,,,,,,,,,,,,,
403.7999999821186,,rt_plussign_withcolor,328092,,yellow,,,,50,GW/newhope.png,GW/hotsprings.png,,,,,,,,,,,,,,,,,,,,,,,,,
null,,rt_thecrossant_black,329142,,black_plus_sign,,,,null,,,1,0.9523809523809523,,,,,,,,,,,,,,,,,,,,,,,
null,,color_black,329244,,black_plus_sign,,,,null,,,,,,,,,,,,,,,,,,,,,,,,,,,
null,,learn_phase(without_color),332247,,black_plus_sign,,,,null,GW/hotsprings.png,GW/huntsville.png,,,,,,,,,,,,,,,,,,,,,,,,,
null,,black_cross(without_color),333294,,yellow,,,,null,GW/hotsprings.png,GW/huntsville.png,,,,,,,,,,,,,,,,,,,,,,,,,
438,,rt_plussign_withcolor,333795,,yellow,,,,50,GW/hotsprings.png,GW/huntsville.png,,,,,,,,,,,,,,,,,,,,,,,,,
null,,rt_thecrossant_black,334752,,black_plus_sign,,,,null,,,1,0.9545454545454546,,,,,,,,,,,,,,,,,,,,,,,
null,,color_black,334854,,black_plus_sign,,,,null,,,,,,,,,,,,,,,,,,,,,,,,,,,
null,,learn_phase(without_color),337857,,black_plus_sign,,,,null,GW/newhope.png,GW/hanover.png,,,,,,,,,,,,,,,,,,,,,,,,,
null,,black_cross(without_color),338773,,yellow,,,,null,GW/newhope.png,GW/hanover.png,,,,,,,,,,,,,,,,,,,,,,,,,
null,,rt_plussign_withcolor,339274,,yellow,,,,null,GW/newhope.png,GW/hanover.png,,,,,,,,,,,,,,,,,,,,,,,,,
1344.199999988079,,rt_thecrossant_black,340362,,black_plus_sign,,,,50,,,1,0.9565217391304348,,,,,,,,,,,,,,,,,,,,,,,
null,,color_black,340464,,black_plus_sign,,,,null,,,,,,,,,,,,,,,,,,,,,,,,,,,
null,,learn_phase(without_color),343467,,black_plus_sign,,,,null,GW/boulder.png,GW/gatlinburg.png,,,,,,,,,,,,,,,,,,,,,,,,,
null,,black_cross(without_color),344245,,yellow,,,,null,GW/boulder.png,GW/gatlinburg.png,,,,,,,,,,,,,,,,,,,,,,,,,
429.2999999821186,,rt_plussign_withcolor,344746,,yellow,,,,50,GW/boulder.png,GW/gatlinburg.png,,,,,,,,,,,,,,,,,,,,,,,,,
null,,rt_thecrossant_black,345973,,black_plus_sign,,,,null,,,1,0.9583333333333334,,,,,,,,,,,,,,,,,,,,,,,
null,,color_black,346076,,black_plus_sign,,,,null,,,,,,,,,,,,,,,,,,,,,,,,,,,
null,,learn_phase(without_color),349079,,black_plus_sign,,,,null,GW/boulder.png,GW/gatlinburg.png,,,,,,,,,,,,,,,,,,,,,,,,,
null,,black_cross(without_color),350080,,blue,,,,null,GW/boulder.png,GW/gatlinburg.png,,,,,,,,,,,,,,,,,,,,,,,,,
409.40000000596046,,rt_plussign_withcolor,350582,,blue,,,,49,GW/boulder.png,GW/gatlinburg.png,,,,,,,,,,,,,,,,,,,,,,,,,
null,,rt_thecrossant_black,351585,,black_plus_sign,,,,null,,,1,0.96,,,,,,,,,,,,,,,,,,,,,,,
null,,color_black,351688,,black_plus_sign,,,,null,,,,,,,,,,,,,,,,,,,,,,,,,,,
null,,learn_phase(without_color),354689,,black_plus_sign,,,,null,GW/newhope.png,GW/hanover.png,,,,,,,,,,,,,,,,,,,,,,,,,
null,,black_cross(without_color),355296,,blue,,,,null,GW/newhope.png,GW/hanover.png,,,,,,,,,,,,,,,,,,,,,,,,,
388.2999999821186,,rt_plussign_withcolor,355797,,blue,,,,49,GW/newhope.png,GW/hanover.png,,,,,,,,,,,,,,,,,,,,,,,,,
null,,rt_thecrossant_black,357196,,black_plus_sign,,,,null,,,1,0.9615384615384616,,,,,,,,,,,,,,,,,,,,,,,
null,,color_black,357297,,black_plus_sign,,,,null,,,,,,,,,,,,,,,,,,,,,,,,,,,
null,,learn_phase(without_color),360299,,black_plus_sign,,,,null,GW/cornwall.png,GW/newhope.png,,,,,,,,,,,,,,,,,,,,,,,,,
null,,black_cross(without_color),361082,,yellow,,,,null,GW/cornwall.png,GW/newhope.png,,,,,,,,,,,,,,,,,,,,,,,,,
null,,rt_plussign_withcolor,361583,,yellow,,,,null,GW/cornwall.png,GW/newhope.png,,,,,,,,,,,,,,,,,,,,,,,,,
782.9000000059605,,rt_thecrossant_black,362805,,black_plus_sign,,,,50,,,1,0.9629629629629629,,,,,,,,,,,,,,,,,,,,,,,
null,,color_black,362907,,black_plus_sign,,,,null,,,,,,,,,,,,,,,,,,,,,,,,,,,
null,,learn_phase(without_color),365910,,black_plus_sign,,,,null,GW/newhope.png,GW/hanover.png,,,,,,,,,,,,,,,,,,,,,,,,,
null,,black_cross(without_color),366739,,blue,,,,null,GW/newhope.png,GW/hanover.png,,,,,,,,,,,,,,,,,,,,,,,,,
null,,rt_plussign_withcolor,367251,,blue,,,,null,GW/newhope.png,GW/hanover.png,,,,,,,,,,,,,,,,,,,,,,,,,
910.1999999880791,,rt_thecrossant_black,368426,,black_plus_sign,,,,49,,,1,0.9642857142857143,,,,,,,,,,,,,,,,,,,,,,,
null,,color_black,368528,,black_plus_sign,,,,null,,,,,,,,,,,,,,,,,,,,,,,,,,,
null,,learn_phase(without_color),371531,,black_plus_sign,,,,null,GW/leesburg.png,GW/carmel.png,,,,,,,,,,,,,,,,,,,,,,,,,
null,,black_cross(without_color),372265,,yellow,,,,null,GW/leesburg.png,GW/carmel.png,,,,,,,,,,,,,,,,,,,,,,,,,
475.09999999403954,,rt_plussign_withcolor,372767,,yellow,,,,50,GW/leesburg.png,GW/carmel.png,,,,,,,,,,,,,,,,,,,,,,,,,
null,,rt_thecrossant_black,374037,,black_plus_sign,,,,null,,,1,0.9655172413793104,,,,,,,,,,,,,,,,,,,,,,,
null,,color_black,374139,,black_plus_sign,,,,null,,,,,,,,,,,,,,,,,,,,,,,,,,,
null,,learn_phase(without_color),377141,,black_plus_sign,,,,null,GW/racine.png,GW/carmel.png,,,,,,,,,,,,,,,,,,,,,,,,,
null,,black_cross(without_color),378027,,blue,,,,null,GW/racine.png,GW/carmel.png,,,,,,,,,,,,,,,,,,,,,,,,,
457.80000001192093,,rt_plussign_withcolor,378529,,blue,,,,49,GW/racine.png,GW/carmel.png,,,,,,,,,,,,,,,,,,,,,,,,,
null,,rt_thecrossant_black,379648,,black_plus_sign,,,,null,,,1,0.9666666666666667,,,,,,,,,,,,,,,,,,,,,,,
null,,color_black,379750,,black_plus_sign,,,,null,,,,,,,,,,,,,,,,,,,,,,,,,,,
null,,learn_phase(without_color),382752,,black_plus_sign,,,,null,GW/peoria.png,GW/racine.png,,,,,,,,,,,,,,,,,,,,,,,,,
null,,black_cross(without_color),383576,,blue,,,,null,GW/peoria.png,GW/racine.png,,,,,,,,,,,,,,,,,,,,,,,,,
null,,rt_plussign_withcolor,384078,,blue,,,,null,GW/peoria.png,GW/racine.png,,,,,,,,,,,,,,,,,,,,,,,,,
1021.4000000059605,,rt_thecrossant_black,385257,,black_plus_sign,,,,49,,,1,0.967741935483871,,,,,,,,,,,,,,,,,,,,,,,
null,,color_black,385359,,black_plus_sign,,,,null,,,,,,,,,,,,,,,,,,,,,,,,,,,
null,,learn_phase(without_color),388361,,black_plus_sign,,,,null,GW/peoria.png,GW/racine.png,,,,,,,,,,,,,,,,,,,,,,,,,
null,,black_cross(without_color),389424,,blue,,,,null,GW/peoria.png,GW/racine.png,,,,,,,,,,,,,,,,,,,,,,,,,
411,,rt_plussign_withcolor,389925,,blue,,,,49,GW/peoria.png,GW/racine.png,,,,,,,,,,,,,,,,,,,,,,,,,
null,,rt_thecrossant_black,390867,,black_plus_sign,,,,null,,,1,0.96875,,,,,,,,,,,,,,,,,,,,,,,
null,,color_black,390969,,black_plus_sign,,,,null,,,,,,,,,,,,,,,,,,,,,,,,,,,
null,,learn_phase(without_color),393972,,black_plus_sign,,,,null,GW/boulder.png,GW/cornwall.png,,,,,,,,,,,,,,,,,,,,,,,,,
null,,black_cross(without_color),394935,,yellow,,,,null,GW/boulder.png,GW/cornwall.png,,,,,,,,,,,,,,,,,,,,,,,,,
362.69999998807907,,rt_plussign_withcolor,395436,,yellow,,,,50,GW/boulder.png,GW/cornwall.png,,,,,,,,,,,,,,,,,,,,,,,,,
null,,rt_thecrossant_black,396477,,black_plus_sign,,,,null,,,1,0.9696969696969697,,,,,,,,,,,,,,,,,,,,,,,
null,,color_black,396580,,black_plus_sign,,,,null,,,,,,,,,,,,,,,,,,,,,,,,,,,
null,,learn_phase(without_color),399582,,black_plus_sign,,,,null,GW/hotsprings.png,GW/newhope.png,,,,,,,,,,,,,,,,,,,,,,,,,
null,,black_cross(without_color),400382,,blue,,,,null,GW/hotsprings.png,GW/newhope.png,,,,,,,,,,,,,,,,,,,,,,,,,
370.30000001192093,,rt_plussign_withcolor,400883,,blue,,,,49,GW/hotsprings.png,GW/newhope.png,,,,,,,,,,,,,,,,,,,,,,,,,
null,,rt_thecrossant_black,402087,,black_plus_sign,,,,null,,,1,0.9705882352941176,,,,,,,,,,,,,,,,,,,,,,,
null,,color_black,402188,,black_plus_sign,,,,null,,,,,,,,,,,,,,,,,,,,,,,,,,,
null,,learn_phase(without_color),405191,,black_plus_sign,,,,null,GW/hotsprings.png,GW/carmel.png,,,,,,,,,,,,,,,,,,,,,,,,,
null,,black_cross(without_color),405630,,yellow,,,,null,GW/hotsprings.png,GW/carmel.png,,,,,,,,,,,,,,,,,,,,,,,,,
null,,rt_plussign_withcolor,406138,,yellow,,,,null,GW/hotsprings.png,GW/carmel.png,,,,,,,,,,,,,,,,,,,,,,,,,
993.1999999880791,,rt_thecrossant_black,407702,,black_plus_sign,,,,50,,,1,0.9714285714285714,,,,,,,,,,,,,,,,,,,,,,,
null,,color_black,407804,,black_plus_sign,,,,null,,,,,,,,,,,,,,,,,,,,,,,,,,,
null,,learn_phase(without_color),410807,,black_plus_sign,,,,null,GW/carmel.png,GW/racine.png,,,,,,,,,,,,,,,,,,,,,,,,,
null,,black_cross(without_color),411332,,blue,,,,null,GW/carmel.png,GW/racine.png,,,,,,,,,,,,,,,,,,,,,,,,,
355.80000001192093,,rt_plussign_withcolor,411834,,blue,,,,49,GW/carmel.png,GW/racine.png,,,,,,,,,,,,,,,,,,,,,,,,,
null,,rt_thecrossant_black,413314,,black_plus_sign,,,,null,,,1,0.9722222222222222,,,,,,,,,,,,,,,,,,,,,,,
null,,color_black,413416,,black_plus_sign,,,,null,,,,,,,,,,,,,,,,,,,,,,,,,,,
null,,learn_phase(without_color),416418,,black_plus_sign,,,,null,GW/cornwall.png,GW/newhope.png,,,,,,,,,,,,,,,,,,,,,,,,,
null,,black_cross(without_color),417340,,blue,,,,null,GW/cornwall.png,GW/newhope.png,,,,,,,,,,,,,,,,,,,,,,,,,
388.7000000178814,,rt_plussign_withcolor,417841,,blue,,,,49,GW/cornwall.png,GW/newhope.png,,,,,,,,,,,,,,,,,,,,,,,,,
null,,rt_thecrossant_black,418923,,black_plus_sign,,,,null,,,1,0.972972972972973,,,,,,,,,,,,,,,,,,,,,,,
null,,color_black,419025,,black_plus_sign,,,,null,,,,,,,,,,,,,,,,,,,,,,,,,,,
null,,learn_phase(without_color),422027,,black_plus_sign,,,,null,GW/hotsprings.png,GW/newhope.png,,,,,,,,,,,,,,,,,,,,,,,,,
null,,black_cross(without_color),422977,,yellow,,,,null,GW/hotsprings.png,GW/newhope.png,,,,,,,,,,,,,,,,,,,,,,,,,
318.5,,rt_plussign_withcolor,423479,,yellow,,,,50,GW/hotsprings.png,GW/newhope.png,,,,,,,,,,,,,,,,,,,,,,,,,
null,,rt_thecrossant_black,424533,,black_plus_sign,,,,null,,,1,0.9736842105263158,,,,,,,,,,,,,,,,,,,,,,,
null,,color_black,424635,,black_plus_sign,,,,null,,,,,,,,,,,,,,,,,,,,,,,,,,,
null,,learn_phase(without_color),427637,,black_plus_sign,,,,null,GW/huntsville.png,GW/hotsprings.png,,,,,,,,,,,,,,,,,,,,,,,,,
null,,black_cross(without_color),428737,,blue,,,,null,GW/huntsville.png,GW/hotsprings.png,,,,,,,,,,,,,,,,,,,,,,,,,
477.09999999403954,,rt_plussign_withcolor,429238,,blue,,,,49,GW/huntsville.png,GW/hotsprings.png,,,,,,,,,,,,,,,,,,,,,,,,,
null,,rt_thecrossant_black,430143,,black_plus_sign,,,,null,,,1,0.9743589743589743,,,,,,,,,,,,,,,,,,,,,,,
null,,color_black,430244,,black_plus_sign,,,,null,,,,,,,,,,,,,,,,,,,,,,,,,,,
null,,learn_phase(without_color),433247,,black_plus_sign,,,,null,GW/hotsprings.png,GW/huntsville.png,,,,,,,,,,,,,,,,,,,,,,,,,
null,,black_cross(without_color),433660,,yellow,,,,null,GW/hotsprings.png,GW/huntsville.png,,,,,,,,,,,,,,,,,,,,,,,,,
469.30000001192093,,rt_plussign_withcolor,434161,,yellow,,,,50,GW/hotsprings.png,GW/huntsville.png,,,,,,,,,,,,,,,,,,,,,,,,,
null,,rt_thecrossant_black,435753,,black_plus_sign,,,,null,,,1,0.975,,,,,,,,,,,,,,,,,,,,,,,
null,,color_black,435856,,black_plus_sign,,,,null,,,,,,,,,,,,,,,,,,,,,,,,,,,
null,,learn_phase(without_color),438857,,black_plus_sign,,,,null,GW/boulder.png,GW/huntsville.png,,,,,,,,,,,,,,,,,,,,,,,,,
null,,black_cross(without_color),439301,,yellow,,,,null,GW/boulder.png,GW/huntsville.png,,,,,,,,,,,,,,,,,,,,,,,,,
500.2000000178814,,rt_plussign_withcolor,439803,,yellow,,,,50,GW/boulder.png,GW/huntsville.png,,,,,,,,,,,,,,,,,,,,,,,,,
null,,rt_thecrossant_black,441362,,black_plus_sign,,,,null,,,1,0.975609756097561,,,,,,,,,,,,,,,,,,,,,,,
null,,color_black,441465,,black_plus_sign,,,,null,,,,,,,,,,,,,,,,,,,,,,,,,,,
null,,learn_phase(without_color),444467,,black_plus_sign,,,,null,GW/huntsville.png,GW/boulder.png,,,,,,,,,,,,,,,,,,,,,,,,,
null,,black_cross(without_color),445324,,blue,,,,null,GW/huntsville.png,GW/boulder.png,,,,,,,,,,,,,,,,,,,,,,,,,
null,,rt_plussign_withcolor,445829,,blue,,,,null,GW/huntsville.png,GW/boulder.png,,,,,,,,,,,,,,,,,,,,,,,,,
635.5999999940395,,rt_thecrossant_black,446975,,black_plus_sign,,,,49,,,1,0.9761904761904762,,,,,,,,,,,,,,,,,,,,,,,
null,,color_black,447076,,black_plus_sign,,,,null,,,,,,,,,,,,,,,,,,,,,,,,,,,
null,,learn_phase(without_color),450079,,black_plus_sign,,,,null,GW/cornwall.png,GW/huntsville.png,,,,,,,,,,,,,,,,,,,,,,,,,
null,,black_cross(without_color),450976,,blue,,,,null,GW/cornwall.png,GW/huntsville.png,,,,,,,,,,,,,,,,,,,,,,,,,
372,,rt_plussign_withcolor,451477,,blue,,,,49,GW/cornwall.png,GW/huntsville.png,,,,,,,,,,,,,,,,,,,,,,,,,
null,,rt_thecrossant_black,452585,,black_plus_sign,,,,null,,,1,0.9767441860465116,,,,,,,,,,,,,,,,,,,,,,,
null,,color_black,452687,,black_plus_sign,,,,null,,,,,,,,,,,,,,,,,,,,,,,,,,,
null,,learn_phase(without_color),455688,,black_plus_sign,,,,null,GW/leesburg.png,GW/carmel.png,,,,,,,,,,,,,,,,,,,,,,,,,
null,,black_cross(without_color),456707,,yellow,,,,null,GW/leesburg.png,GW/carmel.png,,,,,,,,,,,,,,,,,,,,,,,,,
388.2999999821186,,rt_plussign_withcolor,457209,,yellow,,,,50,GW/leesburg.png,GW/carmel.png,,,,,,,,,,,,,,,,,,,,,,,,,
null,,rt_thecrossant_black,458194,,black_plus_sign,,,,null,,,1,0.9772727272727273,,,,,,,,,,,,,,,,,,,,,,,
null,,color_black,458296,,black_plus_sign,,,,null,,,,,,,,,,,,,,,,,,,,,,,,,,,
null,,learn_phase(without_color),461299,,black_plus_sign,,,,null,GW/hotsprings.png,GW/carmel.png,,,,,,,,,,,,,,,,,,,,,,,,,
null,,black_cross(without_color),461805,,blue,,,,null,GW/hotsprings.png,GW/carmel.png,,,,,,,,,,,,,,,,,,,,,,,,,
null,,rt_plussign_withcolor,462310,,blue,,,,null,GW/hotsprings.png,GW/carmel.png,,,,,,,,,,,,,,,,,,,,,,,,,
1124.7999999821186,,rt_thecrossant_black,463808,,black_plus_sign,,,,49,,,1,0.9777777777777777,,,,,,,,,,,,,,,,,,,,,,,
null,,color_black,463911,,black_plus_sign,,,,null,,,,,,,,,,,,,,,,,,,,,,,,,,,
null,,learn_phase(without_color),466914,,black_plus_sign,,,,null,GW/gatlinburg.png,GW/boulder.png,,,,,,,,,,,,,,,,,,,,,,,,,
null,,black_cross(without_color),467878,,yellow,,,,null,GW/gatlinburg.png,GW/boulder.png,,,,,,,,,,,,,,,,,,,,,,,,,
326.30000001192093,,rt_plussign_withcolor,468380,,yellow,,,,50,GW/gatlinburg.png,GW/boulder.png,,,,,,,,,,,,,,,,,,,,,,,,,
null,,rt_thecrossant_black,469421,,black_plus_sign,,,,null,,,1,0.9782608695652174,,,,,,,,,,,,,,,,,,,,,,,
null,,color_black,469523,,black_plus_sign,,,,null,,,,,,,,,,,,,,,,,,,,,,,,,,,
null,,learn_phase(without_color),472525,,black_plus_sign,,,,null,GW/hotsprings.png,GW/carmel.png,,,,,,,,,,,,,,,,,,,,,,,,,
null,,black_cross(without_color),473208,,yellow,,,,null,GW/hotsprings.png,GW/carmel.png,,,,,,,,,,,,,,,,,,,,,,,,,
388.90000000596046,,rt_plussign_withcolor,473710,,yellow,,,,50,GW/hotsprings.png,GW/carmel.png,,,,,,,,,,,,,,,,,,,,,,,,,
null,,rt_thecrossant_black,475031,,black_plus_sign,,,,null,,,1,0.9787234042553191,,,,,,,,,,,,,,,,,,,,,,,
null,,color_black,475133,,black_plus_sign,,,,null,,,,,,,,,,,,,,,,,,,,,,,,,,,
null,,learn_phase(without_color),478135,,black_plus_sign,,,,null,GW/boulder.png,GW/shreveport.png,,,,,,,,,,,,,,,,,,,,,,,,,
null,,black_cross(without_color),478565,,yellow,,,,null,GW/boulder.png,GW/shreveport.png,,,,,,,,,,,,,,,,,,,,,,,,,
455.09999999403954,,rt_plussign_withcolor,479067,,yellow,,,,50,GW/boulder.png,GW/shreveport.png,,,,,,,,,,,,,,,,,,,,,,,,,
null,,rt_thecrossant_black,480642,,black_plus_sign,,,,null,,,1,0.9791666666666666,,,,,,,,,,,,,,,,,,,,,,,
null,,color_black,480744,,black_plus_sign,,,,null,,,,,,,,,,,,,,,,,,,,,,,,,,,
null,,learn_phase(without_color),483747,,black_plus_sign,,,,null,GW/gatlinburg.png,GW/boulder.png,,,,,,,,,,,,,,,,,,,,,,,,,
null,,black_cross(without_color),484747,,yellow,,,,null,GW/gatlinburg.png,GW/boulder.png,,,,,,,,,,,,,,,,,,,,,,,,,
349.90000000596046,,rt_plussign_withcolor,485248,,yellow,,,,50,GW/gatlinburg.png,GW/boulder.png,,,,,,,,,,,,,,,,,,,,,,,,,
null,,rt_thecrossant_black,486255,,black_plus_sign,,,,null,,,1,0.9795918367346939,,,,,,,,,,,,,,,,,,,,,,,
null,,color_black,486357,,black_plus_sign,,,,null,,,,,,,,,,,,,,,,,,,,,,,,,,,
null,,learn_phase(without_color),489358,,black_plus_sign,,,,null,GW/newhope.png,GW/hanover.png,,,,,,,,,,,,,,,,,,,,,,,,,
null,,black_cross(without_color),489808,,blue,,,,null,GW/newhope.png,GW/hanover.png,,,,,,,,,,,,,,,,,,,,,,,,,
414.5,,rt_plussign_withcolor,490309,,blue,,,,49,GW/newhope.png,GW/hanover.png,,,,,,,,,,,,,,,,,,,,,,,,,
null,,rt_thecrossant_black,491864,,black_plus_sign,,,,null,,,1,0.98,,,,,,,,,,,,,,,,,,,,,,,
null,,color_black,491966,,black_plus_sign,,,,null,,,,,,,,,,,,,,,,,,,,,,,,,,,
null,,learn_phase(without_color),494968,,black_plus_sign,,,,null,GW/newhope.png,GW/cornwall.png,,,,,,,,,,,,,,,,,,,,,,,,,
null,,black_cross(without_color),496034,,yellow,,,,null,GW/newhope.png,GW/cornwall.png,,,,,,,,,,,,,,,,,,,,,,,,,
363.90000000596046,,rt_plussign_withcolor,496536,,yellow,,,,50,GW/newhope.png,GW/cornwall.png,,,,,,,,,,,,,,,,,,,,,,,,,
null,,rt_thecrossant_black,497476,,black_plus_sign,,,,null,,,1,0.9803921568627451,,,,,,,,,,,,,,,,,,,,,,,
null,,color_black,497578,,black_plus_sign,,,,null,,,,,,,,,,,,,,,,,,,,,,,,,,,
null,,learn_phase(without_color),500580,,black_plus_sign,,,,null,GW/boulder.png,GW/huntsville.png,,,,,,,,,,,,,,,,,,,,,,,,,
null,,black_cross(without_color),501147,,yellow,,,,null,GW/boulder.png,GW/huntsville.png,,,,,,,,,,,,,,,,,,,,,,,,,
407.39999997615814,,rt_plussign_withcolor,501648,,yellow,,,,50,GW/boulder.png,GW/huntsville.png,,,,,,,,,,,,,,,,,,,,,,,,,
null,,rt_thecrossant_black,503086,,black_plus_sign,,,,null,,,1,0.9807692307692307,,,,,,,,,,,,,,,,,,,,,,,
null,,color_black,503188,,black_plus_sign,,,,null,,,,,,,,,,,,,,,,,,,,,,,,,,,
null,,learn_phase(without_color),506190,,black_plus_sign,,,,null,GW/boulder.png,GW/huntsville.png,,,,,,,,,,,,,,,,,,,,,,,,,
null,,black_cross(without_color),506595,,yellow,,,,null,GW/boulder.png,GW/huntsville.png,,,,,,,,,,,,,,,,,,,,,,,,,
460.59999999403954,,rt_plussign_withcolor,507097,,yellow,,,,50,GW/boulder.png,GW/huntsville.png,,,,,,,,,,,,,,,,,,,,,,,,,
null,,rt_thecrossant_black,508696,,black_plus_sign,,,,null,,,1,0.9811320754716981,,,,,,,,,,,,,,,,,,,,,,,
null,,color_black,508797,,black_plus_sign,,,,null,,,,,,,,,,,,,,,,,,,,,,,,,,,
null,,learn_phase(without_color),511800,,black_plus_sign,,,,null,GW/carmel.png,GW/leesburg.png,,,,,,,,,,,,,,,,,,,,,,,,,
null,,black_cross(without_color),512345,,yellow,,,,null,GW/carmel.png,GW/leesburg.png,,,,,,,,,,,,,,,,,,,,,,,,,
380.19999998807907,,rt_plussign_withcolor,512847,,yellow,,,,50,GW/carmel.png,GW/leesburg.png,,,,,,,,,,,,,,,,,,,,,,,,,
null,,rt_thecrossant_black,514307,,black_plus_sign,,,,null,,,1,0.9814814814814815,,,,,,,,,,,,,,,,,,,,,,,
null,,color_black,514409,,black_plus_sign,,,,null,,,,,,,,,,,,,,,,,,,,,,,,,,,
null,,learn_phase(without_color),517412,,black_plus_sign,,,,null,GW/carmel.png,GW/leesburg.png,,,,,,,,,,,,,,,,,,,,,,,,,
null,,black_cross(without_color),517929,,yellow,,,,null,GW/carmel.png,GW/leesburg.png,,,,,,,,,,,,,,,,,,,,,,,,,
358,,rt_plussign_withcolor,518431,,yellow,,,,50,GW/carmel.png,GW/leesburg.png,,,,,,,,,,,,,,,,,,,,,,,,,
null,,rt_thecrossant_black,519933,,black_plus_sign,,,,null,,,1,0.9818181818181818,,,,,,,,,,,,,,,,,,,,,,,
null,,color_black,520036,,black_plus_sign,,,,null,,,,,,,,,,,,,,,,,,,,,,,,,,,
null,,learn_phase(without_color),523038,,black_plus_sign,,,,null,GW/cornwall.png,GW/newhope.png,,,,,,,,,,,,,,,,,,,,,,,,,
null,,black_cross(without_color),523884,,yellow,,,,null,GW/cornwall.png,GW/newhope.png,,,,,,,,,,,,,,,,,,,,,,,,,
392.30000001192093,,rt_plussign_withcolor,524385,,yellow,,,,50,GW/cornwall.png,GW/newhope.png,,,,,,,,,,,,,,,,,,,,,,,,,
null,,rt_thecrossant_black,525544,,black_plus_sign,,,,null,,,1,0.9821428571428571,,,,,,,,,,,,,,,,,,,,,,,
null,,color_black,525660,,black_plus_sign,,,,null,,,,,,,,,,,,,,,,,,,,,,,,,,,
null,,learn_phase(without_color),528676,,black_plus_sign,,,,null,GW/carmel.png,GW/hotsprings.png,,,,,,,,,,,,,,,,,,,,,,,,,
null,,black_cross(without_color),529305,,blue,,,,null,GW/carmel.png,GW/hotsprings.png,,,,,,,,,,,,,,,,,,,,,,,,,
422.30000001192093,,rt_plussign_withcolor,529806,,blue,,,,49,GW/carmel.png,GW/hotsprings.png,,,,,,,,,,,,,,,,,,,,,,,,,
null,,rt_thecrossant_black,531182,,black_plus_sign,,,,null,,,1,0.9824561403508771,,,,,,,,,,,,,,,,,,,,,,,
null,,color_black,531284,,black_plus_sign,,,,null,,,,,,,,,,,,,,,,,,,,,,,,,,,
null,,learn_phase(without_color),534286,,black_plus_sign,,,,null,GW/cornwall.png,GW/huntsville.png,,,,,,,,,,,,,,,,,,,,,,,,,
null,,black_cross(without_color),535380,,blue,,,,null,GW/cornwall.png,GW/huntsville.png,,,,,,,,,,,,,,,,,,,,,,,,,
392.7000000178814,,rt_plussign_withcolor,535882,,blue,,,,49,GW/cornwall.png,GW/huntsville.png,,,,,,,,,,,,,,,,,,,,,,,,,
null,,rt_thecrossant_black,536791,,black_plus_sign,,,,null,,,1,0.9827586206896551,,,,,,,,,,,,,,,,,,,,,,,
null,,color_black,536893,,black_plus_sign,,,,null,,,,,,,,,,,,,,,,,,,,,,,,,,,
null,,learn_phase(without_color),539895,,black_plus_sign,,,,null,GW/leesburg.png,GW/carmel.png,,,,,,,,,,,,,,,,,,,,,,,,,
null,,black_cross(without_color),540318,,blue,,,,null,GW/leesburg.png,GW/carmel.png,,,,,,,,,,,,,,,,,,,,,,,,,
422.5,,rt_plussign_withcolor,540819,,blue,,,,49,GW/leesburg.png,GW/carmel.png,,,,,,,,,,,,,,,,,,,,,,,,,
null,,rt_thecrossant_black,542400,,black_plus_sign,,,,null,,,1,0.9830508474576272,,,,,,,,,,,,,,,,,,,,,,,
null,,color_black,542502,,black_plus_sign,,,,null,,,,,,,,,,,,,,,,,,,,,,,,,,,
null,,learn_phase(without_color),545505,,black_plus_sign,,,,null,GW/boulder.png,GW/shreveport.png,,,,,,,,,,,,,,,,,,,,,,,,,
null,,black_cross(without_color),546373,,yellow,,,,null,GW/boulder.png,GW/shreveport.png,,,,,,,,,,,,,,,,,,,,,,,,,
null,,rt_plussign_withcolor,546875,,yellow,,,,null,GW/boulder.png,GW/shreveport.png,,,,,,,,,,,,,,,,,,,,,,,,,
547.4000000059605,,rt_thecrossant_black,548011,,black_plus_sign,,,,50,,,1,0.9833333333333333,,,,,,,,,,,,,,,,,,,,,,,
null,,color_black,548114,,black_plus_sign,,,,null,,,,,,,,,,,,,,,,,,,,,,,,,,,
null,,learn_phase(without_color),551116,,black_plus_sign,,,,null,GW/newhope.png,GW/hanover.png,,,,,,,,,,,,,,,,,,,,,,,,,
null,,black_cross(without_color),551779,,yellow,,,,null,GW/newhope.png,GW/hanover.png,,,,,,,,,,,,,,,,,,,,,,,,,
378.5,,rt_plussign_withcolor,552280,,yellow,,,,50,GW/newhope.png,GW/hanover.png,,,,,,,,,,,,,,,,,,,,,,,,,
null,,rt_thecrossant_black,553622,,black_plus_sign,,,,null,,,1,0.9836065573770492,,,,,,,,,,,,,,,,,,,,,,,
null,,color_black,553724,,black_plus_sign,,,,null,,,,,,,,,,,,,,,,,,,,,,,,,,,
null,,learn_phase(without_color),556726,,black_plus_sign,,,,null,GW/racine.png,GW/hanover.png,,,,,,,,,,,,,,,,,,,,,,,,,
null,,black_cross(without_color),557767,,yellow,,,,null,GW/racine.png,GW/hanover.png,,,,,,,,,,,,,,,,,,,,,,,,,
424,,rt_plussign_withcolor,558268,,yellow,,,,50,GW/racine.png,GW/hanover.png,,,,,,,,,,,,,,,,,,,,,,,,,
null,,rt_thecrossant_black,559231,,black_plus_sign,,,,null,,,1,0.9838709677419355,,,,,,,,,,,,,,,,,,,,,,,
null,,color_black,559333,,black_plus_sign,,,,null,,,,,,,,,,,,,,,,,,,,,,,,,,,
null,,learn_phase(without_color),562335,,black_plus_sign,,,,null,GW/newhope.png,GW/hanover.png,,,,,,,,,,,,,,,,,,,,,,,,,
null,,black_cross(without_color),563433,,blue,,,,null,GW/newhope.png,GW/hanover.png,,,,,,,,,,,,,,,,,,,,,,,,,
345,,rt_plussign_withcolor,563935,,blue,,,,49,GW/newhope.png,GW/hanover.png,,,,,,,,,,,,,,,,,,,,,,,,,
null,,rt_thecrossant_black,564842,,black_plus_sign,,,,null,,,1,0.9841269841269841,,,,,,,,,,,,,,,,,,,,,,,
null,,color_black,564944,,black_plus_sign,,,,null,,,,,,,,,,,,,,,,,,,,,,,,,,,
null,,learn_phase(without_color),567946,,black_plus_sign,,,,null,GW/newhope.png,GW/cornwall.png,,,,,,,,,,,,,,,,,,,,,,,,,
null,,black_cross(without_color),568482,,blue,,,,null,GW/newhope.png,GW/cornwall.png,,,,,,,,,,,,,,,,,,,,,,,,,
501.60000002384186,,rt_plussign_withcolor,568985,,blue,,,,49,GW/newhope.png,GW/cornwall.png,,,,,,,,,,,,,,,,,,,,,,,,,
null,,rt_thecrossant_black,570452,,black_plus_sign,,,,null,,,1,0.984375,,,,,,,,,,,,,,,,,,,,,,,
null,,color_black,570554,,black_plus_sign,,,,null,,,,,,,,,,,,,,,,,,,,,,,,,,,
25603.19999998808,,learn_break,596159,,learn_break,,,,32,,,,,,,,,,,,,,,,,,,,,,,,,,,
null,,html-keyboard-response,597173,,<p></p>,,,,null,,,,,,,,,,,,,,,,,,,,,,,,,,,
null,,learn_phase(without_color),600175,,black_plus_sign,,,,null,GW/boulder.png,GW/cornwall.png,,,,,,,,,,,,,,,,,,,,,,,,,
null,,black_cross(without_color),600916,,blue,,,,null,GW/boulder.png,GW/cornwall.png,,,,,,,,,,,,,,,,,,,,,,,,,
492.7000000178814,,rt_plussign_withcolor,601418,,blue,,,,49,GW/boulder.png,GW/cornwall.png,,,,,,,,,,,,,,,,,,,,,,,,,
null,,rt_thecrossant_black,602679,,black_plus_sign,,,,null,,,1,0.9846153846153847,,,,,,,,,,,,,,,,,,,,,,,
null,,color_black,602782,,black_plus_sign,,,,null,,,,,,,,,,,,,,,,,,,,,,,,,,,
null,,learn_phase(without_color),605784,,black_plus_sign,,,,null,GW/hotsprings.png,GW/huntsville.png,,,,,,,,,,,,,,,,,,,,,,,,,
null,,black_cross(without_color),606793,,yellow,,,,null,GW/hotsprings.png,GW/huntsville.png,,,,,,,,,,,,,,,,,,,,,,,,,
409.59999999403954,,rt_plussign_withcolor,607294,,yellow,,,,50,GW/hotsprings.png,GW/huntsville.png,,,,,,,,,,,,,,,,,,,,,,,,,
null,,rt_thecrossant_black,608290,,black_plus_sign,,,,null,,,1,0.9848484848484849,,,,,,,,,,,,,,,,,,,,,,,
null,,color_black,608392,,black_plus_sign,,,,null,,,,,,,,,,,,,,,,,,,,,,,,,,,
null,,learn_phase(without_color),611394,,black_plus_sign,,,,null,GW/gatlinburg.png,GW/boulder.png,,,,,,,,,,,,,,,,,,,,,,,,,
null,,black_cross(without_color),612050,,yellow,,,,null,GW/gatlinburg.png,GW/boulder.png,,,,,,,,,,,,,,,,,,,,,,,,,
372.59999999403954,,rt_plussign_withcolor,612552,,yellow,,,,50,GW/gatlinburg.png,GW/boulder.png,,,,,,,,,,,,,,,,,,,,,,,,,
null,,rt_thecrossant_black,613900,,black_plus_sign,,,,null,,,1,0.9850746268656716,,,,,,,,,,,,,,,,,,,,,,,
null,,color_black,614003,,black_plus_sign,,,,null,,,,,,,,,,,,,,,,,,,,,,,,,,,
null,,learn_phase(without_color),617005,,black_plus_sign,,,,null,GW/huntsville.png,GW/cornwall.png,,,,,,,,,,,,,,,,,,,,,,,,,
null,,black_cross(without_color),617972,,yellow,,,,null,GW/huntsville.png,GW/cornwall.png,,,,,,,,,,,,,,,,,,,,,,,,,
419.5,,rt_plussign_withcolor,618474,,yellow,,,,50,GW/huntsville.png,GW/cornwall.png,,,,,,,,,,,,,,,,,,,,,,,,,
null,,rt_thecrossant_black,619513,,black_plus_sign,,,,null,,,1,0.9852941176470589,,,,,,,,,,,,,,,,,,,,,,,
null,,color_black,619615,,black_plus_sign,,,,null,,,,,,,,,,,,,,,,,,,,,,,,,,,
null,,learn_phase(without_color),622625,,black_plus_sign,,,,null,GW/carmel.png,GW/racine.png,,,,,,,,,,,,,,,,,,,,,,,,,
null,,black_cross(without_color),623543,,blue,,,,null,GW/carmel.png,GW/racine.png,,,,,,,,,,,,,,,,,,,,,,,,,
400.7999999821186,,rt_plussign_withcolor,624044,,blue,,,,49,GW/carmel.png,GW/racine.png,,,,,,,,,,,,,,,,,,,,,,,,,
null,,rt_thecrossant_black,625131,,black_plus_sign,,,,null,,,1,0.9855072463768116,,,,,,,,,,,,,,,,,,,,,,,
null,,color_black,625234,,black_plus_sign,,,,null,,,,,,,,,,,,,,,,,,,,,,,,,,,
null,,learn_phase(without_color),628236,,black_plus_sign,,,,null,GW/huntsville.png,GW/hotsprings.png,,,,,,,,,,,,,,,,,,,,,,,,,
null,,black_cross(without_color),629255,,blue,,,,null,GW/huntsville.png,GW/hotsprings.png,,,,,,,,,,,,,,,,,,,,,,,,,
368.5,,rt_plussign_withcolor,629757,,blue,,,,49,GW/huntsville.png,GW/hotsprings.png,,,,,,,,,,,,,,,,,,,,,,,,,
null,,rt_thecrossant_black,630743,,black_plus_sign,,,,null,,,1,0.9857142857142858,,,,,,,,,,,,,,,,,,,,,,,
null,,color_black,630846,,black_plus_sign,,,,null,,,,,,,,,,,,,,,,,,,,,,,,,,,
null,,learn_phase(without_color),633848,,black_plus_sign,,,,null,GW/carmel.png,GW/racine.png,,,,,,,,,,,,,,,,,,,,,,,,,
null,,black_cross(without_color),634865,,yellow,,,,null,GW/carmel.png,GW/racine.png,,,,,,,,,,,,,,,,,,,,,,,,,
347.30000001192093,,rt_plussign_withcolor,635367,,yellow,,,,50,GW/carmel.png,GW/racine.png,,,,,,,,,,,,,,,,,,,,,,,,,
null,,rt_thecrossant_black,636354,,black_plus_sign,,,,null,,,1,0.9859154929577465,,,,,,,,,,,,,,,,,,,,,,,
null,,color_black,636456,,black_plus_sign,,,,null,,,,,,,,,,,,,,,,,,,,,,,,,,,
null,,learn_phase(without_color),639459,,black_plus_sign,,,,null,GW/carmel.png,GW/hotsprings.png,,,,,,,,,,,,,,,,,,,,,,,,,
null,,black_cross(without_color),640211,,blue,,,,null,GW/carmel.png,GW/hotsprings.png,,,,,,,,,,,,,,,,,,,,,,,,,
489.09999999403954,,rt_plussign_withcolor,640712,,blue,,,,49,GW/carmel.png,GW/hotsprings.png,,,,,,,,,,,,,,,,,,,,,,,,,
null,,rt_thecrossant_black,641965,,black_plus_sign,,,,null,,,1,0.9861111111111112,,,,,,,,,,,,,,,,,,,,,,,
null,,color_black,642067,,black_plus_sign,,,,null,,,,,,,,,,,,,,,,,,,,,,,,,,,
null,,learn_phase(without_color),645069,,black_plus_sign,,,,null,GW/westpalmbeach.png,GW/shreveport.png,,,,,,,,,,,,,,,,,,,,,,,,,
null,,black_cross(without_color),645491,,yellow,,,,null,GW/westpalmbeach.png,GW/shreveport.png,,,,,,,,,,,,,,,,,,,,,,,,,
470.2000000178814,,rt_plussign_withcolor,645993,,yellow,,,,50,GW/westpalmbeach.png,GW/shreveport.png,,,,,,,,,,,,,,,,,,,,,,,,,
null,,rt_thecrossant_black,647577,,black_plus_sign,,,,null,,,1,0.9863013698630136,,,,,,,,,,,,,,,,,,,,,,,
null,,color_black,647679,,black_plus_sign,,,,null,,,,,,,,,,,,,,,,,,,,,,,,,,,
null,,learn_phase(without_color),650681,,black_plus_sign,,,,null,GW/hanover.png,GW/racine.png,,,,,,,,,,,,,,,,,,,,,,,,,
null,,black_cross(without_color),651416,,yellow,,,,null,GW/hanover.png,GW/racine.png,,,,,,,,,,,,,,,,,,,,,,,,,
461.09999999403954,,rt_plussign_withcolor,651918,,yellow,,,,50,GW/hanover.png,GW/racine.png,,,,,,,,,,,,,,,,,,,,,,,,,
null,,rt_thecrossant_black,653186,,black_plus_sign,,,,null,,,1,0.9864864864864865,,,,,,,,,,,,,,,,,,,,,,,
null,,color_black,653288,,black_plus_sign,,,,null,,,,,,,,,,,,,,,,,,,,,,,,,,,
null,,learn_phase(without_color),656290,,black_plus_sign,,,,null,GW/cornwall.png,GW/newhope.png,,,,,,,,,,,,,,,,,,,,,,,,,
null,,black_cross(without_color),657159,,blue,,,,null,GW/cornwall.png,GW/newhope.png,,,,,,,,,,,,,,,,,,,,,,,,,
404.09999999403954,,rt_plussign_withcolor,657661,,blue,,,,49,GW/cornwall.png,GW/newhope.png,,,,,,,,,,,,,,,,,,,,,,,,,
null,,rt_thecrossant_black,658797,,black_plus_sign,,,,null,,,1,0.9866666666666667,,,,,,,,,,,,,,,,,,,,,,,
null,,color_black,658899,,black_plus_sign,,,,null,,,,,,,,,,,,,,,,,,,,,,,,,,,
null,,learn_phase(without_color),661900,,black_plus_sign,,,,null,GW/cornwall.png,GW/boulder.png,,,,,,,,,,,,,,,,,,,,,,,,,
null,,black_cross(without_color),662677,,yellow,,,,null,GW/cornwall.png,GW/boulder.png,,,,,,,,,,,,,,,,,,,,,,,,,
307,,rt_plussign_withcolor,663178,,yellow,,,,50,GW/cornwall.png,GW/boulder.png,,,,,,,,,,,,,,,,,,,,,,,,,
null,,rt_thecrossant_black,664407,,black_plus_sign,,,,null,,,1,0.9868421052631579,,,,,,,,,,,,,,,,,,,,,,,
null,,color_black,664509,,black_plus_sign,,,,null,,,,,,,,,,,,,,,,,,,,,,,,,,,
null,,learn_phase(without_color),667511,,black_plus_sign,,,,null,GW/shreveport.png,GW/westpalmbeach.png,,,,,,,,,,,,,,,,,,,,,,,,,
null,,black_cross(without_color),668396,,yellow,,,,null,GW/shreveport.png,GW/westpalmbeach.png,,,,,,,,,,,,,,,,,,,,,,,,,
322.2999999821186,,rt_plussign_withcolor,668900,,yellow,,,,50,GW/shreveport.png,GW/westpalmbeach.png,,,,,,,,,,,,,,,,,,,,,,,,,
null,,rt_thecrossant_black,670019,,black_plus_sign,,,,null,,,1,0.987012987012987,,,,,,,,,,,,,,,,,,,,,,,
null,,color_black,670120,,black_plus_sign,,,,null,,,,,,,,,,,,,,,,,,,,,,,,,,,
null,,learn_phase(without_color),673122,,black_plus_sign,,,,null,GW/peoria.png,GW/racine.png,,,,,,,,,,,,,,,,,,,,,,,,,
null,,black_cross(without_color),673611,,blue,,,,null,GW/peoria.png,GW/racine.png,,,,,,,,,,,,,,,,,,,,,,,,,
349.40000000596046,,rt_plussign_withcolor,674113,,blue,,,,49,GW/peoria.png,GW/racine.png,,,,,,,,,,,,,,,,,,,,,,,,,
null,,rt_thecrossant_black,675628,,black_plus_sign,,,,null,,,1,0.9871794871794872,,,,,,,,,,,,,,,,,,,,,,,
null,,color_black,675731,,black_plus_sign,,,,null,,,,,,,,,,,,,,,,,,,,,,,,,,,
null,,learn_phase(without_color),678734,,black_plus_sign,,,,null,GW/cornwall.png,GW/boulder.png,,,,,,,,,,,,,,,,,,,,,,,,,
null,,black_cross(without_color),679653,,blue,,,,null,GW/cornwall.png,GW/boulder.png,,,,,,,,,,,,,,,,,,,,,,,,,
421.2000000178814,,rt_plussign_withcolor,680155,,blue,,,,49,GW/cornwall.png,GW/boulder.png,,,,,,,,,,,,,,,,,,,,,,,,,
null,,rt_thecrossant_black,681241,,black_plus_sign,,,,null,,,1,0.9873417721518988,,,,,,,,,,,,,,,,,,,,,,,
null,,color_black,681344,,black_plus_sign,,,,null,,,,,,,,,,,,,,,,,,,,,,,,,,,
null,,learn_phase(without_color),684347,,black_plus_sign,,,,null,GW/carmel.png,GW/hotsprings.png,,,,,,,,,,,,,,,,,,,,,,,,,
null,,black_cross(without_color),685228,,blue,,,,null,GW/carmel.png,GW/hotsprings.png,,,,,,,,,,,,,,,,,,,,,,,,,
null,,rt_plussign_withcolor,685730,,blue,,,,null,GW/carmel.png,GW/hotsprings.png,,,,,,,,,,,,,,,,,,,,,,,,,
1038.9000000059605,,rt_thecrossant_black,686853,,black_plus_sign,,,,49,,,1,0.9875,,,,,,,,,,,,,,,,,,,,,,,
null,,color_black,686956,,black_plus_sign,,,,null,,,,,,,,,,,,,,,,,,,,,,,,,,,
null,,learn_phase(without_color),689958,,black_plus_sign,,,,null,GW/shreveport.png,GW/westpalmbeach.png,,,,,,,,,,,,,,,,,,,,,,,,,
null,,black_cross(without_color),690804,,yellow,,,,null,GW/shreveport.png,GW/westpalmbeach.png,,,,,,,,,,,,,,,,,,,,,,,,,
379.2000000178814,,rt_plussign_withcolor,691307,,yellow,,,,50,GW/shreveport.png,GW/westpalmbeach.png,,,,,,,,,,,,,,,,,,,,,,,,,
null,,rt_thecrossant_black,692465,,black_plus_sign,,,,null,,,1,0.9876543209876543,,,,,,,,,,,,,,,,,,,,,,,
null,,color_black,692567,,black_plus_sign,,,,null,,,,,,,,,,,,,,,,,,,,,,,,,,,
null,,learn_phase(without_color),695569,,black_plus_sign,,,,null,GW/racine.png,GW/carmel.png,,,,,,,,,,,,,,,,,,,,,,,,,
null,,black_cross(without_color),696233,,blue,,,,null,GW/racine.png,GW/carmel.png,,,,,,,,,,,,,,,,,,,,,,,,,
492.80000001192093,,rt_plussign_withcolor,696735,,blue,,,,49,GW/racine.png,GW/carmel.png,,,,,,,,,,,,,,,,,,,,,,,,,
null,,rt_thecrossant_black,698074,,black_plus_sign,,,,null,,,1,0.9878048780487805,,,,,,,,,,,,,,,,,,,,,,,
null,,color_black,698177,,black_plus_sign,,,,null,,,,,,,,,,,,,,,,,,,,,,,,,,,
null,,learn_phase(without_color),701178,,black_plus_sign,,,,null,GW/boulder.png,GW/huntsville.png,,,,,,,,,,,,,,,,,,,,,,,,,
null,,black_cross(without_color),701743,,yellow,,,,null,GW/boulder.png,GW/huntsville.png,,,,,,,,,,,,,,,,,,,,,,,,,
478,,rt_plussign_withcolor,702244,,yellow,,,,50,GW/boulder.png,GW/huntsville.png,,,,,,,,,,,,,,,,,,,,,,,,,
null,,rt_thecrossant_black,703683,,black_plus_sign,,,,null,,,1,0.9879518072289156,,,,,,,,,,,,,,,,,,,,,,,
null,,color_black,703786,,black_plus_sign,,,,null,,,,,,,,,,,,,,,,,,,,,,,,,,,
null,,learn_phase(without_color),706788,,black_plus_sign,,,,null,GW/huntsville.png,GW/hotsprings.png,,,,,,,,,,,,,,,,,,,,,,,,,
null,,black_cross(without_color),707498,,blue,,,,null,GW/huntsville.png,GW/hotsprings.png,,,,,,,,,,,,,,,,,,,,,,,,,
422.40000000596046,,rt_plussign_withcolor,707999,,blue,,,,49,GW/huntsville.png,GW/hotsprings.png,,,,,,,,,,,,,,,,,,,,,,,,,
null,,rt_thecrossant_black,709294,,black_plus_sign,,,,null,,,1,0.9880952380952381,,,,,,,,,,,,,,,,,,,,,,,
null,,color_black,709396,,black_plus_sign,,,,null,,,,,,,,,,,,,,,,,,,,,,,,,,,
null,,learn_phase(without_color),712398,,black_plus_sign,,,,null,GW/racine.png,GW/hanover.png,,,,,,,,,,,,,,,,,,,,,,,,,
null,,black_cross(without_color),713334,,yellow,,,,null,GW/racine.png,GW/hanover.png,,,,,,,,,,,,,,,,,,,,,,,,,
310.7000000178814,,rt_plussign_withcolor,713837,,yellow,,,,50,GW/racine.png,GW/hanover.png,,,,,,,,,,,,,,,,,,,,,,,,,
null,,rt_thecrossant_black,714905,,black_plus_sign,,,,null,,,1,0.9882352941176471,,,,,,,,,,,,,,,,,,,,,,,
null,,color_black,715008,,black_plus_sign,,,,null,,,,,,,,,,,,,,,,,,,,,,,,,,,
null,,learn_phase(without_color),718011,,black_plus_sign,,,,null,GW/hotsprings.png,GW/newhope.png,,,,,,,,,,,,,,,,,,,,,,,,,
null,,black_cross(without_color),718851,,yellow,,,,null,GW/hotsprings.png,GW/newhope.png,,,,,,,,,,,,,,,,,,,,,,,,,
415,,rt_plussign_withcolor,719354,,yellow,,,,50,GW/hotsprings.png,GW/newhope.png,,,,,,,,,,,,,,,,,,,,,,,,,
null,,rt_thecrossant_black,720519,,black_plus_sign,,,,null,,,1,0.9883720930232558,,,,,,,,,,,,,,,,,,,,,,,
null,,color_black,720621,,black_plus_sign,,,,null,,,,,,,,,,,,,,,,,,,,,,,,,,,
null,,learn_phase(without_color),723624,,black_plus_sign,,,,null,GW/shreveport.png,GW/cornwall.png,,,,,,,,,,,,,,,,,,,,,,,,,
null,,black_cross(without_color),724718,,yellow,,,,null,GW/shreveport.png,GW/cornwall.png,,,,,,,,,,,,,,,,,,,,,,,,,
423.5,,rt_plussign_withcolor,725219,,yellow,,,,50,GW/shreveport.png,GW/cornwall.png,,,,,,,,,,,,,,,,,,,,,,,,,
null,,rt_thecrossant_black,726129,,black_plus_sign,,,,null,,,1,0.9885057471264368,,,,,,,,,,,,,,,,,,,,,,,
null,,color_black,726231,,black_plus_sign,,,,null,,,,,,,,,,,,,,,,,,,,,,,,,,,
null,,learn_phase(without_color),729234,,black_plus_sign,,,,null,GW/hotsprings.png,GW/newhope.png,,,,,,,,,,,,,,,,,,,,,,,,,
null,,black_cross(without_color),730284,,blue,,,,null,GW/hotsprings.png,GW/newhope.png,,,,,,,,,,,,,,,,,,,,,,,,,
409.7000000178814,,rt_plussign_withcolor,730786,,blue,,,,49,GW/hotsprings.png,GW/newhope.png,,,,,,,,,,,,,,,,,,,,,,,,,
null,,rt_thecrossant_black,731740,,black_plus_sign,,,,null,,,1,0.9886363636363636,,,,,,,,,,,,,,,,,,,,,,,
null,,color_black,731842,,black_plus_sign,,,,null,,,,,,,,,,,,,,,,,,,,,,,,,,,
null,,learn_phase(without_color),734845,,black_plus_sign,,,,null,GW/cornwall.png,GW/huntsville.png,,,,,,,,,,,,,,,,,,,,,,,,,
null,,black_cross(without_color),735909,,yellow,,,,null,GW/cornwall.png,GW/huntsville.png,,,,,,,,,,,,,,,,,,,,,,,,,
408.2999999821186,,rt_plussign_withcolor,736425,,yellow,,,,50,GW/cornwall.png,GW/huntsville.png,,,,,,,,,,,,,,,,,,,,,,,,,
null,,rt_thecrossant_black,737366,,black_plus_sign,,,,null,,,1,0.9887640449438202,,,,,,,,,,,,,,,,,,,,,,,
null,,color_black,737468,,black_plus_sign,,,,null,,,,,,,,,,,,,,,,,,,,,,,,,,,
null,,learn_phase(without_color),740470,,black_plus_sign,,,,null,GW/cornwall.png,GW/huntsville.png,,,,,,,,,,,,,,,,,,,,,,,,,
null,,black_cross(without_color),740927,,blue,,,,null,GW/cornwall.png,GW/huntsville.png,,,,,,,,,,,,,,,,,,,,,,,,,
447.40000000596046,,rt_plussign_withcolor,741428,,blue,,,,49,GW/cornwall.png,GW/huntsville.png,,,,,,,,,,,,,,,,,,,,,,,,,
null,,rt_thecrossant_black,742975,,black_plus_sign,,,,null,,,1,0.9888888888888889,,,,,,,,,,,,,,,,,,,,,,,
null,,color_black,743077,,black_plus_sign,,,,null,,,,,,,,,,,,,,,,,,,,,,,,,,,
null,,learn_phase(without_color),746079,,black_plus_sign,,,,null,GW/shreveport.png,GW/cornwall.png,,,,,,,,,,,,,,,,,,,,,,,,,
null,,black_cross(without_color),747146,,yellow,,,,null,GW/shreveport.png,GW/cornwall.png,,,,,,,,,,,,,,,,,,,,,,,,,
418.19999998807907,,rt_plussign_withcolor,747648,,yellow,,,,50,GW/shreveport.png,GW/cornwall.png,,,,,,,,,,,,,,,,,,,,,,,,,
null,,rt_thecrossant_black,748585,,black_plus_sign,,,,null,,,1,0.989010989010989,,,,,,,,,,,,,,,,,,,,,,,
null,,color_black,748687,,black_plus_sign,,,,null,,,,,,,,,,,,,,,,,,,,,,,,,,,
null,,learn_phase(without_color),751690,,black_plus_sign,,,,null,GW/carmel.png,GW/racine.png,,,,,,,,,,,,,,,,,,,,,,,,,
null,,black_cross(without_color),752701,,blue,,,,null,GW/carmel.png,GW/racine.png,,,,,,,,,,,,,,,,,,,,,,,,,
405.2999999821186,,rt_plussign_withcolor,753203,,blue,,,,49,GW/carmel.png,GW/racine.png,,,,,,,,,,,,,,,,,,,,,,,,,
null,,rt_thecrossant_black,754196,,black_plus_sign,,,,null,,,1,0.9891304347826086,,,,,,,,,,,,,,,,,,,,,,,
null,,color_black,754299,,black_plus_sign,,,,null,,,,,,,,,,,,,,,,,,,,,,,,,,,
null,,learn_phase(without_color),757302,,black_plus_sign,,,,null,GW/shreveport.png,GW/boulder.png,,,,,,,,,,,,,,,,,,,,,,,,,
null,,black_cross(without_color),757799,,yellow,,,,null,GW/shreveport.png,GW/boulder.png,,,,,,,,,,,,,,,,,,,,,,,,,
404.2000000178814,,rt_plussign_withcolor,758310,,yellow,,,,50,GW/shreveport.png,GW/boulder.png,,,,,,,,,,,,,,,,,,,,,,,,,
null,,rt_thecrossant_black,759816,,black_plus_sign,,,,null,,,1,0.989247311827957,,,,,,,,,,,,,,,,,,,,,,,
null,,color_black,759919,,black_plus_sign,,,,null,,,,,,,,,,,,,,,,,,,,,,,,,,,
null,,learn_phase(without_color),762925,,black_plus_sign,,,,null,GW/cornwall.png,GW/boulder.png,,,,,,,,,,,,,,,,,,,,,,,,,
null,,black_cross(without_color),763640,,blue,,,,null,GW/cornwall.png,GW/boulder.png,,,,,,,,,,,,,,,,,,,,,,,,,
382.80000001192093,,rt_plussign_withcolor,764142,,blue,,,,49,GW/cornwall.png,GW/boulder.png,,,,,,,,,,,,,,,,,,,,,,,,,
null,,rt_thecrossant_black,765431,,black_plus_sign,,,,null,,,1,0.9893617021276596,,,,,,,,,,,,,,,,,,,,,,,
null,,color_black,765533,,black_plus_sign,,,,null,,,,,,,,,,,,,,,,,,,,,,,,,,,
null,,learn_phase(without_color),768535,,black_plus_sign,,,,null,GW/peoria.png,GW/racine.png,,,,,,,,,,,,,,,,,,,,,,,,,
null,,black_cross(without_color),769174,,yellow,,,,null,GW/peoria.png,GW/racine.png,,,,,,,,,,,,,,,,,,,,,,,,,
420.80000001192093,,rt_plussign_withcolor,769675,,yellow,,,,50,GW/peoria.png,GW/racine.png,,,,,,,,,,,,,,,,,,,,,,,,,
null,,rt_thecrossant_black,771041,,black_plus_sign,,,,null,,,1,0.9894736842105263,,,,,,,,,,,,,,,,,,,,,,,
null,,color_black,771144,,black_plus_sign,,,,null,,,,,,,,,,,,,,,,,,,,,,,,,,,
null,,learn_phase(without_color),774146,,black_plus_sign,,,,null,GW/hotsprings.png,GW/newhope.png,,,,,,,,,,,,,,,,,,,,,,,,,
null,,black_cross(without_color),775029,,yellow,,,,null,GW/hotsprings.png,GW/newhope.png,,,,,,,,,,,,,,,,,,,,,,,,,
436.90000000596046,,rt_plussign_withcolor,775530,,yellow,,,,50,GW/hotsprings.png,GW/newhope.png,,,,,,,,,,,,,,,,,,,,,,,,,
null,,rt_thecrossant_black,776650,,black_plus_sign,,,,null,,,1,0.9895833333333334,,,,,,,,,,,,,,,,,,,,,,,
null,,color_black,776752,,black_plus_sign,,,,null,,,,,,,,,,,,,,,,,,,,,,,,,,,
null,,learn_phase(without_color),779755,,black_plus_sign,,,,null,GW/westpalmbeach.png,GW/shreveport.png,,,,,,,,,,,,,,,,,,,,,,,,,
null,,black_cross(without_color),780410,,blue,,,,null,GW/westpalmbeach.png,GW/shreveport.png,,,,,,,,,,,,,,,,,,,,,,,,,
376.5,,rt_plussign_withcolor,780911,,blue,,,,49,GW/westpalmbeach.png,GW/shreveport.png,,,,,,,,,,,,,,,,,,,,,,,,,
null,,rt_thecrossant_black,782271,,black_plus_sign,,,,null,,,1,0.9896907216494846,,,,,,,,,,,,,,,,,,,,,,,
null,,color_black,782373,,black_plus_sign,,,,null,,,,,,,,,,,,,,,,,,,,,,,,,,,
null,,learn_phase(without_color),785375,,black_plus_sign,,,,null,GW/boulder.png,GW/gatlinburg.png,,,,,,,,,,,,,,,,,,,,,,,,,
null,,black_cross(without_color),786074,,yellow,,,,null,GW/boulder.png,GW/gatlinburg.png,,,,,,,,,,,,,,,,,,,,,,,,,
348.2999999821186,,rt_plussign_withcolor,786576,,yellow,,,,50,GW/boulder.png,GW/gatlinburg.png,,,,,,,,,,,,,,,,,,,,,,,,,
null,,rt_thecrossant_black,787880,,black_plus_sign,,,,null,,,1,0.9897959183673469,,,,,,,,,,,,,,,,,,,,,,,
null,,color_black,787983,,black_plus_sign,,,,null,,,,,,,,,,,,,,,,,,,,,,,,,,,
null,,learn_phase(without_color),790986,,black_plus_sign,,,,null,GW/hanover.png,GW/racine.png,,,,,,,,,,,,,,,,,,,,,,,,,
null,,black_cross(without_color),791824,,yellow,,,,null,GW/hanover.png,GW/racine.png,,,,,,,,,,,,,,,,,,,,,,,,,
338.10000002384186,,rt_plussign_withcolor,792326,,yellow,,,,50,GW/hanover.png,GW/racine.png,,,,,,,,,,,,,,,,,,,,,,,,,
null,,rt_thecrossant_black,793506,,black_plus_sign,,,,null,,,1,0.98989898989899,,,,,,,,,,,,,,,,,,,,,,,
null,,color_black,793609,,black_plus_sign,,,,null,,,,,,,,,,,,,,,,,,,,,,,,,,,
null,,learn_phase(without_color),796613,,black_plus_sign,,,,null,GW/leesburg.png,GW/carmel.png,,,,,,,,,,,,,,,,,,,,,,,,,
null,,black_cross(without_color),797202,,yellow,,,,null,GW/leesburg.png,GW/carmel.png,,,,,,,,,,,,,,,,,,,,,,,,,
380,,rt_plussign_withcolor,797705,,yellow,,,,50,GW/leesburg.png,GW/carmel.png,,,,,,,,,,,,,,,,,,,,,,,,,
null,,rt_thecrossant_black,799120,,black_plus_sign,,,,null,,,1,0.99,,,,,,,,,,,,,,,,,,,,,,,
null,,color_black,799223,,black_plus_sign,,,,null,,,,,,,,,,,,,,,,,,,,,,,,,,,
null,,learn_phase(without_color),802226,,black_plus_sign,,,,null,GW/cornwall.png,GW/shreveport.png,,,,,,,,,,,,,,,,,,,,,,,,,
null,,black_cross(without_color),802696,,yellow,,,,null,GW/cornwall.png,GW/shreveport.png,,,,,,,,,,,,,,,,,,,,,,,,,
382.2999999821186,,rt_plussign_withcolor,803198,,yellow,,,,50,GW/cornwall.png,GW/shreveport.png,,,,,,,,,,,,,,,,,,,,,,,,,
null,,rt_thecrossant_black,804744,,black_plus_sign,,,,null,,,1,0.9900990099009901,,,,,,,,,,,,,,,,,,,,,,,
null,,color_black,804846,,black_plus_sign,,,,null,,,,,,,,,,,,,,,,,,,,,,,,,,,
null,,learn_phase(without_color),807849,,black_plus_sign,,,,null,GW/carmel.png,GW/racine.png,,,,,,,,,,,,,,,,,,,,,,,,,
null,,black_cross(without_color),808617,,blue,,,,null,GW/carmel.png,GW/racine.png,,,,,,,,,,,,,,,,,,,,,,,,,
352.69999998807907,,rt_plussign_withcolor,809119,,blue,,,,49,GW/carmel.png,GW/racine.png,,,,,,,,,,,,,,,,,,,,,,,,,
null,,rt_thecrossant_black,810367,,black_plus_sign,,,,null,,,1,0.9901960784313726,,,,,,,,,,,,,,,,,,,,,,,
null,,color_black,810470,,black_plus_sign,,,,null,,,,,,,,,,,,,,,,,,,,,,,,,,,
null,,learn_phase(without_color),813473,,black_plus_sign,,,,null,GW/cornwall.png,GW/huntsville.png,,,,,,,,,,,,,,,,,,,,,,,,,
null,,black_cross(without_color),814011,,yellow,,,,null,GW/cornwall.png,GW/huntsville.png,,,,,,,,,,,,,,,,,,,,,,,,,
471.09999999403954,,rt_plussign_withcolor,814512,,yellow,,,,50,GW/cornwall.png,GW/huntsville.png,,,,,,,,,,,,,,,,,,,,,,,,,
null,,rt_thecrossant_black,815978,,black_plus_sign,,,,null,,,1,0.9902912621359223,,,,,,,,,,,,,,,,,,,,,,,
null,,color_black,816080,,black_plus_sign,,,,null,,,,,,,,,,,,,,,,,,,,,,,,,,,
null,,learn_phase(without_color),819083,,black_plus_sign,,,,null,GW/carmel.png,GW/racine.png,,,,,,,,,,,,,,,,,,,,,,,,,
null,,black_cross(without_color),819921,,blue,,,,null,GW/carmel.png,GW/racine.png,,,,,,,,,,,,,,,,,,,,,,,,,
359.19999998807907,,rt_plussign_withcolor,820427,,blue,,,,49,GW/carmel.png,GW/racine.png,,,,,,,,,,,,,,,,,,,,,,,,,
null,,rt_thecrossant_black,821593,,black_plus_sign,,,,null,,,1,0.9903846153846154,,,,,,,,,,,,,,,,,,,,,,,
null,,color_black,821695,,black_plus_sign,,,,null,,,,,,,,,,,,,,,,,,,,,,,,,,,
null,,learn_phase(without_color),824698,,black_plus_sign,,,,null,GW/racine.png,GW/peoria.png,,,,,,,,,,,,,,,,,,,,,,,,,
null,,black_cross(without_color),825686,,yellow,,,,null,GW/racine.png,GW/peoria.png,,,,,,,,,,,,,,,,,,,,,,,,,
413.7000000178814,,rt_plussign_withcolor,826188,,yellow,,,,50,GW/racine.png,GW/peoria.png,,,,,,,,,,,,,,,,,,,,,,,,,
null,,rt_thecrossant_black,827203,,black_plus_sign,,,,null,,,1,0.9904761904761905,,,,,,,,,,,,,,,,,,,,,,,
null,,color_black,827306,,black_plus_sign,,,,null,,,,,,,,,,,,,,,,,,,,,,,,,,,
null,,learn_phase(without_color),830321,,black_plus_sign,,,,null,GW/newhope.png,GW/cornwall.png,,,,,,,,,,,,,,,,,,,,,,,,,
null,,black_cross(without_color),831212,,blue,,,,null,GW/newhope.png,GW/cornwall.png,,,,,,,,,,,,,,,,,,,,,,,,,
394.7999999821186,,rt_plussign_withcolor,831715,,blue,,,,49,GW/newhope.png,GW/cornwall.png,,,,,,,,,,,,,,,,,,,,,,,,,
null,,rt_thecrossant_black,832827,,black_plus_sign,,,,null,,,1,0.9905660377358491,,,,,,,,,,,,,,,,,,,,,,,
null,,color_black,832929,,black_plus_sign,,,,null,,,,,,,,,,,,,,,,,,,,,,,,,,,
null,,learn_phase(without_color),835931,,black_plus_sign,,,,null,GW/hotsprings.png,GW/huntsville.png,,,,,,,,,,,,,,,,,,,,,,,,,
null,,black_cross(without_color),836386,,yellow,,,,null,GW/hotsprings.png,GW/huntsville.png,,,,,,,,,,,,,,,,,,,,,,,,,
342.30000001192093,,rt_plussign_withcolor,836888,,yellow,,,,50,GW/hotsprings.png,GW/huntsville.png,,,,,,,,,,,,,,,,,,,,,,,,,
null,,rt_thecrossant_black,838439,,black_plus_sign,,,,null,,,1,0.9906542056074766,,,,,,,,,,,,,,,,,,,,,,,
null,,color_black,838542,,black_plus_sign,,,,null,,,,,,,,,,,,,,,,,,,,,,,,,,,
null,,learn_phase(without_color),841545,,black_plus_sign,,,,null,GW/cornwall.png,GW/shreveport.png,,,,,,,,,,,,,,,,,,,,,,,,,
null,,black_cross(without_color),842237,,yellow,,,,null,GW/cornwall.png,GW/shreveport.png,,,,,,,,,,,,,,,,,,,,,,,,,
455.09999999403954,,rt_plussign_withcolor,842739,,yellow,,,,49,GW/cornwall.png,GW/shreveport.png,,,,,,,,,,,,,,,,,,,,,,,,,
null,,rt_thecrossant_black,844052,,black_plus_sign,,,,null,,,0,0.9814814814814815,,,,,,,,,,,,,,,,,,,,,,,
null,,color_black,844154,,black_plus_sign,,,,null,,,,,,,,,,,,,,,,,,,,,,,,,,,
null,,learn_phase(without_color),847156,,black_plus_sign,,,,null,GW/shreveport.png,GW/boulder.png,,,,,,,,,,,,,,,,,,,,,,,,,
null,,black_cross(without_color),848229,,yellow,,,,null,GW/shreveport.png,GW/boulder.png,,,,,,,,,,,,,,,,,,,,,,,,,
408.09999999403954,,rt_plussign_withcolor,848731,,yellow,,,,50,GW/shreveport.png,GW/boulder.png,,,,,,,,,,,,,,,,,,,,,,,,,
null,,rt_thecrossant_black,849672,,black_plus_sign,,,,null,,,1,0.981651376146789,,,,,,,,,,,,,,,,,,,,,,,
null,,color_black,849787,,black_plus_sign,,,,null,,,,,,,,,,,,,,,,,,,,,,,,,,,
null,,learn_phase(without_color),852789,,black_plus_sign,,,,null,GW/newhope.png,GW/cornwall.png,,,,,,,,,,,,,,,,,,,,,,,,,
null,,black_cross(without_color),853548,,blue,,,,null,GW/newhope.png,GW/cornwall.png,,,,,,,,,,,,,,,,,,,,,,,,,
336.69999998807907,,rt_plussign_withcolor,854050,,blue,,,,49,GW/newhope.png,GW/cornwall.png,,,,,,,,,,,,,,,,,,,,,,,,,
null,,rt_thecrossant_black,855295,,black_plus_sign,,,,null,,,1,0.9818181818181818,,,,,,,,,,,,,,,,,,,,,,,
null,,color_black,855398,,black_plus_sign,,,,null,,,,,,,,,,,,,,,,,,,,,,,,,,,
null,,learn_phase(without_color),858400,,black_plus_sign,,,,null,GW/westpalmbeach.png,GW/shreveport.png,,,,,,,,,,,,,,,,,,,,,,,,,
null,,black_cross(without_color),858987,,blue,,,,null,GW/westpalmbeach.png,GW/shreveport.png,,,,,,,,,,,,,,,,,,,,,,,,,
480.40000000596046,,rt_plussign_withcolor,859489,,blue,,,,49,GW/westpalmbeach.png,GW/shreveport.png,,,,,,,,,,,,,,,,,,,,,,,,,
null,,rt_thecrossant_black,860906,,black_plus_sign,,,,null,,,1,0.9819819819819819,,,,,,,,,,,,,,,,,,,,,,,
null,,color_black,861008,,black_plus_sign,,,,null,,,,,,,,,,,,,,,,,,,,,,,,,,,
null,,learn_phase(without_color),864011,,black_plus_sign,,,,null,GW/newhope.png,GW/hotsprings.png,,,,,,,,,,,,,,,,,,,,,,,,,
null,,black_cross(without_color),864543,,blue,,,,null,GW/newhope.png,GW/hotsprings.png,,,,,,,,,,,,,,,,,,,,,,,,,
368.19999998807907,,rt_plussign_withcolor,865045,,blue,,,,49,GW/newhope.png,GW/hotsprings.png,,,,,,,,,,,,,,,,,,,,,,,,,
null,,rt_thecrossant_black,866517,,black_plus_sign,,,,null,,,1,0.9821428571428571,,,,,,,,,,,,,,,,,,,,,,,
null,,color_black,866619,,black_plus_sign,,,,null,,,,,,,,,,,,,,,,,,,,,,,,,,,
null,,learn_phase(without_color),869621,,black_plus_sign,,,,null,GW/hanover.png,GW/racine.png,,,,,,,,,,,,,,,,,,,,,,,,,
null,,black_cross(without_color),870668,,yellow,,,,null,GW/hanover.png,GW/racine.png,,,,,,,,,,,,,,,,,,,,,,,,,
425.5,,rt_plussign_withcolor,871171,,yellow,,,,50,GW/hanover.png,GW/racine.png,,,,,,,,,,,,,,,,,,,,,,,,,
null,,rt_thecrossant_black,872129,,black_plus_sign,,,,null,,,1,0.9823008849557522,,,,,,,,,,,,,,,,,,,,,,,
null,,color_black,872230,,black_plus_sign,,,,null,,,,,,,,,,,,,,,,,,,,,,,,,,,
null,,learn_phase(without_color),875232,,black_plus_sign,,,,null,GW/shreveport.png,GW/cornwall.png,,,,,,,,,,,,,,,,,,,,,,,,,
null,,black_cross(without_color),875807,,blue,,,,null,GW/shreveport.png,GW/cornwall.png,,,,,,,,,,,,,,,,,,,,,,,,,
null,,rt_plussign_withcolor,876308,,blue,,,,null,GW/shreveport.png,GW/cornwall.png,,,,,,,,,,,,,,,,,,,,,,,,,
1204.4000000059605,,rt_thecrossant_black,877738,,black_plus_sign,,,,49,,,1,0.9824561403508771,,,,,,,,,,,,,,,,,,,,,,,
null,,color_black,877840,,black_plus_sign,,,,null,,,,,,,,,,,,,,,,,,,,,,,,,,,
null,,learn_phase(without_color),880841,,black_plus_sign,,,,null,GW/boulder.png,GW/huntsville.png,,,,,,,,,,,,,,,,,,,,,,,,,
null,,black_cross(without_color),881565,,blue,,,,null,GW/boulder.png,GW/huntsville.png,,,,,,,,,,,,,,,,,,,,,,,,,
null,,rt_plussign_withcolor,882070,,blue,,,,null,GW/boulder.png,GW/huntsville.png,,,,,,,,,,,,,,,,,,,,,,,,,
805.5,,rt_thecrossant_black,883352,,black_plus_sign,,,,49,,,1,0.9826086956521739,,,,,,,,,,,,,,,,,,,,,,,
null,,color_black,883455,,black_plus_sign,,,,null,,,,,,,,,,,,,,,,,,,,,,,,,,,
null,,learn_phase(without_color),886458,,black_plus_sign,,,,null,GW/peoria.png,GW/racine.png,,,,,,,,,,,,,,,,,,,,,,,,,
null,,black_cross(without_color),887171,,blue,,,,null,GW/peoria.png,GW/racine.png,,,,,,,,,,,,,,,,,,,,,,,,,
468.60000002384186,,rt_plussign_withcolor,887673,,blue,,,,49,GW/peoria.png,GW/racine.png,,,,,,,,,,,,,,,,,,,,,,,,,
null,,rt_thecrossant_black,888969,,black_plus_sign,,,,null,,,1,0.9827586206896551,,,,,,,,,,,,,,,,,,,,,,,
null,,color_black,889071,,black_plus_sign,,,,null,,,,,,,,,,,,,,,,,,,,,,,,,,,
null,,learn_phase(without_color),892074,,black_plus_sign,,,,null,GW/racine.png,GW/hanover.png,,,,,,,,,,,,,,,,,,,,,,,,,
null,,black_cross(without_color),893046,,yellow,,,,null,GW/racine.png,GW/hanover.png,,,,,,,,,,,,,,,,,,,,,,,,,
305.09999999403954,,rt_plussign_withcolor,893548,,yellow,,,,50,GW/racine.png,GW/hanover.png,,,,,,,,,,,,,,,,,,,,,,,,,
null,,rt_thecrossant_black,894580,,black_plus_sign,,,,null,,,1,0.9829059829059829,,,,,,,,,,,,,,,,,,,,,,,
null,,color_black,894683,,black_plus_sign,,,,null,,,,,,,,,,,,,,,,,,,,,,,,,,,
null,,learn_phase(without_color),897685,,black_plus_sign,,,,null,GW/cornwall.png,GW/huntsville.png,,,,,,,,,,,,,,,,,,,,,,,,,
null,,black_cross(without_color),898592,,yellow,,,,null,GW/cornwall.png,GW/huntsville.png,,,,,,,,,,,,,,,,,,,,,,,,,
389.5,,rt_plussign_withcolor,899094,,yellow,,,,50,GW/cornwall.png,GW/huntsville.png,,,,,,,,,,,,,,,,,,,,,,,,,
null,,rt_thecrossant_black,900191,,black_plus_sign,,,,null,,,1,0.9830508474576272,,,,,,,,,,,,,,,,,,,,,,,
null,,color_black,900294,,black_plus_sign,,,,null,,,,,,,,,,,,,,,,,,,,,,,,,,,
null,,learn_phase(without_color),903296,,black_plus_sign,,,,null,GW/huntsville.png,GW/cornwall.png,,,,,,,,,,,,,,,,,,,,,,,,,
null,,black_cross(without_color),903712,,blue,,,,null,GW/huntsville.png,GW/cornwall.png,,,,,,,,,,,,,,,,,,,,,,,,,
490.19999998807907,,rt_plussign_withcolor,904214,,blue,,,,49,GW/huntsville.png,GW/cornwall.png,,,,,,,,,,,,,,,,,,,,,,,,,
null,,rt_thecrossant_black,905802,,black_plus_sign,,,,null,,,1,0.9831932773109243,,,,,,,,,,,,,,,,,,,,,,,
null,,color_black,905904,,black_plus_sign,,,,null,,,,,,,,,,,,,,,,,,,,,,,,,,,
null,,learn_phase(without_color),908906,,black_plus_sign,,,,null,GW/cornwall.png,GW/boulder.png,,,,,,,,,,,,,,,,,,,,,,,,,
null,,black_cross(without_color),909659,,yellow,,,,null,GW/cornwall.png,GW/boulder.png,,,,,,,,,,,,,,,,,,,,,,,,,
341,,rt_plussign_withcolor,910167,,yellow,,,,50,GW/cornwall.png,GW/boulder.png,,,,,,,,,,,,,,,,,,,,,,,,,
null,,rt_thecrossant_black,911419,,black_plus_sign,,,,null,,,1,0.9833333333333333,,,,,,,,,,,,,,,,,,,,,,,
null,,color_black,911521,,black_plus_sign,,,,null,,,,,,,,,,,,,,,,,,,,,,,,,,,
null,,learn_phase(without_color),914531,,black_plus_sign,,,,null,GW/shreveport.png,GW/cornwall.png,,,,,,,,,,,,,,,,,,,,,,,,,
null,,black_cross(without_color),915542,,blue,,,,null,GW/shreveport.png,GW/cornwall.png,,,,,,,,,,,,,,,,,,,,,,,,,
null,,rt_plussign_withcolor,916043,,blue,,,,null,GW/shreveport.png,GW/cornwall.png,,,,,,,,,,,,,,,,,,,,,,,,,
996.9000000059605,,rt_thecrossant_black,917036,,black_plus_sign,,,,49,,,1,0.9834710743801653,,,,,,,,,,,,,,,,,,,,,,,
null,,color_black,917138,,black_plus_sign,,,,null,,,,,,,,,,,,,,,,,,,,,,,,,,,
null,,learn_phase(without_color),920141,,black_plus_sign,,,,null,GW/shreveport.png,GW/westpalmbeach.png,,,,,,,,,,,,,,,,,,,,,,,,,
null,,black_cross(without_color),920678,,blue,,,,null,GW/shreveport.png,GW/westpalmbeach.png,,,,,,,,,,,,,,,,,,,,,,,,,
384.2000000178814,,rt_plussign_withcolor,921190,,blue,,,,49,GW/shreveport.png,GW/westpalmbeach.png,,,,,,,,,,,,,,,,,,,,,,,,,
null,,rt_thecrossant_black,922658,,black_plus_sign,,,,null,,,1,0.9836065573770492,,,,,,,,,,,,,,,,,,,,,,,
null,,color_black,922760,,black_plus_sign,,,,null,,,,,,,,,,,,,,,,,,,,,,,,,,,
null,,learn_phase(without_color),925762,,black_plus_sign,,,,null,GW/hotsprings.png,GW/carmel.png,,,,,,,,,,,,,,,,,,,,,,,,,
null,,black_cross(without_color),926424,,blue,,,,null,GW/hotsprings.png,GW/carmel.png,,,,,,,,,,,,,,,,,,,,,,,,,
391.90000000596046,,rt_plussign_withcolor,926926,,blue,,,,49,GW/hotsprings.png,GW/carmel.png,,,,,,,,,,,,,,,,,,,,,,,,,
null,,rt_thecrossant_black,928278,,black_plus_sign,,,,null,,,1,0.983739837398374,,,,,,,,,,,,,,,,,,,,,,,
null,,color_black,928380,,black_plus_sign,,,,null,,,,,,,,,,,,,,,,,,,,,,,,,,,
null,,learn_phase(without_color),931383,,black_plus_sign,,,,null,GW/westpalmbeach.png,GW/shreveport.png,,,,,,,,,,,,,,,,,,,,,,,,,
null,,black_cross(without_color),931932,,yellow,,,,null,GW/westpalmbeach.png,GW/shreveport.png,,,,,,,,,,,,,,,,,,,,,,,,,
null,,rt_plussign_withcolor,932434,,yellow,,,,null,GW/westpalmbeach.png,GW/shreveport.png,,,,,,,,,,,,,,,,,,,,,,,,,
773.3000000119209,,rt_thecrossant_black,933890,,black_plus_sign,,,,50,,,1,0.9838709677419355,,,,,,,,,,,,,,,,,,,,,,,
null,,color_black,933992,,black_plus_sign,,,,null,,,,,,,,,,,,,,,,,,,,,,,,,,,
null,,learn_phase(without_color),936994,,black_plus_sign,,,,null,GW/hanover.png,GW/racine.png,,,,,,,,,,,,,,,,,,,,,,,,,
null,,black_cross(without_color),937833,,blue,,,,null,GW/hanover.png,GW/racine.png,,,,,,,,,,,,,,,,,,,,,,,,,
429.40000000596046,,rt_plussign_withcolor,938335,,blue,,,,49,GW/hanover.png,GW/racine.png,,,,,,,,,,,,,,,,,,,,,,,,,
null,,rt_thecrossant_black,939500,,black_plus_sign,,,,null,,,1,0.984,,,,,,,,,,,,,,,,,,,,,,,
null,,color_black,939603,,black_plus_sign,,,,null,,,,,,,,,,,,,,,,,,,,,,,,,,,
null,,learn_phase(without_color),942607,,black_plus_sign,,,,null,GW/boulder.png,GW/shreveport.png,,,,,,,,,,,,,,,,,,,,,,,,,
null,,black_cross(without_color),943190,,blue,,,,null,GW/boulder.png,GW/shreveport.png,,,,,,,,,,,,,,,,,,,,,,,,,
416.60000002384186,,rt_plussign_withcolor,943692,,blue,,,,49,GW/boulder.png,GW/shreveport.png,,,,,,,,,,,,,,,,,,,,,,,,,
null,,rt_thecrossant_black,945113,,black_plus_sign,,,,null,,,1,0.9841269841269841,,,,,,,,,,,,,,,,,,,,,,,
null,,color_black,945216,,black_plus_sign,,,,null,,,,,,,,,,,,,,,,,,,,,,,,,,,
null,,learn_phase(without_color),948218,,black_plus_sign,,,,null,GW/huntsville.png,GW/boulder.png,,,,,,,,,,,,,,,,,,,,,,,,,
null,,black_cross(without_color),948655,,yellow,,,,null,GW/huntsville.png,GW/boulder.png,,,,,,,,,,,,,,,,,,,,,,,,,
403.09999999403954,,rt_plussign_withcolor,949157,,yellow,,,,50,GW/huntsville.png,GW/boulder.png,,,,,,,,,,,,,,,,,,,,,,,,,
null,,rt_thecrossant_black,950725,,black_plus_sign,,,,null,,,1,0.984251968503937,,,,,,,,,,,,,,,,,,,,,,,
null,,color_black,950828,,black_plus_sign,,,,null,,,,,,,,,,,,,,,,,,,,,,,,,,,
null,,learn_phase(without_color),953830,,black_plus_sign,,,,null,GW/carmel.png,GW/hotsprings.png,,,,,,,,,,,,,,,,,,,,,,,,,
null,,black_cross(without_color),954847,,yellow,,,,null,GW/carmel.png,GW/hotsprings.png,,,,,,,,,,,,,,,,,,,,,,,,,
null,,rt_plussign_withcolor,955349,,yellow,,,,null,GW/carmel.png,GW/hotsprings.png,,,,,,,,,,,,,,,,,,,,,,,,,
601.5,,rt_thecrossant_black,956345,,black_plus_sign,,,,50,,,1,0.984375,,,,,,,,,,,,,,,,,,,,,,,
null,,color_black,956447,,black_plus_sign,,,,null,,,,,,,,,,,,,,,,,,,,,,,,,,,
null,,learn_break,1016450,,learn_break,,,,null,,,,,,,,,,,,,,,,,,,,,,,,,,,
24571.40000000596,,intro_1,1041023,,instruct,,0,Start,,,,,,,,,,,,,,,,,,,,,,,,,,,,
2922.9000000059605,,directmemory_phase,1043947,,GW/huntsville.png,,,,50,,,1,1,GW/carmel.png,GW/cornwall.png,GW/westpalmbeach.png,GW/cornwall.png,GW/carmel.png,GW/westpalmbeach.png,1,,,,,,,,,,,,,,,,
null,,html-keyboard-response,1044949,,<p></p>,,,,null,,,,,,,,,,,,,,,,,,,,,,,,,,,
1445.4000000059605,,directmemory_phase,1046396,,GW/leesburg.png,,,,51,,,1,1,GW/boulder.png,GW/hotsprings.png,GW/carmel.png,GW/carmel.png,GW/hotsprings.png,GW/boulder.png,1,,,,,,,,,,,,,,,,
null,,html-keyboard-response,1047398,,<p></p>,,,,null,,,,,,,,,,,,,,,,,,,,,,,,,,,
1621.7000000178814,,directmemory_phase,1049021,,GW/boulder.png,,,,51,,,1,1,GW/leesburg.png,GW/westpalmbeach.png,GW/huntsville.png,GW/huntsville.png,GW/westpalmbeach.png,GW/leesburg.png,1,,,,,,,,,,,,,,,,
null,,html-keyboard-response,1050024,,<p></p>,,,,null,,,,,,,,,,,,,,,,,,,,,,,,,,,
2418.5,,directmemory_phase,1052444,,GW/shreveport.png,,,,51,,,1,1,GW/racine.png,GW/gatlinburg.png,GW/cornwall.png,GW/cornwall.png,GW/gatlinburg.png,GW/racine.png,1,,,,,,,,,,,,,,,,
null,,html-keyboard-response,1053446,,<p></p>,,,,null,,,,,,,,,,,,,,,,,,,,,,,,,,,
1395.0999999940395,,directmemory_phase,1054842,,GW/racine.png,,,,49,,,1,1,GW/peoria.png,GW/shreveport.png,GW/leesburg.png,GW/peoria.png,GW/leesburg.png,GW/shreveport.png,1,,,,,,,,,,,,,,,,
null,,html-keyboard-response,1055845,,<p></p>,,,,null,,,,,,,,,,,,,,,,,,,,,,,,,,,
2233.5,,directmemory_phase,1058079,,GW/boulder.png,,,,51,,,1,1,GW/carmel.png,GW/westpalmbeach.png,GW/shreveport.png,GW/shreveport.png,GW/westpalmbeach.png,GW/carmel.png,1,,,,,,,,,,,,,,,,
null,,html-keyboard-response,1059082,,<p></p>,,,,null,,,,,,,,,,,,,,,,,,,,,,,,,,,
1494.2999999821186,,directmemory_phase,1060578,,GW/newhope.png,,,,49,,,1,1,GW/hotsprings.png,GW/leesburg.png,GW/huntsville.png,GW/hotsprings.png,GW/huntsville.png,GW/leesburg.png,1,,,,,,,,,,,,,,,,
null,,html-keyboard-response,1061580,,<p></p>,,,,null,,,,,,,,,,,,,,,,,,,,,,,,,,,
1600.7000000178814,,directmemory_phase,1063182,,GW/boulder.png,,,,49,,,1,1,GW/cornwall.png,GW/carmel.png,GW/newhope.png,GW/cornwall.png,GW/newhope.png,GW/carmel.png,1,,,,,,,,,,,,,,,,
null,,html-keyboard-response,1064183,,<p></p>,,,,null,,,,,,,,,,,,,,,,,,,,,,,,,,,
1714.800000011921,,directmemory_phase,1065900,,GW/peoria.png,,,,51,,,1,1,GW/cornwall.png,GW/carmel.png,GW/racine.png,GW/racine.png,GW/carmel.png,GW/cornwall.png,1,,,,,,,,,,,,,,,,
null,,html-keyboard-response,1066902,,<p></p>,,,,null,,,,,,,,,,,,,,,,,,,,,,,,,,,
1642.9000000059605,,directmemory_phase,1068545,,GW/gatlinburg.png,,,,51,,,1,1,GW/newhope.png,GW/shreveport.png,GW/boulder.png,GW/boulder.png,GW/shreveport.png,GW/newhope.png,1,,,,,,,,,,,,,,,,
null,,html-keyboard-response,1069548,,<p></p>,,,,null,,,,,,,,,,,,,,,,,,,,,,,,,,,
1158.699999988079,,directmemory_phase,1070707,,GW/hanover.png,,,,49,,,1,1,GW/racine.png,GW/gatlinburg.png,GW/peoria.png,GW/racine.png,GW/peoria.png,GW/gatlinburg.png,1,,,,,,,,,,,,,,,,
null,,html-keyboard-response,1071709,,<p></p>,,,,null,,,,,,,,,,,,,,,,,,,,,,,,,,,
1789.5999999940395,,directmemory_phase,1073500,,GW/cornwall.png,,,,49,,,1,1,GW/shreveport.png,GW/racine.png,GW/hotsprings.png,GW/shreveport.png,GW/hotsprings.png,GW/racine.png,1,,,,,,,,,,,,,,,,
null,,html-keyboard-response,1074502,,<p></p>,,,,null,,,,,,,,,,,,,,,,,,,,,,,,,,,
1260.2000000178814,,directmemory_phase,1075763,,GW/carmel.png,,,,51,,,1,1,GW/boulder.png,GW/peoria.png,GW/racine.png,GW/racine.png,GW/peoria.png,GW/boulder.png,1,,,,,,,,,,,,,,,,
null,,html-keyboard-response,1076765,,<p></p>,,,,null,,,,,,,,,,,,,,,,,,,,,,,,,,,
1890.0999999940395,,directmemory_phase,1078657,,GW/huntsville.png,,,,51,,,1,1,GW/racine.png,GW/gatlinburg.png,GW/hotsprings.png,GW/hotsprings.png,GW/gatlinburg.png,GW/racine.png,1,,,,,,,,,,,,,,,,
null,,html-keyboard-response,1079659,,<p></p>,,,,null,,,,,,,,,,,,,,,,,,,,,,,,,,,
2580.699999988079,,directmemory_phase,1082240,,GW/cornwall.png,,,,49,,,1,1,GW/newhope.png,GW/racine.png,GW/hotsprings.png,GW/newhope.png,GW/hotsprings.png,GW/racine.png,1,,,,,,,,,,,,,,,,
null,,html-keyboard-response,1083250,,<p></p>,,,,null,,,,,,,,,,,,,,,,,,,,,,,,,,,
2199.5999999940395,,directmemory_phase,1085451,,GW/westpalmbeach.png,,,,51,,,1,1,GW/newhope.png,GW/cornwall.png,GW/shreveport.png,GW/shreveport.png,GW/cornwall.png,GW/newhope.png,1,,,,,,,,,,,,,,,,
null,,html-keyboard-response,1086452,,<p></p>,,,,null,,,,,,,,,,,,,,,,,,,,,,,,,,,
2007.699999988079,,directmemory_phase,1088461,,GW/cornwall.png,,,,51,,,1,1,GW/leesburg.png,GW/hanover.png,GW/boulder.png,GW/boulder.png,GW/hanover.png,GW/leesburg.png,1,,,,,,,,,,,,,,,,
null,,html-keyboard-response,1089463,,<p></p>,,,,null,,,,,,,,,,,,,,,,,,,,,,,,,,,
2179.2999999821186,,directmemory_phase,1091643,,GW/carmel.png,,,,51,,,1,1,GW/cornwall.png,GW/peoria.png,GW/leesburg.png,GW/leesburg.png,GW/peoria.png,GW/cornwall.png,1,,,,,,,,,,,,,,,,
null,,html-keyboard-response,1092646,,<p></p>,,,,null,,,,,,,,,,,,,,,,,,,,,,,,,,,
1347.7000000178814,,directmemory_phase,1093994,,GW/huntsville.png,,,,49,,,1,1,GW/boulder.png,GW/hanover.png,GW/gatlinburg.png,GW/boulder.png,GW/gatlinburg.png,GW/hanover.png,1,,,,,,,,,,,,,,,,
null,,html-keyboard-response,1094997,,<p></p>,,,,null,,,,,,,,,,,,,,,,,,,,,,,,,,,
2937.5,,directmemory_phase,1097935,,GW/carmel.png,,,,49,,,1,1,GW/hotsprings.png,GW/boulder.png,GW/hanover.png,GW/hotsprings.png,GW/hanover.png,GW/boulder.png,1,,,,,,,,,,,,,,,,
null,,html-keyboard-response,1098938,,<p></p>,,,,null,,,,,,,,,,,,,,,,,,,,,,,,,,,
4991.700000017881,,directmemory_phase,1103931,,GW/cornwall.png,,,,51,,,1,1,GW/carmel.png,GW/hotsprings.png,GW/huntsville.png,GW/huntsville.png,GW/hotsprings.png,GW/carmel.png,1,,,,,,,,,,,,,,,,
null,,html-keyboard-response,1104934,,<p></p>,,,,null,,,,,,,,,,,,,,,,,,,,,,,,,,,
2073.100000023842,,directmemory_phase,1107008,,GW/racine.png,,,,51,,,1,1,GW/huntsville.png,GW/leesburg.png,GW/carmel.png,GW/carmel.png,GW/leesburg.png,GW/huntsville.png,1,,,,,,,,,,,,,,,,
null,,html-keyboard-response,1108009,,<p></p>,,,,null,,,,,,,,,,,,,,,,,,,,,,,,,,,
3849.4000000059605,,directmemory_phase,1111859,,GW/hotsprings.png,,,,51,,,1,1,GW/gatlinburg.png,GW/racine.png,GW/newhope.png,GW/newhope.png,GW/racine.png,GW/gatlinburg.png,1,,,,,,,,,,,,,,,,
null,,html-keyboard-response,1112862,,<p></p>,,,,null,,,,,,,,,,,,,,,,,,,,,,,,,,,
1827.7999999821186,,directmemory_phase,1114691,,GW/boulder.png,,,,51,,,0,0.9583333333333334,GW/gatlinburg.png,GW/leesburg.png,GW/newhope.png,GW/gatlinburg.png,GW/newhope.png,GW/leesburg.png,0.5,closer,,,,,,,,,,,,,,,
null,,html-keyboard-response,1115692,,<p></p>,,,,null,,,,,,,,,,,,,,,,,,,,,,,,,,,
2613.300000011921,,directmemory_phase,1118308,,GW/shreveport.png,,,,50,,,1,0.96,GW/gatlinburg.png,GW/westpalmbeach.png,GW/hanover.png,GW/westpalmbeach.png,GW/gatlinburg.png,GW/hanover.png,1,,,,,,,,,,,,,,,,
null,,html-keyboard-response,1119311,,<p></p>,,,,null,,,,,,,,,,,,,,,,,,,,,,,,,,,
3763.4000000059605,,directmemory_phase,1123075,,GW/newhope.png,,,,50,,,0,0.9230769230769231,GW/leesburg.png,GW/huntsville.png,GW/cornwall.png,GW/cornwall.png,GW/huntsville.png,GW/leesburg.png,0.5,closer,,,,,,,,,,,,,,,
null,,html-keyboard-response,1124077,,<p></p>,,,,null,,,,,,,,,,,,,,,,,,,,,,,,,,,
3746.9000000059605,,directmemory_phase,1127825,,GW/racine.png,,,,50,,,1,0.9259259259259259,GW/leesburg.png,GW/hanover.png,GW/huntsville.png,GW/hanover.png,GW/leesburg.png,GW/huntsville.png,1,,,,,,,,,,,,,,,,
null,,html-keyboard-response,1128826,,<p></p>,,,,null,,,,,,,,,,,,,,,,,,,,,,,,,,,
1931,,directmemory_phase,1130758,,GW/hotsprings.png,,,,51,,,1,0.9285714285714286,GW/peoria.png,GW/racine.png,GW/huntsville.png,GW/huntsville.png,GW/racine.png,GW/peoria.png,1,,,,,,,,,,,,,,,,
null,,html-keyboard-response,1131760,,<p></p>,,,,null,,,,,,,,,,,,,,,,,,,,,,,,,,,
3488.300000011921,,directmemory_phase,1135250,,GW/newhope.png,,,,51,,,1,0.9310344827586207,GW/westpalmbeach.png,GW/carmel.png,GW/hanover.png,GW/hanover.png,GW/carmel.png,GW/westpalmbeach.png,1,,,,,,,,,,,,,,,,
null,,html-keyboard-response,1136252,,<p></p>,,,,null,,,,,,,,,,,,,,,,,,,,,,,,,,,
2510.2999999821186,,directmemory_phase,1138763,,GW/shreveport.png,,,,50,,,1,0.9333333333333333,GW/newhope.png,GW/boulder.png,GW/carmel.png,GW/boulder.png,GW/newhope.png,GW/carmel.png,1,,,,,,,,,,,,,,,,
null,,html-keyboard-response,1139765,,<p></p>,,,,null,,,,,,,,,,,,,,,,,,,,,,,,,,,
2895.0999999940395,,directmemory_phase,1142661,,GW/hotsprings.png,,,,50,,,1,0.9354838709677419,GW/racine.png,GW/carmel.png,GW/gatlinburg.png,GW/carmel.png,GW/racine.png,GW/gatlinburg.png,1,,,,,,,,,,,,,,,,
null,,html-keyboard-response,1143663,,<p></p>,,,,null,,,,,,,,,,,,,,,,,,,,,,,,,,,
2242.800000011921,,directmemory_phase,1145907,,GW/hanover.png,,,,50,,,1,0.9375,GW/carmel.png,GW/newhope.png,GW/shreveport.png,GW/newhope.png,GW/carmel.png,GW/shreveport.png,1,,,,,,,,,,,,,,,,
null,,html-keyboard-response,1146909,,<p></p>,,,,null,,,,,,,,,,,,,,,,,,,,,,,,,,,
35926,,intro_1,1182837,,instruct,,0,,,,,,,,,,,,,,,,,,,,,,,,,,,,,
16315.800000011921,,intro_2,1199154,,instruct,,1,Next,,,,,,,,,,,,,,,,,,,,,,,,,,,,
2354.2000000178814,,intro_3,1201509,,instruct,,1,Next,,,,,,,,,,,,,,,,,,,,,,,,,,,,
5245.199999988079,,intro_4,1206756,,instruct,,1,Next,,,,,,,,,,,,,,,,,,,,,,,,,,,,
7016.300000011921,,intro_5,1213774,,instruct,,1,Next,,,,,,,,,,,,,,,,,,,,,,,,,,,,
5209.200000017881,,intro_6,1218984,,instruct,,1,Next,,,,,,,,,,,,,,,,,,,,,,,,,,,,
10150.700000017881,,intro_7,1229136,,instruct,,1,Next,,,,,,,,,,,,,,,,,,,,,,,,,,,,
19074,,intro_8,1248212,,instruct,,1,Next,,,,,,,,,,,,,,,,,,,,,,,,,,,,
7424.700000017881,,shortestpath_phase,1255638,,GW/leesburg.png,,,,50,GW/gatlinburg.png,GW/hotsprings.png,1,1,,,,GW/hotsprings.png,,,,,Three Edge Diff,Two Edge Five Edge,,,,,,,,,,,,,
null,,html-keyboard-response,1256640,,<p></p>,,,,null,,,,,,,,,,,,,,,,,,,,,,,,,,,
3507.5,,shortestpath_phase,1260149,,GW/racine.png,,,,49,GW/boulder.png,GW/newhope.png,0,0.5,,,,GW/newhope.png,,,,,Two Edge Diff,Two Edge Four Edge,,,,,,,,,,,,,
null,,html-keyboard-response,1261153,,<p></p>,,,,null,,,,,,,,,,,,,,,,,,,,,,,,,,,
4221.300000011921,,shortestpath_phase,1265375,,GW/peoria.png,,,,49,GW/carmel.png,GW/westpalmbeach.png,1,0.6666666666666666,,,,GW/carmel.png,,,,,Four Edge Diff,Two Edge Six Edge,,,,,,,,,,,,,
null,,html-keyboard-response,1266378,,<p></p>,,,,null,,,,,,,,,,,,,,,,,,,,,,,,,,,
6316.5,,shortestpath_phase,1272696,,GW/racine.png,,,,50,GW/gatlinburg.png,GW/hotsprings.png,1,0.75,,,,GW/hotsprings.png,,,,,Three Edge Diff,Two Edge Five Edge,,,,,,,,,,,,,
null,,html-keyboard-response,1273698,,<p></p>,,,,null,,,,,,,,,,,,,,,,,,,,,,,,,,,
null,,shortestpath_phase,1281200,,GW/gatlinburg.png,,,,null,GW/carmel.png,GW/leesburg.png,0,0.6,,,,GW/carmel.png,,,,,One Edge Diff,Four Edge Five Edge,,,,,,,,,,,,,
null,,warning_page,1284204,,warning,,,,null,,,,,,,,,,,,,,,,,,,,,,,,,,,
null,,html-keyboard-response,1285219,,<p></p>,,,,null,,,,,,,,,,,,,,,,,,,,,,,,,,,
2292.5,,shortestpath_phase,1287513,,GW/racine.png,,,,49,GW/cornwall.png,GW/leesburg.png,0,0.5,,,,GW/leesburg.png,,,,,One Edge Diff,Two Edge Three Edge,,,,,,,,,,,,,
null,,html-keyboard-response,1288515,,<p></p>,,,,null,,,,,,,,,,,,,,,,,,,,,,,,,,,
2300.100000023842,,shortestpath_phase,1290816,,GW/shreveport.png,,,,49,GW/leesburg.png,GW/gatlinburg.png,0,0.42857142857142855,,,,GW/gatlinburg.png,,,,,Three Edge Diff,Three Edge Six Edge,,,,,,,,,,,,,
null,,html-keyboard-response,1291818,,<p></p>,,,,null,,,,,,,,,,,,,,,,,,,,,,,,,,,
1980.2999999821186,,shortestpath_phase,1293800,,GW/westpalmbeach.png,,,,49,GW/racine.png,GW/cornwall.png,0,0.375,,,,GW/cornwall.png,,,,,Three Edge Diff,Three Edge Six Edge,,,,,,,,,,,,,
null,,html-keyboard-response,1294801,,<p></p>,,,,null,,,,,,,,,,,,,,,,,,,,,,,,,,,
2175,,shortestpath_phase,1296977,,GW/leesburg.png,,,,49,GW/racine.png,GW/westpalmbeach.png,1,0.4444444444444444,,,,GW/racine.png,,,,,Four Edge Diff,Two Edge Six Edge,,,,,,,,,,,,,
null,,html-keyboard-response,1297979,,<p></p>,,,,null,,,,,,,,,,,,,,,,,,,,,,,,,,,
2330.0999999940395,,shortestpath_phase,1300310,,GW/gatlinburg.png,,,,49,GW/cornwall.png,GW/peoria.png,1,0.5,,,,GW/cornwall.png,,,,,Four Edge Diff,Two Edge Six Edge,,,,,,,,,,,,,
null,,html-keyboard-response,1301312,,<p></p>,,,,null,,,,,,,,,,,,,,,,,,,,,,,,,,,
1413.3999999761581,,shortestpath_phase,1302726,,GW/westpalmbeach.png,,,,49,GW/racine.png,GW/leesburg.png,1,0.5454545454545454,,,,GW/racine.png,,,,,One Edge Diff,Five Edge Six Edge,,,,,,,,,,,,,
null,,html-keyboard-response,1303729,,<p></p>,,,,null,,,,,,,,,,,,,,,,,,,,,,,,,,,
1893.5,,shortestpath_phase,1305624,,GW/carmel.png,,,,50,GW/cornwall.png,GW/shreveport.png,0,0.5,,,,GW/cornwall.png,,,,,One Edge Diff,Three Edge Four Edge,,,,,,,,,,,,,
null,,html-keyboard-response,1306627,,<p></p>,,,,null,,,,,,,,,,,,,,,,,,,,,,,,,,,
2134.2000000178814,,shortestpath_phase,1308762,,GW/westpalmbeach.png,,,,50,GW/leesburg.png,GW/boulder.png,1,0.5384615384615384,,,,GW/boulder.png,,,,,Four Edge Diff,Two Edge Six Edge,,,,,,,,,,,,,
null,,html-keyboard-response,1309764,,<p></p>,,,,null,,,,,,,,,,,,,,,,,,,,,,,,,,,
2308.4000000059605,,shortestpath_phase,1312073,,GW/gatlinburg.png,,,,49,GW/racine.png,GW/shreveport.png,0,0.5,,,,GW/shreveport.png,,,,,Three Edge Diff,Three Edge Six Edge,,,,,,,,,,,,,
null,,html-keyboard-response,1313076,,<p></p>,,,,null,,,,,,,,,,,,,,,,,,,,,,,,,,,
2096.4000000059605,,shortestpath_phase,1315173,,GW/westpalmbeach.png,,,,50,GW/cornwall.png,GW/leesburg.png,0,0.4666666666666667,,,,GW/cornwall.png,,,,,Four Edge Diff,Two Edge Six Edge,,,,,,,,,,,,,
null,,html-keyboard-response,1316174,,<p></p>,,,,null,,,,,,,,,,,,,,,,,,,,,,,,,,,
2259.5,,shortestpath_phase,1318435,,GW/shreveport.png,,,,49,GW/leesburg.png,GW/newhope.png,0,0.4375,,,,GW/newhope.png,,,,,Three Edge Diff,Three Edge Six Edge,,,,,,,,,,,,,
null,,html-keyboard-response,1319437,,<p></p>,,,,null,,,,,,,,,,,,,,,,,,,,,,,,,,,
2181.5,,shortestpath_phase,1321620,,GW/peoria.png,,,,50,GW/westpalmbeach.png,GW/hanover.png,1,0.47058823529411764,,,,GW/hanover.png,,,,,Four Edge Diff,Two Edge Six Edge,,,,,,,,,,,,,
null,,html-keyboard-response,1322621,,<p></p>,,,,null,,,,,,,,,,,,,,,,,,,,,,,,,,,
1964.7999999821186,,shortestpath_phase,1324587,,GW/leesburg.png,,,,49,GW/boulder.png,GW/racine.png,0,0.4444444444444444,,,,GW/racine.png,,,,,Two Edge Diff,Two Edge Four Edge,,,,,,,,,,,,,
null,,html-keyboard-response,1325588,,<p></p>,,,,null,,,,,,,,,,,,,,,,,,,,,,,,,,,
2025.5,,shortestpath_phase,1327615,,GW/peoria.png,,,,50,GW/westpalmbeach.png,GW/shreveport.png,1,0.47368421052631576,,,,GW/shreveport.png,,,,,One Edge Diff,Five Edge Six Edge,,,,,,,,,,,,,
null,,html-keyboard-response,1328618,,<p></p>,,,,null,,,,,,,,,,,,,,,,,,,,,,,,,,,
1925.300000011921,,shortestpath_phase,1330544,,GW/hanover.png,,,,50,GW/westpalmbeach.png,GW/boulder.png,1,0.5,,,,GW/boulder.png,,,,,One Edge Diff,Three Edge Four Edge,,,,,,,,,,,,,
null,,html-keyboard-response,1331560,,<p></p>,,,,null,,,,,,,,,,,,,,,,,,,,,,,,,,,
2010.199999988079,,shortestpath_phase,1333571,,GW/westpalmbeach.png,,,,50,GW/leesburg.png,GW/hotsprings.png,1,0.5238095238095238,,,,GW/hotsprings.png,,,,,Two Edge Diff,Four Edge Six Edge,,,,,,,,,,,,,
null,,html-keyboard-response,1334573,,<p></p>,,,,null,,,,,,,,,,,,,,,,,,,,,,,,,,,
2204.0999999940395,,shortestpath_phase,1336778,,GW/gatlinburg.png,,,,50,GW/leesburg.png,GW/shreveport.png,1,0.5454545454545454,,,,GW/shreveport.png,,,,,Three Edge Diff,Three Edge Six Edge,,,,,,,,,,,,,
null,,html-keyboard-response,1337780,,<p></p>,,,,null,,,,,,,,,,,,,,,,,,,,,,,,,,,
1869.0999999940395,,shortestpath_phase,1339650,,GW/boulder.png,,,,49,GW/westpalmbeach.png,GW/carmel.png,1,0.5652173913043478,,,,GW/westpalmbeach.png,,,,,One Edge Diff,Two Edge Three Edge,,,,,,,,,,,,,
null,,html-keyboard-response,1340652,,<p></p>,,,,null,,,,,,,,,,,,,,,,,,,,,,,,,,,
1960,,shortestpath_phase,1342613,,GW/shreveport.png,,,,49,GW/gatlinburg.png,GW/racine.png,1,0.5833333333333334,,,,GW/gatlinburg.png,,,,,Two Edge Diff,Two Edge Four Edge,,,,,,,,,,,,,
null,,html-keyboard-response,1343615,,<p></p>,,,,null,,,,,,,,,,,,,,,,,,,,,,,,,,,
1504.5,,shortestpath_phase,1345121,,GW/leesburg.png,,,,49,GW/hotsprings.png,GW/westpalmbeach.png,1,0.6,,,,GW/hotsprings.png,,,,,Four Edge Diff,Two Edge Six Edge,,,,,,,,,,,,,
null,,html-keyboard-response,1346123,,<p></p>,,,,null,,,,,,,,,,,,,,,,,,,,,,,,,,,
1502.0999999940395,,shortestpath_phase,1347627,,GW/gatlinburg.png,,,,49,GW/hanover.png,GW/cornwall.png,0,0.5769230769230769,,,,GW/cornwall.png,,,,,Two Edge Diff,Two Edge Four Edge,,,,,,,,,,,,,
null,,html-keyboard-response,1348628,,<p></p>,,,,null,,,,,,,,,,,,,,,,,,,,,,,,,,,
1929,,shortestpath_phase,1350559,,GW/hotsprings.png,,,,50,GW/shreveport.png,GW/westpalmbeach.png,0,0.5555555555555556,,,,GW/shreveport.png,,,,,One Edge Diff,Three Edge Four Edge,,,,,,,,,,,,,
null,,html-keyboard-response,1351561,,<p></p>,,,,null,,,,,,,,,,,,,,,,,,,,,,,,,,,
1454.800000011921,,shortestpath_phase,1353017,,GW/boulder.png,,,,49,GW/newhope.png,GW/hanover.png,1,0.5714285714285714,,,,GW/newhope.png,,,,,One Edge Diff,Two Edge Three Edge,,,,,,,,,,,,,
null,,html-keyboard-response,1354019,,<p></p>,,,,null,,,,,,,,,,,,,,,,,,,,,,,,,,,
1694.7999999821186,,shortestpath_phase,1355715,,GW/gatlinburg.png,,,,49,GW/leesburg.png,GW/cornwall.png,0,0.5517241379310345,,,,GW/cornwall.png,,,,,Three Edge Diff,Three Edge Six Edge,,,,,,,,,,,,,
null,,html-keyboard-response,1356717,,<p></p>,,,,null,,,,,,,,,,,,,,,,,,,,,,,,,,,
2020.9000000059605,,shortestpath_phase,1358739,,GW/boulder.png,,,,50,GW/peoria.png,GW/newhope.png,1,0.5666666666666667,,,,GW/newhope.png,,,,,Three Edge Diff,Two Edge Five Edge,,,,,,,,,,,,,
null,,html-keyboard-response,1359742,,<p></p>,,,,null,,,,,,,,,,,,,,,,,,,,,,,,,,,
1949.199999988079,,shortestpath_phase,1361692,,GW/westpalmbeach.png,,,,50,GW/peoria.png,GW/cornwall.png,1,0.5806451612903226,,,,GW/cornwall.png,,,,,Four Edge Diff,Two Edge Six Edge,,,,,,,,,,,,,
null,,html-keyboard-response,1362694,,<p></p>,,,,null,,,,,,,,,,,,,,,,,,,,,,,,,,,
1682.4000000059605,,shortestpath_phase,1364378,,GW/gatlinburg.png,,,,50,GW/leesburg.png,GW/newhope.png,1,0.59375,,,,GW/newhope.png,,,,,Two Edge Diff,Three Edge Five Edge,,,,,,,,,,,,,
null,,html-keyboard-response,1365380,,<p></p>,,,,null,,,,,,,,,,,,,,,,,,,,,,,,,,,
1350.4000000059605,,shortestpath_phase,1366731,,GW/peoria.png,,,,49,GW/carmel.png,GW/boulder.png,1,0.6060606060606061,,,,GW/carmel.png,,,,,Three Edge Diff,Two Edge Five Edge,,,,,,,,,,,,,
null,,html-keyboard-response,1367734,,<p></p>,,,,null,,,,,,,,,,,,,,,,,,,,,,,,,,,
1448.7999999821186,,shortestpath_phase,1369184,,GW/westpalmbeach.png,,,,49,GW/peoria.png,GW/boulder.png,0,0.5882352941176471,,,,GW/boulder.png,,,,,Four Edge Diff,Two Edge Six Edge,,,,,,,,,,,,,
null,,html-keyboard-response,1370186,,<p></p>,,,,null,,,,,,,,,,,,,,,,,,,,,,,,,,,
1713,,shortestpath_phase,1371900,,GW/racine.png,,,,50,GW/gatlinburg.png,GW/leesburg.png,1,0.6,,,,GW/leesburg.png,,,,,Three Edge Diff,Two Edge Five Edge,,,,,,,,,,,,,
null,,html-keyboard-response,1372903,,<p></p>,,,,null,,,,,,,,,,,,,,,,,,,,,,,,,,,
2120.7000000178814,,shortestpath_phase,1375024,,GW/westpalmbeach.png,,,,50,GW/boulder.png,GW/racine.png,0,0.5833333333333334,,,,GW/boulder.png,,,,,Three Edge Diff,Two Edge Five Edge,,,,,,,,,,,,,
null,,html-keyboard-response,1376027,,<p></p>,,,,null,,,,,,,,,,,,,,,,,,,,,,,,,,,
1939.5999999940395,,shortestpath_phase,1377968,,GW/racine.png,,,,50,GW/hotsprings.png,GW/boulder.png,0,0.5675675675675675,,,,GW/hotsprings.png,,,,,Two Edge Diff,Two Edge Four Edge,,,,,,,,,,,,,
null,,html-keyboard-response,1378973,,<p></p>,,,,null,,,,,,,,,,,,,,,,,,,,,,,,,,,
2318.4000000059605,,shortestpath_phase,1381293,,GW/westpalmbeach.png,,,,49,GW/newhope.png,GW/racine.png,1,0.5789473684210527,,,,GW/newhope.png,,,,,Two Edge Diff,Three Edge Five Edge,,,,,,,,,,,,,
null,,html-keyboard-response,1382297,,<p></p>,,,,null,,,,,,,,,,,,,,,,,,,,,,,,,,,
1924.5999999940395,,shortestpath_phase,1384223,,GW/racine.png,,,,50,GW/boulder.png,GW/westpalmbeach.png,0,0.5641025641025641,,,,GW/boulder.png,,,,,One Edge Diff,Four Edge Five Edge,,,,,,,,,,,,,
null,,html-keyboard-response,1385224,,<p></p>,,,,null,,,,,,,,,,,,,,,,,,,,,,,,,,,
2334.5999999940395,,shortestpath_phase,1387560,,GW/westpalmbeach.png,,,,49,GW/hanover.png,GW/leesburg.png,1,0.575,,,,GW/hanover.png,,,,,Two Edge Diff,Four Edge Six Edge,,,,,,,,,,,,,
null,,html-keyboard-response,1388562,,<p></p>,,,,null,,,,,,,,,,,,,,,,,,,,,,,,,,,
2576.4000000059605,,shortestpath_phase,1391140,,GW/boulder.png,,,,50,GW/peoria.png,GW/hotsprings.png,1,0.5853658536585366,,,,GW/hotsprings.png,,,,,Three Edge Diff,Two Edge Five Edge,,,,,,,,,,,,,
null,,html-keyboard-response,1392142,,<p></p>,,,,null,,,,,,,,,,,,,,,,,,,,,,,,,,,
2054.199999988079,,shortestpath_phase,1394197,,GW/carmel.png,,,,49,GW/westpalmbeach.png,GW/cornwall.png,0,0.5714285714285714,,,,GW/cornwall.png,,,,,Two Edge Diff,Three Edge Five Edge,,,,,,,,,,,,,
null,,html-keyboard-response,1395200,,<p></p>,,,,null,,,,,,,,,,,,,,,,,,,,,,,,,,,
2025.8999999761581,,shortestpath_phase,1397227,,GW/boulder.png,,,,50,GW/peoria.png,GW/westpalmbeach.png,1,0.5813953488372093,,,,GW/westpalmbeach.png,,,,,Three Edge Diff,Two Edge Five Edge,,,,,,,,,,,,,
null,,html-keyboard-response,1398229,,<p></p>,,,,null,,,,,,,,,,,,,,,,,,,,,,,,,,,
1996.300000011921,,shortestpath_phase,1400227,,GW/gatlinburg.png,,,,50,GW/leesburg.png,GW/hotsprings.png,1,0.5909090909090909,,,,GW/hotsprings.png,,,,,Two Edge Diff,Three Edge Five Edge,,,,,,,,,,,,,
null,,html-keyboard-response,1401230,,<p></p>,,,,null,,,,,,,,,,,,,,,,,,,,,,,,,,,
1949.9000000059605,,shortestpath_phase,1403181,,GW/peoria.png,,,,50,GW/gatlinburg.png,GW/carmel.png,1,0.6,,,,GW/carmel.png,,,,,Four Edge Diff,Two Edge Six Edge,,,,,,,,,,,,,
null,,html-keyboard-response,1404182,,<p></p>,,,,null,,,,,,,,,,,,,,,,,,,,,,,,,,,
2250.199999988079,,shortestpath_phase,1406434,,GW/gatlinburg.png,,,,50,GW/racine.png,GW/peoria.png,0,0.5869565217391305,,,,GW/racine.png,,,,,One Edge Diff,Five Edge Six Edge,,,,,,,,,,,,,
null,,html-keyboard-response,1407447,,<p></p>,,,,null,,,,,,,,,,,,,,,,,,,,,,,,,,,
1941.5,,shortestpath_phase,1409389,,GW/boulder.png,,,,50,GW/leesburg.png,GW/hanover.png,1,0.5957446808510638,,,,GW/hanover.png,,,,,One Edge Diff,Three Edge Four Edge,,,,,,,,,,,,,
null,,html-keyboard-response,1410392,,<p></p>,,,,null,,,,,,,,,,,,,,,,,,,,,,,,,,,
1780.0999999940395,,shortestpath_phase,1412173,,GW/leesburg.png,,,,50,GW/shreveport.png,GW/racine.png,1,0.6041666666666666,,,,GW/racine.png,,,,,Three Edge Diff,Two Edge Five Edge,,,,,,,,,,,,,
null,,html-keyboard-response,1413175,,<p></p>,,,,null,,,,,,,,,,,,,,,,,,,,,,,,,,,
2384.9000000059605,,shortestpath_phase,1415561,,GW/peoria.png,,,,50,GW/gatlinburg.png,GW/huntsville.png,1,0.6122448979591837,,,,GW/huntsville.png,,,,,Two Edge Diff,Four Edge Six Edge,,,,,,,,,,,,,
null,,html-keyboard-response,1416563,,<p></p>,,,,null,,,,,,,,,,,,,,,,,,,,,,,,,,,
1988.7000000178814,,shortestpath_phase,1418553,,GW/leesburg.png,,,,49,GW/shreveport.png,GW/boulder.png,0,0.6,,,,GW/boulder.png,,,,,One Edge Diff,Four Edge Five Edge,,,,,,,,,,,,,
null,,html-keyboard-response,1419555,,<p></p>,,,,null,,,,,,,,,,,,,,,,,,,,,,,,,,,
2082.9000000059605,,shortestpath_phase,1421639,,GW/peoria.png,,,,50,GW/hanover.png,GW/huntsville.png,0,0.5882352941176471,,,,GW/hanover.png,,,,,Two Edge Diff,Two Edge Four Edge,,,,,,,,,,,,,
null,,html-keyboard-response,1422640,,<p></p>,,,,null,,,,,,,,,,,,,,,,,,,,,,,,,,,
2328.0999999940395,,shortestpath_phase,1424970,,GW/gatlinburg.png,,,,50,GW/newhope.png,GW/hanover.png,0,0.5769230769230769,,,,GW/newhope.png,,,,,One Edge Diff,Three Edge Four Edge,,,,,,,,,,,,,
null,,html-keyboard-response,1425972,,<p></p>,,,,null,,,,,,,,,,,,,,,,,,,,,,,,,,,
1722.5999999940395,,shortestpath_phase,1427696,,GW/peoria.png,,,,50,GW/boulder.png,GW/hotsprings.png,1,0.5849056603773585,,,,GW/hotsprings.png,,,,,Two Edge Diff,Three Edge Five Edge,,,,,,,,,,,,,
null,,html-keyboard-response,1428698,,<p></p>,,,,null,,,,,,,,,,,,,,,,,,,,,,,,,,,
1871,,shortestpath_phase,1430570,,GW/shreveport.png,,,,49,GW/gatlinburg.png,GW/hanover.png,1,0.5925925925925926,,,,GW/gatlinburg.png,,,,,One Edge Diff,Two Edge Three Edge,,,,,,,,,,,,,
null,,html-keyboard-response,1431572,,<p></p>,,,,null,,,,,,,,,,,,,,,,,,,,,,,,,,,
1590.5,,shortestpath_phase,1433164,,GW/leesburg.png,,,,49,GW/racine.png,GW/shreveport.png,1,0.6,,,,GW/racine.png,,,,,Three Edge Diff,Three Edge Six Edge,,,,,,,,,,,,,
null,,html-keyboard-response,1434166,,<p></p>,,,,null,,,,,,,,,,,,,,,,,,,,,,,,,,,
1574,,shortestpath_phase,1435741,,GW/shreveport.png,,,,49,GW/hotsprings.png,GW/leesburg.png,1,0.6071428571428571,,,,GW/hotsprings.png,,,,,Two Edge Diff,Three Edge Five Edge,,,,,,,,,,,,,
null,,html-keyboard-response,1436743,,<p></p>,,,,null,,,,,,,,,,,,,,,,,,,,,,,,,,,
2267.2000000178814,,shortestpath_phase,1439012,,GW/peoria.png,,,,50,GW/shreveport.png,GW/carmel.png,1,0.6140350877192983,,,,GW/carmel.png,,,,,Three Edge Diff,Three Edge Six Edge,,,,,,,,,,,,,
null,,html-keyboard-response,1440015,,<p></p>,,,,null,,,,,,,,,,,,,,,,,,,,,,,,,,,
2015.9000000059605,,shortestpath_phase,1442032,,GW/racine.png,,,,49,GW/hotsprings.png,GW/westpalmbeach.png,1,0.6206896551724138,,,,GW/hotsprings.png,,,,,Three Edge Diff,Three Edge Six Edge,,,,,,,,,,,,,
null,,html-keyboard-response,1443034,,<p></p>,,,,null,,,,,,,,,,,,,,,,,,,,,,,,,,,
1891.2000000178814,,shortestpath_phase,1444926,,GW/gatlinburg.png,,,,50,GW/huntsville.png,GW/peoria.png,0,0.6101694915254238,,,,GW/huntsville.png,,,,,Four Edge Diff,Two Edge Six Edge,,,,,,,,,,,,,
null,,html-keyboard-response,1445927,,<p></p>,,,,null,,,,,,,,,,,,,,,,,,,,,,,,,,,
1876.5,,shortestpath_phase,1447805,,GW/westpalmbeach.png,,,,50,GW/peoria.png,GW/hotsprings.png,1,0.6166666666666667,,,,GW/hotsprings.png,,,,,Two Edge Diff,Four Edge Six Edge,,,,,,,,,,,,,
null,,html-keyboard-response,1448808,,<p></p>,,,,null,,,,,,,,,,,,,,,,,,,,,,,,,,,
1846.800000011921,,shortestpath_phase,1450656,,GW/shreveport.png,,,,49,GW/newhope.png,GW/racine.png,1,0.6229508196721312,,,,GW/newhope.png,,,,,Two Edge Diff,Two Edge Four Edge,,,,,,,,,,,,,
null,,html-keyboard-response,1451658,,<p></p>,,,,null,,,,,,,,,,,,,,,,,,,,,,,,,,,
1785.800000011921,,shortestpath_phase,1453445,,GW/gatlinburg.png,,,,49,GW/racine.png,GW/hotsprings.png,0,0.6129032258064516,,,,GW/hotsprings.png,,,,,Two Edge Diff,Three Edge Five Edge,,,,,,,,,,,,,
null,,html-keyboard-response,1454447,,<p></p>,,,,null,,,,,,,,,,,,,,,,,,,,,,,,,,,
1760.4000000059605,,shortestpath_phase,1456209,,GW/carmel.png,,,,49,GW/boulder.png,GW/westpalmbeach.png,1,0.6190476190476191,,,,GW/boulder.png,,,,,Two Edge Diff,Three Edge Five Edge,,,,,,,,,,,,,
