rt,responses,trial_type,time_elapsed,sequence,stimulus,graphorder,button_pressed,response,key_press,stimulus_left,stimulus_right,accuracy,cumulative_accuracy,stimulus_down_left,stimulus_down_mid,stimulus_down_right,stimulus_correct,stimulus_short,stimulus_far,weighted_accuracy,condition,specific_pairs,imgL_ID,imgR_ID,linedress,linedressed,detour_trial,linedressed_detor,problems,smooth,distraction,strategies,easier,similar,comments
6049,{worker_id:6654c3056acf3abb982b23ab},id_enter,6051,interleaved,replication,GW/hotsprings.png; GW/newhope.png; GW/hanover.png; GW/peoria.png; GW/westpalmbeach.png; GW/boulder.png; GW/leesburg.png; GW/huntsville.png; GW/racine.png; GW/cornwall.png; GW/gatlinburg.png; GW/shreveport.png; GW/carmel.png,,,,,,,,,,,,,,,,,,,,,,,,,,,,,
16947,,fullscreen,23004,,fullscreen,,0,,,,,,,,,,,,,,,,,,,,,,,,,,,,
13433.90000000596,,intro_1,36441,,instruct,,0,,,,,,,,,,,,,,,,,,,,,,,,,,,,
24940.899999976158,,intro_2,61384,,instruct,,1,Next,,,,,,,,,,,,,,,,,,,,,,,,,,,
16275.5,,intro_3,77661,,instruct,,1,Next,,,,,,,,,,,,,,,,,,,,,,,,,,,
null,,learn_prac_1,80663,,lean_prac_1,,,,null,,,,,,,,,,,,,,,,,,,,,,,,,,
null,,html-keyboard-response,81666,,<p></p>,,,,null,,,,,,,,,,,,,,,,,,,,,,,,,,
7744.800000011921,,intro_1,89412,,instruct,,0,,,,,,,,,,,,,,,,,,,,,,,,,,,,
15139.59999999404,,intro_2,104554,,instruct,,1,Next,,,,,,,,,,,,,,,,,,,,,,,,,,,
null,,learn_prac_2,107555,,lean_prac_2,,,,null,,,,,,,,,,,,,,,,,,,,,,,,,,
null,,html-keyboard-response,108558,,<p></p>,,,,null,,,,,,,,,,,,,,,,,,,,,,,,,,
6066.5,,intro_1,114626,,instruct,,0,,,,,,,,,,,,,,,,,,,,,,,,,,,,
9131.40000000596,,intro_2,123759,,instruct,,1,Next,,,,,,,,,,,,,,,,,,,,,,,,,,,
44585.59999999404,,intro_3,168346,,instruct,,1,Next,,,,,,,,,,,,,,,,,,,,,,,,,,,
null,,prac_atten_color_black,168738,,black_plus_sign,,,,null,,,,,,,,,,,,,,,,,,,,,,,,,,
null,,prac_atten_color,169750,,prac_stop_color,,,,null,,,,,,,,,,,,,,,,,,,,,,,,,,
23.30000001192093,,prac_atten_color_black,171751,,black_plus_sign,,,,49,,,,,,,,,,,,,,,,,,,,,,,,,,
null,,prac_atten_color_black,172143,,black_plus_sign,,,,null,,,,,,,,,,,,,,,,,,,,,,,,,,
790.5,,prac_atten_color,173005,,prac_stop_color,,,,50,,,,,,,,,,,,,,,,,,,,,,,,,,
null,,prac_atten_color_black,175007,,black_plus_sign,,,,null,,,,,,,,,,,,,,,,,,,,,,,,,,
null,,prac_atten_color_black,175551,,black_plus_sign,,,,null,,,,,,,,,,,,,,,,,,,,,,,,,,
680.2999999821186,,prac_atten_color,176439,,prac_stop_color,,,,50,,,,,,,,,,,,,,,,,,,,,,,,,,
null,,prac_atten_color_black,178441,,black_plus_sign,,,,null,,,,,,,,,,,,,,,,,,,,,,,,,,
null,,prac_atten_color_black,178957,,black_plus_sign,,,,null,,,,,,,,,,,,,,,,,,,,,,,,,,
519.7999999821186,,prac_atten_color,179775,,prac_stop_color,,,,49,,,,,,,,,,,,,,,,,,,,,,,,,,
null,,prac_atten_color_black,181776,,black_plus_sign,,,,null,,,,,,,,,,,,,,,,,,,,,,,,,,
null,,prac_atten_color_black,182363,,black_plus_sign,,,,null,,,,,,,,,,,,,,,,,,,,,,,,,,
555.5999999940395,,prac_atten_color,182984,,prac_stop_color,,,,50,,,,,,,,,,,,,,,,,,,,,,,,,,
null,,prac_atten_color_black,184985,,black_plus_sign,,,,null,,,,,,,,,,,,,,,,,,,,,,,,,,
null,,prac_atten_color_black,185768,,black_plus_sign,,,,null,,,,,,,,,,,,,,,,,,,,,,,,,,
null,,prac_atten_color,186356,,prac_stop_color,,,,null,,,,,,,,,,,,,,,,,,,,,,,,,,
97.5,,prac_atten_color_black,188358,,black_plus_sign,,,,50,,,,,,,,,,,,,,,,,,,,,,,,,,
null,,prac_atten_color_black,189174,,black_plus_sign,,,,null,,,,,,,,,,,,,,,,,,,,,,,,,,
396.09999999403954,,prac_atten_color,190099,,prac_stop_color,,,,49,,,,,,,,,,,,,,,,,,,,,,,,,,
null,,prac_atten_color_black,192100,,black_plus_sign,,,,null,,,,,,,,,,,,,,,,,,,,,,,,,,
null,,prac_atten_color_black,192585,,black_plus_sign,,,,null,,,,,,,,,,,,,,,,,,,,,,,,,,
431.90000000596046,,prac_atten_color,193312,,prac_stop_color,,,,50,,,,,,,,,,,,,,,,,,,,,,,,,,
null,,prac_atten_color_black,195314,,black_plus_sign,,,,null,,,,,,,,,,,,,,,,,,,,,,,,,,
null,,prac_atten_color_black,196002,,black_plus_sign,,,,null,,,,,,,,,,,,,,,,,,,,,,,,,,
438.59999999403954,,prac_atten_color,197003,,prac_stop_color,,,,49,,,,,,,,,,,,,,,,,,,,,,,,,,
null,,prac_atten_color_black,199004,,black_plus_sign,,,,null,,,,,,,,,,,,,,,,,,,,,,,,,,
null,,prac_atten_color_black,199407,,black_plus_sign,,,,null,,,,,,,,,,,,,,,,,,,,,,,,,,
null,,prac_atten_color,199903,,prac_stop_color,,,,null,,,,,,,,,,,,,,,,,,,,,,,,,,
45.5,,prac_atten_color_black,201905,,black_plus_sign,,,,49,,,,,,,,,,,,,,,,,,,,,,,,,,
26712,,attentioncheck_feedback,228618,,cross_check_feedback,,0,,,,,,,,,,,,,,,,,,,,,,,,,,,,
29581.69999998808,,last_instruct,258201,,instruct,,,,32,,,,,,,,,,,,,,,,,,,,,,,,,,
null,,learn_phase(without_color),261202,,black_plus_sign,,,,null,GW/peoria.png,GW/newhope.png,,,,,,,,,,,,,,,,,,,,,,,,
null,,black_cross(without_color),262063,,yellow,,,,null,GW/peoria.png,GW/newhope.png,,,,,,,,,,,,,,,,,,,,,,,,
null,,rt_plussign_withcolor,262564,,yellow,,,,null,GW/peoria.png,GW/newhope.png,,,,,,,,,,,,,,,,,,,,,,,,
1179.0999999940395,,rt_thecrossant_black,263708,,black_plus_sign,,,,50,,,1,1,,,,,,,,,,,,,,,,,,,,,,
null,,color_black,263811,,black_plus_sign,,,,null,,,,,,,,,,,,,,,,,,,,,,,,,,
null,,learn_phase(without_color),266814,,black_plus_sign,,,,null,GW/peoria.png,GW/newhope.png,,,,,,,,,,,,,,,,,,,,,,,,
null,,black_cross(without_color),267648,,yellow,,,,null,GW/peoria.png,GW/newhope.png,,,,,,,,,,,,,,,,,,,,,,,,
null,,rt_plussign_withcolor,268149,,yellow,,,,null,GW/peoria.png,GW/newhope.png,,,,,,,,,,,,,,,,,,,,,,,,
971,,rt_thecrossant_black,269319,,black_plus_sign,,,,50,,,1,1,,,,,,,,,,,,,,,,,,,,,,
null,,color_black,269421,,black_plus_sign,,,,null,,,,,,,,,,,,,,,,,,,,,,,,,,
null,,learn_phase(without_color),272423,,black_plus_sign,,,,null,GW/shreveport.png,GW/peoria.png,,,,,,,,,,,,,,,,,,,,,,,,
null,,black_cross(without_color),273290,,blue,,,,null,GW/shreveport.png,GW/peoria.png,,,,,,,,,,,,,,,,,,,,,,,,
null,,rt_plussign_withcolor,273793,,blue,,,,null,GW/shreveport.png,GW/peoria.png,,,,,,,,,,,,,,,,,,,,,,,,
1139.5,,rt_thecrossant_black,274931,,black_plus_sign,,,,49,,,1,1,,,,,,,,,,,,,,,,,,,,,,
null,,color_black,275033,,black_plus_sign,,,,null,,,,,,,,,,,,,,,,,,,,,,,,,,
null,,learn_phase(without_color),278035,,black_plus_sign,,,,null,GW/boulder.png,GW/hanover.png,,,,,,,,,,,,,,,,,,,,,,,,
null,,black_cross(without_color),278793,,yellow,,,,null,GW/boulder.png,GW/hanover.png,,,,,,,,,,,,,,,,,,,,,,,,
null,,rt_plussign_withcolor,279310,,yellow,,,,null,GW/boulder.png,GW/hanover.png,,,,,,,,,,,,,,,,,,,,,,,,
1134.9000000059605,,rt_thecrossant_black,280557,,black_plus_sign,,,,50,,,1,1,,,,,,,,,,,,,,,,,,,,,,
null,,color_black,280658,,black_plus_sign,,,,null,,,,,,,,,,,,,,,,,,,,,,,,,,
null,,learn_phase(without_color),283660,,black_plus_sign,,,,null,GW/shreveport.png,GW/gatlinburg.png,,,,,,,,,,,,,,,,,,,,,,,,
null,,black_cross(without_color),284663,,blue,,,,null,GW/shreveport.png,GW/gatlinburg.png,,,,,,,,,,,,,,,,,,,,,,,,
null,,rt_plussign_withcolor,285166,,blue,,,,null,GW/shreveport.png,GW/gatlinburg.png,,,,,,,,,,,,,,,,,,,,,,,,
1161.699999988079,,rt_thecrossant_black,286166,,black_plus_sign,,,,49,,,1,1,,,,,,,,,,,,,,,,,,,,,,
null,,color_black,286268,,black_plus_sign,,,,null,,,,,,,,,,,,,,,,,,,,,,,,,,
null,,learn_phase(without_color),289271,,black_plus_sign,,,,null,GW/racine.png,GW/gatlinburg.png,,,,,,,,,,,,,,,,,,,,,,,,
null,,black_cross(without_color),289897,,yellow,,,,null,GW/racine.png,GW/gatlinburg.png,,,,,,,,,,,,,,,,,,,,,,,,
null,,rt_plussign_withcolor,290398,,yellow,,,,null,GW/racine.png,GW/gatlinburg.png,,,,,,,,,,,,,,,,,,,,,,,,
1175.0999999940395,,rt_thecrossant_black,291777,,black_plus_sign,,,,50,,,1,1,,,,,,,,,,,,,,,,,,,,,,
null,,color_black,291879,,black_plus_sign,,,,null,,,,,,,,,,,,,,,,,,,,,,,,,,
null,,learn_phase(without_color),294881,,black_plus_sign,,,,null,GW/racine.png,GW/leesburg.png,,,,,,,,,,,,,,,,,,,,,,,,
null,,black_cross(without_color),295577,,blue,,,,null,GW/racine.png,GW/leesburg.png,,,,,,,,,,,,,,,,,,,,,,,,
null,,rt_plussign_withcolor,296079,,blue,,,,null,GW/racine.png,GW/leesburg.png,,,,,,,,,,,,,,,,,,,,,,,,
765.2999999821186,,rt_thecrossant_black,297388,,black_plus_sign,,,,49,,,1,1,,,,,,,,,,,,,,,,,,,,,,
null,,color_black,297489,,black_plus_sign,,,,null,,,,,,,,,,,,,,,,,,,,,,,,,,
null,,learn_phase(without_color),300492,,black_plus_sign,,,,null,GW/hanover.png,GW/boulder.png,,,,,,,,,,,,,,,,,,,,,,,,
null,,black_cross(without_color),301245,,blue,,,,null,GW/hanover.png,GW/boulder.png,,,,,,,,,,,,,,,,,,,,,,,,
null,,rt_plussign_withcolor,301746,,blue,,,,null,GW/hanover.png,GW/boulder.png,,,,,,,,,,,,,,,,,,,,,,,,
837.8000000119209,,rt_thecrossant_black,302997,,black_plus_sign,,,,49,,,1,1,,,,,,,,,,,,,,,,,,,,,,
null,,color_black,303099,,black_plus_sign,,,,null,,,,,,,,,,,,,,,,,,,,,,,,,,
null,,learn_phase(without_color),306101,,black_plus_sign,,,,null,GW/peoria.png,GW/shreveport.png,,,,,,,,,,,,,,,,,,,,,,,,
null,,black_cross(without_color),306816,,blue,,,,null,GW/peoria.png,GW/shreveport.png,,,,,,,,,,,,,,,,,,,,,,,,
null,,rt_plussign_withcolor,307318,,blue,,,,null,GW/peoria.png,GW/shreveport.png,,,,,,,,,,,,,,,,,,,,,,,,
1018.5,,rt_thecrossant_black,308606,,black_plus_sign,,,,49,,,1,1,,,,,,,,,,,,,,,,,,,,,,
null,,color_black,308708,,black_plus_sign,,,,null,,,,,,,,,,,,,,,,,,,,,,,,,,
null,,learn_phase(without_color),311710,,black_plus_sign,,,,null,GW/hanover.png,GW/newhope.png,,,,,,,,,,,,,,,,,,,,,,,,
null,,black_cross(without_color),312793,,yellow,,,,null,GW/hanover.png,GW/newhope.png,,,,,,,,,,,,,,,,,,,,,,,,
null,,rt_plussign_withcolor,313295,,yellow,,,,null,GW/hanover.png,GW/newhope.png,,,,,,,,,,,,,,,,,,,,,,,,
1305.5999999940395,,rt_thecrossant_black,314215,,black_plus_sign,,,,49,,,0,0.9,,,,,,,,,,,,,,,,,,,,,,
null,,color_black,314317,,black_plus_sign,,,,null,,,,,,,,,,,,,,,,,,,,,,,,,,
null,,learn_phase(without_color),317318,,black_plus_sign,,,,null,GW/newhope.png,GW/hotsprings.png,,,,,,,,,,,,,,,,,,,,,,,,
null,,black_cross(without_color),318288,,yellow,,,,null,GW/newhope.png,GW/hotsprings.png,,,,,,,,,,,,,,,,,,,,,,,,
null,,rt_plussign_withcolor,318790,,yellow,,,,null,GW/newhope.png,GW/hotsprings.png,,,,,,,,,,,,,,,,,,,,,,,,
1214.4000000059605,,rt_thecrossant_black,319824,,black_plus_sign,,,,50,,,1,0.9090909090909091,,,,,,,,,,,,,,,,,,,,,,
null,,color_black,319926,,black_plus_sign,,,,null,,,,,,,,,,,,,,,,,,,,,,,,,,
null,,learn_phase(without_color),322928,,black_plus_sign,,,,null,GW/huntsville.png,GW/cornwall.png,,,,,,,,,,,,,,,,,,,,,,,,
null,,black_cross(without_color),323882,,blue,,,,null,GW/huntsville.png,GW/cornwall.png,,,,,,,,,,,,,,,,,,,,,,,,
473,,rt_plussign_withcolor,324383,,blue,,,,49,GW/huntsville.png,GW/cornwall.png,,,,,,,,,,,,,,,,,,,,,,,,
null,,rt_thecrossant_black,325434,,black_plus_sign,,,,null,,,1,0.9166666666666666,,,,,,,,,,,,,,,,,,,,,,
null,,color_black,325535,,black_plus_sign,,,,null,,,,,,,,,,,,,,,,,,,,,,,,,,
null,,learn_phase(without_color),328537,,black_plus_sign,,,,null,GW/hotsprings.png,GW/newhope.png,,,,,,,,,,,,,,,,,,,,,,,,
null,,black_cross(without_color),329271,,yellow,,,,null,GW/hotsprings.png,GW/newhope.png,,,,,,,,,,,,,,,,,,,,,,,,
null,,rt_plussign_withcolor,329772,,yellow,,,,null,GW/hotsprings.png,GW/newhope.png,,,,,,,,,,,,,,,,,,,,,,,,
1096.5,,rt_thecrossant_black,331056,,black_plus_sign,,,,50,,,1,0.9230769230769231,,,,,,,,,,,,,,,,,,,,,,
null,,color_black,331158,,black_plus_sign,,,,null,,,,,,,,,,,,,,,,,,,,,,,,,,
null,,learn_phase(without_color),334160,,black_plus_sign,,,,null,GW/huntsville.png,GW/leesburg.png,,,,,,,,,,,,,,,,,,,,,,,,
null,,black_cross(without_color),334595,,blue,,,,null,GW/huntsville.png,GW/leesburg.png,,,,,,,,,,,,,,,,,,,,,,,,
null,,rt_plussign_withcolor,335096,,blue,,,,null,GW/huntsville.png,GW/leesburg.png,,,,,,,,,,,,,,,,,,,,,,,,
1147.5,,rt_thecrossant_black,336665,,black_plus_sign,,,,49,,,1,0.9285714285714286,,,,,,,,,,,,,,,,,,,,,,
null,,color_black,336767,,black_plus_sign,,,,null,,,,,,,,,,,,,,,,,,,,,,,,,,
null,,learn_phase(without_color),339768,,black_plus_sign,,,,null,GW/racine.png,GW/boulder.png,,,,,,,,,,,,,,,,,,,,,,,,
null,,black_cross(without_color),340743,,yellow,,,,null,GW/racine.png,GW/boulder.png,,,,,,,,,,,,,,,,,,,,,,,,
null,,rt_plussign_withcolor,341245,,yellow,,,,null,GW/racine.png,GW/boulder.png,,,,,,,,,,,,,,,,,,,,,,,,
635.5,,rt_thecrossant_black,342274,,black_plus_sign,,,,50,,,1,0.9333333333333333,,,,,,,,,,,,,,,,,,,,,,
null,,color_black,342377,,black_plus_sign,,,,null,,,,,,,,,,,,,,,,,,,,,,,,,,
null,,learn_phase(without_color),345380,,black_plus_sign,,,,null,GW/leesburg.png,GW/huntsville.png,,,,,,,,,,,,,,,,,,,,,,,,
null,,black_cross(without_color),346431,,blue,,,,null,GW/leesburg.png,GW/huntsville.png,,,,,,,,,,,,,,,,,,,,,,,,
null,,rt_plussign_withcolor,346933,,blue,,,,null,GW/leesburg.png,GW/huntsville.png,,,,,,,,,,,,,,,,,,,,,,,,
1258.9000000059605,,rt_thecrossant_black,347899,,black_plus_sign,,,,49,,,1,0.9375,,,,,,,,,,,,,,,,,,,,,,
null,,color_black,348007,,black_plus_sign,,,,null,,,,,,,,,,,,,,,,,,,,,,,,,,
null,,learn_phase(without_color),351009,,black_plus_sign,,,,null,GW/newhope.png,GW/hanover.png,,,,,,,,,,,,,,,,,,,,,,,,
null,,black_cross(without_color),351629,,blue,,,,null,GW/newhope.png,GW/hanover.png,,,,,,,,,,,,,,,,,,,,,,,,
null,,rt_plussign_withcolor,352130,,blue,,,,null,GW/newhope.png,GW/hanover.png,,,,,,,,,,,,,,,,,,,,,,,,
1567.800000011921,,rt_thecrossant_black,353529,,black_plus_sign,,,,49,,,1,0.9411764705882353,,,,,,,,,,,,,,,,,,,,,,
null,,color_black,353630,,black_plus_sign,,,,null,,,,,,,,,,,,,,,,,,,,,,,,,,
null,,learn_phase(without_color),356633,,black_plus_sign,,,,null,GW/boulder.png,GW/racine.png,,,,,,,,,,,,,,,,,,,,,,,,
null,,black_cross(without_color),357283,,yellow,,,,null,GW/boulder.png,GW/racine.png,,,,,,,,,,,,,,,,,,,,,,,,
null,,rt_plussign_withcolor,357785,,yellow,,,,null,GW/boulder.png,GW/racine.png,,,,,,,,,,,,,,,,,,,,,,,,
944.3999999761581,,rt_thecrossant_black,359140,,black_plus_sign,,,,50,,,1,0.9444444444444444,,,,,,,,,,,,,,,,,,,,,,
null,,color_black,359242,,black_plus_sign,,,,null,,,,,,,,,,,,,,,,,,,,,,,,,,
null,,learn_phase(without_color),362244,,black_plus_sign,,,,null,GW/peoria.png,GW/newhope.png,,,,,,,,,,,,,,,,,,,,,,,,
null,,black_cross(without_color),362770,,blue,,,,null,GW/peoria.png,GW/newhope.png,,,,,,,,,,,,,,,,,,,,,,,,
null,,rt_plussign_withcolor,363272,,blue,,,,null,GW/peoria.png,GW/newhope.png,,,,,,,,,,,,,,,,,,,,,,,,
826.4000000059605,,rt_thecrossant_black,364759,,black_plus_sign,,,,49,,,1,0.9473684210526315,,,,,,,,,,,,,,,,,,,,,,
null,,color_black,364860,,black_plus_sign,,,,null,,,,,,,,,,,,,,,,,,,,,,,,,,
null,,learn_phase(without_color),367863,,black_plus_sign,,,,null,GW/leesburg.png,GW/huntsville.png,,,,,,,,,,,,,,,,,,,,,,,,
null,,black_cross(without_color),368855,,blue,,,,null,GW/leesburg.png,GW/huntsville.png,,,,,,,,,,,,,,,,,,,,,,,,
null,,rt_plussign_withcolor,369356,,blue,,,,null,GW/leesburg.png,GW/huntsville.png,,,,,,,,,,,,,,,,,,,,,,,,
619.0999999940395,,rt_thecrossant_black,370369,,black_plus_sign,,,,49,,,1,0.95,,,,,,,,,,,,,,,,,,,,,,
null,,color_black,370470,,black_plus_sign,,,,null,,,,,,,,,,,,,,,,,,,,,,,,,,
null,,learn_phase(without_color),373472,,black_plus_sign,,,,null,GW/peoria.png,GW/shreveport.png,,,,,,,,,,,,,,,,,,,,,,,,
null,,black_cross(without_color),374228,,blue,,,,null,GW/peoria.png,GW/shreveport.png,,,,,,,,,,,,,,,,,,,,,,,,
null,,rt_plussign_withcolor,374729,,blue,,,,null,GW/peoria.png,GW/shreveport.png,,,,,,,,,,,,,,,,,,,,,,,,
1187.3999999761581,,rt_thecrossant_black,375976,,black_plus_sign,,,,49,,,1,0.9523809523809523,,,,,,,,,,,,,,,,,,,,,,
null,,color_black,376077,,black_plus_sign,,,,null,,,,,,,,,,,,,,,,,,,,,,,,,,
null,,learn_phase(without_color),379079,,black_plus_sign,,,,null,GW/hanover.png,GW/boulder.png,,,,,,,,,,,,,,,,,,,,,,,,
null,,black_cross(without_color),379669,,yellow,,,,null,GW/hanover.png,GW/boulder.png,,,,,,,,,,,,,,,,,,,,,,,,
null,,rt_plussign_withcolor,380171,,yellow,,,,null,GW/hanover.png,GW/boulder.png,,,,,,,,,,,,,,,,,,,,,,,,
1419.699999988079,,rt_thecrossant_black,381585,,black_plus_sign,,,,50,,,1,0.9545454545454546,,,,,,,,,,,,,,,,,,,,,,
null,,color_black,381688,,black_plus_sign,,,,null,,,,,,,,,,,,,,,,,,,,,,,,,,
null,,learn_phase(without_color),384690,,black_plus_sign,,,,null,GW/hanover.png,GW/gatlinburg.png,,,,,,,,,,,,,,,,,,,,,,,,
null,,black_cross(without_color),385635,,yellow,,,,null,GW/hanover.png,GW/gatlinburg.png,,,,,,,,,,,,,,,,,,,,,,,,
null,,rt_plussign_withcolor,386137,,yellow,,,,null,GW/hanover.png,GW/gatlinburg.png,,,,,,,,,,,,,,,,,,,,,,,,
757.5999999940395,,rt_thecrossant_black,387195,,black_plus_sign,,,,50,,,1,0.9565217391304348,,,,,,,,,,,,,,,,,,,,,,
null,,color_black,387297,,black_plus_sign,,,,null,,,,,,,,,,,,,,,,,,,,,,,,,,
null,,learn_phase(without_color),390299,,black_plus_sign,,,,null,GW/leesburg.png,GW/carmel.png,,,,,,,,,,,,,,,,,,,,,,,,
null,,black_cross(without_color),391334,,blue,,,,null,GW/leesburg.png,GW/carmel.png,,,,,,,,,,,,,,,,,,,,,,,,
null,,rt_plussign_withcolor,391836,,blue,,,,null,GW/leesburg.png,GW/carmel.png,,,,,,,,,,,,,,,,,,,,,,,,
1616.7000000178814,,rt_thecrossant_black,392806,,black_plus_sign,,,,49,,,1,0.9583333333333334,,,,,,,,,,,,,,,,,,,,,,
null,,color_black,392908,,black_plus_sign,,,,null,,,,,,,,,,,,,,,,,,,,,,,,,,
null,,learn_phase(without_color),395911,,black_plus_sign,,,,null,GW/gatlinburg.png,GW/hanover.png,,,,,,,,,,,,,,,,,,,,,,,,
null,,black_cross(without_color),396364,,yellow,,,,null,GW/gatlinburg.png,GW/hanover.png,,,,,,,,,,,,,,,,,,,,,,,,
null,,rt_plussign_withcolor,396866,,yellow,,,,null,GW/gatlinburg.png,GW/hanover.png,,,,,,,,,,,,,,,,,,,,,,,,
1373.1000000238419,,rt_thecrossant_black,398416,,black_plus_sign,,,,50,,,1,0.96,,,,,,,,,,,,,,,,,,,,,,
null,,color_black,398518,,black_plus_sign,,,,null,,,,,,,,,,,,,,,,,,,,,,,,,,
null,,learn_phase(without_color),401520,,black_plus_sign,,,,null,GW/hanover.png,GW/gatlinburg.png,,,,,,,,,,,,,,,,,,,,,,,,
null,,black_cross(without_color),402489,,blue,,,,null,GW/hanover.png,GW/gatlinburg.png,,,,,,,,,,,,,,,,,,,,,,,,
418.5,,rt_plussign_withcolor,402991,,blue,,,,49,GW/hanover.png,GW/gatlinburg.png,,,,,,,,,,,,,,,,,,,,,,,,
null,,rt_thecrossant_black,404027,,black_plus_sign,,,,null,,,1,0.9615384615384616,,,,,,,,,,,,,,,,,,,,,,
null,,color_black,404128,,black_plus_sign,,,,null,,,,,,,,,,,,,,,,,,,,,,,,,,
null,,learn_phase(without_color),407130,,black_plus_sign,,,,null,GW/huntsville.png,GW/racine.png,,,,,,,,,,,,,,,,,,,,,,,,
null,,black_cross(without_color),407979,,yellow,,,,null,GW/huntsville.png,GW/racine.png,,,,,,,,,,,,,,,,,,,,,,,,
null,,rt_plussign_withcolor,408480,,yellow,,,,null,GW/huntsville.png,GW/racine.png,,,,,,,,,,,,,,,,,,,,,,,,
1599.4000000059605,,rt_thecrossant_black,409637,,black_plus_sign,,,,50,,,1,0.9629629629629629,,,,,,,,,,,,,,,,,,,,,,
null,,color_black,409740,,black_plus_sign,,,,null,,,,,,,,,,,,,,,,,,,,,,,,,,
null,,learn_phase(without_color),412742,,black_plus_sign,,,,null,GW/hanover.png,GW/boulder.png,,,,,,,,,,,,,,,,,,,,,,,,
null,,black_cross(without_color),413737,,yellow,,,,null,GW/hanover.png,GW/boulder.png,,,,,,,,,,,,,,,,,,,,,,,,
null,,rt_plussign_withcolor,414238,,yellow,,,,null,GW/hanover.png,GW/boulder.png,,,,,,,,,,,,,,,,,,,,,,,,
1087.0999999940395,,rt_thecrossant_black,415252,,black_plus_sign,,,,50,,,1,0.9642857142857143,,,,,,,,,,,,,,,,,,,,,,
null,,color_black,415355,,black_plus_sign,,,,null,,,,,,,,,,,,,,,,,,,,,,,,,,
null,,learn_phase(without_color),418357,,black_plus_sign,,,,null,GW/gatlinburg.png,GW/racine.png,,,,,,,,,,,,,,,,,,,,,,,,
null,,black_cross(without_color),419388,,blue,,,,null,GW/gatlinburg.png,GW/racine.png,,,,,,,,,,,,,,,,,,,,,,,,
null,,rt_plussign_withcolor,419889,,blue,,,,null,GW/gatlinburg.png,GW/racine.png,,,,,,,,,,,,,,,,,,,,,,,,
1179.5999999940395,,rt_thecrossant_black,420862,,black_plus_sign,,,,49,,,1,0.9655172413793104,,,,,,,,,,,,,,,,,,,,,,
null,,color_black,420964,,black_plus_sign,,,,null,,,,,,,,,,,,,,,,,,,,,,,,,,
null,,learn_phase(without_color),423965,,black_plus_sign,,,,null,GW/newhope.png,GW/hanover.png,,,,,,,,,,,,,,,,,,,,,,,,
null,,black_cross(without_color),424636,,yellow,,,,null,GW/newhope.png,GW/hanover.png,,,,,,,,,,,,,,,,,,,,,,,,
null,,rt_plussign_withcolor,425152,,yellow,,,,null,GW/newhope.png,GW/hanover.png,,,,,,,,,,,,,,,,,,,,,,,,
1200.0999999940395,,rt_thecrossant_black,426487,,black_plus_sign,,,,50,,,1,0.9666666666666667,,,,,,,,,,,,,,,,,,,,,,
null,,color_black,426589,,black_plus_sign,,,,null,,,,,,,,,,,,,,,,,,,,,,,,,,
null,,learn_phase(without_color),429591,,black_plus_sign,,,,null,GW/gatlinburg.png,GW/hanover.png,,,,,,,,,,,,,,,,,,,,,,,,
null,,black_cross(without_color),430453,,yellow,,,,null,GW/gatlinburg.png,GW/hanover.png,,,,,,,,,,,,,,,,,,,,,,,,
null,,rt_plussign_withcolor,430956,,yellow,,,,null,GW/gatlinburg.png,GW/hanover.png,,,,,,,,,,,,,,,,,,,,,,,,
804.1999999880791,,rt_thecrossant_black,432097,,black_plus_sign,,,,50,,,1,0.967741935483871,,,,,,,,,,,,,,,,,,,,,,
null,,color_black,432198,,black_plus_sign,,,,null,,,,,,,,,,,,,,,,,,,,,,,,,,
null,,learn_phase(without_color),435200,,black_plus_sign,,,,null,GW/leesburg.png,GW/boulder.png,,,,,,,,,,,,,,,,,,,,,,,,
null,,black_cross(without_color),436145,,blue,,,,null,GW/leesburg.png,GW/boulder.png,,,,,,,,,,,,,,,,,,,,,,,,
null,,rt_plussign_withcolor,436646,,blue,,,,null,GW/leesburg.png,GW/boulder.png,,,,,,,,,,,,,,,,,,,,,,,,
1121.800000011921,,rt_thecrossant_black,437706,,black_plus_sign,,,,49,,,1,0.96875,,,,,,,,,,,,,,,,,,,,,,
null,,color_black,437808,,black_plus_sign,,,,null,,,,,,,,,,,,,,,,,,,,,,,,,,
null,,learn_phase(without_color),440810,,black_plus_sign,,,,null,GW/racine.png,GW/boulder.png,,,,,,,,,,,,,,,,,,,,,,,,
null,,black_cross(without_color),441748,,blue,,,,null,GW/racine.png,GW/boulder.png,,,,,,,,,,,,,,,,,,,,,,,,
null,,rt_plussign_withcolor,442250,,blue,,,,null,GW/racine.png,GW/boulder.png,,,,,,,,,,,,,,,,,,,,,,,,
1571.300000011921,,rt_thecrossant_black,443331,,black_plus_sign,,,,49,,,1,0.9696969696969697,,,,,,,,,,,,,,,,,,,,,,
null,,color_black,443433,,black_plus_sign,,,,null,,,,,,,,,,,,,,,,,,,,,,,,,,
null,,learn_phase(without_color),446436,,black_plus_sign,,,,null,GW/huntsville.png,GW/racine.png,,,,,,,,,,,,,,,,,,,,,,,,
null,,black_cross(without_color),447045,,yellow,,,,null,GW/huntsville.png,GW/racine.png,,,,,,,,,,,,,,,,,,,,,,,,
null,,rt_plussign_withcolor,447546,,yellow,,,,null,GW/huntsville.png,GW/racine.png,,,,,,,,,,,,,,,,,,,,,,,,
1414.5,,rt_thecrossant_black,448941,,black_plus_sign,,,,50,,,1,0.9705882352941176,,,,,,,,,,,,,,,,,,,,,,
null,,color_black,449043,,black_plus_sign,,,,null,,,,,,,,,,,,,,,,,,,,,,,,,,
null,,learn_phase(without_color),452045,,black_plus_sign,,,,null,GW/boulder.png,GW/leesburg.png,,,,,,,,,,,,,,,,,,,,,,,,
null,,black_cross(without_color),452896,,blue,,,,null,GW/boulder.png,GW/leesburg.png,,,,,,,,,,,,,,,,,,,,,,,,
439.19999998807907,,rt_plussign_withcolor,453397,,blue,,,,49,GW/boulder.png,GW/leesburg.png,,,,,,,,,,,,,,,,,,,,,,,,
null,,rt_thecrossant_black,454551,,black_plus_sign,,,,null,,,1,0.9714285714285714,,,,,,,,,,,,,,,,,,,,,,
null,,color_black,454653,,black_plus_sign,,,,null,,,,,,,,,,,,,,,,,,,,,,,,,,
null,,learn_phase(without_color),457655,,black_plus_sign,,,,null,GW/gatlinburg.png,GW/racine.png,,,,,,,,,,,,,,,,,,,,,,,,
null,,black_cross(without_color),458742,,yellow,,,,null,GW/gatlinburg.png,GW/racine.png,,,,,,,,,,,,,,,,,,,,,,,,
null,,rt_plussign_withcolor,459243,,yellow,,,,null,GW/gatlinburg.png,GW/racine.png,,,,,,,,,,,,,,,,,,,,,,,,
1093.300000011921,,rt_thecrossant_black,460160,,black_plus_sign,,,,50,,,1,0.9722222222222222,,,,,,,,,,,,,,,,,,,,,,
null,,color_black,460262,,black_plus_sign,,,,null,,,,,,,,,,,,,,,,,,,,,,,,,,
null,,learn_phase(without_color),463264,,black_plus_sign,,,,null,GW/hanover.png,GW/newhope.png,,,,,,,,,,,,,,,,,,,,,,,,
null,,black_cross(without_color),464109,,yellow,,,,null,GW/hanover.png,GW/newhope.png,,,,,,,,,,,,,,,,,,,,,,,,
null,,rt_plussign_withcolor,464611,,yellow,,,,null,GW/hanover.png,GW/newhope.png,,,,,,,,,,,,,,,,,,,,,,,,
1222,,rt_thecrossant_black,465770,,black_plus_sign,,,,50,,,1,0.972972972972973,,,,,,,,,,,,,,,,,,,,,,
null,,color_black,465872,,black_plus_sign,,,,null,,,,,,,,,,,,,,,,,,,,,,,,,,
null,,learn_phase(without_color),468873,,black_plus_sign,,,,null,GW/leesburg.png,GW/boulder.png,,,,,,,,,,,,,,,,,,,,,,,,
null,,black_cross(without_color),469589,,blue,,,,null,GW/leesburg.png,GW/boulder.png,,,,,,,,,,,,,,,,,,,,,,,,
null,,rt_plussign_withcolor,470090,,blue,,,,null,GW/leesburg.png,GW/boulder.png,,,,,,,,,,,,,,,,,,,,,,,,
1248.8999999761581,,rt_thecrossant_black,471387,,black_plus_sign,,,,49,,,1,0.9736842105263158,,,,,,,,,,,,,,,,,,,,,,
null,,color_black,471490,,black_plus_sign,,,,null,,,,,,,,,,,,,,,,,,,,,,,,,,
null,,learn_phase(without_color),474492,,black_plus_sign,,,,null,GW/gatlinburg.png,GW/hanover.png,,,,,,,,,,,,,,,,,,,,,,,,
null,,black_cross(without_color),475154,,yellow,,,,null,GW/gatlinburg.png,GW/hanover.png,,,,,,,,,,,,,,,,,,,,,,,,
null,,rt_plussign_withcolor,475656,,yellow,,,,null,GW/gatlinburg.png,GW/hanover.png,,,,,,,,,,,,,,,,,,,,,,,,
876.4000000059605,,rt_thecrossant_black,476997,,black_plus_sign,,,,50,,,1,0.9743589743589743,,,,,,,,,,,,,,,,,,,,,,
null,,color_black,477099,,black_plus_sign,,,,null,,,,,,,,,,,,,,,,,,,,,,,,,,
null,,learn_phase(without_color),480101,,black_plus_sign,,,,null,GW/gatlinburg.png,GW/hanover.png,,,,,,,,,,,,,,,,,,,,,,,,
null,,black_cross(without_color),481114,,yellow,,,,null,GW/gatlinburg.png,GW/hanover.png,,,,,,,,,,,,,,,,,,,,,,,,
null,,rt_plussign_withcolor,481616,,yellow,,,,null,GW/gatlinburg.png,GW/hanover.png,,,,,,,,,,,,,,,,,,,,,,,,
938.6000000238419,,rt_thecrossant_black,482607,,black_plus_sign,,,,50,,,1,0.975,,,,,,,,,,,,,,,,,,,,,,
null,,color_black,482709,,black_plus_sign,,,,null,,,,,,,,,,,,,,,,,,,,,,,,,,
null,,learn_phase(without_color),485711,,black_plus_sign,,,,null,GW/racine.png,GW/huntsville.png,,,,,,,,,,,,,,,,,,,,,,,,
null,,black_cross(without_color),486680,,blue,,,,null,GW/racine.png,GW/huntsville.png,,,,,,,,,,,,,,,,,,,,,,,,
null,,rt_plussign_withcolor,487182,,blue,,,,null,GW/racine.png,GW/huntsville.png,,,,,,,,,,,,,,,,,,,,,,,,
1362.4000000059605,,rt_thecrossant_black,488217,,black_plus_sign,,,,49,,,1,0.975609756097561,,,,,,,,,,,,,,,,,,,,,,
null,,color_black,488320,,black_plus_sign,,,,null,,,,,,,,,,,,,,,,,,,,,,,,,,
null,,learn_phase(without_color),491322,,black_plus_sign,,,,null,GW/racine.png,GW/boulder.png,,,,,,,,,,,,,,,,,,,,,,,,
null,,black_cross(without_color),492347,,yellow,,,,null,GW/racine.png,GW/boulder.png,,,,,,,,,,,,,,,,,,,,,,,,
null,,rt_plussign_withcolor,492849,,yellow,,,,null,GW/racine.png,GW/boulder.png,,,,,,,,,,,,,,,,,,,,,,,,
1108.9000000059605,,rt_thecrossant_black,493828,,black_plus_sign,,,,50,,,1,0.9761904761904762,,,,,,,,,,,,,,,,,,,,,,
null,,color_black,493931,,black_plus_sign,,,,null,,,,,,,,,,,,,,,,,,,,,,,,,,
null,,learn_phase(without_color),496934,,black_plus_sign,,,,null,GW/westpalmbeach.png,GW/peoria.png,,,,,,,,,,,,,,,,,,,,,,,,
null,,black_cross(without_color),497373,,blue,,,,null,GW/westpalmbeach.png,GW/peoria.png,,,,,,,,,,,,,,,,,,,,,,,,
null,,rt_plussign_withcolor,497874,,blue,,,,null,GW/westpalmbeach.png,GW/peoria.png,,,,,,,,,,,,,,,,,,,,,,,,
1487.9000000059605,,rt_thecrossant_black,499439,,black_plus_sign,,,,49,,,1,0.9767441860465116,,,,,,,,,,,,,,,,,,,,,,
null,,color_black,499556,,black_plus_sign,,,,null,,,,,,,,,,,,,,,,,,,,,,,,,,
null,,learn_phase(without_color),502558,,black_plus_sign,,,,null,GW/cornwall.png,GW/huntsville.png,,,,,,,,,,,,,,,,,,,,,,,,
null,,black_cross(without_color),503136,,blue,,,,null,GW/cornwall.png,GW/huntsville.png,,,,,,,,,,,,,,,,,,,,,,,,
null,,rt_plussign_withcolor,503639,,blue,,,,null,GW/cornwall.png,GW/huntsville.png,,,,,,,,,,,,,,,,,,,,,,,,
908.7000000178814,,rt_thecrossant_black,505065,,black_plus_sign,,,,49,,,1,0.9772727272727273,,,,,,,,,,,,,,,,,,,,,,
null,,color_black,505167,,black_plus_sign,,,,null,,,,,,,,,,,,,,,,,,,,,,,,,,
null,,learn_phase(without_color),508170,,black_plus_sign,,,,null,GW/peoria.png,GW/shreveport.png,,,,,,,,,,,,,,,,,,,,,,,,
null,,black_cross(without_color),509248,,blue,,,,null,GW/peoria.png,GW/shreveport.png,,,,,,,,,,,,,,,,,,,,,,,,
null,,rt_plussign_withcolor,509754,,blue,,,,null,GW/peoria.png,GW/shreveport.png,,,,,,,,,,,,,,,,,,,,,,,,
779.7000000178814,,rt_thecrossant_black,510680,,black_plus_sign,,,,49,,,1,0.9777777777777777,,,,,,,,,,,,,,,,,,,,,,
null,,color_black,510782,,black_plus_sign,,,,null,,,,,,,,,,,,,,,,,,,,,,,,,,
null,,learn_phase(without_color),513785,,black_plus_sign,,,,null,GW/racine.png,GW/huntsville.png,,,,,,,,,,,,,,,,,,,,,,,,
null,,black_cross(without_color),514849,,blue,,,,null,GW/racine.png,GW/huntsville.png,,,,,,,,,,,,,,,,,,,,,,,,
498.19999998807907,,rt_plussign_withcolor,515350,,blue,,,,49,GW/racine.png,GW/huntsville.png,,,,,,,,,,,,,,,,,,,,,,,,
null,,rt_thecrossant_black,516295,,black_plus_sign,,,,null,,,1,0.9782608695652174,,,,,,,,,,,,,,,,,,,,,,
null,,color_black,516396,,black_plus_sign,,,,null,,,,,,,,,,,,,,,,,,,,,,,,,,
null,,learn_phase(without_color),519398,,black_plus_sign,,,,null,GW/gatlinburg.png,GW/shreveport.png,,,,,,,,,,,,,,,,,,,,,,,,
null,,black_cross(without_color),520315,,yellow,,,,null,GW/gatlinburg.png,GW/shreveport.png,,,,,,,,,,,,,,,,,,,,,,,,
null,,rt_plussign_withcolor,520817,,yellow,,,,null,GW/gatlinburg.png,GW/shreveport.png,,,,,,,,,,,,,,,,,,,,,,,,
1397.7999999821186,,rt_thecrossant_black,521905,,black_plus_sign,,,,50,,,1,0.9787234042553191,,,,,,,,,,,,,,,,,,,,,,
null,,color_black,522007,,black_plus_sign,,,,null,,,,,,,,,,,,,,,,,,,,,,,,,,
null,,learn_phase(without_color),525009,,black_plus_sign,,,,null,GW/shreveport.png,GW/gatlinburg.png,,,,,,,,,,,,,,,,,,,,,,,,
null,,black_cross(without_color),525973,,blue,,,,null,GW/shreveport.png,GW/gatlinburg.png,,,,,,,,,,,,,,,,,,,,,,,,
null,,rt_plussign_withcolor,526475,,blue,,,,null,GW/shreveport.png,GW/gatlinburg.png,,,,,,,,,,,,,,,,,,,,,,,,
1313.699999988079,,rt_thecrossant_black,527517,,black_plus_sign,,,,49,,,1,0.9791666666666666,,,,,,,,,,,,,,,,,,,,,,
null,,color_black,527619,,black_plus_sign,,,,null,,,,,,,,,,,,,,,,,,,,,,,,,,
null,,learn_phase(without_color),530621,,black_plus_sign,,,,null,GW/huntsville.png,GW/cornwall.png,,,,,,,,,,,,,,,,,,,,,,,,
null,,black_cross(without_color),531486,,yellow,,,,null,GW/huntsville.png,GW/cornwall.png,,,,,,,,,,,,,,,,,,,,,,,,
null,,rt_plussign_withcolor,531988,,yellow,,,,null,GW/huntsville.png,GW/cornwall.png,,,,,,,,,,,,,,,,,,,,,,,,
1157.2999999821186,,rt_thecrossant_black,533127,,black_plus_sign,,,,50,,,1,0.9795918367346939,,,,,,,,,,,,,,,,,,,,,,
null,,color_black,533230,,black_plus_sign,,,,null,,,,,,,,,,,,,,,,,,,,,,,,,,
null,,learn_phase(without_color),536231,,black_plus_sign,,,,null,GW/boulder.png,GW/leesburg.png,,,,,,,,,,,,,,,,,,,,,,,,
null,,black_cross(without_color),536707,,blue,,,,null,GW/boulder.png,GW/leesburg.png,,,,,,,,,,,,,,,,,,,,,,,,
null,,rt_plussign_withcolor,537208,,blue,,,,null,GW/boulder.png,GW/leesburg.png,,,,,,,,,,,,,,,,,,,,,,,,
1208.199999988079,,rt_thecrossant_black,538738,,black_plus_sign,,,,49,,,1,0.98,,,,,,,,,,,,,,,,,,,,,,
null,,color_black,538840,,black_plus_sign,,,,null,,,,,,,,,,,,,,,,,,,,,,,,,,
null,,learn_phase(without_color),541843,,black_plus_sign,,,,null,GW/racine.png,GW/leesburg.png,,,,,,,,,,,,,,,,,,,,,,,,
null,,black_cross(without_color),542399,,blue,,,,null,GW/racine.png,GW/leesburg.png,,,,,,,,,,,,,,,,,,,,,,,,
null,,rt_plussign_withcolor,542901,,blue,,,,null,GW/racine.png,GW/leesburg.png,,,,,,,,,,,,,,,,,,,,,,,,
830.8000000119209,,rt_thecrossant_black,544349,,black_plus_sign,,,,49,,,1,0.9803921568627451,,,,,,,,,,,,,,,,,,,,,,
null,,color_black,544452,,black_plus_sign,,,,null,,,,,,,,,,,,,,,,,,,,,,,,,,
null,,learn_phase(without_color),547455,,black_plus_sign,,,,null,GW/newhope.png,GW/hotsprings.png,,,,,,,,,,,,,,,,,,,,,,,,
null,,black_cross(without_color),548082,,blue,,,,null,GW/newhope.png,GW/hotsprings.png,,,,,,,,,,,,,,,,,,,,,,,,
null,,rt_plussign_withcolor,548583,,blue,,,,null,GW/newhope.png,GW/hotsprings.png,,,,,,,,,,,,,,,,,,,,,,,,
797.2000000178814,,rt_thecrossant_black,549961,,black_plus_sign,,,,49,,,1,0.9807692307692307,,,,,,,,,,,,,,,,,,,,,,
null,,color_black,550063,,black_plus_sign,,,,null,,,,,,,,,,,,,,,,,,,,,,,,,,
null,,learn_phase(without_color),553066,,black_plus_sign,,,,null,GW/carmel.png,GW/leesburg.png,,,,,,,,,,,,,,,,,,,,,,,,
null,,black_cross(without_color),553711,,yellow,,,,null,GW/carmel.png,GW/leesburg.png,,,,,,,,,,,,,,,,,,,,,,,,
null,,rt_plussign_withcolor,554212,,yellow,,,,null,GW/carmel.png,GW/leesburg.png,,,,,,,,,,,,,,,,,,,,,,,,
1287.300000011921,,rt_thecrossant_black,555572,,black_plus_sign,,,,50,,,1,0.9811320754716981,,,,,,,,,,,,,,,,,,,,,,
null,,color_black,555674,,black_plus_sign,,,,null,,,,,,,,,,,,,,,,,,,,,,,,,,
null,,learn_phase(without_color),558675,,black_plus_sign,,,,null,GW/newhope.png,GW/peoria.png,,,,,,,,,,,,,,,,,,,,,,,,
null,,black_cross(without_color),559152,,blue,,,,null,GW/newhope.png,GW/peoria.png,,,,,,,,,,,,,,,,,,,,,,,,
null,,rt_plussign_withcolor,559667,,blue,,,,null,GW/newhope.png,GW/peoria.png,,,,,,,,,,,,,,,,,,,,,,,,
1278.2000000178814,,rt_thecrossant_black,561196,,black_plus_sign,,,,49,,,1,0.9814814814814815,,,,,,,,,,,,,,,,,,,,,,
null,,color_black,561298,,black_plus_sign,,,,null,,,,,,,,,,,,,,,,,,,,,,,,,,
null,,learn_phase(without_color),564302,,black_plus_sign,,,,null,GW/newhope.png,GW/hanover.png,,,,,,,,,,,,,,,,,,,,,,,,
null,,black_cross(without_color),565128,,yellow,,,,null,GW/newhope.png,GW/hanover.png,,,,,,,,,,,,,,,,,,,,,,,,
null,,rt_plussign_withcolor,565629,,yellow,,,,null,GW/newhope.png,GW/hanover.png,,,,,,,,,,,,,,,,,,,,,,,,
591.5999999940395,,rt_thecrossant_black,566807,,black_plus_sign,,,,50,,,1,0.9818181818181818,,,,,,,,,,,,,,,,,,,,,,
null,,color_black,566910,,black_plus_sign,,,,null,,,,,,,,,,,,,,,,,,,,,,,,,,
null,,learn_phase(without_color),569913,,black_plus_sign,,,,null,GW/gatlinburg.png,GW/hanover.png,,,,,,,,,,,,,,,,,,,,,,,,
null,,black_cross(without_color),570516,,yellow,,,,null,GW/gatlinburg.png,GW/hanover.png,,,,,,,,,,,,,,,,,,,,,,,,
null,,rt_plussign_withcolor,571018,,yellow,,,,null,GW/gatlinburg.png,GW/hanover.png,,,,,,,,,,,,,,,,,,,,,,,,
1063.300000011921,,rt_thecrossant_black,572418,,black_plus_sign,,,,50,,,1,0.9821428571428571,,,,,,,,,,,,,,,,,,,,,,
null,,color_black,572519,,black_plus_sign,,,,null,,,,,,,,,,,,,,,,,,,,,,,,,,
null,,learn_phase(without_color),575522,,black_plus_sign,,,,null,GW/racine.png,GW/boulder.png,,,,,,,,,,,,,,,,,,,,,,,,
null,,black_cross(without_color),576212,,blue,,,,null,GW/racine.png,GW/boulder.png,,,,,,,,,,,,,,,,,,,,,,,,
null,,rt_plussign_withcolor,576714,,blue,,,,null,GW/racine.png,GW/boulder.png,,,,,,,,,,,,,,,,,,,,,,,,
736.3999999761581,,rt_thecrossant_black,578030,,black_plus_sign,,,,49,,,1,0.9824561403508771,,,,,,,,,,,,,,,,,,,,,,
null,,color_black,578132,,black_plus_sign,,,,null,,,,,,,,,,,,,,,,,,,,,,,,,,
null,,learn_phase(without_color),581135,,black_plus_sign,,,,null,GW/racine.png,GW/huntsville.png,,,,,,,,,,,,,,,,,,,,,,,,
null,,black_cross(without_color),582055,,blue,,,,null,GW/racine.png,GW/huntsville.png,,,,,,,,,,,,,,,,,,,,,,,,
418.80000001192093,,rt_plussign_withcolor,582557,,blue,,,,49,GW/racine.png,GW/huntsville.png,,,,,,,,,,,,,,,,,,,,,,,,
null,,rt_thecrossant_black,583650,,black_plus_sign,,,,null,,,1,0.9827586206896551,,,,,,,,,,,,,,,,,,,,,,
null,,color_black,583752,,black_plus_sign,,,,null,,,,,,,,,,,,,,,,,,,,,,,,,,
null,,learn_phase(without_color),586754,,black_plus_sign,,,,null,GW/hotsprings.png,GW/newhope.png,,,,,,,,,,,,,,,,,,,,,,,,
null,,black_cross(without_color),587357,,blue,,,,null,GW/hotsprings.png,GW/newhope.png,,,,,,,,,,,,,,,,,,,,,,,,
null,,rt_plussign_withcolor,587859,,blue,,,,null,GW/hotsprings.png,GW/newhope.png,,,,,,,,,,,,,,,,,,,,,,,,
1179.300000011921,,rt_thecrossant_black,589260,,black_plus_sign,,,,49,,,1,0.9830508474576272,,,,,,,,,,,,,,,,,,,,,,
null,,color_black,589364,,black_plus_sign,,,,null,,,,,,,,,,,,,,,,,,,,,,,,,,
null,,learn_phase(without_color),592366,,black_plus_sign,,,,null,GW/racine.png,GW/boulder.png,,,,,,,,,,,,,,,,,,,,,,,,
null,,black_cross(without_color),593341,,blue,,,,null,GW/racine.png,GW/boulder.png,,,,,,,,,,,,,,,,,,,,,,,,
null,,rt_plussign_withcolor,593842,,blue,,,,null,GW/racine.png,GW/boulder.png,,,,,,,,,,,,,,,,,,,,,,,,
749.9000000059605,,rt_thecrossant_black,594873,,black_plus_sign,,,,49,,,1,0.9833333333333333,,,,,,,,,,,,,,,,,,,,,,
null,,color_black,594976,,black_plus_sign,,,,null,,,,,,,,,,,,,,,,,,,,,,,,,,
null,,learn_phase(without_color),597993,,black_plus_sign,,,,null,GW/racine.png,GW/leesburg.png,,,,,,,,,,,,,,,,,,,,,,,,
null,,black_cross(without_color),598604,,blue,,,,null,GW/racine.png,GW/leesburg.png,,,,,,,,,,,,,,,,,,,,,,,,
null,,rt_plussign_withcolor,599106,,blue,,,,null,GW/racine.png,GW/leesburg.png,,,,,,,,,,,,,,,,,,,,,,,,
1117,,rt_thecrossant_black,600499,,black_plus_sign,,,,49,,,1,0.9836065573770492,,,,,,,,,,,,,,,,,,,,,,
null,,color_black,600609,,black_plus_sign,,,,null,,,,,,,,,,,,,,,,,,,,,,,,,,
null,,learn_phase(without_color),603612,,black_plus_sign,,,,null,GW/boulder.png,GW/racine.png,,,,,,,,,,,,,,,,,,,,,,,,
null,,black_cross(without_color),604027,,blue,,,,null,GW/boulder.png,GW/racine.png,,,,,,,,,,,,,,,,,,,,,,,,
null,,rt_plussign_withcolor,604529,,blue,,,,null,GW/boulder.png,GW/racine.png,,,,,,,,,,,,,,,,,,,,,,,,
718.5,,rt_thecrossant_black,606118,,black_plus_sign,,,,49,,,1,0.9838709677419355,,,,,,,,,,,,,,,,,,,,,,
null,,color_black,606220,,black_plus_sign,,,,null,,,,,,,,,,,,,,,,,,,,,,,,,,
null,,learn_phase(without_color),609222,,black_plus_sign,,,,null,GW/peoria.png,GW/westpalmbeach.png,,,,,,,,,,,,,,,,,,,,,,,,
null,,black_cross(without_color),609846,,yellow,,,,null,GW/peoria.png,GW/westpalmbeach.png,,,,,,,,,,,,,,,,,,,,,,,,
null,,rt_plussign_withcolor,610363,,yellow,,,,null,GW/peoria.png,GW/westpalmbeach.png,,,,,,,,,,,,,,,,,,,,,,,,
778.6999999880791,,rt_thecrossant_black,611743,,black_plus_sign,,,,50,,,1,0.9841269841269841,,,,,,,,,,,,,,,,,,,,,,
null,,color_black,611845,,black_plus_sign,,,,null,,,,,,,,,,,,,,,,,,,,,,,,,,
null,,learn_phase(without_color),614848,,black_plus_sign,,,,null,GW/peoria.png,GW/newhope.png,,,,,,,,,,,,,,,,,,,,,,,,
null,,black_cross(without_color),615777,,yellow,,,,null,GW/peoria.png,GW/newhope.png,,,,,,,,,,,,,,,,,,,,,,,,
null,,rt_plussign_withcolor,616279,,yellow,,,,null,GW/peoria.png,GW/newhope.png,,,,,,,,,,,,,,,,,,,,,,,,
849.8999999761581,,rt_thecrossant_black,617354,,black_plus_sign,,,,50,,,1,0.984375,,,,,,,,,,,,,,,,,,,,,,
null,,color_black,617456,,black_plus_sign,,,,null,,,,,,,,,,,,,,,,,,,,,,,,,,
41453.40000000596,,learn_break,658911,,learn_break,,,,32,,,,,,,,,,,,,,,,,,,,,,,,,,
null,,html-keyboard-response,659913,,<p></p>,,,,null,,,,,,,,,,,,,,,,,,,,,,,,,,
null,,learn_phase(without_color),662914,,black_plus_sign,,,,null,GW/racine.png,GW/gatlinburg.png,,,,,,,,,,,,,,,,,,,,,,,,
null,,black_cross(without_color),663478,,blue,,,,null,GW/racine.png,GW/gatlinburg.png,,,,,,,,,,,,,,,,,,,,,,,,
440,,rt_plussign_withcolor,663979,,blue,,,,49,GW/racine.png,GW/gatlinburg.png,,,,,,,,,,,,,,,,,,,,,,,,
null,,rt_thecrossant_black,665419,,black_plus_sign,,,,null,,,1,0.9846153846153847,,,,,,,,,,,,,,,,,,,,,,
null,,color_black,665527,,black_plus_sign,,,,null,,,,,,,,,,,,,,,,,,,,,,,,,,
null,,learn_phase(without_color),668529,,black_plus_sign,,,,null,GW/boulder.png,GW/leesburg.png,,,,,,,,,,,,,,,,,,,,,,,,
null,,black_cross(without_color),668993,,blue,,,,null,GW/boulder.png,GW/leesburg.png,,,,,,,,,,,,,,,,,,,,,,,,
479.80000001192093,,rt_plussign_withcolor,669494,,blue,,,,49,GW/boulder.png,GW/leesburg.png,,,,,,,,,,,,,,,,,,,,,,,,
null,,rt_thecrossant_black,671035,,black_plus_sign,,,,null,,,1,0.9848484848484849,,,,,,,,,,,,,,,,,,,,,,
null,,color_black,671137,,black_plus_sign,,,,null,,,,,,,,,,,,,,,,,,,,,,,,,,
null,,learn_phase(without_color),674139,,black_plus_sign,,,,null,GW/boulder.png,GW/leesburg.png,,,,,,,,,,,,,,,,,,,,,,,,
null,,black_cross(without_color),675234,,blue,,,,null,GW/boulder.png,GW/leesburg.png,,,,,,,,,,,,,,,,,,,,,,,,
432.80000001192093,,rt_plussign_withcolor,675736,,blue,,,,49,GW/boulder.png,GW/leesburg.png,,,,,,,,,,,,,,,,,,,,,,,,
null,,rt_thecrossant_black,676645,,black_plus_sign,,,,null,,,1,0.9850746268656716,,,,,,,,,,,,,,,,,,,,,,
null,,color_black,676747,,black_plus_sign,,,,null,,,,,,,,,,,,,,,,,,,,,,,,,,
null,,learn_phase(without_color),679749,,black_plus_sign,,,,null,GW/leesburg.png,GW/huntsville.png,,,,,,,,,,,,,,,,,,,,,,,,
null,,black_cross(without_color),680459,,blue,,,,null,GW/leesburg.png,GW/huntsville.png,,,,,,,,,,,,,,,,,,,,,,,,
null,,rt_plussign_withcolor,680961,,blue,,,,null,GW/leesburg.png,GW/huntsville.png,,,,,,,,,,,,,,,,,,,,,,,,
1755.9000000059605,,rt_thecrossant_black,682254,,black_plus_sign,,,,49,,,1,0.9852941176470589,,,,,,,,,,,,,,,,,,,,,,
null,,color_black,682356,,black_plus_sign,,,,null,,,,,,,,,,,,,,,,,,,,,,,,,,
null,,learn_phase(without_color),685359,,black_plus_sign,,,,null,GW/racine.png,GW/huntsville.png,,,,,,,,,,,,,,,,,,,,,,,,
null,,black_cross(without_color),685983,,yellow,,,,null,GW/racine.png,GW/huntsville.png,,,,,,,,,,,,,,,,,,,,,,,,
462.80000001192093,,rt_plussign_withcolor,686484,,yellow,,,,50,GW/racine.png,GW/huntsville.png,,,,,,,,,,,,,,,,,,,,,,,,
null,,rt_thecrossant_black,687870,,black_plus_sign,,,,null,,,1,0.9855072463768116,,,,,,,,,,,,,,,,,,,,,,
null,,color_black,687972,,black_plus_sign,,,,null,,,,,,,,,,,,,,,,,,,,,,,,,,
null,,learn_phase(without_color),690975,,black_plus_sign,,,,null,GW/peoria.png,GW/westpalmbeach.png,,,,,,,,,,,,,,,,,,,,,,,,
null,,black_cross(without_color),691454,,yellow,,,,null,GW/peoria.png,GW/westpalmbeach.png,,,,,,,,,,,,,,,,,,,,,,,,
null,,rt_plussign_withcolor,691956,,yellow,,,,null,GW/peoria.png,GW/westpalmbeach.png,,,,,,,,,,,,,,,,,,,,,,,,
804.6999999880791,,rt_thecrossant_black,693480,,black_plus_sign,,,,50,,,1,0.9857142857142858,,,,,,,,,,,,,,,,,,,,,,
null,,color_black,693591,,black_plus_sign,,,,null,,,,,,,,,,,,,,,,,,,,,,,,,,
null,,learn_phase(without_color),696593,,black_plus_sign,,,,null,GW/peoria.png,GW/newhope.png,,,,,,,,,,,,,,,,,,,,,,,,
null,,black_cross(without_color),697087,,blue,,,,null,GW/peoria.png,GW/newhope.png,,,,,,,,,,,,,,,,,,,,,,,,
null,,rt_plussign_withcolor,697599,,blue,,,,null,GW/peoria.png,GW/newhope.png,,,,,,,,,,,,,,,,,,,,,,,,
1247.300000011921,,rt_thecrossant_black,699109,,black_plus_sign,,,,49,,,1,0.9859154929577465,,,,,,,,,,,,,,,,,,,,,,
null,,color_black,699225,,black_plus_sign,,,,null,,,,,,,,,,,,,,,,,,,,,,,,,,
null,,learn_phase(without_color),702228,,black_plus_sign,,,,null,GW/racine.png,GW/leesburg.png,,,,,,,,,,,,,,,,,,,,,,,,
null,,black_cross(without_color),703067,,blue,,,,null,GW/racine.png,GW/leesburg.png,,,,,,,,,,,,,,,,,,,,,,,,
454.90000000596046,,rt_plussign_withcolor,703569,,blue,,,,49,GW/racine.png,GW/leesburg.png,,,,,,,,,,,,,,,,,,,,,,,,
null,,rt_thecrossant_black,704746,,black_plus_sign,,,,null,,,1,0.9861111111111112,,,,,,,,,,,,,,,,,,,,,,
null,,color_black,704848,,black_plus_sign,,,,null,,,,,,,,,,,,,,,,,,,,,,,,,,
null,,learn_phase(without_color),707850,,black_plus_sign,,,,null,GW/gatlinburg.png,GW/shreveport.png,,,,,,,,,,,,,,,,,,,,,,,,
null,,black_cross(without_color),708275,,yellow,,,,null,GW/gatlinburg.png,GW/shreveport.png,,,,,,,,,,,,,,,,,,,,,,,,
null,,rt_plussign_withcolor,708777,,yellow,,,,null,GW/gatlinburg.png,GW/shreveport.png,,,,,,,,,,,,,,,,,,,,,,,,
1169.8999999761581,,rt_thecrossant_black,710357,,black_plus_sign,,,,50,,,1,0.9863013698630136,,,,,,,,,,,,,,,,,,,,,,
null,,color_black,710459,,black_plus_sign,,,,null,,,,,,,,,,,,,,,,,,,,,,,,,,
null,,learn_phase(without_color),713462,,black_plus_sign,,,,null,GW/peoria.png,GW/shreveport.png,,,,,,,,,,,,,,,,,,,,,,,,
null,,black_cross(without_color),714299,,yellow,,,,null,GW/peoria.png,GW/shreveport.png,,,,,,,,,,,,,,,,,,,,,,,,
null,,rt_plussign_withcolor,714801,,yellow,,,,null,GW/peoria.png,GW/shreveport.png,,,,,,,,,,,,,,,,,,,,,,,,
757.7000000178814,,rt_thecrossant_black,715967,,black_plus_sign,,,,50,,,1,0.9864864864864865,,,,,,,,,,,,,,,,,,,,,,
null,,color_black,716069,,black_plus_sign,,,,null,,,,,,,,,,,,,,,,,,,,,,,,,,
null,,learn_phase(without_color),719072,,black_plus_sign,,,,null,GW/leesburg.png,GW/racine.png,,,,,,,,,,,,,,,,,,,,,,,,
null,,black_cross(without_color),720108,,blue,,,,null,GW/leesburg.png,GW/racine.png,,,,,,,,,,,,,,,,,,,,,,,,
null,,rt_plussign_withcolor,720610,,blue,,,,null,GW/leesburg.png,GW/racine.png,,,,,,,,,,,,,,,,,,,,,,,,
1024.7999999821186,,rt_thecrossant_black,721578,,black_plus_sign,,,,50,,,0,0.9733333333333334,,,,,,,,,,,,,,,,,,,,,,
null,,color_black,721679,,black_plus_sign,,,,null,,,,,,,,,,,,,,,,,,,,,,,,,,
null,,learn_phase(without_color),724681,,black_plus_sign,,,,null,GW/peoria.png,GW/shreveport.png,,,,,,,,,,,,,,,,,,,,,,,,
null,,black_cross(without_color),725212,,yellow,,,,null,GW/peoria.png,GW/shreveport.png,,,,,,,,,,,,,,,,,,,,,,,,
443.2000000178814,,rt_plussign_withcolor,725714,,yellow,,,,50,GW/peoria.png,GW/shreveport.png,,,,,,,,,,,,,,,,,,,,,,,,
null,,rt_thecrossant_black,727191,,black_plus_sign,,,,null,,,1,0.9736842105263158,,,,,,,,,,,,,,,,,,,,,,
null,,color_black,727294,,black_plus_sign,,,,null,,,,,,,,,,,,,,,,,,,,,,,,,,
null,,learn_phase(without_color),730297,,black_plus_sign,,,,null,GW/leesburg.png,GW/racine.png,,,,,,,,,,,,,,,,,,,,,,,,
null,,black_cross(without_color),731156,,blue,,,,null,GW/leesburg.png,GW/racine.png,,,,,,,,,,,,,,,,,,,,,,,,
415.80000001192093,,rt_plussign_withcolor,731658,,blue,,,,49,GW/leesburg.png,GW/racine.png,,,,,,,,,,,,,,,,,,,,,,,,
null,,rt_thecrossant_black,732804,,black_plus_sign,,,,null,,,1,0.974025974025974,,,,,,,,,,,,,,,,,,,,,,
null,,color_black,732906,,black_plus_sign,,,,null,,,,,,,,,,,,,,,,,,,,,,,,,,
null,,learn_phase(without_color),735919,,black_plus_sign,,,,null,GW/newhope.png,GW/hanover.png,,,,,,,,,,,,,,,,,,,,,,,,
null,,black_cross(without_color),736653,,blue,,,,null,GW/newhope.png,GW/hanover.png,,,,,,,,,,,,,,,,,,,,,,,,
null,,rt_plussign_withcolor,737155,,blue,,,,null,GW/newhope.png,GW/hanover.png,,,,,,,,,,,,,,,,,,,,,,,,
977,,rt_thecrossant_black,738426,,black_plus_sign,,,,49,,,1,0.9743589743589743,,,,,,,,,,,,,,,,,,,,,,
null,,color_black,738528,,black_plus_sign,,,,null,,,,,,,,,,,,,,,,,,,,,,,,,,
null,,learn_phase(without_color),741531,,black_plus_sign,,,,null,GW/hotsprings.png,GW/newhope.png,,,,,,,,,,,,,,,,,,,,,,,,
null,,black_cross(without_color),742240,,yellow,,,,null,GW/hotsprings.png,GW/newhope.png,,,,,,,,,,,,,,,,,,,,,,,,
null,,rt_plussign_withcolor,742742,,yellow,,,,null,GW/hotsprings.png,GW/newhope.png,,,,,,,,,,,,,,,,,,,,,,,,
973.1999999880791,,rt_thecrossant_black,744037,,black_plus_sign,,,,50,,,1,0.9746835443037974,,,,,,,,,,,,,,,,,,,,,,
null,,color_black,744140,,black_plus_sign,,,,null,,,,,,,,,,,,,,,,,,,,,,,,,,
null,,learn_phase(without_color),747142,,black_plus_sign,,,,null,GW/peoria.png,GW/westpalmbeach.png,,,,,,,,,,,,,,,,,,,,,,,,
null,,black_cross(without_color),748163,,yellow,,,,null,GW/peoria.png,GW/westpalmbeach.png,,,,,,,,,,,,,,,,,,,,,,,,
null,,rt_plussign_withcolor,748666,,yellow,,,,null,GW/peoria.png,GW/westpalmbeach.png,,,,,,,,,,,,,,,,,,,,,,,,
1246.5,,rt_thecrossant_black,749650,,black_plus_sign,,,,50,,,1,0.975,,,,,,,,,,,,,,,,,,,,,,
null,,color_black,749765,,black_plus_sign,,,,null,,,,,,,,,,,,,,,,,,,,,,,,,,
null,,learn_phase(without_color),752767,,black_plus_sign,,,,null,GW/gatlinburg.png,GW/racine.png,,,,,,,,,,,,,,,,,,,,,,,,
null,,black_cross(without_color),753762,,yellow,,,,null,GW/gatlinburg.png,GW/racine.png,,,,,,,,,,,,,,,,,,,,,,,,
null,,rt_plussign_withcolor,754263,,yellow,,,,null,GW/gatlinburg.png,GW/racine.png,,,,,,,,,,,,,,,,,,,,,,,,
1164.4000000059605,,rt_thecrossant_black,755288,,black_plus_sign,,,,50,,,1,0.9753086419753086,,,,,,,,,,,,,,,,,,,,,,
null,,color_black,755391,,black_plus_sign,,,,null,,,,,,,,,,,,,,,,,,,,,,,,,,
null,,learn_phase(without_color),758393,,black_plus_sign,,,,null,GW/huntsville.png,GW/cornwall.png,,,,,,,,,,,,,,,,,,,,,,,,
null,,black_cross(without_color),759050,,yellow,,,,null,GW/huntsville.png,GW/cornwall.png,,,,,,,,,,,,,,,,,,,,,,,,
null,,rt_plussign_withcolor,759551,,yellow,,,,null,GW/huntsville.png,GW/cornwall.png,,,,,,,,,,,,,,,,,,,,,,,,
1130.7999999821186,,rt_thecrossant_black,760899,,black_plus_sign,,,,50,,,1,0.975609756097561,,,,,,,,,,,,,,,,,,,,,,
null,,color_black,761001,,black_plus_sign,,,,null,,,,,,,,,,,,,,,,,,,,,,,,,,
null,,learn_phase(without_color),764004,,black_plus_sign,,,,null,GW/newhope.png,GW/hanover.png,,,,,,,,,,,,,,,,,,,,,,,,
null,,black_cross(without_color),764785,,blue,,,,null,GW/newhope.png,GW/hanover.png,,,,,,,,,,,,,,,,,,,,,,,,
435.69999998807907,,rt_plussign_withcolor,765287,,blue,,,,49,GW/newhope.png,GW/hanover.png,,,,,,,,,,,,,,,,,,,,,,,,
null,,rt_thecrossant_black,766522,,black_plus_sign,,,,null,,,1,0.9759036144578314,,,,,,,,,,,,,,,,,,,,,,
null,,color_black,766624,,black_plus_sign,,,,null,,,,,,,,,,,,,,,,,,,,,,,,,,
null,,learn_phase(without_color),769627,,black_plus_sign,,,,null,GW/cornwall.png,GW/huntsville.png,,,,,,,,,,,,,,,,,,,,,,,,
null,,black_cross(without_color),770491,,yellow,,,,null,GW/cornwall.png,GW/huntsville.png,,,,,,,,,,,,,,,,,,,,,,,,
null,,rt_plussign_withcolor,770993,,yellow,,,,null,GW/cornwall.png,GW/huntsville.png,,,,,,,,,,,,,,,,,,,,,,,,
1206.5,,rt_thecrossant_black,772134,,black_plus_sign,,,,50,,,1,0.9761904761904762,,,,,,,,,,,,,,,,,,,,,,
null,,color_black,772236,,black_plus_sign,,,,null,,,,,,,,,,,,,,,,,,,,,,,,,,
null,,learn_phase(without_color),775239,,black_plus_sign,,,,null,GW/cornwall.png,GW/huntsville.png,,,,,,,,,,,,,,,,,,,,,,,,
null,,black_cross(without_color),775663,,yellow,,,,null,GW/cornwall.png,GW/huntsville.png,,,,,,,,,,,,,,,,,,,,,,,,
null,,rt_plussign_withcolor,776166,,yellow,,,,null,GW/cornwall.png,GW/huntsville.png,,,,,,,,,,,,,,,,,,,,,,,,
1039.800000011921,,rt_thecrossant_black,777746,,black_plus_sign,,,,50,,,1,0.9764705882352941,,,,,,,,,,,,,,,,,,,,,,
null,,color_black,777848,,black_plus_sign,,,,null,,,,,,,,,,,,,,,,,,,,,,,,,,
null,,learn_phase(without_color),780850,,black_plus_sign,,,,null,GW/shreveport.png,GW/gatlinburg.png,,,,,,,,,,,,,,,,,,,,,,,,
null,,black_cross(without_color),781666,,yellow,,,,null,GW/shreveport.png,GW/gatlinburg.png,,,,,,,,,,,,,,,,,,,,,,,,
null,,rt_plussign_withcolor,782168,,yellow,,,,null,GW/shreveport.png,GW/gatlinburg.png,,,,,,,,,,,,,,,,,,,,,,,,
822.5999999940395,,rt_thecrossant_black,783356,,black_plus_sign,,,,50,,,1,0.9767441860465116,,,,,,,,,,,,,,,,,,,,,,
null,,color_black,783459,,black_plus_sign,,,,null,,,,,,,,,,,,,,,,,,,,,,,,,,
null,,learn_phase(without_color),786461,,black_plus_sign,,,,null,GW/carmel.png,GW/leesburg.png,,,,,,,,,,,,,,,,,,,,,,,,
null,,black_cross(without_color),787438,,yellow,,,,null,GW/carmel.png,GW/leesburg.png,,,,,,,,,,,,,,,,,,,,,,,,
null,,rt_plussign_withcolor,787939,,yellow,,,,null,GW/carmel.png,GW/leesburg.png,,,,,,,,,,,,,,,,,,,,,,,,
1017.3000000119209,,rt_thecrossant_black,788967,,black_plus_sign,,,,50,,,1,0.9770114942528736,,,,,,,,,,,,,,,,,,,,,,
null,,color_black,789071,,black_plus_sign,,,,null,,,,,,,,,,,,,,,,,,,,,,,,,,
null,,learn_phase(without_color),792073,,black_plus_sign,,,,null,GW/gatlinburg.png,GW/shreveport.png,,,,,,,,,,,,,,,,,,,,,,,,
null,,black_cross(without_color),792554,,yellow,,,,null,GW/gatlinburg.png,GW/shreveport.png,,,,,,,,,,,,,,,,,,,,,,,,
null,,rt_plussign_withcolor,793057,,yellow,,,,null,GW/gatlinburg.png,GW/shreveport.png,,,,,,,,,,,,,,,,,,,,,,,,
1191.9000000059605,,rt_thecrossant_black,794580,,black_plus_sign,,,,50,,,1,0.9772727272727273,,,,,,,,,,,,,,,,,,,,,,
null,,color_black,794683,,black_plus_sign,,,,null,,,,,,,,,,,,,,,,,,,,,,,,,,
null,,learn_phase(without_color),797686,,black_plus_sign,,,,null,GW/huntsville.png,GW/leesburg.png,,,,,,,,,,,,,,,,,,,,,,,,
null,,black_cross(without_color),798146,,blue,,,,null,GW/huntsville.png,GW/leesburg.png,,,,,,,,,,,,,,,,,,,,,,,,
null,,rt_plussign_withcolor,798659,,blue,,,,null,GW/huntsville.png,GW/leesburg.png,,,,,,,,,,,,,,,,,,,,,,,,
969.4000000059605,,rt_thecrossant_black,800203,,black_plus_sign,,,,49,,,1,0.9775280898876404,,,,,,,,,,,,,,,,,,,,,,
null,,color_black,800304,,black_plus_sign,,,,null,,,,,,,,,,,,,,,,,,,,,,,,,,
null,,learn_phase(without_color),803307,,black_plus_sign,,,,null,GW/peoria.png,GW/westpalmbeach.png,,,,,,,,,,,,,,,,,,,,,,,,
null,,black_cross(without_color),804213,,blue,,,,null,GW/peoria.png,GW/westpalmbeach.png,,,,,,,,,,,,,,,,,,,,,,,,
416.5,,rt_plussign_withcolor,804714,,blue,,,,49,GW/peoria.png,GW/westpalmbeach.png,,,,,,,,,,,,,,,,,,,,,,,,
null,,rt_thecrossant_black,805813,,black_plus_sign,,,,null,,,1,0.9777777777777777,,,,,,,,,,,,,,,,,,,,,,
null,,color_black,805915,,black_plus_sign,,,,null,,,,,,,,,,,,,,,,,,,,,,,,,,
null,,learn_phase(without_color),808917,,black_plus_sign,,,,null,GW/boulder.png,GW/leesburg.png,,,,,,,,,,,,,,,,,,,,,,,,
null,,black_cross(without_color),809606,,yellow,,,,null,GW/boulder.png,GW/leesburg.png,,,,,,,,,,,,,,,,,,,,,,,,
null,,rt_plussign_withcolor,810108,,yellow,,,,null,GW/boulder.png,GW/leesburg.png,,,,,,,,,,,,,,,,,,,,,,,,
1215.8999999761581,,rt_thecrossant_black,811434,,black_plus_sign,,,,50,,,1,0.978021978021978,,,,,,,,,,,,,,,,,,,,,,
null,,color_black,811535,,black_plus_sign,,,,null,,,,,,,,,,,,,,,,,,,,,,,,,,
null,,learn_phase(without_color),814538,,black_plus_sign,,,,null,GW/gatlinburg.png,GW/shreveport.png,,,,,,,,,,,,,,,,,,,,,,,,
null,,black_cross(without_color),815290,,blue,,,,null,GW/gatlinburg.png,GW/shreveport.png,,,,,,,,,,,,,,,,,,,,,,,,
315.40000000596046,,rt_plussign_withcolor,815792,,blue,,,,49,GW/gatlinburg.png,GW/shreveport.png,,,,,,,,,,,,,,,,,,,,,,,,
null,,rt_thecrossant_black,817044,,black_plus_sign,,,,null,,,1,0.9782608695652174,,,,,,,,,,,,,,,,,,,,,,
null,,color_black,817147,,black_plus_sign,,,,null,,,,,,,,,,,,,,,,,,,,,,,,,,
null,,learn_phase(without_color),820150,,black_plus_sign,,,,null,GW/hanover.png,GW/boulder.png,,,,,,,,,,,,,,,,,,,,,,,,
null,,black_cross(without_color),820618,,yellow,,,,null,GW/hanover.png,GW/boulder.png,,,,,,,,,,,,,,,,,,,,,,,,
null,,rt_plussign_withcolor,821120,,yellow,,,,null,GW/hanover.png,GW/boulder.png,,,,,,,,,,,,,,,,,,,,,,,,
2376.699999988079,,rt_thecrossant_black,822656,,black_plus_sign,,,,49,,,0,0.967741935483871,,,,,,,,,,,,,,,,,,,,,,
null,,color_black,822759,,black_plus_sign,,,,null,,,,,,,,,,,,,,,,,,,,,,,,,,
null,,learn_phase(without_color),825761,,black_plus_sign,,,,null,GW/leesburg.png,GW/carmel.png,,,,,,,,,,,,,,,,,,,,,,,,
null,,black_cross(without_color),826328,,yellow,,,,null,GW/leesburg.png,GW/carmel.png,,,,,,,,,,,,,,,,,,,,,,,,
null,,rt_plussign_withcolor,826830,,yellow,,,,null,GW/leesburg.png,GW/carmel.png,,,,,,,,,,,,,,,,,,,,,,,,
921.6999999880791,,rt_thecrossant_black,828268,,black_plus_sign,,,,50,,,1,0.9680851063829787,,,,,,,,,,,,,,,,,,,,,,
null,,color_black,828370,,black_plus_sign,,,,null,,,,,,,,,,,,,,,,,,,,,,,,,,
null,,learn_phase(without_color),831373,,black_plus_sign,,,,null,GW/westpalmbeach.png,GW/peoria.png,,,,,,,,,,,,,,,,,,,,,,,,
null,,black_cross(without_color),832222,,blue,,,,null,GW/westpalmbeach.png,GW/peoria.png,,,,,,,,,,,,,,,,,,,,,,,,
461.5,,rt_plussign_withcolor,832724,,blue,,,,49,GW/westpalmbeach.png,GW/peoria.png,,,,,,,,,,,,,,,,,,,,,,,,
null,,rt_thecrossant_black,833890,,black_plus_sign,,,,null,,,1,0.968421052631579,,,,,,,,,,,,,,,,,,,,,,
null,,color_black,833993,,black_plus_sign,,,,null,,,,,,,,,,,,,,,,,,,,,,,,,,
null,,learn_phase(without_color),836996,,black_plus_sign,,,,null,GW/newhope.png,GW/peoria.png,,,,,,,,,,,,,,,,,,,,,,,,
null,,black_cross(without_color),837484,,yellow,,,,null,GW/newhope.png,GW/peoria.png,,,,,,,,,,,,,,,,,,,,,,,,
null,,rt_plussign_withcolor,837986,,yellow,,,,null,GW/newhope.png,GW/peoria.png,,,,,,,,,,,,,,,,,,,,,,,,
1136.0999999940395,,rt_thecrossant_black,839501,,black_plus_sign,,,,50,,,1,0.96875,,,,,,,,,,,,,,,,,,,,,,
null,,color_black,839603,,black_plus_sign,,,,null,,,,,,,,,,,,,,,,,,,,,,,,,,
null,,learn_phase(without_color),842605,,black_plus_sign,,,,null,GW/huntsville.png,GW/leesburg.png,,,,,,,,,,,,,,,,,,,,,,,,
null,,black_cross(without_color),843134,,yellow,,,,null,GW/huntsville.png,GW/leesburg.png,,,,,,,,,,,,,,,,,,,,,,,,
null,,rt_plussign_withcolor,843637,,yellow,,,,null,GW/huntsville.png,GW/leesburg.png,,,,,,,,,,,,,,,,,,,,,,,,
639.4000000059605,,rt_thecrossant_black,845116,,black_plus_sign,,,,50,,,1,0.9690721649484536,,,,,,,,,,,,,,,,,,,,,,
null,,color_black,845218,,black_plus_sign,,,,null,,,,,,,,,,,,,,,,,,,,,,,,,,
null,,learn_phase(without_color),848220,,black_plus_sign,,,,null,GW/peoria.png,GW/westpalmbeach.png,,,,,,,,,,,,,,,,,,,,,,,,
null,,black_cross(without_color),848841,,yellow,,,,null,GW/peoria.png,GW/westpalmbeach.png,,,,,,,,,,,,,,,,,,,,,,,,
null,,rt_plussign_withcolor,849343,,yellow,,,,null,GW/peoria.png,GW/westpalmbeach.png,,,,,,,,,,,,,,,,,,,,,,,,
677.8000000119209,,rt_thecrossant_black,850726,,black_plus_sign,,,,50,,,1,0.9693877551020408,,,,,,,,,,,,,,,,,,,,,,
null,,color_black,850828,,black_plus_sign,,,,null,,,,,,,,,,,,,,,,,,,,,,,,,,
null,,learn_phase(without_color),853831,,black_plus_sign,,,,null,GW/racine.png,GW/leesburg.png,,,,,,,,,,,,,,,,,,,,,,,,
null,,black_cross(without_color),854866,,yellow,,,,null,GW/racine.png,GW/leesburg.png,,,,,,,,,,,,,,,,,,,,,,,,
null,,rt_plussign_withcolor,855367,,yellow,,,,null,GW/racine.png,GW/leesburg.png,,,,,,,,,,,,,,,,,,,,,,,,
789.6999999880791,,rt_thecrossant_black,856337,,black_plus_sign,,,,50,,,1,0.9696969696969697,,,,,,,,,,,,,,,,,,,,,,
null,,color_black,856440,,black_plus_sign,,,,null,,,,,,,,,,,,,,,,,,,,,,,,,,
null,,learn_phase(without_color),859442,,black_plus_sign,,,,null,GW/hotsprings.png,GW/newhope.png,,,,,,,,,,,,,,,,,,,,,,,,
null,,black_cross(without_color),860470,,blue,,,,null,GW/hotsprings.png,GW/newhope.png,,,,,,,,,,,,,,,,,,,,,,,,
null,,rt_plussign_withcolor,860971,,blue,,,,null,GW/hotsprings.png,GW/newhope.png,,,,,,,,,,,,,,,,,,,,,,,,
1257,,rt_thecrossant_black,861947,,black_plus_sign,,,,49,,,1,0.97,,,,,,,,,,,,,,,,,,,,,,
null,,color_black,862050,,black_plus_sign,,,,null,,,,,,,,,,,,,,,,,,,,,,,,,,
null,,learn_phase(without_color),865052,,black_plus_sign,,,,null,GW/newhope.png,GW/hanover.png,,,,,,,,,,,,,,,,,,,,,,,,
null,,black_cross(without_color),865769,,blue,,,,null,GW/newhope.png,GW/hanover.png,,,,,,,,,,,,,,,,,,,,,,,,
474.90000000596046,,rt_plussign_withcolor,866271,,blue,,,,49,GW/newhope.png,GW/hanover.png,,,,,,,,,,,,,,,,,,,,,,,,
null,,rt_thecrossant_black,867558,,black_plus_sign,,,,null,,,1,0.9702970297029703,,,,,,,,,,,,,,,,,,,,,,
null,,color_black,867667,,black_plus_sign,,,,null,,,,,,,,,,,,,,,,,,,,,,,,,,
null,,learn_phase(without_color),870670,,black_plus_sign,,,,null,GW/westpalmbeach.png,GW/peoria.png,,,,,,,,,,,,,,,,,,,,,,,,
null,,black_cross(without_color),871468,,blue,,,,null,GW/westpalmbeach.png,GW/peoria.png,,,,,,,,,,,,,,,,,,,,,,,,
null,,rt_plussign_withcolor,871970,,blue,,,,null,GW/westpalmbeach.png,GW/peoria.png,,,,,,,,,,,,,,,,,,,,,,,,
1083.199999988079,,rt_thecrossant_black,873177,,black_plus_sign,,,,49,,,1,0.9705882352941176,,,,,,,,,,,,,,,,,,,,,,
null,,color_black,873278,,black_plus_sign,,,,null,,,,,,,,,,,,,,,,,,,,,,,,,,
null,,learn_phase(without_color),876281,,black_plus_sign,,,,null,GW/huntsville.png,GW/cornwall.png,,,,,,,,,,,,,,,,,,,,,,,,
null,,black_cross(without_color),877002,,blue,,,,null,GW/huntsville.png,GW/cornwall.png,,,,,,,,,,,,,,,,,,,,,,,,
437.59999999403954,,rt_plussign_withcolor,877505,,blue,,,,49,GW/huntsville.png,GW/cornwall.png,,,,,,,,,,,,,,,,,,,,,,,,
null,,rt_thecrossant_black,878787,,black_plus_sign,,,,null,,,1,0.970873786407767,,,,,,,,,,,,,,,,,,,,,,
null,,color_black,878890,,black_plus_sign,,,,null,,,,,,,,,,,,,,,,,,,,,,,,,,
null,,learn_phase(without_color),881893,,black_plus_sign,,,,null,GW/leesburg.png,GW/carmel.png,,,,,,,,,,,,,,,,,,,,,,,,
null,,black_cross(without_color),882493,,yellow,,,,null,GW/leesburg.png,GW/carmel.png,,,,,,,,,,,,,,,,,,,,,,,,
null,,rt_plussign_withcolor,882994,,yellow,,,,null,GW/leesburg.png,GW/carmel.png,,,,,,,,,,,,,,,,,,,,,,,,
955.6999999880791,,rt_thecrossant_black,884398,,black_plus_sign,,,,50,,,1,0.9711538461538461,,,,,,,,,,,,,,,,,,,,,,
null,,color_black,884501,,black_plus_sign,,,,null,,,,,,,,,,,,,,,,,,,,,,,,,,
null,,learn_phase(without_color),887504,,black_plus_sign,,,,null,GW/leesburg.png,GW/racine.png,,,,,,,,,,,,,,,,,,,,,,,,
null,,black_cross(without_color),887950,,yellow,,,,null,GW/leesburg.png,GW/racine.png,,,,,,,,,,,,,,,,,,,,,,,,
null,,rt_plussign_withcolor,888451,,yellow,,,,null,GW/leesburg.png,GW/racine.png,,,,,,,,,,,,,,,,,,,,,,,,
784.8000000119209,,rt_thecrossant_black,890009,,black_plus_sign,,,,50,,,1,0.9714285714285714,,,,,,,,,,,,,,,,,,,,,,
null,,color_black,890111,,black_plus_sign,,,,null,,,,,,,,,,,,,,,,,,,,,,,,,,
null,,learn_phase(without_color),893114,,black_plus_sign,,,,null,GW/huntsville.png,GW/leesburg.png,,,,,,,,,,,,,,,,,,,,,,,,
null,,black_cross(without_color),894013,,yellow,,,,null,GW/huntsville.png,GW/leesburg.png,,,,,,,,,,,,,,,,,,,,,,,,
null,,rt_plussign_withcolor,894514,,yellow,,,,null,GW/huntsville.png,GW/leesburg.png,,,,,,,,,,,,,,,,,,,,,,,,
639.7000000178814,,rt_thecrossant_black,895620,,black_plus_sign,,,,50,,,1,0.9716981132075472,,,,,,,,,,,,,,,,,,,,,,
null,,color_black,895721,,black_plus_sign,,,,null,,,,,,,,,,,,,,,,,,,,,,,,,,
null,,learn_phase(without_color),898723,,black_plus_sign,,,,null,GW/huntsville.png,GW/leesburg.png,,,,,,,,,,,,,,,,,,,,,,,,
null,,black_cross(without_color),899709,,yellow,,,,null,GW/huntsville.png,GW/leesburg.png,,,,,,,,,,,,,,,,,,,,,,,,
395.19999998807907,,rt_plussign_withcolor,900211,,yellow,,,,50,GW/huntsville.png,GW/leesburg.png,,,,,,,,,,,,,,,,,,,,,,,,
null,,rt_thecrossant_black,901229,,black_plus_sign,,,,null,,,1,0.9719626168224299,,,,,,,,,,,,,,,,,,,,,,
null,,color_black,901334,,black_plus_sign,,,,null,,,,,,,,,,,,,,,,,,,,,,,,,,
null,,learn_phase(without_color),904336,,black_plus_sign,,,,null,GW/hotsprings.png,GW/newhope.png,,,,,,,,,,,,,,,,,,,,,,,,
null,,black_cross(without_color),905237,,yellow,,,,null,GW/hotsprings.png,GW/newhope.png,,,,,,,,,,,,,,,,,,,,,,,,
null,,rt_plussign_withcolor,905739,,yellow,,,,null,GW/hotsprings.png,GW/newhope.png,,,,,,,,,,,,,,,,,,,,,,,,
1470.5999999940395,,rt_thecrossant_black,906842,,black_plus_sign,,,,50,,,1,0.9722222222222222,,,,,,,,,,,,,,,,,,,,,,
null,,color_black,906944,,black_plus_sign,,,,null,,,,,,,,,,,,,,,,,,,,,,,,,,
null,,learn_phase(without_color),909947,,black_plus_sign,,,,null,GW/carmel.png,GW/leesburg.png,,,,,,,,,,,,,,,,,,,,,,,,
null,,black_cross(without_color),910594,,blue,,,,null,GW/carmel.png,GW/leesburg.png,,,,,,,,,,,,,,,,,,,,,,,,
null,,rt_plussign_withcolor,911097,,blue,,,,null,GW/carmel.png,GW/leesburg.png,,,,,,,,,,,,,,,,,,,,,,,,
1153.4000000059605,,rt_thecrossant_black,912453,,black_plus_sign,,,,49,,,1,0.9724770642201835,,,,,,,,,,,,,,,,,,,,,,
null,,color_black,912555,,black_plus_sign,,,,null,,,,,,,,,,,,,,,,,,,,,,,,,,
null,,learn_phase(without_color),915557,,black_plus_sign,,,,null,GW/boulder.png,GW/hanover.png,,,,,,,,,,,,,,,,,,,,,,,,
null,,black_cross(without_color),916169,,yellow,,,,null,GW/boulder.png,GW/hanover.png,,,,,,,,,,,,,,,,,,,,,,,,
null,,rt_plussign_withcolor,916671,,yellow,,,,null,GW/boulder.png,GW/hanover.png,,,,,,,,,,,,,,,,,,,,,,,,
825.0999999940395,,rt_thecrossant_black,918071,,black_plus_sign,,,,50,,,1,0.9727272727272728,,,,,,,,,,,,,,,,,,,,,,
null,,color_black,918173,,black_plus_sign,,,,null,,,,,,,,,,,,,,,,,,,,,,,,,,
null,,learn_phase(without_color),921175,,black_plus_sign,,,,null,GW/carmel.png,GW/leesburg.png,,,,,,,,,,,,,,,,,,,,,,,,
null,,black_cross(without_color),921698,,blue,,,,null,GW/carmel.png,GW/leesburg.png,,,,,,,,,,,,,,,,,,,,,,,,
null,,rt_plussign_withcolor,922200,,blue,,,,null,GW/carmel.png,GW/leesburg.png,,,,,,,,,,,,,,,,,,,,,,,,
830.0999999940395,,rt_thecrossant_black,923681,,black_plus_sign,,,,49,,,1,0.972972972972973,,,,,,,,,,,,,,,,,,,,,,
null,,color_black,923784,,black_plus_sign,,,,null,,,,,,,,,,,,,,,,,,,,,,,,,,
null,,learn_phase(without_color),926786,,black_plus_sign,,,,null,GW/shreveport.png,GW/peoria.png,,,,,,,,,,,,,,,,,,,,,,,,
null,,black_cross(without_color),927639,,yellow,,,,null,GW/shreveport.png,GW/peoria.png,,,,,,,,,,,,,,,,,,,,,,,,
null,,rt_plussign_withcolor,928140,,yellow,,,,null,GW/shreveport.png,GW/peoria.png,,,,,,,,,,,,,,,,,,,,,,,,
692.7999999821186,,rt_thecrossant_black,929295,,black_plus_sign,,,,50,,,1,0.9732142857142857,,,,,,,,,,,,,,,,,,,,,,
null,,color_black,929397,,black_plus_sign,,,,null,,,,,,,,,,,,,,,,,,,,,,,,,,
null,,learn_phase(without_color),932400,,black_plus_sign,,,,null,GW/newhope.png,GW/peoria.png,,,,,,,,,,,,,,,,,,,,,,,,
null,,black_cross(without_color),933002,,yellow,,,,null,GW/newhope.png,GW/peoria.png,,,,,,,,,,,,,,,,,,,,,,,,
null,,rt_plussign_withcolor,933504,,yellow,,,,null,GW/newhope.png,GW/peoria.png,,,,,,,,,,,,,,,,,,,,,,,,
988.1999999880791,,rt_thecrossant_black,934905,,black_plus_sign,,,,50,,,1,0.9734513274336283,,,,,,,,,,,,,,,,,,,,,,
null,,color_black,935008,,black_plus_sign,,,,null,,,,,,,,,,,,,,,,,,,,,,,,,,
null,,learn_phase(without_color),938011,,black_plus_sign,,,,null,GW/hanover.png,GW/boulder.png,,,,,,,,,,,,,,,,,,,,,,,,
null,,black_cross(without_color),938532,,blue,,,,null,GW/hanover.png,GW/boulder.png,,,,,,,,,,,,,,,,,,,,,,,,
null,,rt_plussign_withcolor,939034,,blue,,,,null,GW/hanover.png,GW/boulder.png,,,,,,,,,,,,,,,,,,,,,,,,
927,,rt_thecrossant_black,940517,,black_plus_sign,,,,49,,,1,0.9736842105263158,,,,,,,,,,,,,,,,,,,,,,
null,,color_black,940619,,black_plus_sign,,,,null,,,,,,,,,,,,,,,,,,,,,,,,,,
null,,learn_phase(without_color),943621,,black_plus_sign,,,,null,GW/racine.png,GW/gatlinburg.png,,,,,,,,,,,,,,,,,,,,,,,,
null,,black_cross(without_color),944586,,blue,,,,null,GW/racine.png,GW/gatlinburg.png,,,,,,,,,,,,,,,,,,,,,,,,
435,,rt_plussign_withcolor,945087,,blue,,,,49,GW/racine.png,GW/gatlinburg.png,,,,,,,,,,,,,,,,,,,,,,,,
null,,rt_thecrossant_black,946127,,black_plus_sign,,,,null,,,1,0.9739130434782609,,,,,,,,,,,,,,,,,,,,,,
null,,color_black,946230,,black_plus_sign,,,,null,,,,,,,,,,,,,,,,,,,,,,,,,,
null,,learn_phase(without_color),949232,,black_plus_sign,,,,null,GW/racine.png,GW/huntsville.png,,,,,,,,,,,,,,,,,,,,,,,,
null,,black_cross(without_color),950316,,yellow,,,,null,GW/racine.png,GW/huntsville.png,,,,,,,,,,,,,,,,,,,,,,,,
null,,rt_plussign_withcolor,950818,,yellow,,,,null,GW/racine.png,GW/huntsville.png,,,,,,,,,,,,,,,,,,,,,,,,
1262.5,,rt_thecrossant_black,951737,,black_plus_sign,,,,50,,,1,0.9741379310344828,,,,,,,,,,,,,,,,,,,,,,
null,,color_black,951839,,black_plus_sign,,,,null,,,,,,,,,,,,,,,,,,,,,,,,,,
null,,learn_phase(without_color),954843,,black_plus_sign,,,,null,GW/cornwall.png,GW/huntsville.png,,,,,,,,,,,,,,,,,,,,,,,,
null,,black_cross(without_color),955411,,blue,,,,null,GW/cornwall.png,GW/huntsville.png,,,,,,,,,,,,,,,,,,,,,,,,
396.80000001192093,,rt_plussign_withcolor,955912,,blue,,,,49,GW/cornwall.png,GW/huntsville.png,,,,,,,,,,,,,,,,,,,,,,,,
null,,rt_thecrossant_black,957349,,black_plus_sign,,,,null,,,1,0.9743589743589743,,,,,,,,,,,,,,,,,,,,,,
null,,color_black,957450,,black_plus_sign,,,,null,,,,,,,,,,,,,,,,,,,,,,,,,,
null,,learn_phase(without_color),960454,,black_plus_sign,,,,null,GW/hanover.png,GW/gatlinburg.png,,,,,,,,,,,,,,,,,,,,,,,,
null,,black_cross(without_color),961381,,yellow,,,,null,GW/hanover.png,GW/gatlinburg.png,,,,,,,,,,,,,,,,,,,,,,,,
null,,rt_plussign_withcolor,961883,,yellow,,,,null,GW/hanover.png,GW/gatlinburg.png,,,,,,,,,,,,,,,,,,,,,,,,
731.8999999761581,,rt_thecrossant_black,962960,,black_plus_sign,,,,50,,,1,0.9745762711864406,,,,,,,,,,,,,,,,,,,,,,
null,,color_black,963075,,black_plus_sign,,,,null,,,,,,,,,,,,,,,,,,,,,,,,,,
null,,learn_phase(without_color),966078,,black_plus_sign,,,,null,GW/gatlinburg.png,GW/racine.png,,,,,,,,,,,,,,,,,,,,,,,,
null,,black_cross(without_color),966983,,yellow,,,,null,GW/gatlinburg.png,GW/racine.png,,,,,,,,,,,,,,,,,,,,,,,,
null,,rt_plussign_withcolor,967484,,yellow,,,,null,GW/gatlinburg.png,GW/racine.png,,,,,,,,,,,,,,,,,,,,,,,,
1174.6000000238419,,rt_thecrossant_black,968583,,black_plus_sign,,,,50,,,1,0.9747899159663865,,,,,,,,,,,,,,,,,,,,,,
null,,color_black,968685,,black_plus_sign,,,,null,,,,,,,,,,,,,,,,,,,,,,,,,,
null,,learn_phase(without_color),971688,,black_plus_sign,,,,null,GW/boulder.png,GW/leesburg.png,,,,,,,,,,,,,,,,,,,,,,,,
null,,black_cross(without_color),972351,,blue,,,,null,GW/boulder.png,GW/leesburg.png,,,,,,,,,,,,,,,,,,,,,,,,
78.2000000178814,,rt_plussign_withcolor,972853,,blue,,,,49,GW/boulder.png,GW/leesburg.png,,,,,,,,,,,,,,,,,,,,,,,,
null,,rt_thecrossant_black,974195,,black_plus_sign,,,,null,,,1,0.975,,,,,,,,,,,,,,,,,,,,,,
null,,color_black,974297,,black_plus_sign,,,,null,,,,,,,,,,,,,,,,,,,,,,,,,,
null,,learn_phase(without_color),977299,,black_plus_sign,,,,null,GW/leesburg.png,GW/carmel.png,,,,,,,,,,,,,,,,,,,,,,,,
null,,black_cross(without_color),978235,,blue,,,,null,GW/leesburg.png,GW/carmel.png,,,,,,,,,,,,,,,,,,,,,,,,
431.30000001192093,,rt_plussign_withcolor,978737,,blue,,,,49,GW/leesburg.png,GW/carmel.png,,,,,,,,,,,,,,,,,,,,,,,,
null,,rt_thecrossant_black,979805,,black_plus_sign,,,,null,,,1,0.9752066115702479,,,,,,,,,,,,,,,,,,,,,,
null,,color_black,979908,,black_plus_sign,,,,null,,,,,,,,,,,,,,,,,,,,,,,,,,
null,,learn_phase(without_color),982911,,black_plus_sign,,,,null,GW/hotsprings.png,GW/newhope.png,,,,,,,,,,,,,,,,,,,,,,,,
null,,black_cross(without_color),983927,,yellow,,,,null,GW/hotsprings.png,GW/newhope.png,,,,,,,,,,,,,,,,,,,,,,,,
null,,rt_plussign_withcolor,984429,,yellow,,,,null,GW/hotsprings.png,GW/newhope.png,,,,,,,,,,,,,,,,,,,,,,,,
1113.5,,rt_thecrossant_black,985417,,black_plus_sign,,,,50,,,1,0.9754098360655737,,,,,,,,,,,,,,,,,,,,,,
null,,color_black,985520,,black_plus_sign,,,,null,,,,,,,,,,,,,,,,,,,,,,,,,,
null,,learn_phase(without_color),988523,,black_plus_sign,,,,null,GW/racine.png,GW/gatlinburg.png,,,,,,,,,,,,,,,,,,,,,,,,
null,,black_cross(without_color),989046,,yellow,,,,null,GW/racine.png,GW/gatlinburg.png,,,,,,,,,,,,,,,,,,,,,,,,
null,,rt_plussign_withcolor,989548,,yellow,,,,null,GW/racine.png,GW/gatlinburg.png,,,,,,,,,,,,,,,,,,,,,,,,
1153.699999988079,,rt_thecrossant_black,991029,,black_plus_sign,,,,50,,,1,0.975609756097561,,,,,,,,,,,,,,,,,,,,,,
null,,color_black,991132,,black_plus_sign,,,,null,,,,,,,,,,,,,,,,,,,,,,,,,,
null,,learn_phase(without_color),994134,,black_plus_sign,,,,null,GW/gatlinburg.png,GW/shreveport.png,,,,,,,,,,,,,,,,,,,,,,,,
null,,black_cross(without_color),995228,,blue,,,,null,GW/gatlinburg.png,GW/shreveport.png,,,,,,,,,,,,,,,,,,,,,,,,
407.19999998807907,,rt_plussign_withcolor,995730,,blue,,,,49,GW/gatlinburg.png,GW/shreveport.png,,,,,,,,,,,,,,,,,,,,,,,,
null,,rt_thecrossant_black,996641,,black_plus_sign,,,,null,,,1,0.9758064516129032,,,,,,,,,,,,,,,,,,,,,,
null,,color_black,996743,,black_plus_sign,,,,null,,,,,,,,,,,,,,,,,,,,,,,,,,
null,,learn_phase(without_color),999745,,black_plus_sign,,,,null,GW/boulder.png,GW/hanover.png,,,,,,,,,,,,,,,,,,,,,,,,
null,,black_cross(without_color),1000374,,yellow,,,,null,GW/boulder.png,GW/hanover.png,,,,,,,,,,,,,,,,,,,,,,,,
null,,rt_plussign_withcolor,1000875,,yellow,,,,null,GW/boulder.png,GW/hanover.png,,,,,,,,,,,,,,,,,,,,,,,,
1535.0999999940395,,rt_thecrossant_black,1002252,,black_plus_sign,,,,50,,,1,0.976,,,,,,,,,,,,,,,,,,,,,,
null,,color_black,1002354,,black_plus_sign,,,,null,,,,,,,,,,,,,,,,,,,,,,,,,,
null,,learn_phase(without_color),1005358,,black_plus_sign,,,,null,GW/peoria.png,GW/shreveport.png,,,,,,,,,,,,,,,,,,,,,,,,
null,,black_cross(without_color),1006380,,yellow,,,,null,GW/peoria.png,GW/shreveport.png,,,,,,,,,,,,,,,,,,,,,,,,
null,,rt_plussign_withcolor,1006882,,yellow,,,,null,GW/peoria.png,GW/shreveport.png,,,,,,,,,,,,,,,,,,,,,,,,
785.0999999940395,,rt_thecrossant_black,1007870,,black_plus_sign,,,,50,,,1,0.9761904761904762,,,,,,,,,,,,,,,,,,,,,,
null,,color_black,1007973,,black_plus_sign,,,,null,,,,,,,,,,,,,,,,,,,,,,,,,,
null,,learn_phase(without_color),1010975,,black_plus_sign,,,,null,GW/huntsville.png,GW/racine.png,,,,,,,,,,,,,,,,,,,,,,,,
null,,black_cross(without_color),1012049,,blue,,,,null,GW/huntsville.png,GW/racine.png,,,,,,,,,,,,,,,,,,,,,,,,
null,,rt_plussign_withcolor,1012551,,blue,,,,null,GW/huntsville.png,GW/racine.png,,,,,,,,,,,,,,,,,,,,,,,,
1196,,rt_thecrossant_black,1013480,,black_plus_sign,,,,49,,,1,0.9763779527559056,,,,,,,,,,,,,,,,,,,,,,
null,,color_black,1013583,,black_plus_sign,,,,null,,,,,,,,,,,,,,,,,,,,,,,,,,
null,,learn_phase(without_color),1016586,,black_plus_sign,,,,null,GW/boulder.png,GW/racine.png,,,,,,,,,,,,,,,,,,,,,,,,
null,,black_cross(without_color),1017070,,yellow,,,,null,GW/boulder.png,GW/racine.png,,,,,,,,,,,,,,,,,,,,,,,,
null,,rt_plussign_withcolor,1017572,,yellow,,,,null,GW/boulder.png,GW/racine.png,,,,,,,,,,,,,,,,,,,,,,,,
1383,,rt_thecrossant_black,1019092,,black_plus_sign,,,,50,,,1,0.9765625,,,,,,,,,,,,,,,,,,,,,,
null,,color_black,1019194,,black_plus_sign,,,,null,,,,,,,,,,,,,,,,,,,,,,,,,,
29801.30000001192,,learn_break,1048996,,learn_break,,,,32,,,,,,,,,,,,,,,,,,,,,,,,,,
35974.40000000596,,intro_1,1084972,,instruct,,0,Start,,,,,,,,,,,,,,,,,,,,,,,,,,,
2973.5999999940395,,directmemory_phase,1087948,,GW/shreveport.png,,,,51,,,1,1,GW/carmel.png,GW/hanover.png,GW/peoria.png,GW/peoria.png,GW/hanover.png,GW/carmel.png,1,,,,,,,,,,,,,,,
null,,html-keyboard-response,1088950,,<p></p>,,,,null,,,,,,,,,,,,,,,,,,,,,,,,,,
2307.300000011921,,directmemory_phase,1091259,,GW/huntsville.png,,,,51,,,1,1,GW/peoria.png,GW/boulder.png,GW/racine.png,GW/racine.png,GW/boulder.png,GW/peoria.png,1,,,,,,,,,,,,,,,
null,,html-keyboard-response,1092261,,<p></p>,,,,null,,,,,,,,,,,,,,,,,,,,,,,,,,
1917.699999988079,,directmemory_phase,1094180,,GW/shreveport.png,,,,51,,,1,1,GW/boulder.png,GW/newhope.png,GW/gatlinburg.png,GW/gatlinburg.png,GW/newhope.png,GW/boulder.png,1,,,,,,,,,,,,,,,
null,,html-keyboard-response,1095182,,<p></p>,,,,null,,,,,,,,,,,,,,,,,,,,,,,,,,
3789.699999988079,,directmemory_phase,1098973,,GW/leesburg.png,,,,49,,,1,1,GW/boulder.png,GW/newhope.png,GW/cornwall.png,GW/boulder.png,GW/cornwall.png,GW/newhope.png,1,,,,,,,,,,,,,,,
null,,html-keyboard-response,1099985,,<p></p>,,,,null,,,,,,,,,,,,,,,,,,,,,,,,,,
2778.899999976158,,directmemory_phase,1102765,,GW/peoria.png,,,,50,,,1,1,GW/gatlinburg.png,GW/shreveport.png,GW/boulder.png,GW/shreveport.png,GW/gatlinburg.png,GW/boulder.png,1,,,,,,,,,,,,,,,
null,,html-keyboard-response,1103767,,<p></p>,,,,null,,,,,,,,,,,,,,,,,,,,,,,,,,
3080.699999988079,,directmemory_phase,1106849,,GW/newhope.png,,,,49,,,1,1,GW/hanover.png,GW/leesburg.png,GW/gatlinburg.png,GW/hanover.png,GW/gatlinburg.png,GW/leesburg.png,1,,,,,,,,,,,,,,,
null,,html-keyboard-response,1107852,,<p></p>,,,,null,,,,,,,,,,,,,,,,,,,,,,,,,,
2936.0999999940395,,directmemory_phase,1110789,,GW/boulder.png,,,,49,,,1,1,GW/racine.png,GW/peoria.png,GW/gatlinburg.png,GW/racine.png,GW/gatlinburg.png,GW/peoria.png,1,,,,,,,,,,,,,,,
null,,html-keyboard-response,1111792,,<p></p>,,,,null,,,,,,,,,,,,,,,,,,,,,,,,,,
1426,,directmemory_phase,1113219,,GW/huntsville.png,,,,49,,,1,1,GW/cornwall.png,GW/newhope.png,GW/gatlinburg.png,GW/cornwall.png,GW/gatlinburg.png,GW/newhope.png,1,,,,,,,,,,,,,,,
null,,html-keyboard-response,1114221,,<p></p>,,,,null,,,,,,,,,,,,,,,,,,,,,,,,,,
1993.199999988079,,directmemory_phase,1116216,,GW/leesburg.png,,,,49,,,1,1,GW/carmel.png,GW/hotsprings.png,GW/hanover.png,GW/carmel.png,GW/hanover.png,GW/hotsprings.png,1,,,,,,,,,,,,,,,
null,,html-keyboard-response,1117217,,<p></p>,,,,null,,,,,,,,,,,,,,,,,,,,,,,,,,
1694.2999999821186,,directmemory_phase,1118913,,GW/gatlinburg.png,,,,49,,,1,1,GW/racine.png,GW/carmel.png,GW/leesburg.png,GW/racine.png,GW/leesburg.png,GW/carmel.png,1,,,,,,,,,,,,,,,
null,,html-keyboard-response,1119915,,<p></p>,,,,null,,,,,,,,,,,,,,,,,,,,,,,,,,
1464.800000011921,,directmemory_phase,1121381,,GW/westpalmbeach.png,,,,51,,,1,1,GW/hotsprings.png,GW/newhope.png,GW/peoria.png,GW/peoria.png,GW/newhope.png,GW/hotsprings.png,1,,,,,,,,,,,,,,,
null,,html-keyboard-response,1122383,,<p></p>,,,,null,,,,,,,,,,,,,,,,,,,,,,,,,,
2780.0999999940395,,directmemory_phase,1125164,,GW/leesburg.png,,,,51,,,1,1,GW/peoria.png,GW/cornwall.png,GW/racine.png,GW/racine.png,GW/cornwall.png,GW/peoria.png,1,,,,,,,,,,,,,,,
null,,html-keyboard-response,1126167,,<p></p>,,,,null,,,,,,,,,,,,,,,,,,,,,,,,,,
1486.2999999821186,,directmemory_phase,1127655,,GW/gatlinburg.png,,,,51,,,1,1,GW/cornwall.png,GW/newhope.png,GW/shreveport.png,GW/shreveport.png,GW/newhope.png,GW/cornwall.png,1,,,,,,,,,,,,,,,
null,,html-keyboard-response,1128656,,<p></p>,,,,null,,,,,,,,,,,,,,,,,,,,,,,,,,
3336.5999999940395,,directmemory_phase,1131994,,GW/peoria.png,,,,49,,,1,1,GW/newhope.png,GW/leesburg.png,GW/gatlinburg.png,GW/newhope.png,GW/gatlinburg.png,GW/leesburg.png,1,,,,,,,,,,,,,,,
null,,html-keyboard-response,1132996,,<p></p>,,,,null,,,,,,,,,,,,,,,,,,,,,,,,,,
2980.5999999940395,,directmemory_phase,1135978,,GW/racine.png,,,,51,,,1,1,GW/westpalmbeach.png,GW/shreveport.png,GW/boulder.png,GW/boulder.png,GW/shreveport.png,GW/westpalmbeach.png,1,,,,,,,,,,,,,,,
null,,html-keyboard-response,1136980,,<p></p>,,,,null,,,,,,,,,,,,,,,,,,,,,,,,,,
1784.7999999821186,,directmemory_phase,1138766,,GW/peoria.png,,,,50,,,1,1,GW/gatlinburg.png,GW/westpalmbeach.png,GW/huntsville.png,GW/westpalmbeach.png,GW/gatlinburg.png,GW/huntsville.png,1,,,,,,,,,,,,,,,
null,,html-keyboard-response,1139768,,<p></p>,,,,null,,,,,,,,,,,,,,,,,,,,,,,,,,
5230.700000017881,,directmemory_phase,1145000,,GW/racine.png,,,,51,,,1,1,GW/hotsprings.png,GW/carmel.png,GW/huntsville.png,GW/huntsville.png,GW/carmel.png,GW/hotsprings.png,1,,,,,,,,,,,,,,,
null,,html-keyboard-response,1146002,,<p></p>,,,,null,,,,,,,,,,,,,,,,,,,,,,,,,,
3675.699999988079,,directmemory_phase,1149679,,GW/hanover.png,,,,49,,,1,1,GW/boulder.png,GW/westpalmbeach.png,GW/racine.png,GW/boulder.png,GW/racine.png,GW/westpalmbeach.png,1,,,,,,,,,,,,,,,
null,,html-keyboard-response,1150681,,<p></p>,,,,null,,,,,,,,,,,,,,,,,,,,,,,,,,
2830.0999999940395,,directmemory_phase,1153513,,GW/racine.png,,,,49,,,1,1,GW/leesburg.png,GW/hotsprings.png,GW/hanover.png,GW/leesburg.png,GW/hanover.png,GW/hotsprings.png,1,,,,,,,,,,,,,,,
null,,html-keyboard-response,1154515,,<p></p>,,,,null,,,,,,,,,,,,,,,,,,,,,,,,,,
1882.9000000059605,,directmemory_phase,1156399,,GW/cornwall.png,,,,51,,,1,1,GW/gatlinburg.png,GW/leesburg.png,GW/huntsville.png,GW/huntsville.png,GW/leesburg.png,GW/gatlinburg.png,1,,,,,,,,,,,,,,,
null,,html-keyboard-response,1157401,,<p></p>,,,,null,,,,,,,,,,,,,,,,,,,,,,,,,,
1746.199999988079,,directmemory_phase,1159149,,GW/newhope.png,,,,51,,,1,1,GW/carmel.png,GW/boulder.png,GW/hotsprings.png,GW/hotsprings.png,GW/boulder.png,GW/carmel.png,1,,,,,,,,,,,,,,,
null,,html-keyboard-response,1160151,,<p></p>,,,,null,,,,,,,,,,,,,,,,,,,,,,,,,,
3817.800000011921,,directmemory_phase,1163970,,GW/boulder.png,,,,51,,,1,1,GW/hotsprings.png,GW/huntsville.png,GW/leesburg.png,GW/leesburg.png,GW/huntsville.png,GW/hotsprings.png,1,,,,,,,,,,,,,,,
null,,html-keyboard-response,1164973,,<p></p>,,,,null,,,,,,,,,,,,,,,,,,,,,,,,,,
1747.7999999821186,,directmemory_phase,1166722,,GW/gatlinburg.png,,,,51,,,1,1,GW/westpalmbeach.png,GW/boulder.png,GW/hanover.png,GW/hanover.png,GW/boulder.png,GW/westpalmbeach.png,1,,,,,,,,,,,,,,,
null,,html-keyboard-response,1167723,,<p></p>,,,,null,,,,,,,,,,,,,,,,,,,,,,,,,,
2751.4000000059605,,directmemory_phase,1170476,,GW/huntsville.png,,,,51,,,1,1,GW/shreveport.png,GW/boulder.png,GW/leesburg.png,GW/leesburg.png,GW/boulder.png,GW/shreveport.png,1,,,,,,,,,,,,,,,
null,,html-keyboard-response,1171478,,<p></p>,,,,null,,,,,,,,,,,,,,,,,,,,,,,,,,
2189.0999999940395,,directmemory_phase,1173669,,GW/boulder.png,,,,50,,,1,1,GW/gatlinburg.png,GW/hanover.png,GW/shreveport.png,GW/hanover.png,GW/gatlinburg.png,GW/shreveport.png,1,,,,,,,,,,,,,,,
null,,html-keyboard-response,1174672,,<p></p>,,,,null,,,,,,,,,,,,,,,,,,,,,,,,,,
1721.199999988079,,directmemory_phase,1176395,,GW/carmel.png,,,,51,,,1,1,GW/cornwall.png,GW/racine.png,GW/leesburg.png,GW/leesburg.png,GW/racine.png,GW/cornwall.png,1,,,,,,,,,,,,,,,
null,,html-keyboard-response,1177397,,<p></p>,,,,null,,,,,,,,,,,,,,,,,,,,,,,,,,
2149,,directmemory_phase,1179547,,GW/newhope.png,,,,51,,,1,1,GW/carmel.png,GW/westpalmbeach.png,GW/peoria.png,GW/peoria.png,GW/westpalmbeach.png,GW/carmel.png,1,,,,,,,,,,,,,,,
null,,html-keyboard-response,1180550,,<p></p>,,,,null,,,,,,,,,,,,,,,,,,,,,,,,,,
1574.300000011921,,directmemory_phase,1182125,,GW/racine.png,,,,51,,,1,1,GW/peoria.png,GW/cornwall.png,GW/gatlinburg.png,GW/gatlinburg.png,GW/cornwall.png,GW/peoria.png,1,,,,,,,,,,,,,,,
null,,html-keyboard-response,1183128,,<p></p>,,,,null,,,,,,,,,,,,,,,,,,,,,,,,,,
1345.9000000059605,,directmemory_phase,1184475,,GW/hanover.png,,,,51,,,1,1,GW/huntsville.png,GW/peoria.png,GW/newhope.png,GW/newhope.png,GW/peoria.png,GW/huntsville.png,1,,,,,,,,,,,,,,,
null,,html-keyboard-response,1185477,,<p></p>,,,,null,,,,,,,,,,,,,,,,,,,,,,,,,,
1966.7999999821186,,directmemory_phase,1187445,,GW/leesburg.png,,,,51,,,1,1,GW/hotsprings.png,GW/cornwall.png,GW/huntsville.png,GW/huntsville.png,GW/cornwall.png,GW/hotsprings.png,1,,,,,,,,,,,,,,,
null,,html-keyboard-response,1188455,,<p></p>,,,,null,,,,,,,,,,,,,,,,,,,,,,,,,,
3230.5999999940395,,directmemory_phase,1191687,,GW/hanover.png,,,,51,,,1,1,GW/cornwall.png,GW/shreveport.png,GW/gatlinburg.png,GW/gatlinburg.png,GW/shreveport.png,GW/cornwall.png,1,,,,,,,,,,,,,,,
null,,html-keyboard-response,1192689,,<p></p>,,,,null,,,,,,,,,,,,,,,,,,,,,,,,,,
1327.800000011921,,directmemory_phase,1194018,,GW/hotsprings.png,,,,51,,,1,1,GW/leesburg.png,GW/peoria.png,GW/newhope.png,GW/newhope.png,GW/peoria.png,GW/leesburg.png,1,,,,,,,,,,,,,,,
null,,html-keyboard-response,1195020,,<p></p>,,,,null,,,,,,,,,,,,,,,,,,,,,,,,,,
36874.59999999404,,intro_1,1231896,,instruct,,0,,,,,,,,,,,,,,,,,,,,,,,,,,,,
10719.299999982119,,intro_2,1242617,,instruct,,1,Next,,,,,,,,,,,,,,,,,,,,,,,,,,,
7537.0999999940395,,intro_3,1250156,,instruct,,1,Next,,,,,,,,,,,,,,,,,,,,,,,,,,,
17727.90000000596,,intro_4,1267885,,instruct,,1,Next,,,,,,,,,,,,,,,,,,,,,,,,,,,
15437.40000000596,,intro_5,1283324,,instruct,,1,Next,,,,,,,,,,,,,,,,,,,,,,,,,,,
23268,,intro_6,1306594,,instruct,,1,Next,,,,,,,,,,,,,,,,,,,,,,,,,,,
11375.600000023842,,intro_7,1317971,,instruct,,1,Next,,,,,,,,,,,,,,,,,,,,,,,,,,,
11886.90000000596,,intro_8,1329860,,instruct,,1,Next,,,,,,,,,,,,,,,,,,,,,,,,,,,
null,,shortestpath_phase,1337362,,GW/hotsprings.png,,,,null,GW/peoria.png,GW/huntsville.png,0,0,,,,GW/peoria.png,,,,Three Edge Diff,Three Edge Six Edge,,,,,,,,,,,,,
null,,warning_page,1340366,,warning,,,,null,,,,,,,,,,,,,,,,,,,,,,,,,,
null,,html-keyboard-response,1341366,,<p></p>,,,,null,,,,,,,,,,,,,,,,,,,,,,,,,,
3724.5,,shortestpath_phase,1345092,,GW/leesburg.png,,,,50,GW/hotsprings.png,GW/newhope.png,1,0.5,,,,GW/newhope.png,,,,One Edge Diff,Three Edge Four Edge,,,,,,,,,,,,,
null,,html-keyboard-response,1346094,,<p></p>,,,,null,,,,,,,,,,,,,,,,,,,,,,,,,,
3901.5999999940395,,shortestpath_phase,1349997,,GW/hotsprings.png,,,,49,GW/huntsville.png,GW/shreveport.png,0,0.3333333333333333,,,,GW/shreveport.png,,,,Two Edge Diff,Three Edge Five Edge,,,,,,,,,,,,,
null,,html-keyboard-response,1350999,,<p></p>,,,,null,,,,,,,,,,,,,,,,,,,,,,,,,,
4046.2999999821186,,shortestpath_phase,1355047,,GW/huntsville.png,,,,49,GW/boulder.png,GW/hotsprings.png,1,0.5,,,,GW/boulder.png,,,,Three Edge Diff,Two Edge Five Edge,,,,,,,,,,,,,
null,,html-keyboard-response,1356048,,<p></p>,,,,null,,,,,,,,,,,,,,,,,,,,,,,,,,
4845.899999976158,,shortestpath_phase,1360895,,GW/peoria.png,,,,50,GW/carmel.png,GW/hotsprings.png,1,0.6,,,,GW/hotsprings.png,,,,Three Edge Diff,Two Edge Five Edge,,,,,,,,,,,,,
null,,html-keyboard-response,1361898,,<p></p>,,,,null,,,,,,,,,,,,,,,,,,,,,,,,,,
3764.199999988079,,shortestpath_phase,1365663,,GW/westpalmbeach.png,,,,49,GW/racine.png,GW/carmel.png,1,0.6666666666666666,,,,GW/racine.png,,,,Two Edge Diff,Four Edge Six Edge,,,,,,,,,,,,,
null,,html-keyboard-response,1366665,,<p></p>,,,,null,,,,,,,,,,,,,,,,,,,,,,,,,,
4152.699999988079,,shortestpath_phase,1370819,,GW/hanover.png,,,,50,GW/cornwall.png,GW/shreveport.png,1,0.7142857142857143,,,,GW/shreveport.png,,,,Two Edge Diff,Two Edge Four Edge,,,,,,,,,,,,,
null,,html-keyboard-response,1371822,,<p></p>,,,,null,,,,,,,,,,,,,,,,,,,,,,,,,,
4161.800000011921,,shortestpath_phase,1375985,,GW/cornwall.png,,,,49,GW/racine.png,GW/westpalmbeach.png,1,0.75,,,,GW/racine.png,,,,Four Edge Diff,Two Edge Six Edge,,,,,,,,,,,,,
null,,html-keyboard-response,1376987,,<p></p>,,,,null,,,,,,,,,,,,,,,,,,,,,,,,,,
3241.2999999821186,,shortestpath_phase,1380230,,GW/newhope.png,,,,50,GW/cornwall.png,GW/boulder.png,1,0.7777777777777778,,,,GW/boulder.png,,,,Three Edge Diff,Three Edge Six Edge,,,,,,,,,,,,,
null,,html-keyboard-response,1381233,,<p></p>,,,,null,,,,,,,,,,,,,,,,,,,,,,,,,,
4729.0999999940395,,shortestpath_phase,1385964,,GW/westpalmbeach.png,,,,49,GW/racine.png,GW/cornwall.png,1,0.8,,,,GW/racine.png,,,,Two Edge Diff,Four Edge Six Edge,,,,,,,,,,,,,
null,,html-keyboard-response,1386965,,<p></p>,,,,null,,,,,,,,,,,,,,,,,,,,,,,,,,
3844,,shortestpath_phase,1390811,,GW/newhope.png,,,,49,GW/cornwall.png,GW/boulder.png,0,0.7272727272727273,,,,GW/boulder.png,,,,Three Edge Diff,Two Edge Five Edge,,,,,,,,,,,,,
null,,html-keyboard-response,1391813,,<p></p>,,,,null,,,,,,,,,,,,,,,,,,,,,,,,,,
3294.5999999940395,,shortestpath_phase,1395109,,GW/racine.png,,,,49,GW/cornwall.png,GW/hotsprings.png,1,0.75,,,,GW/cornwall.png,,,,Two Edge Diff,Two Edge Four Edge,,,,,,,,,,,,,
null,,html-keyboard-response,1396111,,<p></p>,,,,null,,,,,,,,,,,,,,,,,,,,,,,,,,
3788.7999999821186,,shortestpath_phase,1399901,,GW/westpalmbeach.png,,,,50,GW/hotsprings.png,GW/shreveport.png,1,0.7692307692307693,,,,GW/shreveport.png,,,,One Edge Diff,Two Edge Three Edge,,,,,,,,,,,,,
null,,html-keyboard-response,1400904,,<p></p>,,,,null,,,,,,,,,,,,,,,,,,,,,,,,,,
4336.100000023842,,shortestpath_phase,1405241,,GW/carmel.png,,,,50,GW/hotsprings.png,GW/huntsville.png,1,0.7857142857142857,,,,GW/huntsville.png,,,,Three Edge Diff,Two Edge Five Edge,,,,,,,,,,,,,
null,,html-keyboard-response,1406243,,<p></p>,,,,null,,,,,,,,,,,,,,,,,,,,,,,,,,
2828.300000011921,,shortestpath_phase,1409072,,GW/westpalmbeach.png,,,,50,GW/leesburg.png,GW/shreveport.png,1,0.8,,,,GW/shreveport.png,,,,Three Edge Diff,Three Edge Six Edge,,,,,,,,,,,,,
null,,html-keyboard-response,1410083,,<p></p>,,,,null,,,,,,,,,,,,,,,,,,,,,,,,,,
5123.700000017881,,shortestpath_phase,1415207,,GW/huntsville.png,,,,49,GW/westpalmbeach.png,GW/carmel.png,0,0.75,,,,GW/carmel.png,,,,Three Edge Diff,Two Edge Five Edge,,,,,,,,,,,,,
null,,html-keyboard-response,1416210,,<p></p>,,,,null,,,,,,,,,,,,,,,,,,,,,,,,,,
2869.199999988079,,shortestpath_phase,1419080,,GW/westpalmbeach.png,,,,49,GW/newhope.png,GW/hotsprings.png,1,0.7647058823529411,,,,GW/newhope.png,,,,One Edge Diff,Two Edge Three Edge,,,,,,,,,,,,,
null,,html-keyboard-response,1420083,,<p></p>,,,,null,,,,,,,,,,,,,,,,,,,,,,,,,,
3936.199999988079,,shortestpath_phase,1424020,,GW/shreveport.png,,,,49,GW/huntsville.png,GW/cornwall.png,1,0.7777777777777778,,,,GW/huntsville.png,,,,One Edge Diff,Three Edge Four Edge,,,,,,,,,,,,,
null,,html-keyboard-response,1425022,,<p></p>,,,,null,,,,,,,,,,,,,,,,,,,,,,,,,,
3860.699999988079,,shortestpath_phase,1428884,,GW/westpalmbeach.png,,,,49,GW/newhope.png,GW/carmel.png,1,0.7894736842105263,,,,GW/newhope.png,,,,Four Edge Diff,Two Edge Six Edge,,,,,,,,,,,,,
null,,html-keyboard-response,1429886,,<p></p>,,,,null,,,,,,,,,,,,,,,,,,,,,,,,,,
3988.100000023842,,shortestpath_phase,1433876,,GW/carmel.png,,,,50,GW/westpalmbeach.png,GW/shreveport.png,1,0.8,,,,GW/shreveport.png,,,,Two Edge Diff,Four Edge Six Edge,,,,,,,,,,,,,
null,,html-keyboard-response,1434878,,<p></p>,,,,null,,,,,,,,,,,,,,,,,,,,,,,,,,
3812.5,,shortestpath_phase,1438692,,GW/westpalmbeach.png,,,,50,GW/boulder.png,GW/leesburg.png,0,0.7619047619047619,,,,GW/boulder.png,,,,One Edge Diff,Four Edge Five Edge,,,,,,,,,,,,,
null,,html-keyboard-response,1439694,,<p></p>,,,,null,,,,,,,,,,,,,,,,,,,,,,,,,,
4540.5,,shortestpath_phase,1444236,,GW/hotsprings.png,,,,50,GW/cornwall.png,GW/racine.png,1,0.7727272727272727,,,,GW/racine.png,,,,Two Edge Diff,Four Edge Six Edge,,,,,,,,,,,,,
null,,html-keyboard-response,1445238,,<p></p>,,,,null,,,,,,,,,,,,,,,,,,,,,,,,,,
3332.899999976158,,shortestpath_phase,1448572,,GW/carmel.png,,,,50,GW/hanover.png,GW/peoria.png,0,0.7391304347826086,,,,GW/hanover.png,,,,Two Edge Diff,Three Edge Five Edge,,,,,,,,,,,,,
null,,html-keyboard-response,1449574,,<p></p>,,,,null,,,,,,,,,,,,,,,,,,,,,,,,,,
3814.199999988079,,shortestpath_phase,1453390,,GW/hotsprings.png,,,,49,GW/carmel.png,GW/peoria.png,0,0.7083333333333334,,,,GW/peoria.png,,,,Three Edge Diff,Two Edge Five Edge,,,,,,,,,,,,,
null,,html-keyboard-response,1454393,,<p></p>,,,,null,,,,,,,,,,,,,,,,,,,,,,,,,,
4294.699999988079,,shortestpath_phase,1458689,,GW/carmel.png,,,,49,GW/huntsville.png,GW/peoria.png,1,0.72,,,,GW/huntsville.png,,,,Three Edge Diff,Two Edge Five Edge,,,,,,,,,,,,,
null,,html-keyboard-response,1459690,,<p></p>,,,,null,,,,,,,,,,,,,,,,,,,,,,,,,,
2091.4000000059605,,shortestpath_phase,1461783,,GW/peoria.png,,,,49,GW/gatlinburg.png,GW/huntsville.png,1,0.7307692307692307,,,,GW/gatlinburg.png,,,,Two Edge Diff,Two Edge Four Edge,,,,,,,,,,,,,
null,,html-keyboard-response,1462785,,<p></p>,,,,null,,,,,,,,,,,,,,,,,,,,,,,,,,
2195.2999999821186,,shortestpath_phase,1464981,,GW/cornwall.png,,,,50,GW/hotsprings.png,GW/hanover.png,1,0.7407407407407407,,,,GW/hanover.png,,,,Two Edge Diff,Four Edge Six Edge,,,,,,,,,,,,,
null,,html-keyboard-response,1465983,,<p></p>,,,,null,,,,,,,,,,,,,,,,,,,,,,,,,,
2514.2999999821186,,shortestpath_phase,1468499,,GW/huntsville.png,,,,50,GW/hotsprings.png,GW/boulder.png,1,0.75,,,,GW/boulder.png,,,,Three Edge Diff,Three Edge Six Edge,,,,,,,,,,,,,
null,,html-keyboard-response,1469504,,<p></p>,,,,null,,,,,,,,,,,,,,,,,,,,,,,,,,
2515.0999999940395,,shortestpath_phase,1472020,,GW/peoria.png,,,,49,GW/hotsprings.png,GW/cornwall.png,1,0.7586206896551724,,,,GW/hotsprings.png,,,,Three Edge Diff,Three Edge Six Edge,,,,,,,,,,,,,
null,,html-keyboard-response,1473023,,<p></p>,,,,null,,,,,,,,,,,,,,,,,,,,,,,,,,
2594,,shortestpath_phase,1475619,,GW/huntsville.png,,,,49,GW/peoria.png,GW/hanover.png,0,0.7333333333333333,,,,GW/hanover.png,,,,One Edge Diff,Three Edge Four Edge,,,,,,,,,,,,,
null,,html-keyboard-response,1476621,,<p></p>,,,,null,,,,,,,,,,,,,,,,,,,,,,,,,,
3095.5999999940395,,shortestpath_phase,1479718,,GW/peoria.png,,,,50,GW/cornwall.png,GW/leesburg.png,1,0.7419354838709677,,,,GW/leesburg.png,,,,One Edge Diff,Four Edge Five Edge,,,,,,,,,,,,,
null,,html-keyboard-response,1480720,,<p></p>,,,,null,,,,,,,,,,,,,,,,,,,,,,,,,,
2403.9000000059605,,shortestpath_phase,1483125,,GW/huntsville.png,,,,49,GW/hanover.png,GW/newhope.png,1,0.75,,,,GW/hanover.png,,,,One Edge Diff,Three Edge Four Edge,,,,,,,,,,,,,
null,,html-keyboard-response,1484127,,<p></p>,,,,null,,,,,,,,,,,,,,,,,,,,,,,,,,
3066.800000011921,,shortestpath_phase,1487195,,GW/cornwall.png,,,,50,GW/shreveport.png,GW/newhope.png,0,0.7272727272727273,,,,GW/shreveport.png,,,,One Edge Diff,Four Edge Five Edge,,,,,,,,,,,,,
null,,html-keyboard-response,1488211,,<p></p>,,,,null,,,,,,,,,,,,,,,,,,,,,,,,,,
3909.2999999821186,,shortestpath_phase,1492121,,GW/huntsville.png,,,,49,GW/newhope.png,GW/gatlinburg.png,0,0.7058823529411765,,,,GW/gatlinburg.png,,,,Two Edge Diff,Two Edge Four Edge,,,,,,,,,,,,,
null,,html-keyboard-response,1493123,,<p></p>,,,,null,,,,,,,,,,,,,,,,,,,,,,,,,,
3426.2000000178814,,shortestpath_phase,1496551,,GW/leesburg.png,,,,50,GW/hanover.png,GW/hotsprings.png,0,0.6857142857142857,,,,GW/hanover.png,,,,Two Edge Diff,Two Edge Four Edge,,,,,,,,,,,,,
null,,html-keyboard-response,1497553,,<p></p>,,,,null,,,,,,,,,,,,,,,,,,,,,,,,,,
2722.0999999940395,,shortestpath_phase,1500277,,GW/cornwall.png,,,,49,GW/shreveport.png,GW/westpalmbeach.png,1,0.6944444444444444,,,,GW/shreveport.png,,,,Two Edge Diff,Four Edge Six Edge,,,,,,,,,,,,,
null,,html-keyboard-response,1501279,,<p></p>,,,,null,,,,,,,,,,,,,,,,,,,,,,,,,,
3163.5,,shortestpath_phase,1504444,,GW/hotsprings.png,,,,49,GW/hanover.png,GW/cornwall.png,1,0.7027027027027027,,,,GW/hanover.png,,,,Four Edge Diff,Two Edge Six Edge,,,,,,,,,,,,,
null,,html-keyboard-response,1505447,,<p></p>,,,,null,,,,,,,,,,,,,,,,,,,,,,,,,,
2677.2999999821186,,shortestpath_phase,1508126,,GW/westpalmbeach.png,,,,49,GW/shreveport.png,GW/huntsville.png,1,0.7105263157894737,,,,GW/shreveport.png,,,,Three Edge Diff,Two Edge Five Edge,,,,,,,,,,,,,
null,,html-keyboard-response,1509128,,<p></p>,,,,null,,,,,,,,,,,,,,,,,,,,,,,,,,
2529.5999999940395,,shortestpath_phase,1511659,,GW/racine.png,,,,49,GW/peoria.png,GW/hotsprings.png,1,0.717948717948718,,,,GW/peoria.png,,,,One Edge Diff,Three Edge Four Edge,,,,,,,,,,,,,
null,,html-keyboard-response,1512661,,<p></p>,,,,null,,,,,,,,,,,,,,,,,,,,,,,,,,
2970.7999999821186,,shortestpath_phase,1515633,,GW/hotsprings.png,,,,50,GW/carmel.png,GW/shreveport.png,1,0.725,,,,GW/shreveport.png,,,,Two Edge Diff,Three Edge Five Edge,,,,,,,,,,,,,
null,,html-keyboard-response,1516636,,<p></p>,,,,null,,,,,,,,,,,,,,,,,,,,,,,,,,
3091.699999988079,,shortestpath_phase,1519729,,GW/cornwall.png,,,,49,GW/hanover.png,GW/leesburg.png,0,0.7073170731707317,,,,GW/leesburg.png,,,,Two Edge Diff,Two Edge Four Edge,,,,,,,,,,,,,
null,,html-keyboard-response,1520731,,<p></p>,,,,null,,,,,,,,,,,,,,,,,,,,,,,,,,
3919.2000000178814,,shortestpath_phase,1524651,,GW/westpalmbeach.png,,,,50,GW/cornwall.png,GW/huntsville.png,1,0.7142857142857143,,,,GW/huntsville.png,,,,One Edge Diff,Five Edge Six Edge,,,,,,,,,,,,,
null,,html-keyboard-response,1525654,,<p></p>,,,,null,,,,,,,,,,,,,,,,,,,,,,,,,,
3257.9000000059605,,shortestpath_phase,1528913,,GW/hotsprings.png,,,,50,GW/cornwall.png,GW/peoria.png,1,0.7209302325581395,,,,GW/peoria.png,,,,Four Edge Diff,Two Edge Six Edge,,,,,,,,,,,,,
null,,html-keyboard-response,1529915,,<p></p>,,,,null,,,,,,,,,,,,,,,,,,,,,,,,,,
1821.300000011921,,shortestpath_phase,1531738,,GW/leesburg.png,,,,50,GW/westpalmbeach.png,GW/hanover.png,1,0.7272727272727273,,,,GW/hanover.png,,,,Three Edge Diff,Three Edge Six Edge,,,,,,,,,,,,,
null,,html-keyboard-response,1532740,,<p></p>,,,,null,,,,,,,,,,,,,,,,,,,,,,,,,,
3684.800000011921,,shortestpath_phase,1536426,,GW/westpalmbeach.png,,,,50,GW/boulder.png,GW/carmel.png,0,0.7111111111111111,,,,GW/boulder.png,,,,Two Edge Diff,Four Edge Six Edge,,,,,,,,,,,,,
null,,html-keyboard-response,1537428,,<p></p>,,,,null,,,,,,,,,,,,,,,,,,,,,,,,,,
2976.2000000178814,,shortestpath_phase,1540406,,GW/leesburg.png,,,,49,GW/westpalmbeach.png,GW/hotsprings.png,0,0.6956521739130435,,,,GW/hotsprings.png,,,,One Edge Diff,Four Edge Five Edge,,,,,,,,,,,,,
null,,html-keyboard-response,1541408,,<p></p>,,,,null,,,,,,,,,,,,,,,,,,,,,,,,,,
1998.7999999821186,,shortestpath_phase,1543408,,GW/carmel.png,,,,49,GW/peoria.png,GW/westpalmbeach.png,1,0.7021276595744681,,,,GW/peoria.png,,,,One Edge Diff,Five Edge Six Edge,,,,,,,,,,,,,
null,,html-keyboard-response,1544410,,<p></p>,,,,null,,,,,,,,,,,,,,,,,,,,,,,,,,
2008.4000000059605,,shortestpath_phase,1546420,,GW/cornwall.png,,,,49,GW/leesburg.png,GW/gatlinburg.png,1,0.7083333333333334,,,,GW/leesburg.png,,,,One Edge Diff,Two Edge Three Edge,,,,,,,,,,,,,
null,,html-keyboard-response,1547423,,<p></p>,,,,null,,,,,,,,,,,,,,,,,,,,,,,,,,
2426.600000023842,,shortestpath_phase,1549851,,GW/westpalmbeach.png,,,,50,GW/cornwall.png,GW/shreveport.png,1,0.7142857142857143,,,,GW/shreveport.png,,,,Four Edge Diff,Two Edge Six Edge,,,,,,,,,,,,,
null,,html-keyboard-response,1550865,,<p></p>,,,,null,,,,,,,,,,,,,,,,,,,,,,,,,,
3222.300000011921,,shortestpath_phase,1554089,,GW/boulder.png,,,,50,GW/huntsville.png,GW/peoria.png,0,0.7,,,,GW/huntsville.png,,,,One Edge Diff,Two Edge Three Edge,,,,,,,,,,,,,
null,,html-keyboard-response,1555092,,<p></p>,,,,null,,,,,,,,,,,,,,,,,,,,,,,,,,
3095,,shortestpath_phase,1558188,,GW/leesburg.png,,,,50,GW/cornwall.png,GW/westpalmbeach.png,0,0.6862745098039216,,,,GW/cornwall.png,,,,Three Edge Diff,Three Edge Six Edge,,,,,,,,,,,,,
null,,html-keyboard-response,1559190,,<p></p>,,,,null,,,,,,,,,,,,,,,,,,,,,,,,,,
2803.300000011921,,shortestpath_phase,1561995,,GW/hotsprings.png,,,,49,GW/boulder.png,GW/carmel.png,1,0.6923076923076923,,,,GW/boulder.png,,,,Two Edge Diff,Three Edge Five Edge,,,,,,,,,,,,,
null,,html-keyboard-response,1562997,,<p></p>,,,,null,,,,,,,,,,,,,,,,,,,,,,,,,,
2819.9000000059605,,shortestpath_phase,1565819,,GW/westpalmbeach.png,,,,49,GW/newhope.png,GW/cornwall.png,1,0.6981132075471698,,,,GW/newhope.png,,,,Four Edge Diff,Two Edge Six Edge,,,,,,,,,,,,,
null,,html-keyboard-response,1566821,,<p></p>,,,,null,,,,,,,,,,,,,,,,,,,,,,,,,,
3704.199999988079,,shortestpath_phase,1570526,,GW/cornwall.png,,,,50,GW/boulder.png,GW/hanover.png,0,0.6851851851851852,,,,GW/boulder.png,,,,One Edge Diff,Three Edge Four Edge,,,,,,,,,,,,,
null,,html-keyboard-response,1571528,,<p></p>,,,,null,,,,,,,,,,,,,,,,,,,,,,,,,,
1757.5999999940395,,shortestpath_phase,1573287,,GW/westpalmbeach.png,,,,49,GW/huntsville.png,GW/carmel.png,1,0.6909090909090909,,,,GW/huntsville.png,,,,One Edge Diff,Five Edge Six Edge,,,,,,,,,,,,,
null,,html-keyboard-response,1574290,,<p></p>,,,,null,,,,,,,,,,,,,,,,,,,,,,,,,,
3837.600000023842,,shortestpath_phase,1578129,,GW/peoria.png,,,,50,GW/hotsprings.png,GW/carmel.png,0,0.6785714285714286,,,,GW/hotsprings.png,,,,Three Edge Diff,Three Edge Six Edge,,,,,,,,,,,,,
null,,html-keyboard-response,1579131,,<p></p>,,,,null,,,,,,,,,,,,,,,,,,,,,,,,,,
1915.6000000238419,,shortestpath_phase,1581048,,GW/newhope.png,,,,50,GW/carmel.png,GW/shreveport.png,1,0.6842105263157895,,,,GW/shreveport.png,,,,Two Edge Diff,Two Edge Four Edge,,,,,,,,,,,,,
null,,html-keyboard-response,1582050,,<p></p>,,,,null,,,,,,,,,,,,,,,,,,,,,,,,,,
3692.199999988079,,shortestpath_phase,1585744,,GW/cornwall.png,,,,49,GW/peoria.png,GW/westpalmbeach.png,1,0.6896551724137931,,,,GW/peoria.png,,,,One Edge Diff,Five Edge Six Edge,,,,,,,,,,,,,
null,,html-keyboard-response,1586755,,<p></p>,,,,null,,,,,,,,,,,,,,,,,,,,,,,,,,
3527.7999999821186,,shortestpath_phase,1590284,,GW/newhope.png,,,,49,GW/gatlinburg.png,GW/cornwall.png,1,0.6949152542372882,,,,GW/gatlinburg.png,,,,Three Edge Diff,Three Edge Six Edge,,,,,,,,,,,,,
null,,html-keyboard-response,1591286,,<p></p>,,,,null,,,,,,,,,,,,,,,,,,,,,,,,,,
2230.5999999940395,,shortestpath_phase,1593518,,GW/peoria.png,,,,49,GW/racine.png,GW/carmel.png,1,0.7,,,,GW/racine.png,,,,Two Edge Diff,Three Edge Five Edge,,,,,,,,,,,,,
null,,html-keyboard-response,1594520,,<p></p>,,,,null,,,,,,,,,,,,,,,,,,,,,,,,,,
2497.4000000059605,,shortestpath_phase,1597019,,GW/huntsville.png,,,,50,GW/hotsprings.png,GW/gatlinburg.png,1,0.7049180327868853,,,,GW/gatlinburg.png,,,,Three Edge Diff,Three Edge Six Edge,,,,,,,,,,,,,
null,,html-keyboard-response,1598021,,<p></p>,,,,null,,,,,,,,,,,,,,,,,,,,,,,,,,
3811.5,,shortestpath_phase,1601834,,GW/carmel.png,,,,50,GW/shreveport.png,GW/hotsprings.png,0,0.6935483870967742,,,,GW/shreveport.png,,,,One Edge Diff,Four Edge Five Edge,,,,,,,,,,,,,
null,,html-keyboard-response,1602837,,<p></p>,,,,null,,,,,,,,,,,,,,,,,,,,,,,,,,
3623.9000000059605,,shortestpath_phase,1606462,,GW/cornwall.png,,,,50,GW/hotsprings.png,GW/peoria.png,1,0.6984126984126984,,,,GW/peoria.png,,,,One Edge Diff,Five Edge Six Edge,,,,,,,,,,,,,
null,,html-keyboard-response,1607464,,<p></p>,,,,null,,,,,,,,,,,,,,,,,,,,,,,,,,
3764.699999988079,,shortestpath_phase,1611230,,GW/carmel.png,,,,49,GW/racine.png,GW/westpalmbeach.png,1,0.703125,,,,GW/racine.png,,,,Four Edge Diff,Two Edge Six Edge,,,,,,,,,,,,,
null,,html-keyboard-response,1612232,,<p></p>,,,,null,,,,,,,,,,,,,,,,,,,,,,,,,,
1967.800000011921,,shortestpath_phase,1614201,,GW/newhope.png,,,,50,GW/cornwall.png,GW/shreveport.png,1,0.7076923076923077,,,,GW/shreveport.png,,,,Three Edge Diff,Two Edge Five Edge,,,,,,,,,,,,,
null,,html-keyboard-response,1615203,,<p></p>,,,,null,,,,,,,,,,,,,,,,,,,,,,,,,,
3311.300000011921,,shortestpath_phase,1618516,,GW/carmel.png,,,,50,GW/westpalmbeach.png,GW/boulder.png,1,0.7121212121212122,,,,GW/boulder.png,,,,Four Edge Diff,Two Edge Six Edge,,,,,,,,,,,,,
null,,html-keyboard-response,1619517,,<p></p>,,,,null,,,,,,,,,,,,,,,,,,,,,,,,,,
