rt,responses,trial_type,time_elapsed,stimulus,graphorder,button_pressed,response,key_press,stimulus_left,stimulus_right,accuracy,cumulative_accuracy,stimulus_down_left,stimulus_down_mid,stimulus_down_right,stimulus_correct,stimulus_short,stimulus_far,weighted_accuracy,missedtrial,condition,specific_pairs,linedress,linedressed,problems,smooth,distraction,strategies,easier,similar,comments
22620.09999999404,{worker_id:63e5b3e89a3823139cb9d35e},id_enter,22621,id_enter,GW/barrel.jpg; GW/paint.jpg; GW/gong.jpg; GW/snail.jpg; GW/teeth.jpg; GW/basket.jpg; GW/dustpan.jpg; GW/soldier.jpg; GW/hat.jpg; GW/globe.jpg; GW/jukebox.jpg; GW/camera.jpg; GW/wheelchair.jpg,,,,,,,,,,,,,,,,,,,,,,,,,,
28493.09999999404,,fullscreen,51117,fullscreen,,0,,,,,,,,,,,,,,,,,,,,,,,,,
118334.5,,intro_1,169452,instruct,,0,,,,,,,,,,,,,,,,,,,,,,,,,
22663.29999998212,,intro_2,192116,instruct,,1,Next,,,,,,,,,,,,,,,,,,,,,,,,
4895.299999982119,,intro_3,197012,instruct,,1,Next,,,,,,,,,,,,,,,,,,,,,,,,
null,,learn_prac_1,199014,lean_prac_1,,,,null,,,,,,,,,,,,,,,,,,,,,,,
null,,html-keyboard-response,200015,<p></p>,,,,null,,,,,,,,,,,,,,,,,,,,,,,
9275.90000000596,,intro_1,209292,instruct,,0,,,,,,,,,,,,,,,,,,,,,,,,,
4095.0999999940395,,intro_2,213388,instruct,,1,Next,,,,,,,,,,,,,,,,,,,,,,,,
null,,learn_prac_2,215389,lean_prac_2,,,,null,,,,,,,,,,,,,,,,,,,,,,,
null,,html-keyboard-response,216394,<p></p>,,,,null,,,,,,,,,,,,,,,,,,,,,,,
2449.5999999940395,,intro_1,218844,instruct,,0,,,,,,,,,,,,,,,,,,,,,,,,,
2591.5,,intro_2,221436,instruct,,1,Next,,,,,,,,,,,,,,,,,,,,,,,,
28887.30000001192,,intro_3,250324,instruct,,1,Next,,,,,,,,,,,,,,,,,,,,,,,,
null,,prac_atten_color_black,251031,black_plus_sign,,,,null,,,,,,,,,,,,,,,,,,,,,,,
484.09999999403954,,prac_atten_color,251728,prac_stop_color,,,,49,,,,,,,,,,,,,,,,,,,,,,,
null,,prac_atten_color_black,253729,black_plus_sign,,,,null,,,,,,,,,,,,,,,,,,,,,,,
null,,prac_atten_color_black,254436,black_plus_sign,,,,null,,,,,,,,,,,,,,,,,,,,,,,
471.2999999821186,,prac_atten_color,255115,prac_stop_color,,,,50,,,,,,,,,,,,,,,,,,,,,,,
null,,prac_atten_color_black,257116,black_plus_sign,,,,null,,,,,,,,,,,,,,,,,,,,,,,
null,,prac_atten_color_black,257843,black_plus_sign,,,,null,,,,,,,,,,,,,,,,,,,,,,,
496.59999999403954,,prac_atten_color,258781,prac_stop_color,,,,50,,,,,,,,,,,,,,,,,,,,,,,
null,,prac_atten_color_black,260783,black_plus_sign,,,,null,,,,,,,,,,,,,,,,,,,,,,,
null,,prac_atten_color_black,261247,black_plus_sign,,,,null,,,,,,,,,,,,,,,,,,,,,,,
348.39999997615814,,prac_atten_color,261778,prac_stop_color,,,,49,,,,,,,,,,,,,,,,,,,,,,,
null,,prac_atten_color_black,263779,black_plus_sign,,,,null,,,,,,,,,,,,,,,,,,,,,,,
null,,prac_atten_color_black,264651,black_plus_sign,,,,null,,,,,,,,,,,,,,,,,,,,,,,
null,,prac_atten_color,265081,prac_stop_color,,,,null,,,,,,,,,,,,,,,,,,,,,,,
10,,prac_atten_color_black,267083,black_plus_sign,,,,50,,,,,,,,,,,,,,,,,,,,,,,
null,,prac_atten_color_black,268057,black_plus_sign,,,,null,,,,,,,,,,,,,,,,,,,,,,,
506.19999998807907,,prac_atten_color,269017,prac_stop_color,,,,50,,,,,,,,,,,,,,,,,,,,,,,
null,,prac_atten_color_black,271018,black_plus_sign,,,,null,,,,,,,,,,,,,,,,,,,,,,,
null,,prac_atten_color_black,271461,black_plus_sign,,,,null,,,,,,,,,,,,,,,,,,,,,,,
542.7999999821186,,prac_atten_color,272547,prac_stop_color,,,,49,,,,,,,,,,,,,,,,,,,,,,,
null,,prac_atten_color_black,274548,black_plus_sign,,,,null,,,,,,,,,,,,,,,,,,,,,,,
null,,prac_atten_color_black,274864,black_plus_sign,,,,null,,,,,,,,,,,,,,,,,,,,,,,
379.69999998807907,,prac_atten_color,275536,prac_stop_color,,,,50,,,,,,,,,,,,,,,,,,,,,,,
null,,prac_atten_color_black,277537,black_plus_sign,,,,null,,,,,,,,,,,,,,,,,,,,,,,
null,,prac_atten_color_black,278267,black_plus_sign,,,,null,,,,,,,,,,,,,,,,,,,,,,,
432.5,,prac_atten_color,278736,prac_stop_color,,,,49,,,,,,,,,,,,,,,,,,,,,,,
null,,prac_atten_color_black,280737,black_plus_sign,,,,null,,,,,,,,,,,,,,,,,,,,,,,
null,,prac_atten_color_black,281670,black_plus_sign,,,,null,,,,,,,,,,,,,,,,,,,,,,,
357.30000001192093,,prac_atten_color,282565,prac_stop_color,,,,50,,,,,,,,,,,,,,,,,,,,,,,
null,,prac_atten_color_black,284566,black_plus_sign,,,,null,,,,,,,,,,,,,,,,,,,,,,,
6261,,attentioncheck_feedback,290828,cross_check_feedback,,0,,,,,,,,,,,,,,,,,,,,,,,,,
4471.5,,last_instruct,295300,instruct,,,,32,,,,,,,,,,,,,,,,,,,,,,,
null,,learn_phase(without_color),297301,black_plus_sign,,,,null,GW/paint.jpg,GW/snail.jpg,,,,,,,,,,,,,,,,,,,,,
null,,black_cross(without_color),297871,blue,,,,null,GW/paint.jpg,GW/snail.jpg,,,,,,,,,,,,,,,,,,,,,
null,,rt_plussign_withcolor,298373,blue,,,,null,GW/paint.jpg,GW/snail.jpg,,,,,,,,,,,,,,,,,,,,,
739.5,,rt_thecrossant_black,299805,black_plus_sign,,,,49,,,1,1,,,,,,,,,,,,,,,,,,,
null,,color_black,299906,black_plus_sign,,,,null,,,,,,,,,,,,,,,,,,,,,,,
null,,learn_phase(without_color),301907,black_plus_sign,,,,null,GW/snail.jpg,GW/teeth.jpg,,,,,,,,,,,,,,,,,,,,,
null,,black_cross(without_color),302634,green,,,,null,GW/snail.jpg,GW/teeth.jpg,,,,,,,,,,,,,,,,,,,,,
457.59999999403954,,rt_plussign_withcolor,303135,green,,,,50,GW/snail.jpg,GW/teeth.jpg,,,,,,,,,,,,,,,,,,,,,
null,,rt_thecrossant_black,304411,black_plus_sign,,,,null,,,1,1,,,,,,,,,,,,,,,,,,,
null,,color_black,304522,black_plus_sign,,,,null,,,,,,,,,,,,,,,,,,,,,,,
null,,learn_phase(without_color),306523,black_plus_sign,,,,null,GW/basket.jpg,GW/dustpan.jpg,,,,,,,,,,,,,,,,,,,,,
null,,black_cross(without_color),307616,blue,,,,null,GW/basket.jpg,GW/dustpan.jpg,,,,,,,,,,,,,,,,,,,,,
null,,rt_plussign_withcolor,308118,blue,,,,null,GW/basket.jpg,GW/dustpan.jpg,,,,,,,,,,,,,,,,,,,,,
862.3000000119209,,rt_thecrossant_black,309027,black_plus_sign,,,,49,,,1,1,,,,,,,,,,,,,,,,,,,
null,,color_black,309129,black_plus_sign,,,,null,,,,,,,,,,,,,,,,,,,,,,,
null,,learn_phase(without_color),311130,black_plus_sign,,,,null,GW/dustpan.jpg,GW/wheelchair.jpg,,,,,,,,,,,,,,,,,,,,,
null,,black_cross(without_color),311866,green,,,,null,GW/dustpan.jpg,GW/wheelchair.jpg,,,,,,,,,,,,,,,,,,,,,
393.80000001192093,,rt_plussign_withcolor,312367,green,,,,50,GW/dustpan.jpg,GW/wheelchair.jpg,,,,,,,,,,,,,,,,,,,,,
null,,rt_thecrossant_black,313633,black_plus_sign,,,,null,,,1,1,,,,,,,,,,,,,,,,,,,
null,,color_black,313735,black_plus_sign,,,,null,,,,,,,,,,,,,,,,,,,,,,,
null,,learn_phase(without_color),315736,black_plus_sign,,,,null,GW/hat.jpg,GW/jukebox.jpg,,,,,,,,,,,,,,,,,,,,,
null,,black_cross(without_color),316737,blue,,,,null,GW/hat.jpg,GW/jukebox.jpg,,,,,,,,,,,,,,,,,,,,,
490.7000000178814,,rt_plussign_withcolor,317237,blue,,,,49,GW/hat.jpg,GW/jukebox.jpg,,,,,,,,,,,,,,,,,,,,,
null,,rt_thecrossant_black,318254,black_plus_sign,,,,null,,,1,1,,,,,,,,,,,,,,,,,,,
null,,color_black,318355,black_plus_sign,,,,null,,,,,,,,,,,,,,,,,,,,,,,
null,,learn_phase(without_color),320356,black_plus_sign,,,,null,GW/gong.jpg,GW/jukebox.jpg,,,,,,,,,,,,,,,,,,,,,
null,,black_cross(without_color),321226,green,,,,null,GW/gong.jpg,GW/jukebox.jpg,,,,,,,,,,,,,,,,,,,,,
null,,rt_plussign_withcolor,321737,green,,,,null,GW/gong.jpg,GW/jukebox.jpg,,,,,,,,,,,,,,,,,,,,,
1087.5,,rt_thecrossant_black,322873,black_plus_sign,,,,50,,,1,1,,,,,,,,,,,,,,,,,,,
null,,color_black,322974,black_plus_sign,,,,null,,,,,,,,,,,,,,,,,,,,,,,
null,,learn_phase(without_color),324975,black_plus_sign,,,,null,GW/jukebox.jpg,GW/camera.jpg,,,,,,,,,,,,,,,,,,,,,
null,,black_cross(without_color),325501,blue,,,,null,GW/jukebox.jpg,GW/camera.jpg,,,,,,,,,,,,,,,,,,,,,
null,,rt_plussign_withcolor,326003,blue,,,,null,GW/jukebox.jpg,GW/camera.jpg,,,,,,,,,,,,,,,,,,,,,
1029.4000000059605,,rt_thecrossant_black,327478,black_plus_sign,,,,49,,,1,1,,,,,,,,,,,,,,,,,,,
null,,color_black,327578,black_plus_sign,,,,null,,,,,,,,,,,,,,,,,,,,,,,
null,,learn_phase(without_color),329580,black_plus_sign,,,,null,GW/dustpan.jpg,GW/hat.jpg,,,,,,,,,,,,,,,,,,,,,
null,,black_cross(without_color),330307,green,,,,null,GW/dustpan.jpg,GW/hat.jpg,,,,,,,,,,,,,,,,,,,,,
null,,rt_plussign_withcolor,330808,green,,,,null,GW/dustpan.jpg,GW/hat.jpg,,,,,,,,,,,,,,,,,,,,,
781.0999999940395,,rt_thecrossant_black,332084,black_plus_sign,,,,49,,,0,0.875,,,,,,,,,,,,,,,,,,,
null,,color_black,332186,black_plus_sign,,,,null,,,,,,,,,,,,,,,,,,,,,,,
null,,learn_phase(without_color),334187,black_plus_sign,,,,null,GW/paint.jpg,GW/snail.jpg,,,,,,,,,,,,,,,,,,,,,
null,,black_cross(without_color),334824,blue,,,,null,GW/paint.jpg,GW/snail.jpg,,,,,,,,,,,,,,,,,,,,,
null,,rt_plussign_withcolor,335325,blue,,,,null,GW/paint.jpg,GW/snail.jpg,,,,,,,,,,,,,,,,,,,,,
951.6000000238419,,rt_thecrossant_black,336689,black_plus_sign,,,,49,,,1,0.8888888888888888,,,,,,,,,,,,,,,,,,,
null,,color_black,336791,black_plus_sign,,,,null,,,,,,,,,,,,,,,,,,,,,,,
null,,learn_phase(without_color),338792,black_plus_sign,,,,null,GW/basket.jpg,GW/dustpan.jpg,,,,,,,,,,,,,,,,,,,,,
null,,black_cross(without_color),339451,blue,,,,null,GW/basket.jpg,GW/dustpan.jpg,,,,,,,,,,,,,,,,,,,,,
null,,rt_plussign_withcolor,339953,blue,,,,null,GW/basket.jpg,GW/dustpan.jpg,,,,,,,,,,,,,,,,,,,,,
907.2999999821186,,rt_thecrossant_black,341296,black_plus_sign,,,,49,,,1,0.9,,,,,,,,,,,,,,,,,,,
null,,color_black,341397,black_plus_sign,,,,null,,,,,,,,,,,,,,,,,,,,,,,
null,,learn_phase(without_color),343398,black_plus_sign,,,,null,GW/dustpan.jpg,GW/hat.jpg,,,,,,,,,,,,,,,,,,,,,
null,,black_cross(without_color),344013,green,,,,null,GW/dustpan.jpg,GW/hat.jpg,,,,,,,,,,,,,,,,,,,,,
null,,rt_plussign_withcolor,344515,green,,,,null,GW/dustpan.jpg,GW/hat.jpg,,,,,,,,,,,,,,,,,,,,,
822.1999999880791,,rt_thecrossant_black,345903,black_plus_sign,,,,50,,,1,0.9090909090909091,,,,,,,,,,,,,,,,,,,
null,,color_black,346004,black_plus_sign,,,,null,,,,,,,,,,,,,,,,,,,,,,,
null,,learn_phase(without_color),348005,black_plus_sign,,,,null,GW/paint.jpg,GW/snail.jpg,,,,,,,,,,,,,,,,,,,,,
null,,black_cross(without_color),348973,green,,,,null,GW/paint.jpg,GW/snail.jpg,,,,,,,,,,,,,,,,,,,,,
422.7000000178814,,rt_plussign_withcolor,349474,green,,,,49,GW/paint.jpg,GW/snail.jpg,,,,,,,,,,,,,,,,,,,,,
null,,rt_thecrossant_black,350509,black_plus_sign,,,,null,,,0,0.8333333333333334,,,,,,,,,,,,,,,,,,,
null,,color_black,350610,black_plus_sign,,,,null,,,,,,,,,,,,,,,,,,,,,,,
null,,learn_phase(without_color),352612,black_plus_sign,,,,null,GW/hat.jpg,GW/jukebox.jpg,,,,,,,,,,,,,,,,,,,,,
null,,black_cross(without_color),353180,blue,,,,null,GW/hat.jpg,GW/jukebox.jpg,,,,,,,,,,,,,,,,,,,,,
null,,rt_plussign_withcolor,353681,blue,,,,null,GW/hat.jpg,GW/jukebox.jpg,,,,,,,,,,,,,,,,,,,,,
1092.199999988079,,rt_thecrossant_black,355115,black_plus_sign,,,,49,,,1,0.8461538461538461,,,,,,,,,,,,,,,,,,,
null,,color_black,355216,black_plus_sign,,,,null,,,,,,,,,,,,,,,,,,,,,,,
null,,learn_phase(without_color),357217,black_plus_sign,,,,null,GW/dustpan.jpg,GW/soldier.jpg,,,,,,,,,,,,,,,,,,,,,
null,,black_cross(without_color),358030,green,,,,null,GW/dustpan.jpg,GW/soldier.jpg,,,,,,,,,,,,,,,,,,,,,
null,,rt_plussign_withcolor,358532,green,,,,null,GW/dustpan.jpg,GW/soldier.jpg,,,,,,,,,,,,,,,,,,,,,
690,,rt_thecrossant_black,359721,black_plus_sign,,,,50,,,1,0.8571428571428571,,,,,,,,,,,,,,,,,,,
null,,color_black,359822,black_plus_sign,,,,null,,,,,,,,,,,,,,,,,,,,,,,
null,,learn_phase(without_color),361824,black_plus_sign,,,,null,GW/basket.jpg,GW/dustpan.jpg,,,,,,,,,,,,,,,,,,,,,
null,,black_cross(without_color),362773,blue,,,,null,GW/basket.jpg,GW/dustpan.jpg,,,,,,,,,,,,,,,,,,,,,
494.60000002384186,,rt_plussign_withcolor,363274,blue,,,,49,GW/basket.jpg,GW/dustpan.jpg,,,,,,,,,,,,,,,,,,,,,
null,,rt_thecrossant_black,364341,black_plus_sign,,,,null,,,1,0.8666666666666667,,,,,,,,,,,,,,,,,,,
null,,color_black,364442,black_plus_sign,,,,null,,,,,,,,,,,,,,,,,,,,,,,
null,,learn_phase(without_color),366443,black_plus_sign,,,,null,GW/snail.jpg,GW/teeth.jpg,,,,,,,,,,,,,,,,,,,,,
null,,black_cross(without_color),366898,blue,,,,null,GW/snail.jpg,GW/teeth.jpg,,,,,,,,,,,,,,,,,,,,,
497.59999999403954,,rt_plussign_withcolor,367399,blue,,,,49,GW/snail.jpg,GW/teeth.jpg,,,,,,,,,,,,,,,,,,,,,
null,,rt_thecrossant_black,368946,black_plus_sign,,,,null,,,1,0.875,,,,,,,,,,,,,,,,,,,
null,,color_black,369047,black_plus_sign,,,,null,,,,,,,,,,,,,,,,,,,,,,,
null,,learn_phase(without_color),371048,black_plus_sign,,,,null,GW/soldier.jpg,GW/hat.jpg,,,,,,,,,,,,,,,,,,,,,
null,,black_cross(without_color),371849,blue,,,,null,GW/soldier.jpg,GW/hat.jpg,,,,,,,,,,,,,,,,,,,,,
409.69999998807907,,rt_plussign_withcolor,372351,blue,,,,49,GW/soldier.jpg,GW/hat.jpg,,,,,,,,,,,,,,,,,,,,,
null,,rt_thecrossant_black,373552,black_plus_sign,,,,null,,,1,0.8823529411764706,,,,,,,,,,,,,,,,,,,
null,,color_black,373653,black_plus_sign,,,,null,,,,,,,,,,,,,,,,,,,,,,,
null,,learn_phase(without_color),375655,black_plus_sign,,,,null,GW/gong.jpg,GW/basket.jpg,,,,,,,,,,,,,,,,,,,,,
null,,black_cross(without_color),376343,blue,,,,null,GW/gong.jpg,GW/basket.jpg,,,,,,,,,,,,,,,,,,,,,
null,,rt_plussign_withcolor,376844,blue,,,,null,GW/gong.jpg,GW/basket.jpg,,,,,,,,,,,,,,,,,,,,,
939.0999999940395,,rt_thecrossant_black,378158,black_plus_sign,,,,49,,,1,0.8888888888888888,,,,,,,,,,,,,,,,,,,
null,,color_black,378261,black_plus_sign,,,,null,,,,,,,,,,,,,,,,,,,,,,,
null,,learn_phase(without_color),380263,black_plus_sign,,,,null,GW/dustpan.jpg,GW/soldier.jpg,,,,,,,,,,,,,,,,,,,,,
null,,black_cross(without_color),381278,blue,,,,null,GW/dustpan.jpg,GW/soldier.jpg,,,,,,,,,,,,,,,,,,,,,
null,,rt_plussign_withcolor,381780,blue,,,,null,GW/dustpan.jpg,GW/soldier.jpg,,,,,,,,,,,,,,,,,,,,,
833.2999999821186,,rt_thecrossant_black,382766,black_plus_sign,,,,49,,,1,0.8947368421052632,,,,,,,,,,,,,,,,,,,
null,,color_black,382867,black_plus_sign,,,,null,,,,,,,,,,,,,,,,,,,,,,,
null,,learn_phase(without_color),384868,black_plus_sign,,,,null,GW/jukebox.jpg,GW/camera.jpg,,,,,,,,,,,,,,,,,,,,,
null,,black_cross(without_color),385631,blue,,,,null,GW/jukebox.jpg,GW/camera.jpg,,,,,,,,,,,,,,,,,,,,,
null,,rt_plussign_withcolor,386133,blue,,,,null,GW/jukebox.jpg,GW/camera.jpg,,,,,,,,,,,,,,,,,,,,,
1145.4000000059605,,rt_thecrossant_black,387373,black_plus_sign,,,,49,,,1,0.9,,,,,,,,,,,,,,,,,,,
null,,color_black,387474,black_plus_sign,,,,null,,,,,,,,,,,,,,,,,,,,,,,
null,,learn_phase(without_color),389475,black_plus_sign,,,,null,GW/basket.jpg,GW/hat.jpg,,,,,,,,,,,,,,,,,,,,,
null,,black_cross(without_color),390506,green,,,,null,GW/basket.jpg,GW/hat.jpg,,,,,,,,,,,,,,,,,,,,,
null,,rt_plussign_withcolor,391008,green,,,,null,GW/basket.jpg,GW/hat.jpg,,,,,,,,,,,,,,,,,,,,,
976.2999999821186,,rt_thecrossant_black,391978,black_plus_sign,,,,50,,,1,0.9047619047619048,,,,,,,,,,,,,,,,,,,
null,,color_black,392080,black_plus_sign,,,,null,,,,,,,,,,,,,,,,,,,,,,,
null,,learn_phase(without_color),394081,black_plus_sign,,,,null,GW/soldier.jpg,GW/hat.jpg,,,,,,,,,,,,,,,,,,,,,
null,,black_cross(without_color),395160,green,,,,null,GW/soldier.jpg,GW/hat.jpg,,,,,,,,,,,,,,,,,,,,,
null,,rt_plussign_withcolor,395661,green,,,,null,GW/soldier.jpg,GW/hat.jpg,,,,,,,,,,,,,,,,,,,,,
1264.699999988079,,rt_thecrossant_black,396586,black_plus_sign,,,,50,,,1,0.9090909090909091,,,,,,,,,,,,,,,,,,,
null,,color_black,396687,black_plus_sign,,,,null,,,,,,,,,,,,,,,,,,,,,,,
null,,learn_phase(without_color),398688,black_plus_sign,,,,null,GW/paint.jpg,GW/gong.jpg,,,,,,,,,,,,,,,,,,,,,
null,,black_cross(without_color),399622,blue,,,,null,GW/paint.jpg,GW/gong.jpg,,,,,,,,,,,,,,,,,,,,,
null,,rt_plussign_withcolor,400123,blue,,,,null,GW/paint.jpg,GW/gong.jpg,,,,,,,,,,,,,,,,,,,,,
1185.0999999940395,,rt_thecrossant_black,401191,black_plus_sign,,,,49,,,1,0.9130434782608695,,,,,,,,,,,,,,,,,,,
null,,color_black,401293,black_plus_sign,,,,null,,,,,,,,,,,,,,,,,,,,,,,
null,,learn_phase(without_color),403294,black_plus_sign,,,,null,GW/dustpan.jpg,GW/soldier.jpg,,,,,,,,,,,,,,,,,,,,,
null,,black_cross(without_color),404232,blue,,,,null,GW/dustpan.jpg,GW/soldier.jpg,,,,,,,,,,,,,,,,,,,,,
null,,rt_plussign_withcolor,404733,blue,,,,null,GW/dustpan.jpg,GW/soldier.jpg,,,,,,,,,,,,,,,,,,,,,
1094.2999999821186,,rt_thecrossant_black,405798,black_plus_sign,,,,49,,,1,0.9166666666666666,,,,,,,,,,,,,,,,,,,
null,,color_black,405899,black_plus_sign,,,,null,,,,,,,,,,,,,,,,,,,,,,,
null,,learn_phase(without_color),407901,black_plus_sign,,,,null,GW/soldier.jpg,GW/hat.jpg,,,,,,,,,,,,,,,,,,,,,
null,,black_cross(without_color),408753,blue,,,,null,GW/soldier.jpg,GW/hat.jpg,,,,,,,,,,,,,,,,,,,,,
450.40000000596046,,rt_plussign_withcolor,409254,blue,,,,49,GW/soldier.jpg,GW/hat.jpg,,,,,,,,,,,,,,,,,,,,,
null,,rt_thecrossant_black,410405,black_plus_sign,,,,null,,,1,0.92,,,,,,,,,,,,,,,,,,,
null,,color_black,410507,black_plus_sign,,,,null,,,,,,,,,,,,,,,,,,,,,,,
null,,learn_phase(without_color),412508,black_plus_sign,,,,null,GW/paint.jpg,GW/gong.jpg,,,,,,,,,,,,,,,,,,,,,
null,,black_cross(without_color),413292,blue,,,,null,GW/paint.jpg,GW/gong.jpg,,,,,,,,,,,,,,,,,,,,,
null,,rt_plussign_withcolor,413794,blue,,,,null,GW/paint.jpg,GW/gong.jpg,,,,,,,,,,,,,,,,,,,,,
1022.6999999880791,,rt_thecrossant_black,415013,black_plus_sign,,,,49,,,1,0.9230769230769231,,,,,,,,,,,,,,,,,,,
null,,color_black,415113,black_plus_sign,,,,null,,,,,,,,,,,,,,,,,,,,,,,
null,,learn_phase(without_color),417114,black_plus_sign,,,,null,GW/barrel.jpg,GW/paint.jpg,,,,,,,,,,,,,,,,,,,,,
null,,black_cross(without_color),417535,blue,,,,null,GW/barrel.jpg,GW/paint.jpg,,,,,,,,,,,,,,,,,,,,,
null,,rt_plussign_withcolor,418037,blue,,,,null,GW/barrel.jpg,GW/paint.jpg,,,,,,,,,,,,,,,,,,,,,
1098.2999999821186,,rt_thecrossant_black,419618,black_plus_sign,,,,49,,,1,0.9259259259259259,,,,,,,,,,,,,,,,,,,
null,,color_black,419720,black_plus_sign,,,,null,,,,,,,,,,,,,,,,,,,,,,,
null,,learn_phase(without_color),421722,black_plus_sign,,,,null,GW/snail.jpg,GW/teeth.jpg,,,,,,,,,,,,,,,,,,,,,
null,,black_cross(without_color),422361,blue,,,,null,GW/snail.jpg,GW/teeth.jpg,,,,,,,,,,,,,,,,,,,,,
null,,rt_plussign_withcolor,422863,blue,,,,null,GW/snail.jpg,GW/teeth.jpg,,,,,,,,,,,,,,,,,,,,,
547.3000000119209,,rt_thecrossant_black,424226,black_plus_sign,,,,49,,,1,0.9285714285714286,,,,,,,,,,,,,,,,,,,
null,,color_black,424328,black_plus_sign,,,,null,,,,,,,,,,,,,,,,,,,,,,,
null,,learn_phase(without_color),426330,black_plus_sign,,,,null,GW/soldier.jpg,GW/globe.jpg,,,,,,,,,,,,,,,,,,,,,
null,,black_cross(without_color),426871,blue,,,,null,GW/soldier.jpg,GW/globe.jpg,,,,,,,,,,,,,,,,,,,,,
427.40000000596046,,rt_plussign_withcolor,427373,blue,,,,49,GW/soldier.jpg,GW/globe.jpg,,,,,,,,,,,,,,,,,,,,,
null,,rt_thecrossant_black,428834,black_plus_sign,,,,null,,,1,0.9310344827586207,,,,,,,,,,,,,,,,,,,
null,,color_black,428935,black_plus_sign,,,,null,,,,,,,,,,,,,,,,,,,,,,,
null,,learn_phase(without_color),430937,black_plus_sign,,,,null,GW/barrel.jpg,GW/paint.jpg,,,,,,,,,,,,,,,,,,,,,
null,,black_cross(without_color),431970,blue,,,,null,GW/barrel.jpg,GW/paint.jpg,,,,,,,,,,,,,,,,,,,,,
424.59999999403954,,rt_plussign_withcolor,432473,blue,,,,49,GW/barrel.jpg,GW/paint.jpg,,,,,,,,,,,,,,,,,,,,,
null,,rt_thecrossant_black,433444,black_plus_sign,,,,null,,,1,0.9333333333333333,,,,,,,,,,,,,,,,,,,
null,,color_black,433545,black_plus_sign,,,,null,,,,,,,,,,,,,,,,,,,,,,,
null,,learn_phase(without_color),435547,black_plus_sign,,,,null,GW/gong.jpg,GW/jukebox.jpg,,,,,,,,,,,,,,,,,,,,,
null,,black_cross(without_color),436446,green,,,,null,GW/gong.jpg,GW/jukebox.jpg,,,,,,,,,,,,,,,,,,,,,
null,,rt_plussign_withcolor,436947,green,,,,null,GW/gong.jpg,GW/jukebox.jpg,,,,,,,,,,,,,,,,,,,,,
1250.300000011921,,rt_thecrossant_black,438067,black_plus_sign,,,,50,,,1,0.9354838709677419,,,,,,,,,,,,,,,,,,,
null,,color_black,438168,black_plus_sign,,,,null,,,,,,,,,,,,,,,,,,,,,,,
null,,learn_phase(without_color),440171,black_plus_sign,,,,null,GW/paint.jpg,GW/gong.jpg,,,,,,,,,,,,,,,,,,,,,
null,,black_cross(without_color),440793,green,,,,null,GW/paint.jpg,GW/gong.jpg,,,,,,,,,,,,,,,,,,,,,
null,,rt_plussign_withcolor,441295,green,,,,null,GW/paint.jpg,GW/gong.jpg,,,,,,,,,,,,,,,,,,,,,
1001.2000000178814,,rt_thecrossant_black,442676,black_plus_sign,,,,50,,,1,0.9375,,,,,,,,,,,,,,,,,,,
null,,color_black,442777,black_plus_sign,,,,null,,,,,,,,,,,,,,,,,,,,,,,
null,,learn_phase(without_color),444779,black_plus_sign,,,,null,GW/barrel.jpg,GW/paint.jpg,,,,,,,,,,,,,,,,,,,,,
null,,black_cross(without_color),445394,green,,,,null,GW/barrel.jpg,GW/paint.jpg,,,,,,,,,,,,,,,,,,,,,
null,,rt_plussign_withcolor,445896,green,,,,null,GW/barrel.jpg,GW/paint.jpg,,,,,,,,,,,,,,,,,,,,,
772.0999999940395,,rt_thecrossant_black,447286,black_plus_sign,,,,50,,,1,0.9393939393939394,,,,,,,,,,,,,,,,,,,
null,,color_black,447388,black_plus_sign,,,,null,,,,,,,,,,,,,,,,,,,,,,,
null,,learn_phase(without_color),449389,black_plus_sign,,,,null,GW/dustpan.jpg,GW/hat.jpg,,,,,,,,,,,,,,,,,,,,,
null,,black_cross(without_color),450431,green,,,,null,GW/dustpan.jpg,GW/hat.jpg,,,,,,,,,,,,,,,,,,,,,
null,,rt_plussign_withcolor,450934,green,,,,null,GW/dustpan.jpg,GW/hat.jpg,,,,,,,,,,,,,,,,,,,,,
862,,rt_thecrossant_black,451894,black_plus_sign,,,,50,,,1,0.9411764705882353,,,,,,,,,,,,,,,,,,,
null,,color_black,451995,black_plus_sign,,,,null,,,,,,,,,,,,,,,,,,,,,,,
null,,learn_phase(without_color),453996,black_plus_sign,,,,null,GW/soldier.jpg,GW/hat.jpg,,,,,,,,,,,,,,,,,,,,,
null,,black_cross(without_color),454642,blue,,,,null,GW/soldier.jpg,GW/hat.jpg,,,,,,,,,,,,,,,,,,,,,
null,,rt_plussign_withcolor,455143,blue,,,,null,GW/soldier.jpg,GW/hat.jpg,,,,,,,,,,,,,,,,,,,,,
1263.2000000178814,,rt_thecrossant_black,456500,black_plus_sign,,,,49,,,1,0.9428571428571428,,,,,,,,,,,,,,,,,,,
null,,color_black,456609,black_plus_sign,,,,null,,,,,,,,,,,,,,,,,,,,,,,
null,,learn_phase(without_color),458610,black_plus_sign,,,,null,GW/dustpan.jpg,GW/wheelchair.jpg,,,,,,,,,,,,,,,,,,,,,
null,,black_cross(without_color),459204,blue,,,,null,GW/dustpan.jpg,GW/wheelchair.jpg,,,,,,,,,,,,,,,,,,,,,
478.40000000596046,,rt_plussign_withcolor,459706,blue,,,,49,GW/dustpan.jpg,GW/wheelchair.jpg,,,,,,,,,,,,,,,,,,,,,
null,,rt_thecrossant_black,461113,black_plus_sign,,,,null,,,1,0.9444444444444444,,,,,,,,,,,,,,,,,,,
null,,color_black,461216,black_plus_sign,,,,null,,,,,,,,,,,,,,,,,,,,,,,
null,,learn_phase(without_color),463216,black_plus_sign,,,,null,GW/dustpan.jpg,GW/hat.jpg,,,,,,,,,,,,,,,,,,,,,
null,,black_cross(without_color),463668,blue,,,,null,GW/dustpan.jpg,GW/hat.jpg,,,,,,,,,,,,,,,,,,,,,
null,,rt_plussign_withcolor,464170,blue,,,,null,GW/dustpan.jpg,GW/hat.jpg,,,,,,,,,,,,,,,,,,,,,
693.1999999880791,,rt_thecrossant_black,465732,black_plus_sign,,,,49,,,1,0.9459459459459459,,,,,,,,,,,,,,,,,,,
null,,color_black,465834,black_plus_sign,,,,null,,,,,,,,,,,,,,,,,,,,,,,
null,,learn_phase(without_color),467835,black_plus_sign,,,,null,GW/soldier.jpg,GW/globe.jpg,,,,,,,,,,,,,,,,,,,,,
null,,black_cross(without_color),468678,green,,,,null,GW/soldier.jpg,GW/globe.jpg,,,,,,,,,,,,,,,,,,,,,
388.40000000596046,,rt_plussign_withcolor,469179,green,,,,50,GW/soldier.jpg,GW/globe.jpg,,,,,,,,,,,,,,,,,,,,,
null,,rt_thecrossant_black,470339,black_plus_sign,,,,null,,,1,0.9473684210526315,,,,,,,,,,,,,,,,,,,
null,,color_black,470441,black_plus_sign,,,,null,,,,,,,,,,,,,,,,,,,,,,,
null,,learn_phase(without_color),472443,black_plus_sign,,,,null,GW/paint.jpg,GW/snail.jpg,,,,,,,,,,,,,,,,,,,,,
null,,black_cross(without_color),473208,blue,,,,null,GW/paint.jpg,GW/snail.jpg,,,,,,,,,,,,,,,,,,,,,
null,,rt_plussign_withcolor,473710,blue,,,,null,GW/paint.jpg,GW/snail.jpg,,,,,,,,,,,,,,,,,,,,,
1049.2000000178814,,rt_thecrossant_black,474947,black_plus_sign,,,,49,,,1,0.9487179487179487,,,,,,,,,,,,,,,,,,,
null,,color_black,475049,black_plus_sign,,,,null,,,,,,,,,,,,,,,,,,,,,,,
null,,learn_phase(without_color),477051,black_plus_sign,,,,null,GW/snail.jpg,GW/teeth.jpg,,,,,,,,,,,,,,,,,,,,,
null,,black_cross(without_color),478065,green,,,,null,GW/snail.jpg,GW/teeth.jpg,,,,,,,,,,,,,,,,,,,,,
null,,rt_plussign_withcolor,478566,green,,,,null,GW/snail.jpg,GW/teeth.jpg,,,,,,,,,,,,,,,,,,,,,
885.1000000238419,,rt_thecrossant_black,479554,black_plus_sign,,,,49,,,0,0.925,,,,,,,,,,,,,,,,,,,
null,,color_black,479654,black_plus_sign,,,,null,,,,,,,,,,,,,,,,,,,,,,,
null,,learn_phase(without_color),481655,black_plus_sign,,,,null,GW/soldier.jpg,GW/globe.jpg,,,,,,,,,,,,,,,,,,,,,
null,,black_cross(without_color),482237,blue,,,,null,GW/soldier.jpg,GW/globe.jpg,,,,,,,,,,,,,,,,,,,,,
null,,rt_plussign_withcolor,482737,blue,,,,null,GW/soldier.jpg,GW/globe.jpg,,,,,,,,,,,,,,,,,,,,,
1219,,rt_thecrossant_black,484166,black_plus_sign,,,,50,,,0,0.9024390243902439,,,,,,,,,,,,,,,,,,,
null,,warning_page,487167,warning,,,,null,,,,,,,,,,,,,,,,,,,,,,,
null,,color_black,487268,black_plus_sign,,,,null,,,,,,,,,,,,,,,,,,,,,,,
null,,learn_phase(without_color),489269,black_plus_sign,,,,null,GW/paint.jpg,GW/gong.jpg,,,,,,,,,,,,,,,,,,,,,
null,,black_cross(without_color),489992,blue,,,,null,GW/paint.jpg,GW/gong.jpg,,,,,,,,,,,,,,,,,,,,,
null,,rt_plussign_withcolor,490493,blue,,,,null,GW/paint.jpg,GW/gong.jpg,,,,,,,,,,,,,,,,,,,,,
870.3000000119209,,rt_thecrossant_black,491777,black_plus_sign,,,,49,,,1,0.9047619047619048,,,,,,,,,,,,,,,,,,,
null,,color_black,491877,black_plus_sign,,,,null,,,,,,,,,,,,,,,,,,,,,,,
null,,learn_phase(without_color),493878,black_plus_sign,,,,null,GW/soldier.jpg,GW/hat.jpg,,,,,,,,,,,,,,,,,,,,,
null,,black_cross(without_color),494616,green,,,,null,GW/soldier.jpg,GW/hat.jpg,,,,,,,,,,,,,,,,,,,,,
null,,rt_plussign_withcolor,495118,green,,,,null,GW/soldier.jpg,GW/hat.jpg,,,,,,,,,,,,,,,,,,,,,
834,,rt_thecrossant_black,496383,black_plus_sign,,,,50,,,1,0.9069767441860465,,,,,,,,,,,,,,,,,,,
null,,color_black,496484,black_plus_sign,,,,null,,,,,,,,,,,,,,,,,,,,,,,
null,,learn_phase(without_color),498484,black_plus_sign,,,,null,GW/snail.jpg,GW/camera.jpg,,,,,,,,,,,,,,,,,,,,,
null,,black_cross(without_color),499253,blue,,,,null,GW/snail.jpg,GW/camera.jpg,,,,,,,,,,,,,,,,,,,,,
389.30000001192093,,rt_plussign_withcolor,499754,blue,,,,49,GW/snail.jpg,GW/camera.jpg,,,,,,,,,,,,,,,,,,,,,
null,,rt_thecrossant_black,500987,black_plus_sign,,,,null,,,1,0.9090909090909091,,,,,,,,,,,,,,,,,,,
null,,color_black,501088,black_plus_sign,,,,null,,,,,,,,,,,,,,,,,,,,,,,
null,,learn_phase(without_color),503089,black_plus_sign,,,,null,GW/jukebox.jpg,GW/camera.jpg,,,,,,,,,,,,,,,,,,,,,
null,,black_cross(without_color),503495,blue,,,,null,GW/jukebox.jpg,GW/camera.jpg,,,,,,,,,,,,,,,,,,,,,
483.5,,rt_plussign_withcolor,503997,blue,,,,50,GW/jukebox.jpg,GW/camera.jpg,,,,,,,,,,,,,,,,,,,,,
null,,rt_thecrossant_black,505593,black_plus_sign,,,,49,,,0,0.8888888888888888,,,,,,,,,,,,,,,,,,,
null,,color_black,505695,black_plus_sign,,,,null,,,,,,,,,,,,,,,,,,,,,,,
null,,learn_phase(without_color),507696,black_plus_sign,,,,null,GW/gong.jpg,GW/basket.jpg,,,,,,,,,,,,,,,,,,,,,
null,,black_cross(without_color),508383,green,,,,null,GW/gong.jpg,GW/basket.jpg,,,,,,,,,,,,,,,,,,,,,
355.19999998807907,,rt_plussign_withcolor,508884,green,,,,49,GW/gong.jpg,GW/basket.jpg,,,,,,,,,,,,,,,,,,,,,
null,,rt_thecrossant_black,510199,black_plus_sign,,,,50,,,0,0.8695652173913043,,,,,,,,,,,,,,,,,,,
null,,warning_page,513200,warning,,,,null,,,,,,,,,,,,,,,,,,,,,,,
null,,color_black,513301,black_plus_sign,,,,null,,,,,,,,,,,,,,,,,,,,,,,
null,,learn_phase(without_color),515303,black_plus_sign,,,,null,GW/basket.jpg,GW/hat.jpg,,,,,,,,,,,,,,,,,,,,,
null,,black_cross(without_color),515825,blue,,,,null,GW/basket.jpg,GW/hat.jpg,,,,,,,,,,,,,,,,,,,,,
497.5,,rt_plussign_withcolor,516326,blue,,,,49,GW/basket.jpg,GW/hat.jpg,,,,,,,,,,,,,,,,,,,,,
null,,rt_thecrossant_black,517806,black_plus_sign,,,,null,,,1,0.8723404255319149,,,,,,,,,,,,,,,,,,,
null,,color_black,517908,black_plus_sign,,,,null,,,,,,,,,,,,,,,,,,,,,,,
null,,learn_phase(without_color),519909,black_plus_sign,,,,null,GW/soldier.jpg,GW/hat.jpg,,,,,,,,,,,,,,,,,,,,,
null,,black_cross(without_color),520394,green,,,,null,GW/soldier.jpg,GW/hat.jpg,,,,,,,,,,,,,,,,,,,,,
457.09999999403954,,rt_plussign_withcolor,520894,green,,,,50,GW/soldier.jpg,GW/hat.jpg,,,,,,,,,,,,,,,,,,,,,
null,,rt_thecrossant_black,522413,black_plus_sign,,,,null,,,1,0.875,,,,,,,,,,,,,,,,,,,
null,,color_black,522514,black_plus_sign,,,,null,,,,,,,,,,,,,,,,,,,,,,,
null,,learn_phase(without_color),524516,black_plus_sign,,,,null,GW/dustpan.jpg,GW/wheelchair.jpg,,,,,,,,,,,,,,,,,,,,,
null,,black_cross(without_color),525303,green,,,,null,GW/dustpan.jpg,GW/wheelchair.jpg,,,,,,,,,,,,,,,,,,,,,
null,,rt_plussign_withcolor,525805,green,,,,null,GW/dustpan.jpg,GW/wheelchair.jpg,,,,,,,,,,,,,,,,,,,,,
755.7999999821186,,rt_thecrossant_black,527020,black_plus_sign,,,,50,,,1,0.8775510204081632,,,,,,,,,,,,,,,,,,,
null,,color_black,527122,black_plus_sign,,,,null,,,,,,,,,,,,,,,,,,,,,,,
null,,learn_phase(without_color),529124,black_plus_sign,,,,null,GW/dustpan.jpg,GW/soldier.jpg,,,,,,,,,,,,,,,,,,,,,
null,,black_cross(without_color),530202,green,,,,null,GW/dustpan.jpg,GW/soldier.jpg,,,,,,,,,,,,,,,,,,,,,
null,,rt_plussign_withcolor,530704,green,,,,null,GW/dustpan.jpg,GW/soldier.jpg,,,,,,,,,,,,,,,,,,,,,
1080.7000000178814,,rt_thecrossant_black,531628,black_plus_sign,,,,50,,,1,0.88,,,,,,,,,,,,,,,,,,,
null,,color_black,531729,black_plus_sign,,,,null,,,,,,,,,,,,,,,,,,,,,,,
null,,learn_phase(without_color),533731,black_plus_sign,,,,null,GW/barrel.jpg,GW/paint.jpg,,,,,,,,,,,,,,,,,,,,,
null,,black_cross(without_color),534285,blue,,,,null,GW/barrel.jpg,GW/paint.jpg,,,,,,,,,,,,,,,,,,,,,
null,,rt_plussign_withcolor,534786,blue,,,,null,GW/barrel.jpg,GW/paint.jpg,,,,,,,,,,,,,,,,,,,,,
1409.0999999940395,,rt_thecrossant_black,536235,black_plus_sign,,,,49,,,1,0.8823529411764706,,,,,,,,,,,,,,,,,,,
null,,color_black,536337,black_plus_sign,,,,null,,,,,,,,,,,,,,,,,,,,,,,
null,,learn_phase(without_color),538337,black_plus_sign,,,,null,GW/basket.jpg,GW/hat.jpg,,,,,,,,,,,,,,,,,,,,,
null,,black_cross(without_color),539185,blue,,,,null,GW/basket.jpg,GW/hat.jpg,,,,,,,,,,,,,,,,,,,,,
null,,rt_plussign_withcolor,539687,blue,,,,null,GW/basket.jpg,GW/hat.jpg,,,,,,,,,,,,,,,,,,,,,
791.6999999880791,,rt_thecrossant_black,540841,black_plus_sign,,,,49,,,1,0.8846153846153846,,,,,,,,,,,,,,,,,,,
null,,color_black,540942,black_plus_sign,,,,null,,,,,,,,,,,,,,,,,,,,,,,
null,,learn_phase(without_color),542944,black_plus_sign,,,,null,GW/basket.jpg,GW/dustpan.jpg,,,,,,,,,,,,,,,,,,,,,
null,,black_cross(without_color),543982,green,,,,null,GW/basket.jpg,GW/dustpan.jpg,,,,,,,,,,,,,,,,,,,,,
null,,rt_plussign_withcolor,544483,green,,,,null,GW/basket.jpg,GW/dustpan.jpg,,,,,,,,,,,,,,,,,,,,,
1066,,rt_thecrossant_black,545447,black_plus_sign,,,,50,,,1,0.8867924528301887,,,,,,,,,,,,,,,,,,,
null,,color_black,545548,black_plus_sign,,,,null,,,,,,,,,,,,,,,,,,,,,,,
null,,learn_phase(without_color),547549,black_plus_sign,,,,null,GW/barrel.jpg,GW/paint.jpg,,,,,,,,,,,,,,,,,,,,,
null,,black_cross(without_color),548585,blue,,,,null,GW/barrel.jpg,GW/paint.jpg,,,,,,,,,,,,,,,,,,,,,
null,,rt_plussign_withcolor,549086,blue,,,,null,GW/barrel.jpg,GW/paint.jpg,,,,,,,,,,,,,,,,,,,,,
1157.5,,rt_thecrossant_black,550052,black_plus_sign,,,,49,,,1,0.8888888888888888,,,,,,,,,,,,,,,,,,,
null,,color_black,550153,black_plus_sign,,,,null,,,,,,,,,,,,,,,,,,,,,,,
null,,learn_phase(without_color),552155,black_plus_sign,,,,null,GW/hat.jpg,GW/jukebox.jpg,,,,,,,,,,,,,,,,,,,,,
null,,black_cross(without_color),552991,blue,,,,null,GW/hat.jpg,GW/jukebox.jpg,,,,,,,,,,,,,,,,,,,,,
null,,rt_plussign_withcolor,553492,blue,,,,null,GW/hat.jpg,GW/jukebox.jpg,,,,,,,,,,,,,,,,,,,,,
1309.3999999761581,,rt_thecrossant_black,554658,black_plus_sign,,,,49,,,1,0.8909090909090909,,,,,,,,,,,,,,,,,,,
null,,color_black,554760,black_plus_sign,,,,null,,,,,,,,,,,,,,,,,,,,,,,
null,,learn_phase(without_color),556761,black_plus_sign,,,,null,GW/gong.jpg,GW/basket.jpg,,,,,,,,,,,,,,,,,,,,,
null,,black_cross(without_color),557246,green,,,,null,GW/gong.jpg,GW/basket.jpg,,,,,,,,,,,,,,,,,,,,,
469,,rt_plussign_withcolor,557746,green,,,,50,GW/gong.jpg,GW/basket.jpg,,,,,,,,,,,,,,,,,,,,,
null,,rt_thecrossant_black,559264,black_plus_sign,,,,null,,,1,0.8928571428571429,,,,,,,,,,,,,,,,,,,
null,,color_black,559365,black_plus_sign,,,,null,,,,,,,,,,,,,,,,,,,,,,,
null,,learn_phase(without_color),561367,black_plus_sign,,,,null,GW/basket.jpg,GW/dustpan.jpg,,,,,,,,,,,,,,,,,,,,,
null,,black_cross(without_color),562216,blue,,,,null,GW/basket.jpg,GW/dustpan.jpg,,,,,,,,,,,,,,,,,,,,,
null,,rt_plussign_withcolor,562717,blue,,,,null,GW/basket.jpg,GW/dustpan.jpg,,,,,,,,,,,,,,,,,,,,,
699.9000000059605,,rt_thecrossant_black,563870,black_plus_sign,,,,49,,,1,0.8947368421052632,,,,,,,,,,,,,,,,,,,
null,,color_black,563971,black_plus_sign,,,,null,,,,,,,,,,,,,,,,,,,,,,,
null,,learn_phase(without_color),565973,black_plus_sign,,,,null,GW/hat.jpg,GW/jukebox.jpg,,,,,,,,,,,,,,,,,,,,,
null,,black_cross(without_color),566460,green,,,,null,GW/hat.jpg,GW/jukebox.jpg,,,,,,,,,,,,,,,,,,,,,
null,,rt_plussign_withcolor,566962,green,,,,null,GW/hat.jpg,GW/jukebox.jpg,,,,,,,,,,,,,,,,,,,,,
1068.9000000059605,,rt_thecrossant_black,568479,black_plus_sign,,,,50,,,1,0.896551724137931,,,,,,,,,,,,,,,,,,,
null,,color_black,568581,black_plus_sign,,,,null,,,,,,,,,,,,,,,,,,,,,,,
null,,learn_phase(without_color),570581,black_plus_sign,,,,null,GW/snail.jpg,GW/teeth.jpg,,,,,,,,,,,,,,,,,,,,,
null,,black_cross(without_color),571489,blue,,,,null,GW/snail.jpg,GW/teeth.jpg,,,,,,,,,,,,,,,,,,,,,
null,,rt_plussign_withcolor,571990,blue,,,,null,GW/snail.jpg,GW/teeth.jpg,,,,,,,,,,,,,,,,,,,,,
604.9000000059605,,rt_thecrossant_black,573085,black_plus_sign,,,,49,,,1,0.8983050847457628,,,,,,,,,,,,,,,,,,,
null,,color_black,573186,black_plus_sign,,,,null,,,,,,,,,,,,,,,,,,,,,,,
null,,learn_phase(without_color),575188,black_plus_sign,,,,null,GW/snail.jpg,GW/camera.jpg,,,,,,,,,,,,,,,,,,,,,
null,,black_cross(without_color),576081,green,,,,null,GW/snail.jpg,GW/camera.jpg,,,,,,,,,,,,,,,,,,,,,
409.19999998807907,,rt_plussign_withcolor,576586,green,,,,50,GW/snail.jpg,GW/camera.jpg,,,,,,,,,,,,,,,,,,,,,
null,,rt_thecrossant_black,577696,black_plus_sign,,,,null,,,1,0.9,,,,,,,,,,,,,,,,,,,
null,,color_black,577797,black_plus_sign,,,,null,,,,,,,,,,,,,,,,,,,,,,,
null,,learn_phase(without_color),579799,black_plus_sign,,,,null,GW/paint.jpg,GW/gong.jpg,,,,,,,,,,,,,,,,,,,,,
null,,black_cross(without_color),580606,blue,,,,null,GW/paint.jpg,GW/gong.jpg,,,,,,,,,,,,,,,,,,,,,
null,,rt_plussign_withcolor,581107,blue,,,,null,GW/paint.jpg,GW/gong.jpg,,,,,,,,,,,,,,,,,,,,,
1039.0999999940395,,rt_thecrossant_black,582313,black_plus_sign,,,,49,,,1,0.9016393442622951,,,,,,,,,,,,,,,,,,,
null,,color_black,582414,black_plus_sign,,,,null,,,,,,,,,,,,,,,,,,,,,,,
null,,learn_phase(without_color),584415,black_plus_sign,,,,null,GW/dustpan.jpg,GW/soldier.jpg,,,,,,,,,,,,,,,,,,,,,
null,,black_cross(without_color),585175,green,,,,null,GW/dustpan.jpg,GW/soldier.jpg,,,,,,,,,,,,,,,,,,,,,
null,,rt_plussign_withcolor,585677,green,,,,null,GW/dustpan.jpg,GW/soldier.jpg,,,,,,,,,,,,,,,,,,,,,
1020.3000000119209,,rt_thecrossant_black,586934,black_plus_sign,,,,50,,,1,0.9032258064516129,,,,,,,,,,,,,,,,,,,
null,,color_black,587036,black_plus_sign,,,,null,,,,,,,,,,,,,,,,,,,,,,,
null,,learn_phase(without_color),589038,black_plus_sign,,,,null,GW/basket.jpg,GW/dustpan.jpg,,,,,,,,,,,,,,,,,,,,,
null,,black_cross(without_color),589554,green,,,,null,GW/basket.jpg,GW/dustpan.jpg,,,,,,,,,,,,,,,,,,,,,
null,,rt_plussign_withcolor,590054,green,,,,null,GW/basket.jpg,GW/dustpan.jpg,,,,,,,,,,,,,,,,,,,,,
1015.9000000059605,,rt_thecrossant_black,591544,black_plus_sign,,,,50,,,1,0.9047619047619048,,,,,,,,,,,,,,,,,,,
null,,color_black,591645,black_plus_sign,,,,null,,,,,,,,,,,,,,,,,,,,,,,
null,,learn_phase(without_color),593647,black_plus_sign,,,,null,GW/snail.jpg,GW/teeth.jpg,,,,,,,,,,,,,,,,,,,,,
null,,black_cross(without_color),594155,blue,,,,null,GW/snail.jpg,GW/teeth.jpg,,,,,,,,,,,,,,,,,,,,,
null,,rt_plussign_withcolor,594657,blue,,,,null,GW/snail.jpg,GW/teeth.jpg,,,,,,,,,,,,,,,,,,,,,
941.4000000059605,,rt_thecrossant_black,596151,black_plus_sign,,,,49,,,1,0.90625,,,,,,,,,,,,,,,,,,,
null,,color_black,596264,black_plus_sign,,,,null,,,,,,,,,,,,,,,,,,,,,,,
null,,learn_phase(without_color),598265,black_plus_sign,,,,null,GW/gong.jpg,GW/jukebox.jpg,,,,,,,,,,,,,,,,,,,,,
null,,black_cross(without_color),599068,blue,,,,null,GW/gong.jpg,GW/jukebox.jpg,,,,,,,,,,,,,,,,,,,,,
null,,rt_plussign_withcolor,599569,blue,,,,null,GW/gong.jpg,GW/jukebox.jpg,,,,,,,,,,,,,,,,,,,,,
663.9000000059605,,rt_thecrossant_black,600769,black_plus_sign,,,,49,,,1,0.9076923076923077,,,,,,,,,,,,,,,,,,,
null,,color_black,600871,black_plus_sign,,,,null,,,,,,,,,,,,,,,,,,,,,,,
null,,learn_phase(without_color),602873,black_plus_sign,,,,null,GW/dustpan.jpg,GW/soldier.jpg,,,,,,,,,,,,,,,,,,,,,
null,,black_cross(without_color),603754,green,,,,null,GW/dustpan.jpg,GW/soldier.jpg,,,,,,,,,,,,,,,,,,,,,
408.7000000178814,,rt_plussign_withcolor,604255,green,,,,50,GW/dustpan.jpg,GW/soldier.jpg,,,,,,,,,,,,,,,,,,,,,
null,,rt_thecrossant_black,605376,black_plus_sign,,,,null,,,1,0.9090909090909091,,,,,,,,,,,,,,,,,,,
null,,color_black,605477,black_plus_sign,,,,null,,,,,,,,,,,,,,,,,,,,,,,
null,,learn_phase(without_color),607478,black_plus_sign,,,,null,GW/barrel.jpg,GW/paint.jpg,,,,,,,,,,,,,,,,,,,,,
null,,black_cross(without_color),608142,green,,,,null,GW/barrel.jpg,GW/paint.jpg,,,,,,,,,,,,,,,,,,,,,
null,,rt_plussign_withcolor,608644,green,,,,null,GW/barrel.jpg,GW/paint.jpg,,,,,,,,,,,,,,,,,,,,,
1074.7000000178814,,rt_thecrossant_black,609984,black_plus_sign,,,,50,,,1,0.9104477611940298,,,,,,,,,,,,,,,,,,,
null,,color_black,610085,black_plus_sign,,,,null,,,,,,,,,,,,,,,,,,,,,,,
null,,learn_phase(without_color),612087,black_plus_sign,,,,null,GW/gong.jpg,GW/jukebox.jpg,,,,,,,,,,,,,,,,,,,,,
null,,black_cross(without_color),612677,green,,,,null,GW/gong.jpg,GW/jukebox.jpg,,,,,,,,,,,,,,,,,,,,,
null,,rt_plussign_withcolor,613177,green,,,,null,GW/gong.jpg,GW/jukebox.jpg,,,,,,,,,,,,,,,,,,,,,
842.8000000119209,,rt_thecrossant_black,614590,black_plus_sign,,,,50,,,1,0.9117647058823529,,,,,,,,,,,,,,,,,,,
null,,color_black,614705,black_plus_sign,,,,null,,,,,,,,,,,,,,,,,,,,,,,
null,,learn_phase(without_color),616707,black_plus_sign,,,,null,GW/basket.jpg,GW/hat.jpg,,,,,,,,,,,,,,,,,,,,,
null,,black_cross(without_color),617736,green,,,,null,GW/basket.jpg,GW/hat.jpg,,,,,,,,,,,,,,,,,,,,,
null,,rt_plussign_withcolor,618236,green,,,,null,GW/basket.jpg,GW/hat.jpg,,,,,,,,,,,,,,,,,,,,,
718.5999999940395,,rt_thecrossant_black,619211,black_plus_sign,,,,50,,,1,0.9130434782608695,,,,,,,,,,,,,,,,,,,
null,,color_black,619313,black_plus_sign,,,,null,,,,,,,,,,,,,,,,,,,,,,,
null,,learn_phase(without_color),621314,black_plus_sign,,,,null,GW/paint.jpg,GW/snail.jpg,,,,,,,,,,,,,,,,,,,,,
null,,black_cross(without_color),622073,green,,,,null,GW/paint.jpg,GW/snail.jpg,,,,,,,,,,,,,,,,,,,,,
null,,rt_plussign_withcolor,622575,green,,,,null,GW/paint.jpg,GW/snail.jpg,,,,,,,,,,,,,,,,,,,,,
1298.5,,rt_thecrossant_black,623819,black_plus_sign,,,,50,,,1,0.9142857142857143,,,,,,,,,,,,,,,,,,,
null,,color_black,623920,black_plus_sign,,,,null,,,,,,,,,,,,,,,,,,,,,,,
null,,learn_phase(without_color),625922,black_plus_sign,,,,null,GW/gong.jpg,GW/jukebox.jpg,,,,,,,,,,,,,,,,,,,,,
null,,black_cross(without_color),626329,blue,,,,null,GW/gong.jpg,GW/jukebox.jpg,,,,,,,,,,,,,,,,,,,,,
null,,rt_plussign_withcolor,626830,blue,,,,null,GW/gong.jpg,GW/jukebox.jpg,,,,,,,,,,,,,,,,,,,,,
1141.6000000238419,,rt_thecrossant_black,628426,black_plus_sign,,,,49,,,1,0.9154929577464789,,,,,,,,,,,,,,,,,,,
null,,color_black,628528,black_plus_sign,,,,null,,,,,,,,,,,,,,,,,,,,,,,
null,,learn_phase(without_color),630530,black_plus_sign,,,,null,GW/dustpan.jpg,GW/wheelchair.jpg,,,,,,,,,,,,,,,,,,,,,
null,,black_cross(without_color),631197,green,,,,null,GW/dustpan.jpg,GW/wheelchair.jpg,,,,,,,,,,,,,,,,,,,,,
null,,rt_plussign_withcolor,631698,green,,,,null,GW/dustpan.jpg,GW/wheelchair.jpg,,,,,,,,,,,,,,,,,,,,,
706.5,,rt_thecrossant_black,633034,black_plus_sign,,,,50,,,1,0.9166666666666666,,,,,,,,,,,,,,,,,,,
null,,color_black,633136,black_plus_sign,,,,null,,,,,,,,,,,,,,,,,,,,,,,
null,,learn_phase(without_color),635137,black_plus_sign,,,,null,GW/snail.jpg,GW/camera.jpg,,,,,,,,,,,,,,,,,,,,,
null,,black_cross(without_color),636236,blue,,,,null,GW/snail.jpg,GW/camera.jpg,,,,,,,,,,,,,,,,,,,,,
null,,rt_plussign_withcolor,636737,blue,,,,null,GW/snail.jpg,GW/camera.jpg,,,,,,,,,,,,,,,,,,,,,
766.2000000178814,,rt_thecrossant_black,637640,black_plus_sign,,,,49,,,1,0.9178082191780822,,,,,,,,,,,,,,,,,,,
null,,color_black,637750,black_plus_sign,,,,null,,,,,,,,,,,,,,,,,,,,,,,
null,,learn_phase(without_color),639752,black_plus_sign,,,,null,GW/gong.jpg,GW/jukebox.jpg,,,,,,,,,,,,,,,,,,,,,
null,,black_cross(without_color),640279,green,,,,null,GW/gong.jpg,GW/jukebox.jpg,,,,,,,,,,,,,,,,,,,,,
null,,rt_plussign_withcolor,640780,green,,,,null,GW/gong.jpg,GW/jukebox.jpg,,,,,,,,,,,,,,,,,,,,,
1572.1000000238419,,rt_thecrossant_black,642255,black_plus_sign,,,,50,,,1,0.918918918918919,,,,,,,,,,,,,,,,,,,
null,,color_black,642356,black_plus_sign,,,,null,,,,,,,,,,,,,,,,,,,,,,,
null,,learn_phase(without_color),644357,black_plus_sign,,,,null,GW/dustpan.jpg,GW/wheelchair.jpg,,,,,,,,,,,,,,,,,,,,,
null,,black_cross(without_color),644820,blue,,,,null,GW/dustpan.jpg,GW/wheelchair.jpg,,,,,,,,,,,,,,,,,,,,,
null,,rt_plussign_withcolor,645321,blue,,,,null,GW/dustpan.jpg,GW/wheelchair.jpg,,,,,,,,,,,,,,,,,,,,,
971.3999999761581,,rt_thecrossant_black,646861,black_plus_sign,,,,49,,,1,0.92,,,,,,,,,,,,,,,,,,,
null,,color_black,646962,black_plus_sign,,,,null,,,,,,,,,,,,,,,,,,,,,,,
null,,learn_phase(without_color),648964,black_plus_sign,,,,null,GW/snail.jpg,GW/camera.jpg,,,,,,,,,,,,,,,,,,,,,
null,,black_cross(without_color),649679,blue,,,,null,GW/snail.jpg,GW/camera.jpg,,,,,,,,,,,,,,,,,,,,,
null,,rt_plussign_withcolor,650181,blue,,,,null,GW/snail.jpg,GW/camera.jpg,,,,,,,,,,,,,,,,,,,,,
806.4000000059605,,rt_thecrossant_black,651468,black_plus_sign,,,,49,,,1,0.9210526315789473,,,,,,,,,,,,,,,,,,,
null,,color_black,651569,black_plus_sign,,,,null,,,,,,,,,,,,,,,,,,,,,,,
null,,learn_phase(without_color),653570,black_plus_sign,,,,null,GW/basket.jpg,GW/hat.jpg,,,,,,,,,,,,,,,,,,,,,
null,,black_cross(without_color),654376,blue,,,,null,GW/basket.jpg,GW/hat.jpg,,,,,,,,,,,,,,,,,,,,,
null,,rt_plussign_withcolor,654877,blue,,,,null,GW/basket.jpg,GW/hat.jpg,,,,,,,,,,,,,,,,,,,,,
890.5999999940395,,rt_thecrossant_black,656074,black_plus_sign,,,,49,,,1,0.922077922077922,,,,,,,,,,,,,,,,,,,
null,,color_black,656175,black_plus_sign,,,,null,,,,,,,,,,,,,,,,,,,,,,,
null,,learn_phase(without_color),658176,black_plus_sign,,,,null,GW/hat.jpg,GW/jukebox.jpg,,,,,,,,,,,,,,,,,,,,,
null,,black_cross(without_color),658814,blue,,,,null,GW/hat.jpg,GW/jukebox.jpg,,,,,,,,,,,,,,,,,,,,,
372.69999998807907,,rt_plussign_withcolor,659314,blue,,,,49,GW/hat.jpg,GW/jukebox.jpg,,,,,,,,,,,,,,,,,,,,,
null,,rt_thecrossant_black,660681,black_plus_sign,,,,null,,,1,0.9230769230769231,,,,,,,,,,,,,,,,,,,
null,,color_black,660789,black_plus_sign,,,,null,,,,,,,,,,,,,,,,,,,,,,,
null,,learn_phase(without_color),662790,black_plus_sign,,,,null,GW/soldier.jpg,GW/hat.jpg,,,,,,,,,,,,,,,,,,,,,
null,,black_cross(without_color),663572,green,,,,null,GW/soldier.jpg,GW/hat.jpg,,,,,,,,,,,,,,,,,,,,,
454.39999997615814,,rt_plussign_withcolor,664072,green,,,,50,GW/soldier.jpg,GW/hat.jpg,,,,,,,,,,,,,,,,,,,,,
null,,rt_thecrossant_black,665299,black_plus_sign,,,,null,,,1,0.9240506329113924,,,,,,,,,,,,,,,,,,,
null,,color_black,665400,black_plus_sign,,,,null,,,,,,,,,,,,,,,,,,,,,,,
null,,learn_phase(without_color),667403,black_plus_sign,,,,null,GW/jukebox.jpg,GW/camera.jpg,,,,,,,,,,,,,,,,,,,,,
null,,black_cross(without_color),667877,green,,,,null,GW/jukebox.jpg,GW/camera.jpg,,,,,,,,,,,,,,,,,,,,,
null,,rt_plussign_withcolor,668379,green,,,,null,GW/jukebox.jpg,GW/camera.jpg,,,,,,,,,,,,,,,,,,,,,
903.5999999940395,,rt_thecrossant_black,669909,black_plus_sign,,,,50,,,1,0.925,,,,,,,,,,,,,,,,,,,
null,,color_black,670010,black_plus_sign,,,,null,,,,,,,,,,,,,,,,,,,,,,,
null,,learn_phase(without_color),672012,black_plus_sign,,,,null,GW/basket.jpg,GW/dustpan.jpg,,,,,,,,,,,,,,,,,,,,,
null,,black_cross(without_color),673109,blue,,,,null,GW/basket.jpg,GW/dustpan.jpg,,,,,,,,,,,,,,,,,,,,,
null,,rt_plussign_withcolor,673612,blue,,,,null,GW/basket.jpg,GW/dustpan.jpg,,,,,,,,,,,,,,,,,,,,,
650.1999999880791,,rt_thecrossant_black,674531,black_plus_sign,,,,49,,,1,0.9259259259259259,,,,,,,,,,,,,,,,,,,
null,,color_black,674632,black_plus_sign,,,,null,,,,,,,,,,,,,,,,,,,,,,,
null,,learn_phase(without_color),676633,black_plus_sign,,,,null,GW/paint.jpg,GW/snail.jpg,,,,,,,,,,,,,,,,,,,,,
null,,black_cross(without_color),677525,blue,,,,null,GW/paint.jpg,GW/snail.jpg,,,,,,,,,,,,,,,,,,,,,
null,,rt_plussign_withcolor,678026,blue,,,,null,GW/paint.jpg,GW/snail.jpg,,,,,,,,,,,,,,,,,,,,,
1324.5,,rt_thecrossant_black,679136,black_plus_sign,,,,49,,,1,0.926829268292683,,,,,,,,,,,,,,,,,,,
null,,color_black,679238,black_plus_sign,,,,null,,,,,,,,,,,,,,,,,,,,,,,
null,,learn_phase(without_color),681240,black_plus_sign,,,,null,GW/basket.jpg,GW/hat.jpg,,,,,,,,,,,,,,,,,,,,,
null,,black_cross(without_color),681898,green,,,,null,GW/basket.jpg,GW/hat.jpg,,,,,,,,,,,,,,,,,,,,,
null,,rt_plussign_withcolor,682408,green,,,,null,GW/basket.jpg,GW/hat.jpg,,,,,,,,,,,,,,,,,,,,,
1113.5,,rt_thecrossant_black,683751,black_plus_sign,,,,50,,,1,0.927710843373494,,,,,,,,,,,,,,,,,,,
null,,color_black,683853,black_plus_sign,,,,null,,,,,,,,,,,,,,,,,,,,,,,
null,,learn_phase(without_color),685855,black_plus_sign,,,,null,GW/soldier.jpg,GW/globe.jpg,,,,,,,,,,,,,,,,,,,,,
null,,black_cross(without_color),686663,green,,,,null,GW/soldier.jpg,GW/globe.jpg,,,,,,,,,,,,,,,,,,,,,
null,,rt_plussign_withcolor,687165,green,,,,null,GW/soldier.jpg,GW/globe.jpg,,,,,,,,,,,,,,,,,,,,,
818.0999999940395,,rt_thecrossant_black,688358,black_plus_sign,,,,50,,,1,0.9285714285714286,,,,,,,,,,,,,,,,,,,
null,,color_black,688461,black_plus_sign,,,,null,,,,,,,,,,,,,,,,,,,,,,,
null,,learn_phase(without_color),690463,black_plus_sign,,,,null,GW/paint.jpg,GW/snail.jpg,,,,,,,,,,,,,,,,,,,,,
null,,black_cross(without_color),691175,green,,,,null,GW/paint.jpg,GW/snail.jpg,,,,,,,,,,,,,,,,,,,,,
null,,rt_plussign_withcolor,691675,green,,,,null,GW/paint.jpg,GW/snail.jpg,,,,,,,,,,,,,,,,,,,,,
1137.5999999940395,,rt_thecrossant_black,692966,black_plus_sign,,,,50,,,1,0.9294117647058824,,,,,,,,,,,,,,,,,,,
null,,color_black,693068,black_plus_sign,,,,null,,,,,,,,,,,,,,,,,,,,,,,
null,,learn_phase(without_color),695069,black_plus_sign,,,,null,GW/dustpan.jpg,GW/hat.jpg,,,,,,,,,,,,,,,,,,,,,
null,,black_cross(without_color),695826,green,,,,null,GW/dustpan.jpg,GW/hat.jpg,,,,,,,,,,,,,,,,,,,,,
null,,rt_plussign_withcolor,696327,green,,,,null,GW/dustpan.jpg,GW/hat.jpg,,,,,,,,,,,,,,,,,,,,,
1061.2999999821186,,rt_thecrossant_black,697573,black_plus_sign,,,,50,,,1,0.9302325581395349,,,,,,,,,,,,,,,,,,,
null,,color_black,697675,black_plus_sign,,,,null,,,,,,,,,,,,,,,,,,,,,,,
null,,learn_phase(without_color),699676,black_plus_sign,,,,null,GW/snail.jpg,GW/camera.jpg,,,,,,,,,,,,,,,,,,,,,
null,,black_cross(without_color),700113,green,,,,null,GW/snail.jpg,GW/camera.jpg,,,,,,,,,,,,,,,,,,,,,
null,,rt_plussign_withcolor,700615,green,,,,null,GW/snail.jpg,GW/camera.jpg,,,,,,,,,,,,,,,,,,,,,
1234.199999988079,,rt_thecrossant_black,702180,black_plus_sign,,,,50,,,1,0.9310344827586207,,,,,,,,,,,,,,,,,,,
null,,color_black,702282,black_plus_sign,,,,null,,,,,,,,,,,,,,,,,,,,,,,
null,,learn_phase(without_color),704284,black_plus_sign,,,,null,GW/jukebox.jpg,GW/camera.jpg,,,,,,,,,,,,,,,,,,,,,
null,,black_cross(without_color),704816,blue,,,,null,GW/jukebox.jpg,GW/camera.jpg,,,,,,,,,,,,,,,,,,,,,
393.59999999403954,,rt_plussign_withcolor,705318,blue,,,,49,GW/jukebox.jpg,GW/camera.jpg,,,,,,,,,,,,,,,,,,,,,
null,,rt_thecrossant_black,706786,black_plus_sign,,,,null,,,1,0.9318181818181818,,,,,,,,,,,,,,,,,,,
null,,color_black,706889,black_plus_sign,,,,null,,,,,,,,,,,,,,,,,,,,,,,
null,,learn_phase(without_color),708891,black_plus_sign,,,,null,GW/dustpan.jpg,GW/soldier.jpg,,,,,,,,,,,,,,,,,,,,,
null,,black_cross(without_color),709870,green,,,,null,GW/dustpan.jpg,GW/soldier.jpg,,,,,,,,,,,,,,,,,,,,,
null,,rt_plussign_withcolor,710373,green,,,,null,GW/dustpan.jpg,GW/soldier.jpg,,,,,,,,,,,,,,,,,,,,,
749.5,,rt_thecrossant_black,711398,black_plus_sign,,,,50,,,1,0.9325842696629213,,,,,,,,,,,,,,,,,,,
null,,color_black,711499,black_plus_sign,,,,null,,,,,,,,,,,,,,,,,,,,,,,
null,,learn_phase(without_color),713500,black_plus_sign,,,,null,GW/hat.jpg,GW/jukebox.jpg,,,,,,,,,,,,,,,,,,,,,
null,,black_cross(without_color),714259,blue,,,,null,GW/hat.jpg,GW/jukebox.jpg,,,,,,,,,,,,,,,,,,,,,
null,,rt_plussign_withcolor,714760,blue,,,,null,GW/hat.jpg,GW/jukebox.jpg,,,,,,,,,,,,,,,,,,,,,
1174.4000000059605,,rt_thecrossant_black,716005,black_plus_sign,,,,49,,,1,0.9333333333333333,,,,,,,,,,,,,,,,,,,
null,,color_black,716106,black_plus_sign,,,,null,,,,,,,,,,,,,,,,,,,,,,,
null,,learn_phase(without_color),718108,black_plus_sign,,,,null,GW/dustpan.jpg,GW/wheelchair.jpg,,,,,,,,,,,,,,,,,,,,,
null,,black_cross(without_color),718554,blue,,,,null,GW/dustpan.jpg,GW/wheelchair.jpg,,,,,,,,,,,,,,,,,,,,,
null,,rt_plussign_withcolor,719056,blue,,,,null,GW/dustpan.jpg,GW/wheelchair.jpg,,,,,,,,,,,,,,,,,,,,,
987.2999999821186,,rt_thecrossant_black,720614,black_plus_sign,,,,49,,,1,0.9340659340659341,,,,,,,,,,,,,,,,,,,
null,,color_black,720716,black_plus_sign,,,,null,,,,,,,,,,,,,,,,,,,,,,,
null,,learn_phase(without_color),722717,black_plus_sign,,,,null,GW/dustpan.jpg,GW/hat.jpg,,,,,,,,,,,,,,,,,,,,,
null,,black_cross(without_color),723749,green,,,,null,GW/dustpan.jpg,GW/hat.jpg,,,,,,,,,,,,,,,,,,,,,
null,,rt_plussign_withcolor,724250,green,,,,null,GW/dustpan.jpg,GW/hat.jpg,,,,,,,,,,,,,,,,,,,,,
622.3000000119209,,rt_thecrossant_black,725221,black_plus_sign,,,,50,,,1,0.9347826086956522,,,,,,,,,,,,,,,,,,,
null,,color_black,725331,black_plus_sign,,,,null,,,,,,,,,,,,,,,,,,,,,,,
null,,learn_phase(without_color),727333,black_plus_sign,,,,null,GW/barrel.jpg,GW/paint.jpg,,,,,,,,,,,,,,,,,,,,,
null,,black_cross(without_color),728310,green,,,,null,GW/barrel.jpg,GW/paint.jpg,,,,,,,,,,,,,,,,,,,,,
null,,rt_plussign_withcolor,728811,green,,,,null,GW/barrel.jpg,GW/paint.jpg,,,,,,,,,,,,,,,,,,,,,
1304.300000011921,,rt_thecrossant_black,729838,black_plus_sign,,,,50,,,1,0.9354838709677419,,,,,,,,,,,,,,,,,,,
null,,color_black,729939,black_plus_sign,,,,null,,,,,,,,,,,,,,,,,,,,,,,
null,,learn_phase(without_color),731941,black_plus_sign,,,,null,GW/dustpan.jpg,GW/soldier.jpg,,,,,,,,,,,,,,,,,,,,,
null,,black_cross(without_color),732881,blue,,,,null,GW/dustpan.jpg,GW/soldier.jpg,,,,,,,,,,,,,,,,,,,,,
null,,rt_plussign_withcolor,733382,blue,,,,null,GW/dustpan.jpg,GW/soldier.jpg,,,,,,,,,,,,,,,,,,,,,
1382.4000000059605,,rt_thecrossant_black,734446,black_plus_sign,,,,49,,,1,0.9361702127659575,,,,,,,,,,,,,,,,,,,
null,,color_black,734547,black_plus_sign,,,,null,,,,,,,,,,,,,,,,,,,,,,,
null,,learn_phase(without_color),736549,black_plus_sign,,,,null,GW/jukebox.jpg,GW/camera.jpg,,,,,,,,,,,,,,,,,,,,,
null,,black_cross(without_color),737343,blue,,,,null,GW/jukebox.jpg,GW/camera.jpg,,,,,,,,,,,,,,,,,,,,,
null,,rt_plussign_withcolor,737844,blue,,,,null,GW/jukebox.jpg,GW/camera.jpg,,,,,,,,,,,,,,,,,,,,,
1147.300000011921,,rt_thecrossant_black,739060,black_plus_sign,,,,49,,,1,0.9368421052631579,,,,,,,,,,,,,,,,,,,
null,,color_black,739161,black_plus_sign,,,,null,,,,,,,,,,,,,,,,,,,,,,,
null,,learn_phase(without_color),741163,black_plus_sign,,,,null,GW/snail.jpg,GW/camera.jpg,,,,,,,,,,,,,,,,,,,,,
null,,black_cross(without_color),742167,green,,,,null,GW/snail.jpg,GW/camera.jpg,,,,,,,,,,,,,,,,,,,,,
null,,rt_plussign_withcolor,742681,green,,,,null,GW/snail.jpg,GW/camera.jpg,,,,,,,,,,,,,,,,,,,,,
1142.4000000059605,,rt_thecrossant_black,743680,black_plus_sign,,,,50,,,1,0.9375,,,,,,,,,,,,,,,,,,,
null,,color_black,743789,black_plus_sign,,,,null,,,,,,,,,,,,,,,,,,,,,,,
null,,learn_phase(without_color),745791,black_plus_sign,,,,null,GW/jukebox.jpg,GW/camera.jpg,,,,,,,,,,,,,,,,,,,,,
null,,black_cross(without_color),746651,blue,,,,null,GW/jukebox.jpg,GW/camera.jpg,,,,,,,,,,,,,,,,,,,,,
null,,rt_plussign_withcolor,747152,blue,,,,null,GW/jukebox.jpg,GW/camera.jpg,,,,,,,,,,,,,,,,,,,,,
1152.4000000059605,,rt_thecrossant_black,748296,black_plus_sign,,,,49,,,1,0.9381443298969072,,,,,,,,,,,,,,,,,,,
null,,color_black,748396,black_plus_sign,,,,null,,,,,,,,,,,,,,,,,,,,,,,
null,,learn_phase(without_color),750399,black_plus_sign,,,,null,GW/soldier.jpg,GW/globe.jpg,,,,,,,,,,,,,,,,,,,,,
null,,black_cross(without_color),751487,blue,,,,null,GW/soldier.jpg,GW/globe.jpg,,,,,,,,,,,,,,,,,,,,,
null,,rt_plussign_withcolor,751987,blue,,,,null,GW/soldier.jpg,GW/globe.jpg,,,,,,,,,,,,,,,,,,,,,
1020.3000000119209,,rt_thecrossant_black,752903,black_plus_sign,,,,49,,,1,0.9387755102040817,,,,,,,,,,,,,,,,,,,
null,,color_black,753004,black_plus_sign,,,,null,,,,,,,,,,,,,,,,,,,,,,,
null,,learn_phase(without_color),755006,black_plus_sign,,,,null,GW/snail.jpg,GW/teeth.jpg,,,,,,,,,,,,,,,,,,,,,
null,,black_cross(without_color),755802,blue,,,,null,GW/snail.jpg,GW/teeth.jpg,,,,,,,,,,,,,,,,,,,,,
null,,rt_plussign_withcolor,756303,blue,,,,null,GW/snail.jpg,GW/teeth.jpg,,,,,,,,,,,,,,,,,,,,,
1196.1000000238419,,rt_thecrossant_black,757511,black_plus_sign,,,,49,,,1,0.9393939393939394,,,,,,,,,,,,,,,,,,,
null,,color_black,757611,black_plus_sign,,,,null,,,,,,,,,,,,,,,,,,,,,,,
null,,learn_phase(without_color),759613,black_plus_sign,,,,null,GW/dustpan.jpg,GW/wheelchair.jpg,,,,,,,,,,,,,,,,,,,,,
null,,black_cross(without_color),760348,blue,,,,null,GW/dustpan.jpg,GW/wheelchair.jpg,,,,,,,,,,,,,,,,,,,,,
null,,rt_plussign_withcolor,760850,blue,,,,null,GW/dustpan.jpg,GW/wheelchair.jpg,,,,,,,,,,,,,,,,,,,,,
950.3000000119209,,rt_thecrossant_black,762119,black_plus_sign,,,,49,,,1,0.94,,,,,,,,,,,,,,,,,,,
null,,color_black,762220,black_plus_sign,,,,null,,,,,,,,,,,,,,,,,,,,,,,
null,,learn_phase(without_color),764221,black_plus_sign,,,,null,GW/basket.jpg,GW/hat.jpg,,,,,,,,,,,,,,,,,,,,,
null,,black_cross(without_color),765100,green,,,,null,GW/basket.jpg,GW/hat.jpg,,,,,,,,,,,,,,,,,,,,,
null,,rt_plussign_withcolor,765601,green,,,,null,GW/basket.jpg,GW/hat.jpg,,,,,,,,,,,,,,,,,,,,,
874.4000000059605,,rt_thecrossant_black,766726,black_plus_sign,,,,50,,,1,0.9405940594059405,,,,,,,,,,,,,,,,,,,
null,,color_black,766827,black_plus_sign,,,,null,,,,,,,,,,,,,,,,,,,,,,,
null,,learn_phase(without_color),768828,black_plus_sign,,,,null,GW/paint.jpg,GW/gong.jpg,,,,,,,,,,,,,,,,,,,,,
null,,black_cross(without_color),769294,green,,,,null,GW/paint.jpg,GW/gong.jpg,,,,,,,,,,,,,,,,,,,,,
null,,rt_plussign_withcolor,769796,green,,,,null,GW/paint.jpg,GW/gong.jpg,,,,,,,,,,,,,,,,,,,,,
1014,,rt_thecrossant_black,771333,black_plus_sign,,,,50,,,1,0.9411764705882353,,,,,,,,,,,,,,,,,,,
null,,color_black,771434,black_plus_sign,,,,null,,,,,,,,,,,,,,,,,,,,,,,
null,,learn_phase(without_color),773436,black_plus_sign,,,,null,GW/gong.jpg,GW/jukebox.jpg,,,,,,,,,,,,,,,,,,,,,
null,,black_cross(without_color),774374,blue,,,,null,GW/gong.jpg,GW/jukebox.jpg,,,,,,,,,,,,,,,,,,,,,
null,,rt_plussign_withcolor,774876,blue,,,,null,GW/gong.jpg,GW/jukebox.jpg,,,,,,,,,,,,,,,,,,,,,
642.2999999821186,,rt_thecrossant_black,775945,black_plus_sign,,,,49,,,1,0.941747572815534,,,,,,,,,,,,,,,,,,,
null,,color_black,776046,black_plus_sign,,,,null,,,,,,,,,,,,,,,,,,,,,,,
null,,learn_phase(without_color),778047,black_plus_sign,,,,null,GW/basket.jpg,GW/hat.jpg,,,,,,,,,,,,,,,,,,,,,
null,,black_cross(without_color),778821,green,,,,null,GW/basket.jpg,GW/hat.jpg,,,,,,,,,,,,,,,,,,,,,
397.30000001192093,,rt_plussign_withcolor,779321,green,,,,50,GW/basket.jpg,GW/hat.jpg,,,,,,,,,,,,,,,,,,,,,
null,,rt_thecrossant_black,780551,black_plus_sign,,,,null,,,1,0.9423076923076923,,,,,,,,,,,,,,,,,,,
null,,color_black,780665,black_plus_sign,,,,null,,,,,,,,,,,,,,,,,,,,,,,
null,,learn_phase(without_color),782667,black_plus_sign,,,,null,GW/barrel.jpg,GW/paint.jpg,,,,,,,,,,,,,,,,,,,,,
null,,black_cross(without_color),783279,blue,,,,null,GW/barrel.jpg,GW/paint.jpg,,,,,,,,,,,,,,,,,,,,,
null,,rt_plussign_withcolor,783781,blue,,,,null,GW/barrel.jpg,GW/paint.jpg,,,,,,,,,,,,,,,,,,,,,
1027.9000000059605,,rt_thecrossant_black,785172,black_plus_sign,,,,49,,,1,0.9428571428571428,,,,,,,,,,,,,,,,,,,
null,,color_black,785281,black_plus_sign,,,,null,,,,,,,,,,,,,,,,,,,,,,,
null,,learn_phase(without_color),787282,black_plus_sign,,,,null,GW/snail.jpg,GW/camera.jpg,,,,,,,,,,,,,,,,,,,,,
null,,black_cross(without_color),787788,green,,,,null,GW/snail.jpg,GW/camera.jpg,,,,,,,,,,,,,,,,,,,,,
486,,rt_plussign_withcolor,788288,green,,,,50,GW/snail.jpg,GW/camera.jpg,,,,,,,,,,,,,,,,,,,,,
null,,rt_thecrossant_black,789786,black_plus_sign,,,,null,,,1,0.9433962264150944,,,,,,,,,,,,,,,,,,,
null,,color_black,789887,black_plus_sign,,,,null,,,,,,,,,,,,,,,,,,,,,,,
null,,learn_phase(without_color),791889,black_plus_sign,,,,null,GW/basket.jpg,GW/dustpan.jpg,,,,,,,,,,,,,,,,,,,,,
null,,black_cross(without_color),792367,blue,,,,null,GW/basket.jpg,GW/dustpan.jpg,,,,,,,,,,,,,,,,,,,,,
null,,rt_plussign_withcolor,792869,blue,,,,null,GW/basket.jpg,GW/dustpan.jpg,,,,,,,,,,,,,,,,,,,,,
625,,rt_thecrossant_black,794392,black_plus_sign,,,,49,,,1,0.9439252336448598,,,,,,,,,,,,,,,,,,,
null,,color_black,794493,black_plus_sign,,,,null,,,,,,,,,,,,,,,,,,,,,,,
null,,learn_phase(without_color),796494,black_plus_sign,,,,null,GW/paint.jpg,GW/gong.jpg,,,,,,,,,,,,,,,,,,,,,
null,,black_cross(without_color),797524,blue,,,,null,GW/paint.jpg,GW/gong.jpg,,,,,,,,,,,,,,,,,,,,,
501.19999998807907,,rt_plussign_withcolor,798026,blue,,,,49,GW/paint.jpg,GW/gong.jpg,,,,,,,,,,,,,,,,,,,,,
null,,rt_thecrossant_black,798998,black_plus_sign,,,,null,,,1,0.9444444444444444,,,,,,,,,,,,,,,,,,,
null,,color_black,799100,black_plus_sign,,,,null,,,,,,,,,,,,,,,,,,,,,,,
null,,learn_phase(without_color),801113,black_plus_sign,,,,null,GW/snail.jpg,GW/camera.jpg,,,,,,,,,,,,,,,,,,,,,
null,,black_cross(without_color),801837,green,,,,null,GW/snail.jpg,GW/camera.jpg,,,,,,,,,,,,,,,,,,,,,
null,,rt_plussign_withcolor,802338,green,,,,null,GW/snail.jpg,GW/camera.jpg,,,,,,,,,,,,,,,,,,,,,
1176.0999999940395,,rt_thecrossant_black,803617,black_plus_sign,,,,50,,,1,0.944954128440367,,,,,,,,,,,,,,,,,,,
null,,color_black,803718,black_plus_sign,,,,null,,,,,,,,,,,,,,,,,,,,,,,
null,,learn_phase(without_color),805719,black_plus_sign,,,,null,GW/hat.jpg,GW/jukebox.jpg,,,,,,,,,,,,,,,,,,,,,
null,,black_cross(without_color),806378,blue,,,,null,GW/hat.jpg,GW/jukebox.jpg,,,,,,,,,,,,,,,,,,,,,
null,,rt_plussign_withcolor,806879,blue,,,,null,GW/hat.jpg,GW/jukebox.jpg,,,,,,,,,,,,,,,,,,,,,
865.5,,rt_thecrossant_black,808223,black_plus_sign,,,,49,,,1,0.9454545454545454,,,,,,,,,,,,,,,,,,,
null,,color_black,808325,black_plus_sign,,,,null,,,,,,,,,,,,,,,,,,,,,,,
null,,learn_phase(without_color),810326,black_plus_sign,,,,null,GW/soldier.jpg,GW/globe.jpg,,,,,,,,,,,,,,,,,,,,,
null,,black_cross(without_color),810910,green,,,,null,GW/soldier.jpg,GW/globe.jpg,,,,,,,,,,,,,,,,,,,,,
null,,rt_plussign_withcolor,811412,green,,,,null,GW/soldier.jpg,GW/globe.jpg,,,,,,,,,,,,,,,,,,,,,
819.0999999940395,,rt_thecrossant_black,812832,black_plus_sign,,,,50,,,1,0.9459459459459459,,,,,,,,,,,,,,,,,,,
null,,color_black,812933,black_plus_sign,,,,null,,,,,,,,,,,,,,,,,,,,,,,
null,,learn_phase(without_color),814935,black_plus_sign,,,,null,GW/gong.jpg,GW/basket.jpg,,,,,,,,,,,,,,,,,,,,,
null,,black_cross(without_color),815742,blue,,,,null,GW/gong.jpg,GW/basket.jpg,,,,,,,,,,,,,,,,,,,,,
null,,rt_plussign_withcolor,816243,blue,,,,null,GW/gong.jpg,GW/basket.jpg,,,,,,,,,,,,,,,,,,,,,
800.5,,rt_thecrossant_black,817438,black_plus_sign,,,,49,,,1,0.9464285714285714,,,,,,,,,,,,,,,,,,,
null,,color_black,817539,black_plus_sign,,,,null,,,,,,,,,,,,,,,,,,,,,,,
null,,learn_phase(without_color),819541,black_plus_sign,,,,null,GW/hat.jpg,GW/jukebox.jpg,,,,,,,,,,,,,,,,,,,,,
null,,black_cross(without_color),819949,blue,,,,null,GW/hat.jpg,GW/jukebox.jpg,,,,,,,,,,,,,,,,,,,,,
444.59999999403954,,rt_plussign_withcolor,820450,blue,,,,49,GW/hat.jpg,GW/jukebox.jpg,,,,,,,,,,,,,,,,,,,,,
null,,rt_thecrossant_black,822044,black_plus_sign,,,,null,,,1,0.9469026548672567,,,,,,,,,,,,,,,,,,,
null,,color_black,822146,black_plus_sign,,,,null,,,,,,,,,,,,,,,,,,,,,,,
null,,learn_phase(without_color),824148,black_plus_sign,,,,null,GW/paint.jpg,GW/snail.jpg,,,,,,,,,,,,,,,,,,,,,
null,,black_cross(without_color),825007,green,,,,null,GW/paint.jpg,GW/snail.jpg,,,,,,,,,,,,,,,,,,,,,
null,,rt_plussign_withcolor,825508,green,,,,null,GW/paint.jpg,GW/snail.jpg,,,,,,,,,,,,,,,,,,,,,
576,,rt_thecrossant_black,826651,black_plus_sign,,,,50,,,1,0.9473684210526315,,,,,,,,,,,,,,,,,,,
null,,color_black,826753,black_plus_sign,,,,null,,,,,,,,,,,,,,,,,,,,,,,
null,,learn_phase(without_color),828755,black_plus_sign,,,,null,GW/dustpan.jpg,GW/hat.jpg,,,,,,,,,,,,,,,,,,,,,
null,,black_cross(without_color),829678,blue,,,,null,GW/dustpan.jpg,GW/hat.jpg,,,,,,,,,,,,,,,,,,,,,
null,,rt_plussign_withcolor,830179,blue,,,,null,GW/dustpan.jpg,GW/hat.jpg,,,,,,,,,,,,,,,,,,,,,
988.0999999940395,,rt_thecrossant_black,831259,black_plus_sign,,,,49,,,1,0.9478260869565217,,,,,,,,,,,,,,,,,,,
null,,color_black,831361,black_plus_sign,,,,null,,,,,,,,,,,,,,,,,,,,,,,
null,,learn_phase(without_color),833362,black_plus_sign,,,,null,GW/soldier.jpg,GW/globe.jpg,,,,,,,,,,,,,,,,,,,,,
null,,black_cross(without_color),833842,blue,,,,null,GW/soldier.jpg,GW/globe.jpg,,,,,,,,,,,,,,,,,,,,,
null,,rt_plussign_withcolor,834343,blue,,,,null,GW/soldier.jpg,GW/globe.jpg,,,,,,,,,,,,,,,,,,,,,
1039.9000000059605,,rt_thecrossant_black,835866,black_plus_sign,,,,49,,,1,0.9482758620689655,,,,,,,,,,,,,,,,,,,
null,,color_black,835967,black_plus_sign,,,,null,,,,,,,,,,,,,,,,,,,,,,,
null,,learn_phase(without_color),837969,black_plus_sign,,,,null,GW/soldier.jpg,GW/hat.jpg,,,,,,,,,,,,,,,,,,,,,
null,,black_cross(without_color),838621,green,,,,null,GW/soldier.jpg,GW/hat.jpg,,,,,,,,,,,,,,,,,,,,,
null,,rt_plussign_withcolor,839123,green,,,,null,GW/soldier.jpg,GW/hat.jpg,,,,,,,,,,,,,,,,,,,,,
625.6999999880791,,rt_thecrossant_black,840474,black_plus_sign,,,,50,,,1,0.9487179487179487,,,,,,,,,,,,,,,,,,,
null,,color_black,840575,black_plus_sign,,,,null,,,,,,,,,,,,,,,,,,,,,,,
null,,learn_phase(without_color),842577,black_plus_sign,,,,null,GW/gong.jpg,GW/basket.jpg,,,,,,,,,,,,,,,,,,,,,
null,,black_cross(without_color),843121,blue,,,,null,GW/gong.jpg,GW/basket.jpg,,,,,,,,,,,,,,,,,,,,,
496.19999998807907,,rt_plussign_withcolor,843622,blue,,,,49,GW/gong.jpg,GW/basket.jpg,,,,,,,,,,,,,,,,,,,,,
null,,rt_thecrossant_black,845081,black_plus_sign,,,,null,,,1,0.9491525423728814,,,,,,,,,,,,,,,,,,,
null,,color_black,845182,black_plus_sign,,,,null,,,,,,,,,,,,,,,,,,,,,,,
null,,learn_phase(without_color),847183,black_plus_sign,,,,null,GW/dustpan.jpg,GW/hat.jpg,,,,,,,,,,,,,,,,,,,,,
null,,black_cross(without_color),847831,green,,,,null,GW/dustpan.jpg,GW/hat.jpg,,,,,,,,,,,,,,,,,,,,,
474.40000000596046,,rt_plussign_withcolor,848333,green,,,,50,GW/dustpan.jpg,GW/hat.jpg,,,,,,,,,,,,,,,,,,,,,
null,,rt_thecrossant_black,849687,black_plus_sign,,,,null,,,1,0.9495798319327731,,,,,,,,,,,,,,,,,,,
null,,color_black,849788,black_plus_sign,,,,null,,,,,,,,,,,,,,,,,,,,,,,
null,,learn_phase(without_color),851790,black_plus_sign,,,,null,GW/paint.jpg,GW/gong.jpg,,,,,,,,,,,,,,,,,,,,,
null,,black_cross(without_color),852663,green,,,,null,GW/paint.jpg,GW/gong.jpg,,,,,,,,,,,,,,,,,,,,,
null,,rt_plussign_withcolor,853164,green,,,,null,GW/paint.jpg,GW/gong.jpg,,,,,,,,,,,,,,,,,,,,,
832.0999999940395,,rt_thecrossant_black,854302,black_plus_sign,,,,50,,,1,0.95,,,,,,,,,,,,,,,,,,,
null,,color_black,854403,black_plus_sign,,,,null,,,,,,,,,,,,,,,,,,,,,,,
null,,learn_phase(without_color),856405,black_plus_sign,,,,null,GW/gong.jpg,GW/basket.jpg,,,,,,,,,,,,,,,,,,,,,
null,,black_cross(without_color),857014,blue,,,,null,GW/gong.jpg,GW/basket.jpg,,,,,,,,,,,,,,,,,,,,,
null,,rt_plussign_withcolor,857515,blue,,,,null,GW/gong.jpg,GW/basket.jpg,,,,,,,,,,,,,,,,,,,,,
984.7000000178814,,rt_thecrossant_black,858909,black_plus_sign,,,,49,,,1,0.9504132231404959,,,,,,,,,,,,,,,,,,,
null,,color_black,859010,black_plus_sign,,,,null,,,,,,,,,,,,,,,,,,,,,,,
null,,learn_phase(without_color),861013,black_plus_sign,,,,null,GW/gong.jpg,GW/jukebox.jpg,,,,,,,,,,,,,,,,,,,,,
null,,black_cross(without_color),861730,blue,,,,null,GW/gong.jpg,GW/jukebox.jpg,,,,,,,,,,,,,,,,,,,,,
null,,rt_plussign_withcolor,862232,blue,,,,null,GW/gong.jpg,GW/jukebox.jpg,,,,,,,,,,,,,,,,,,,,,
741.4000000059605,,rt_thecrossant_black,863519,black_plus_sign,,,,49,,,1,0.9508196721311475,,,,,,,,,,,,,,,,,,,
null,,color_black,863620,black_plus_sign,,,,null,,,,,,,,,,,,,,,,,,,,,,,
null,,learn_phase(without_color),865622,black_plus_sign,,,,null,GW/gong.jpg,GW/basket.jpg,,,,,,,,,,,,,,,,,,,,,
null,,black_cross(without_color),866180,blue,,,,null,GW/gong.jpg,GW/basket.jpg,,,,,,,,,,,,,,,,,,,,,
485.30000001192093,,rt_plussign_withcolor,866681,blue,,,,49,GW/gong.jpg,GW/basket.jpg,,,,,,,,,,,,,,,,,,,,,
null,,rt_thecrossant_black,868126,black_plus_sign,,,,null,,,1,0.9512195121951219,,,,,,,,,,,,,,,,,,,
null,,color_black,868227,black_plus_sign,,,,null,,,,,,,,,,,,,,,,,,,,,,,
null,,learn_phase(without_color),870229,black_plus_sign,,,,null,GW/snail.jpg,GW/teeth.jpg,,,,,,,,,,,,,,,,,,,,,
null,,black_cross(without_color),871126,green,,,,null,GW/snail.jpg,GW/teeth.jpg,,,,,,,,,,,,,,,,,,,,,
null,,rt_plussign_withcolor,871628,green,,,,null,GW/snail.jpg,GW/teeth.jpg,,,,,,,,,,,,,,,,,,,,,
661.5,,rt_thecrossant_black,872733,black_plus_sign,,,,50,,,1,0.9516129032258065,,,,,,,,,,,,,,,,,,,
null,,color_black,872834,black_plus_sign,,,,null,,,,,,,,,,,,,,,,,,,,,,,
null,,learn_phase(without_color),874836,black_plus_sign,,,,null,GW/jukebox.jpg,GW/camera.jpg,,,,,,,,,,,,,,,,,,,,,
null,,black_cross(without_color),875831,green,,,,null,GW/jukebox.jpg,GW/camera.jpg,,,,,,,,,,,,,,,,,,,,,
410.40000000596046,,rt_plussign_withcolor,876332,green,,,,49,GW/jukebox.jpg,GW/camera.jpg,,,,,,,,,,,,,,,,,,,,,
null,,rt_thecrossant_black,877340,black_plus_sign,,,,null,,,0,0.944,,,,,,,,,,,,,,,,,,,
null,,color_black,877441,black_plus_sign,,,,null,,,,,,,,,,,,,,,,,,,,,,,
null,,learn_phase(without_color),879443,black_plus_sign,,,,null,GW/soldier.jpg,GW/globe.jpg,,,,,,,,,,,,,,,,,,,,,
null,,black_cross(without_color),880117,blue,,,,null,GW/soldier.jpg,GW/globe.jpg,,,,,,,,,,,,,,,,,,,,,
null,,rt_plussign_withcolor,880618,blue,,,,null,GW/soldier.jpg,GW/globe.jpg,,,,,,,,,,,,,,,,,,,,,
1204.800000011921,,rt_thecrossant_black,881947,black_plus_sign,,,,49,,,1,0.9444444444444444,,,,,,,,,,,,,,,,,,,
null,,color_black,882049,black_plus_sign,,,,null,,,,,,,,,,,,,,,,,,,,,,,
null,,learn_phase(without_color),884051,black_plus_sign,,,,null,GW/dustpan.jpg,GW/wheelchair.jpg,,,,,,,,,,,,,,,,,,,,,
null,,black_cross(without_color),884713,green,,,,null,GW/dustpan.jpg,GW/wheelchair.jpg,,,,,,,,,,,,,,,,,,,,,
352.2000000178814,,rt_plussign_withcolor,885215,green,,,,50,GW/dustpan.jpg,GW/wheelchair.jpg,,,,,,,,,,,,,,,,,,,,,
null,,rt_thecrossant_black,886555,black_plus_sign,,,,null,,,1,0.9448818897637795,,,,,,,,,,,,,,,,,,,
null,,color_black,886656,black_plus_sign,,,,null,,,,,,,,,,,,,,,,,,,,,,,
null,,learn_phase(without_color),888658,black_plus_sign,,,,null,GW/gong.jpg,GW/basket.jpg,,,,,,,,,,,,,,,,,,,,,
null,,black_cross(without_color),889463,blue,,,,null,GW/gong.jpg,GW/basket.jpg,,,,,,,,,,,,,,,,,,,,,
null,,rt_plussign_withcolor,889964,blue,,,,null,GW/gong.jpg,GW/basket.jpg,,,,,,,,,,,,,,,,,,,,,
766.1999999880791,,rt_thecrossant_black,891163,black_plus_sign,,,,49,,,1,0.9453125,,,,,,,,,,,,,,,,,,,
null,,color_black,891271,black_plus_sign,,,,null,,,,,,,,,,,,,,,,,,,,,,,
19953.90000000596,,intro_1,911226,instruct,,0,Start,,,,,,,,,,,,,,,,,,,,,,,,
2999,,directmemory_phase,914226,GW/gong.jpg,,,,50,,,0,0,GW/teeth.jpg,GW/snail.jpg,GW/paint.jpg,GW/paint.jpg,GW/snail.jpg,GW/teeth.jpg,0.5,closer,,,,,,,,,,,
null,,html-keyboard-response,915228,<p></p>,,,,null,,,,,,,,,,,,,,,,,,,,,,,
2181.199999988079,,directmemory_phase,917410,GW/dustpan.jpg,,,,51,,,0,0,GW/hat.jpg,GW/camera.jpg,GW/jukebox.jpg,GW/hat.jpg,GW/jukebox.jpg,GW/camera.jpg,0.5,closer,,,,,,,,,,,
null,,html-keyboard-response,918411,<p></p>,,,,null,,,,,,,,,,,,,,,,,,,,,,,
2654.100000023842,,directmemory_phase,921066,GW/soldier.jpg,,,,50,,,1,0.3333333333333333,GW/basket.jpg,GW/globe.jpg,GW/gong.jpg,GW/globe.jpg,GW/basket.jpg,GW/gong.jpg,1,,,,,,,,,,,,
null,,html-keyboard-response,922067,<p></p>,,,,null,,,,,,,,,,,,,,,,,,,,,,,
2710.2000000178814,,directmemory_phase,924778,GW/basket.jpg,,,,49,,,1,0.5,GW/dustpan.jpg,GW/globe.jpg,GW/wheelchair.jpg,GW/dustpan.jpg,GW/wheelchair.jpg,GW/globe.jpg,1,,,,,,,,,,,,
null,,html-keyboard-response,925780,<p></p>,,,,null,,,,,,,,,,,,,,,,,,,,,,,
1789.2000000178814,,directmemory_phase,927570,GW/jukebox.jpg,,,,49,,,1,0.6,GW/camera.jpg,GW/barrel.jpg,GW/dustpan.jpg,GW/camera.jpg,GW/dustpan.jpg,GW/barrel.jpg,1,,,,,,,,,,,,
null,,html-keyboard-response,928571,<p></p>,,,,null,,,,,,,,,,,,,,,,,,,,,,,
2421.5999999940395,,directmemory_phase,930994,GW/soldier.jpg,,,,49,,,1,0.6666666666666666,GW/dustpan.jpg,GW/gong.jpg,GW/wheelchair.jpg,GW/dustpan.jpg,GW/wheelchair.jpg,GW/gong.jpg,1,,,,,,,,,,,,
null,,html-keyboard-response,931996,<p></p>,,,,null,,,,,,,,,,,,,,,,,,,,,,,
2037.4000000059605,,directmemory_phase,934034,GW/barrel.jpg,,,,51,,,1,0.7142857142857143,GW/camera.jpg,GW/snail.jpg,GW/paint.jpg,GW/paint.jpg,GW/snail.jpg,GW/camera.jpg,1,,,,,,,,,,,,
null,,html-keyboard-response,935035,<p></p>,,,,null,,,,,,,,,,,,,,,,,,,,,,,
1982.0999999940395,,directmemory_phase,937018,GW/camera.jpg,,,,50,,,1,0.75,GW/hat.jpg,GW/jukebox.jpg,GW/wheelchair.jpg,GW/jukebox.jpg,GW/hat.jpg,GW/wheelchair.jpg,1,,,,,,,,,,,,
null,,html-keyboard-response,938020,<p></p>,,,,null,,,,,,,,,,,,,,,,,,,,,,,
2380.699999988079,,directmemory_phase,940402,GW/teeth.jpg,,,,50,,,1,0.7777777777777778,GW/camera.jpg,GW/snail.jpg,GW/jukebox.jpg,GW/snail.jpg,GW/camera.jpg,GW/jukebox.jpg,1,,,,,,,,,,,,
null,,html-keyboard-response,941404,<p></p>,,,,null,,,,,,,,,,,,,,,,,,,,,,,
3021.300000011921,,directmemory_phase,944426,GW/hat.jpg,,,,49,,,0,0.7,GW/wheelchair.jpg,GW/basket.jpg,GW/paint.jpg,GW/basket.jpg,GW/wheelchair.jpg,GW/paint.jpg,0.5,closer,,,,,,,,,,,
null,,html-keyboard-response,945427,<p></p>,,,,null,,,,,,,,,,,,,,,,,,,,,,,
3581.800000011921,,directmemory_phase,949010,GW/snail.jpg,,,,51,,,1,0.7272727272727273,GW/hat.jpg,GW/barrel.jpg,GW/camera.jpg,GW/camera.jpg,GW/barrel.jpg,GW/hat.jpg,1,,,,,,,,,,,,
null,,html-keyboard-response,950011,<p></p>,,,,null,,,,,,,,,,,,,,,,,,,,,,,
2782,,directmemory_phase,952794,GW/gong.jpg,,,,51,,,0,0.6666666666666666,GW/jukebox.jpg,GW/wheelchair.jpg,GW/camera.jpg,GW/jukebox.jpg,GW/camera.jpg,GW/wheelchair.jpg,0.5,closer,,,,,,,,,,,
null,,html-keyboard-response,953795,<p></p>,,,,null,,,,,,,,,,,,,,,,,,,,,,,
1677.5999999940395,,directmemory_phase,955474,GW/paint.jpg,,,,51,,,1,0.6923076923076923,GW/wheelchair.jpg,GW/teeth.jpg,GW/barrel.jpg,GW/barrel.jpg,GW/teeth.jpg,GW/wheelchair.jpg,1,,,,,,,,,,,,
null,,html-keyboard-response,956475,<p></p>,,,,null,,,,,,,,,,,,,,,,,,,,,,,
1269.3999999761581,,directmemory_phase,957746,GW/globe.jpg,,,,51,,,1,0.7142857142857143,GW/wheelchair.jpg,GW/dustpan.jpg,GW/soldier.jpg,GW/soldier.jpg,GW/dustpan.jpg,GW/wheelchair.jpg,1,,,,,,,,,,,,
null,,html-keyboard-response,958746,<p></p>,,,,null,,,,,,,,,,,,,,,,,,,,,,,
3062.699999988079,,directmemory_phase,961810,GW/paint.jpg,,,,49,,,0,0.6666666666666666,GW/soldier.jpg,GW/camera.jpg,GW/gong.jpg,GW/gong.jpg,GW/camera.jpg,GW/soldier.jpg,0.5,closer,,,,,,,,,,,
null,,html-keyboard-response,962811,<p></p>,,,,null,,,,,,,,,,,,,,,,,,,,,,,
2094.399999976158,,directmemory_phase,964906,GW/dustpan.jpg,,,,51,,,1,0.6875,GW/snail.jpg,GW/globe.jpg,GW/soldier.jpg,GW/soldier.jpg,GW/globe.jpg,GW/snail.jpg,1,,,,,,,,,,,,
null,,html-keyboard-response,965907,<p></p>,,,,null,,,,,,,,,,,,,,,,,,,,,,,
3254.2999999821186,,directmemory_phase,969162,GW/hat.jpg,,,,49,,,0,0.6470588235294118,GW/camera.jpg,GW/jukebox.jpg,GW/snail.jpg,GW/jukebox.jpg,GW/camera.jpg,GW/snail.jpg,0.5,closer,,,,,,,,,,,
null,,html-keyboard-response,970163,<p></p>,,,,null,,,,,,,,,,,,,,,,,,,,,,,
1429.5999999940395,,directmemory_phase,971594,GW/wheelchair.jpg,,,,51,,,1,0.6666666666666666,GW/gong.jpg,GW/basket.jpg,GW/dustpan.jpg,GW/dustpan.jpg,GW/basket.jpg,GW/gong.jpg,1,,,,,,,,,,,,
null,,html-keyboard-response,972595,<p></p>,,,,null,,,,,,,,,,,,,,,,,,,,,,,
2277.699999988079,,directmemory_phase,974874,GW/soldier.jpg,,,,50,,,1,0.6842105263157895,GW/basket.jpg,GW/hat.jpg,GW/camera.jpg,GW/hat.jpg,GW/basket.jpg,GW/camera.jpg,1,,,,,,,,,,,,
null,,html-keyboard-response,975875,<p></p>,,,,null,,,,,,,,,,,,,,,,,,,,,,,
3037.699999988079,,directmemory_phase,978914,GW/paint.jpg,,,,51,,,1,0.7,GW/dustpan.jpg,GW/jukebox.jpg,GW/snail.jpg,GW/snail.jpg,GW/jukebox.jpg,GW/dustpan.jpg,1,,,,,,,,,,,,
null,,html-keyboard-response,979914,<p></p>,,,,null,,,,,,,,,,,,,,,,,,,,,,,
3134.2999999821186,,directmemory_phase,983050,GW/hat.jpg,,,,49,,,0,0.6666666666666666,GW/snail.jpg,GW/gong.jpg,GW/dustpan.jpg,GW/dustpan.jpg,GW/gong.jpg,GW/snail.jpg,0.5,closer,,,,,,,,,,,
null,,html-keyboard-response,984051,<p></p>,,,,null,,,,,,,,,,,,,,,,,,,,,,,
4029.7999999821186,,directmemory_phase,988082,GW/basket.jpg,,,,49,,,1,0.6818181818181818,GW/gong.jpg,GW/snail.jpg,GW/paint.jpg,GW/gong.jpg,GW/paint.jpg,GW/snail.jpg,1,,,,,,,,,,,,
null,,html-keyboard-response,989083,<p></p>,,,,null,,,,,,,,,,,,,,,,,,,,,,,
2061.4000000059605,,directmemory_phase,991145,GW/hat.jpg,,,,51,,,1,0.6956521739130435,GW/paint.jpg,GW/camera.jpg,GW/soldier.jpg,GW/soldier.jpg,GW/camera.jpg,GW/paint.jpg,1,,,,,,,,,,,,
null,,html-keyboard-response,992147,<p></p>,,,,null,,,,,,,,,,,,,,,,,,,,,,,
3294.0999999940395,,directmemory_phase,995441,GW/gong.jpg,,,,51,,,1,0.7083333333333334,GW/globe.jpg,GW/dustpan.jpg,GW/basket.jpg,GW/basket.jpg,GW/dustpan.jpg,GW/globe.jpg,1,,,,,,,,,,,,
null,,html-keyboard-response,996443,<p></p>,,,,null,,,,,,,,,,,,,,,,,,,,,,,
2253.899999976158,,directmemory_phase,998698,GW/snail.jpg,,,,50,,,1,0.72,GW/gong.jpg,GW/teeth.jpg,GW/hat.jpg,GW/teeth.jpg,GW/gong.jpg,GW/hat.jpg,1,,,,,,,,,,,,
null,,html-keyboard-response,999700,<p></p>,,,,null,,,,,,,,,,,,,,,,,,,,,,,
3860.9000000059605,,directmemory_phase,1003561,GW/basket.jpg,,,,50,,,0,0.6923076923076923,GW/snail.jpg,GW/wheelchair.jpg,GW/hat.jpg,GW/hat.jpg,GW/wheelchair.jpg,GW/snail.jpg,0.5,closer,,,,,,,,,,,
null,,html-keyboard-response,1004564,<p></p>,,,,null,,,,,,,,,,,,,,,,,,,,,,,
3333.300000011921,,directmemory_phase,1007897,GW/camera.jpg,,,,50,,,1,0.7037037037037037,GW/hat.jpg,GW/snail.jpg,GW/globe.jpg,GW/snail.jpg,GW/hat.jpg,GW/globe.jpg,1,,,,,,,,,,,,
null,,html-keyboard-response,1008899,<p></p>,,,,null,,,,,,,,,,,,,,,,,,,,,,,
3525.699999988079,,directmemory_phase,1012426,GW/dustpan.jpg,,,,49,,,1,0.7142857142857143,GW/basket.jpg,GW/camera.jpg,GW/gong.jpg,GW/basket.jpg,GW/gong.jpg,GW/camera.jpg,1,,,,,,,,,,,,
null,,html-keyboard-response,1013427,<p></p>,,,,null,,,,,,,,,,,,,,,,,,,,,,,
3350.0999999940395,,directmemory_phase,1016777,GW/jukebox.jpg,,,,51,,,1,0.7241379310344828,GW/wheelchair.jpg,GW/paint.jpg,GW/hat.jpg,GW/hat.jpg,GW/paint.jpg,GW/wheelchair.jpg,1,,,,,,,,,,,,
null,,html-keyboard-response,1017780,<p></p>,,,,null,,,,,,,,,,,,,,,,,,,,,,,
2036.5,,directmemory_phase,1019817,GW/snail.jpg,,,,49,,,1,0.7333333333333333,GW/paint.jpg,GW/soldier.jpg,GW/barrel.jpg,GW/paint.jpg,GW/barrel.jpg,GW/soldier.jpg,1,,,,,,,,,,,,
null,,html-keyboard-response,1020819,<p></p>,,,,null,,,,,,,,,,,,,,,,,,,,,,,
3422.0999999940395,,directmemory_phase,1024241,GW/jukebox.jpg,,,,51,,,0,0.7096774193548387,GW/gong.jpg,GW/barrel.jpg,GW/dustpan.jpg,GW/gong.jpg,GW/dustpan.jpg,GW/barrel.jpg,0.5,closer,,,,,,,,,,,
null,,html-keyboard-response,1025243,<p></p>,,,,null,,,,,,,,,,,,,,,,,,,,,,,
2054.0999999940395,,directmemory_phase,1027297,GW/dustpan.jpg,,,,51,,,1,0.71875,GW/camera.jpg,GW/globe.jpg,GW/wheelchair.jpg,GW/wheelchair.jpg,GW/globe.jpg,GW/camera.jpg,1,,,,,,,,,,,,
null,,html-keyboard-response,1028299,<p></p>,,,,null,,,,,,,,,,,,,,,,,,,,,,,
36133.79999998212,,intro_1,1064433,instruct,,0,,,,,,,,,,,,,,,,,,,,,,,,,
27415.09999999404,,intro_2,1091849,instruct,,1,Next,,,,,,,,,,,,,,,,,,,,,,,,
9022.90000000596,,intro_3,1100873,instruct,,1,Next,,,,,,,,,,,,,,,,,,,,,,,,
25103.30000001192,,intro_4,1125977,instruct,,1,Next,,,,,,,,,,,,,,,,,,,,,,,,
224574.5,,intro_5,1350552,instruct,,1,Next,,,,,,,,,,,,,,,,,,,,,,,,
51663.09999999404,,intro_6,1402216,instruct,,1,Next,,,,,,,,,,,,,,,,,,,,,,,,
12207.200000017881,,intro_7,1414424,instruct,,1,Next,,,,,,,,,,,,,,,,,,,,,,,,
14847.300000011921,,intro_8,1429272,instruct,,1,Next,,,,,,,,,,,,,,,,,,,,,,,,
2575.2999999821186,,shortestpath_phase,1431848,GW/barrel.jpg,,,,50,GW/dustpan.jpg,GW/camera.jpg,1,1,,,,GW/camera.jpg,,,,,One Edge Diff,Three Edge Four Edge,,,,,,,,,
null,,html-keyboard-response,1432850,<p></p>,,,,null,,,,,,,,,,,,,,,,,,,,,,,
3509.4000000059605,,shortestpath_phase,1436360,GW/soldier.jpg,,,,50,GW/wheelchair.jpg,GW/barrel.jpg,0,0.5,,,,GW/wheelchair.jpg,,,,,Three Edge Diff,Two Edge Five Edge,,,,,,,,,
null,,html-keyboard-response,1437362,<p></p>,,,,null,,,,,,,,,,,,,,,,,,,,,,,
3093.5,,shortestpath_phase,1440456,GW/teeth.jpg,,,,50,GW/basket.jpg,GW/wheelchair.jpg,0,0.3333333333333333,,,,GW/basket.jpg,,,,,Two Edge Diff,Four Edge Six Edge,,,,,,,,,
null,,html-keyboard-response,1441457,<p></p>,,,,null,,,,,,,,,,,,,,,,,,,,,,,
3590.7999999821186,,shortestpath_phase,1445048,GW/jukebox.jpg,,,,49,GW/soldier.jpg,GW/globe.jpg,1,0.5,,,,GW/soldier.jpg,,,,,One Edge Diff,Two Edge Three Edge,,,,,,,,,
null,,html-keyboard-response,1446050,<p></p>,,,,null,,,,,,,,,,,,,,,,,,,,,,,
3125.4000000059605,,shortestpath_phase,1449176,GW/teeth.jpg,,,,50,GW/paint.jpg,GW/wheelchair.jpg,0,0.4,,,,GW/paint.jpg,,,,,Four Edge Diff,Two Edge Six Edge,,,,,,,,,
null,,html-keyboard-response,1450178,<p></p>,,,,null,,,,,,,,,,,,,,,,,,,,,,,
2430,,shortestpath_phase,1452608,GW/barrel.jpg,,,,49,GW/snail.jpg,GW/globe.jpg,1,0.5,,,,GW/snail.jpg,,,,,Four Edge Diff,Two Edge Six Edge,,,,,,,,,
null,,html-keyboard-response,1453609,<p></p>,,,,null,,,,,,,,,,,,,,,,,,,,,,,
3086.199999988079,,shortestpath_phase,1456696,GW/teeth.jpg,,,,49,GW/dustpan.jpg,GW/globe.jpg,1,0.5714285714285714,,,,GW/dustpan.jpg,,,,,One Edge Diff,Five Edge Six Edge,,,,,,,,,
null,,html-keyboard-response,1457701,<p></p>,,,,null,,,,,,,,,,,,,,,,,,,,,,,
2546.4000000059605,,shortestpath_phase,1460248,GW/barrel.jpg,,,,49,GW/soldier.jpg,GW/snail.jpg,0,0.5,,,,GW/snail.jpg,,,,,Three Edge Diff,Two Edge Five Edge,,,,,,,,,
null,,html-keyboard-response,1461250,<p></p>,,,,null,,,,,,,,,,,,,,,,,,,,,,,
2525.4000000059605,,shortestpath_phase,1463776,GW/globe.jpg,,,,50,GW/wheelchair.jpg,GW/dustpan.jpg,1,0.5555555555555556,,,,GW/dustpan.jpg,,,,,One Edge Diff,Two Edge Three Edge,,,,,,,,,
null,,html-keyboard-response,1464778,<p></p>,,,,null,,,,,,,,,,,,,,,,,,,,,,,
4245.200000017881,,shortestpath_phase,1469024,GW/teeth.jpg,,,,49,GW/paint.jpg,GW/globe.jpg,1,0.6,,,,GW/paint.jpg,,,,,Four Edge Diff,Two Edge Six Edge,,,,,,,,,
null,,html-keyboard-response,1470025,<p></p>,,,,null,,,,,,,,,,,,,,,,,,,,,,,
3134.4000000059605,,shortestpath_phase,1473160,GW/dustpan.jpg,,,,49,GW/gong.jpg,GW/teeth.jpg,1,0.6363636363636364,,,,GW/gong.jpg,,,,,Three Edge Diff,Two Edge Five Edge,,,,,,,,,
null,,html-keyboard-response,1474162,<p></p>,,,,null,,,,,,,,,,,,,,,,,,,,,,,
3157.5,,shortestpath_phase,1477320,GW/wheelchair.jpg,,,,50,GW/globe.jpg,GW/camera.jpg,0,0.5833333333333334,,,,GW/globe.jpg,,,,,One Edge Diff,Three Edge Four Edge,,,,,,,,,
null,,html-keyboard-response,1478323,<p></p>,,,,null,,,,,,,,,,,,,,,,,,,,,,,
3756.5999999940395,,shortestpath_phase,1482080,GW/teeth.jpg,,,,50,GW/soldier.jpg,GW/basket.jpg,1,0.6153846153846154,,,,GW/basket.jpg,,,,,One Edge Diff,Four Edge Five Edge,,,,,,,,,
null,,html-keyboard-response,1483081,<p></p>,,,,null,,,,,,,,,,,,,,,,,,,,,,,
4070.2000000178814,,shortestpath_phase,1487152,GW/globe.jpg,,,,50,GW/barrel.jpg,GW/snail.jpg,1,0.6428571428571429,,,,GW/snail.jpg,,,,,One Edge Diff,Five Edge Six Edge,,,,,,,,,
null,,html-keyboard-response,1488153,<p></p>,,,,null,,,,,,,,,,,,,,,,,,,,,,,
1742.300000011921,,shortestpath_phase,1489896,GW/jukebox.jpg,,,,49,GW/dustpan.jpg,GW/barrel.jpg,1,0.6666666666666666,,,,GW/dustpan.jpg,,,,,One Edge Diff,Two Edge Three Edge,,,,,,,,,
null,,html-keyboard-response,1490898,<p></p>,,,,null,,,,,,,,,,,,,,,,,,,,,,,
4389.4000000059605,,shortestpath_phase,1495288,GW/globe.jpg,,,,50,GW/snail.jpg,GW/teeth.jpg,0,0.625,,,,GW/snail.jpg,,,,,One Edge Diff,Five Edge Six Edge,,,,,,,,,
null,,html-keyboard-response,1496290,<p></p>,,,,null,,,,,,,,,,,,,,,,,,,,,,,
3541.199999988079,,shortestpath_phase,1499832,GW/teeth.jpg,,,,49,GW/hat.jpg,GW/wheelchair.jpg,1,0.6470588235294118,,,,GW/hat.jpg,,,,,Two Edge Diff,Four Edge Six Edge,,,,,,,,,
null,,html-keyboard-response,1500833,<p></p>,,,,null,,,,,,,,,,,,,,,,,,,,,,,
4462.200000017881,,shortestpath_phase,1505296,GW/globe.jpg,,,,50,GW/dustpan.jpg,GW/teeth.jpg,0,0.6111111111111112,,,,GW/dustpan.jpg,,,,,Four Edge Diff,Two Edge Six Edge,,,,,,,,,
null,,html-keyboard-response,1506297,<p></p>,,,,null,,,,,,,,,,,,,,,,,,,,,,,
2350.2000000178814,,shortestpath_phase,1508648,GW/wheelchair.jpg,,,,49,GW/basket.jpg,GW/globe.jpg,1,0.631578947368421,,,,GW/basket.jpg,,,,,One Edge Diff,Two Edge Three Edge,,,,,,,,,
null,,html-keyboard-response,1509649,<p></p>,,,,null,,,,,,,,,,,,,,,,,,,,,,,
1854.1000000238419,,shortestpath_phase,1511504,GW/dustpan.jpg,,,,50,GW/barrel.jpg,GW/jukebox.jpg,1,0.65,,,,GW/jukebox.jpg,,,,,Two Edge Diff,Two Edge Four Edge,,,,,,,,,
null,,html-keyboard-response,1512505,<p></p>,,,,null,,,,,,,,,,,,,,,,,,,,,,,
1486.2000000178814,,shortestpath_phase,1513992,GW/wheelchair.jpg,,,,49,GW/basket.jpg,GW/barrel.jpg,1,0.6666666666666666,,,,GW/basket.jpg,,,,,Three Edge Diff,Three Edge Six Edge,,,,,,,,,
null,,html-keyboard-response,1514993,<p></p>,,,,null,,,,,,,,,,,,,,,,,,,,,,,
2678.2000000178814,,shortestpath_phase,1517672,GW/teeth.jpg,,,,50,GW/camera.jpg,GW/hat.jpg,0,0.6363636363636364,,,,GW/camera.jpg,,,,,Two Edge Diff,Two Edge Four Edge,,,,,,,,,
null,,html-keyboard-response,1518673,<p></p>,,,,null,,,,,,,,,,,,,,,,,,,,,,,
4190,,shortestpath_phase,1522864,GW/wheelchair.jpg,,,,50,GW/hat.jpg,GW/gong.jpg,0,0.6086956521739131,,,,GW/hat.jpg,,,,,One Edge Diff,Two Edge Three Edge,,,,,,,,,
null,,html-keyboard-response,1523865,<p></p>,,,,null,,,,,,,,,,,,,,,,,,,,,,,
1974.199999988079,,shortestpath_phase,1525840,GW/barrel.jpg,,,,49,GW/jukebox.jpg,GW/wheelchair.jpg,1,0.625,,,,GW/jukebox.jpg,,,,,Two Edge Diff,Three Edge Five Edge,,,,,,,,,
null,,html-keyboard-response,1526842,<p></p>,,,,null,,,,,,,,,,,,,,,,,,,,,,,
3397.300000011921,,shortestpath_phase,1530240,GW/wheelchair.jpg,,,,50,GW/teeth.jpg,GW/camera.jpg,1,0.64,,,,GW/camera.jpg,,,,,Two Edge Diff,Four Edge Six Edge,,,,,,,,,
null,,html-keyboard-response,1531241,<p></p>,,,,null,,,,,,,,,,,,,,,,,,,,,,,
2558.2000000178814,,shortestpath_phase,1533800,GW/globe.jpg,,,,49,GW/barrel.jpg,GW/hat.jpg,0,0.6153846153846154,,,,GW/hat.jpg,,,,,Four Edge Diff,Two Edge Six Edge,,,,,,,,,
null,,html-keyboard-response,1534801,<p></p>,,,,null,,,,,,,,,,,,,,,,,,,,,,,
2310.0999999940395,,shortestpath_phase,1537112,GW/soldier.jpg,,,,49,GW/barrel.jpg,GW/basket.jpg,0,0.5925925925925926,,,,GW/basket.jpg,,,,,Three Edge Diff,Two Edge Five Edge,,,,,,,,,
null,,html-keyboard-response,1538114,<p></p>,,,,null,,,,,,,,,,,,,,,,,,,,,,,
3445.300000011921,,shortestpath_phase,1541560,GW/globe.jpg,,,,50,GW/camera.jpg,GW/teeth.jpg,0,0.5714285714285714,,,,GW/camera.jpg,,,,,Two Edge Diff,Four Edge Six Edge,,,,,,,,,
null,,html-keyboard-response,1542561,<p></p>,,,,null,,,,,,,,,,,,,,,,,,,,,,,
2222.0999999940395,,shortestpath_phase,1544784,GW/barrel.jpg,,,,49,GW/gong.jpg,GW/wheelchair.jpg,1,0.5862068965517241,,,,GW/gong.jpg,,,,,Three Edge Diff,Two Edge Five Edge,,,,,,,,,
null,,html-keyboard-response,1545785,<p></p>,,,,null,,,,,,,,,,,,,,,,,,,,,,,
3053.7999999821186,,shortestpath_phase,1548840,GW/globe.jpg,,,,50,GW/paint.jpg,GW/teeth.jpg,0,0.5666666666666667,,,,GW/paint.jpg,,,,,One Edge Diff,Five Edge Six Edge,,,,,,,,,
null,,html-keyboard-response,1549841,<p></p>,,,,null,,,,,,,,,,,,,,,,,,,,,,,
1566.0999999940395,,shortestpath_phase,1551408,GW/camera.jpg,,,,50,GW/globe.jpg,GW/dustpan.jpg,1,0.5806451612903226,,,,GW/dustpan.jpg,,,,,One Edge Diff,Three Edge Four Edge,,,,,,,,,
null,,html-keyboard-response,1552410,<p></p>,,,,null,,,,,,,,,,,,,,,,,,,,,,,
1957.2000000178814,,shortestpath_phase,1554368,GW/teeth.jpg,,,,49,GW/dustpan.jpg,GW/paint.jpg,0,0.5625,,,,GW/paint.jpg,,,,,Three Edge Diff,Three Edge Six Edge,,,,,,,,,
null,,html-keyboard-response,1555370,<p></p>,,,,null,,,,,,,,,,,,,,,,,,,,,,,
1389.0999999940395,,shortestpath_phase,1556759,GW/snail.jpg,,,,50,GW/globe.jpg,GW/jukebox.jpg,1,0.5757575757575758,,,,GW/jukebox.jpg,,,,,Three Edge Diff,Three Edge Six Edge,,,,,,,,,
null,,html-keyboard-response,1557761,<p></p>,,,,null,,,,,,,,,,,,,,,,,,,,,,,
1846.0999999940395,,shortestpath_phase,1559608,GW/paint.jpg,,,,49,GW/camera.jpg,GW/dustpan.jpg,1,0.5882352941176471,,,,GW/camera.jpg,,,,,One Edge Diff,Two Edge Three Edge,,,,,,,,,
null,,html-keyboard-response,1560610,<p></p>,,,,null,,,,,,,,,,,,,,,,,,,,,,,
2381,,shortestpath_phase,1562991,GW/globe.jpg,,,,50,GW/barrel.jpg,GW/dustpan.jpg,1,0.6,,,,GW/dustpan.jpg,,,,,Four Edge Diff,Two Edge Six Edge,,,,,,,,,
null,,html-keyboard-response,1563993,<p></p>,,,,null,,,,,,,,,,,,,,,,,,,,,,,
2246.0999999940395,,shortestpath_phase,1566240,GW/jukebox.jpg,,,,50,GW/wheelchair.jpg,GW/snail.jpg,1,0.6111111111111112,,,,GW/snail.jpg,,,,,One Edge Diff,Two Edge Three Edge,,,,,,,,,
null,,html-keyboard-response,1567242,<p></p>,,,,null,,,,,,,,,,,,,,,,,,,,,,,
2133.2999999821186,,shortestpath_phase,1569376,GW/soldier.jpg,,,,49,GW/teeth.jpg,GW/basket.jpg,0,0.5945945945945946,,,,GW/basket.jpg,,,,,Three Edge Diff,Three Edge Six Edge,,,,,,,,,
null,,html-keyboard-response,1570378,<p></p>,,,,null,,,,,,,,,,,,,,,,,,,,,,,
2372.9000000059605,,shortestpath_phase,1572751,GW/globe.jpg,,,,49,GW/hat.jpg,GW/paint.jpg,1,0.6052631578947368,,,,GW/hat.jpg,,,,,Three Edge Diff,Three Edge Six Edge,,,,,,,,,
null,,html-keyboard-response,1573754,<p></p>,,,,null,,,,,,,,,,,,,,,,,,,,,,,
2308.9000000059605,,shortestpath_phase,1576064,GW/wheelchair.jpg,,,,49,GW/barrel.jpg,GW/gong.jpg,0,0.5897435897435898,,,,GW/gong.jpg,,,,,Two Edge Diff,Three Edge Five Edge,,,,,,,,,
null,,html-keyboard-response,1577065,<p></p>,,,,null,,,,,,,,,,,,,,,,,,,,,,,
2070.199999988079,,shortestpath_phase,1579136,GW/teeth.jpg,,,,50,GW/hat.jpg,GW/globe.jpg,0,0.575,,,,GW/hat.jpg,,,,,Two Edge Diff,Four Edge Six Edge,,,,,,,,,
null,,html-keyboard-response,1580138,<p></p>,,,,null,,,,,,,,,,,,,,,,,,,,,,,
1613,,shortestpath_phase,1581751,GW/dustpan.jpg,,,,49,GW/teeth.jpg,GW/camera.jpg,0,0.5609756097560976,,,,GW/camera.jpg,,,,,Two Edge Diff,Three Edge Five Edge,,,,,,,,,
null,,html-keyboard-response,1582753,<p></p>,,,,null,,,,,,,,,,,,,,,,,,,,,,,
1205.5,,shortestpath_phase,1583959,GW/barrel.jpg,,,,49,GW/basket.jpg,GW/soldier.jpg,1,0.5714285714285714,,,,GW/basket.jpg,,,,,Two Edge Diff,Three Edge Five Edge,,,,,,,,,
null,,html-keyboard-response,1584961,<p></p>,,,,null,,,,,,,,,,,,,,,,,,,,,,,
1022.0999999940395,,shortestpath_phase,1585983,GW/globe.jpg,,,,50,GW/teeth.jpg,GW/hat.jpg,1,0.5813953488372093,,,,GW/hat.jpg,,,,,Four Edge Diff,Two Edge Six Edge,,,,,,,,,
null,,html-keyboard-response,1586985,<p></p>,,,,null,,,,,,,,,,,,,,,,,,,,,,,
2254.199999988079,,shortestpath_phase,1589240,GW/teeth.jpg,,,,49,GW/basket.jpg,GW/camera.jpg,0,0.5681818181818182,,,,GW/camera.jpg,,,,,Two Edge Diff,Two Edge Four Edge,,,,,,,,,
null,,html-keyboard-response,1590241,<p></p>,,,,null,,,,,,,,,,,,,,,,,,,,,,,
1654,,shortestpath_phase,1591895,GW/snail.jpg,,,,50,GW/barrel.jpg,GW/globe.jpg,0,0.5555555555555556,,,,GW/barrel.jpg,,,,,Three Edge Diff,Three Edge Six Edge,,,,,,,,,
null,,html-keyboard-response,1592897,<p></p>,,,,null,,,,,,,,,,,,,,,,,,,,,,,
1974,,shortestpath_phase,1594871,GW/wheelchair.jpg,,,,49,GW/teeth.jpg,GW/paint.jpg,0,0.5434782608695652,,,,GW/paint.jpg,,,,,Two Edge Diff,Four Edge Six Edge,,,,,,,,,
null,,html-keyboard-response,1595873,<p></p>,,,,null,,,,,,,,,,,,,,,,,,,,,,,
2405.9000000059605,,shortestpath_phase,1598280,GW/globe.jpg,,,,49,GW/gong.jpg,GW/teeth.jpg,1,0.5531914893617021,,,,GW/gong.jpg,,,,,Two Edge Diff,Four Edge Six Edge,,,,,,,,,
null,,html-keyboard-response,1599289,<p></p>,,,,null,,,,,,,,,,,,,,,,,,,,,,,
1406.199999988079,,shortestpath_phase,1600696,GW/camera.jpg,,,,50,GW/dustpan.jpg,GW/paint.jpg,1,0.5625,,,,GW/paint.jpg,,,,,One Edge Diff,Two Edge Three Edge,,,,,,,,,
null,,html-keyboard-response,1601711,<p></p>,,,,null,,,,,,,,,,,,,,,,,,,,,,,
1968,,shortestpath_phase,1603679,GW/soldier.jpg,,,,50,GW/wheelchair.jpg,GW/teeth.jpg,0,0.5510204081632653,,,,GW/wheelchair.jpg,,,,,Three Edge Diff,Three Edge Six Edge,,,,,,,,,
null,,html-keyboard-response,1604681,<p></p>,,,,null,,,,,,,,,,,,,,,,,,,,,,,
1477.800000011921,,shortestpath_phase,1606159,GW/barrel.jpg,,,,50,GW/wheelchair.jpg,GW/snail.jpg,1,0.56,,,,GW/snail.jpg,,,,,Three Edge Diff,Three Edge Six Edge,,,,,,,,,
null,,html-keyboard-response,1607161,<p></p>,,,,null,,,,,,,,,,,,,,,,,,,,,,,
2838,,shortestpath_phase,1609999,GW/soldier.jpg,,,,49,GW/paint.jpg,GW/barrel.jpg,1,0.5686274509803921,,,,GW/paint.jpg,,,,,One Edge Diff,Four Edge Five Edge,,,,,,,,,
null,,html-keyboard-response,1611001,<p></p>,,,,null,,,,,,,,,,,,,,,,,,,,,,,
2517.9000000059605,,shortestpath_phase,1613519,GW/wheelchair.jpg,,,,49,GW/teeth.jpg,GW/barrel.jpg,0,0.5576923076923077,,,,GW/barrel.jpg,,,,,One Edge Diff,Five Edge Six Edge,,,,,,,,,
null,,html-keyboard-response,1614521,<p></p>,,,,null,,,,,,,,,,,,,,,,,,,,,,,
1813.9000000059605,,shortestpath_phase,1616335,GW/globe.jpg,,,,49,GW/gong.jpg,GW/paint.jpg,1,0.5660377358490566,,,,GW/gong.jpg,,,,,One Edge Diff,Four Edge Five Edge,,,,,,,,,
null,,html-keyboard-response,1617336,<p></p>,,,,null,,,,,,,,,,,,,,,,,,,,,,,
3118.4000000059605,,shortestpath_phase,1620455,GW/paint.jpg,,,,50,GW/camera.jpg,GW/globe.jpg,0,0.5555555555555556,,,,GW/camera.jpg,,,,,Three Edge Diff,Two Edge Five Edge,,,,,,,,,
null,,html-keyboard-response,1621458,<p></p>,,,,null,,,,,,,,,,,,,,,,,,,,,,,
2165.300000011921,,shortestpath_phase,1623623,GW/soldier.jpg,,,,50,GW/snail.jpg,GW/barrel.jpg,0,0.5454545454545454,,,,GW/snail.jpg,,,,,One Edge Diff,Four Edge Five Edge,,,,,,,,,
null,,html-keyboard-response,1624626,<p></p>,,,,null,,,,,,,,,,,,,,,,,,,,,,,
1588.800000011921,,shortestpath_phase,1626215,GW/paint.jpg,,,,49,GW/hat.jpg,GW/globe.jpg,1,0.5535714285714286,,,,GW/hat.jpg,,,,,Two Edge Diff,Three Edge Five Edge,,,,,,,,,
null,,html-keyboard-response,1627223,<p></p>,,,,null,,,,,,,,,,,,,,,,,,,,,,,
1136.0999999940395,,shortestpath_phase,1628359,GW/globe.jpg,,,,50,GW/paint.jpg,GW/camera.jpg,1,0.5614035087719298,,,,GW/camera.jpg,,,,,One Edge Diff,Four Edge Five Edge,,,,,,,,,
null,,html-keyboard-response,1629361,<p></p>,,,,null,,,,,,,,,,,,,,,,,,,,,,,
1838.0999999940395,,shortestpath_phase,1631199,GW/barrel.jpg,,,,49,GW/hat.jpg,GW/gong.jpg,0,0.5517241379310345,,,,GW/gong.jpg,,,,,Two Edge Diff,Two Edge Four Edge,,,,,,,,,
null,,html-keyboard-response,1632201,<p></p>,,,,null,,,,,,,,,,,,,,,,,,,,,,,
2141.9000000059605,,shortestpath_phase,1634343,GW/globe.jpg,,,,50,GW/wheelchair.jpg,GW/gong.jpg,0,0.5423728813559322,,,,GW/wheelchair.jpg,,,,,One Edge Diff,Three Edge Four Edge,,,,,,,,,
null,,html-keyboard-response,1635345,<p></p>,,,,null,,,,,,,,,,,,,,,,,,,,,,,
821.8000000119209,,shortestpath_phase,1636167,GW/snail.jpg,,,,49,GW/gong.jpg,GW/dustpan.jpg,1,0.55,,,,GW/gong.jpg,,,,,Two Edge Diff,Two Edge Four Edge,,,,,,,,,
null,,html-keyboard-response,1637169,<p></p>,,,,null,,,,,,,,,,,,,,,,,,,,,,,
1958.1000000238419,,shortestpath_phase,1639127,GW/wheelchair.jpg,,,,49,GW/jukebox.jpg,GW/snail.jpg,1,0.5573770491803278,,,,GW/jukebox.jpg,,,,,Two Edge Diff,Three Edge Five Edge,,,,,,,,,
null,,html-keyboard-response,1640130,<p></p>,,,,null,,,,,,,,,,,,,,,,,,,,,,,
1572.800000011921,,shortestpath_phase,1641703,GW/globe.jpg,,,,50,GW/paint.jpg,GW/hat.jpg,1,0.5645161290322581,,,,GW/hat.jpg,,,,,Three Edge Diff,Two Edge Five Edge,,,,,,,,,
null,,html-keyboard-response,1642706,<p></p>,,,,null,,,,,,,,,,,,,,,,,,,,,,,
3357.0999999940395,,shortestpath_phase,1646063,GW/wheelchair.jpg,,,,49,GW/teeth.jpg,GW/soldier.jpg,0,0.5555555555555556,,,,GW/soldier.jpg,,,,,Four Edge Diff,Two Edge Six Edge,,,,,,,,,
null,,html-keyboard-response,1647065,<p></p>,,,,null,,,,,,,,,,,,,,,,,,,,,,,
1117.2000000178814,,shortestpath_phase,1648183,GW/jukebox.jpg,,,,50,GW/barrel.jpg,GW/paint.jpg,1,0.5625,,,,GW/paint.jpg,,,,,One Edge Diff,Two Edge Three Edge,,,,,,,,,
null,,html-keyboard-response,1649185,<p></p>,,,,null,,,,,,,,,,,,,,,,,,,,,,,
2005.9000000059605,,shortestpath_phase,1651191,GW/wheelchair.jpg,,,,50,GW/teeth.jpg,GW/hat.jpg,1,0.5692307692307692,,,,GW/hat.jpg,,,,,Four Edge Diff,Two Edge Six Edge,,,,,,,,,
null,,html-keyboard-response,1652193,<p></p>,,,,null,,,,,,,,,,,,,,,,,,,,,,,
1629.800000011921,,shortestpath_phase,1653823,GW/jukebox.jpg,,,,49,GW/teeth.jpg,GW/soldier.jpg,0,0.5606060606060606,,,,GW/soldier.jpg,,,,,One Edge Diff,Two Edge Three Edge,,,,,,,,,
null,,html-keyboard-response,1654825,<p></p>,,,,null,,,,,,,,,,,,,,,,,,,,,,,
1997.5999999940395,,shortestpath_phase,1656824,GW/teeth.jpg,,,,50,GW/globe.jpg,GW/camera.jpg,1,0.5671641791044776,,,,GW/camera.jpg,,,,,Four Edge Diff,Two Edge Six Edge,,,,,,,,,
null,,html-keyboard-response,1657825,<p></p>,,,,null,,,,,,,,,,,,,,,,,,,,,,,
2157.699999988079,,shortestpath_phase,1659983,GW/jukebox.jpg,,,,49,GW/soldier.jpg,GW/wheelchair.jpg,1,0.5735294117647058,,,,GW/soldier.jpg,,,,,One Edge Diff,Two Edge Three Edge,,,,,,,,,
null,,html-keyboard-response,1660995,<p></p>,,,,null,,,,,,,,,,,,,,,,,,,,,,,
2643.7000000178814,,shortestpath_phase,1663639,GW/barrel.jpg,,,,50,GW/hat.jpg,GW/teeth.jpg,1,0.5797101449275363,,,,GW/teeth.jpg,,,,,One Edge Diff,Three Edge Four Edge,,,,,,,,,
null,,html-keyboard-response,1664641,<p></p>,,,,null,,,,,,,,,,,,,,,,,,,,,,,
3726.0999999940395,,shortestpath_phase,1668367,GW/snail.jpg,,,,49,GW/dustpan.jpg,GW/globe.jpg,1,0.5857142857142857,,,,GW/dustpan.jpg,,,,,One Edge Diff,Four Edge Five Edge,,,,,,,,,
null,,html-keyboard-response,1669368,<p></p>,,,,null,,,,,,,,,,,,,,,,,,,,,,,
3046.100000023842,,shortestpath_phase,1672415,GW/teeth.jpg,,,,50,GW/hat.jpg,GW/dustpan.jpg,0,0.5774647887323944,,,,GW/hat.jpg,,,,,One Edge Diff,Four Edge Five Edge,,,,,,,,,
null,,html-keyboard-response,1673431,<p></p>,,,,null,,,,,,,,,,,,,,,,,,,,,,,
2119.699999988079,,shortestpath_phase,1675551,GW/wheelchair.jpg,,,,49,GW/teeth.jpg,GW/basket.jpg,0,0.5694444444444444,,,,GW/basket.jpg,,,,,Four Edge Diff,Two Edge Six Edge,,,,,,,,,
null,,html-keyboard-response,1676553,<p></p>,,,,null,,,,,,,,,,,,,,,,,,,,,,,
1942.2000000178814,,shortestpath_phase,1678495,GW/teeth.jpg,,,,50,GW/camera.jpg,GW/wheelchair.jpg,0,0.5616438356164384,,,,GW/camera.jpg,,,,,Four Edge Diff,Two Edge Six Edge,,,,,,,,,
null,,html-keyboard-response,1679497,<p></p>,,,,null,,,,,,,,,,,,,,,,,,,,,,,
1901.800000011921,,shortestpath_phase,1681399,GW/paint.jpg,,,,50,GW/wheelchair.jpg,GW/basket.jpg,1,0.5675675675675675,,,,GW/basket.jpg,,,,,Two Edge Diff,Two Edge Four Edge,,,,,,,,,
null,,html-keyboard-response,1682401,<p></p>,,,,null,,,,,,,,,,,,,,,,,,,,,,,
1765.7999999821186,,shortestpath_phase,1684167,GW/wheelchair.jpg,,,,49,GW/gong.jpg,GW/snail.jpg,1,0.5733333333333334,,,,GW/gong.jpg,,,,,Two Edge Diff,Three Edge Five Edge,,,,,,,,,
null,,html-keyboard-response,1685170,<p></p>,,,,null,,,,,,,,,,,,,,,,,,,,,,,
3372.5999999940395,,shortestpath_phase,1688543,GW/paint.jpg,,,,49,GW/globe.jpg,GW/jukebox.jpg,0,0.5657894736842105,,,,GW/jukebox.jpg,,,,,Three Edge Diff,Three Edge Six Edge,,,,,,,,,
null,,html-keyboard-response,1689545,<p></p>,,,,null,,,,,,,,,,,,,,,,,,,,,,,
2261.5,,shortestpath_phase,1691807,GW/wheelchair.jpg,,,,49,GW/barrel.jpg,GW/basket.jpg,0,0.5584415584415584,,,,GW/basket.jpg,,,,,Three Edge Diff,Two Edge Five Edge,,,,,,,,,
null,,html-keyboard-response,1692809,<p></p>,,,,null,,,,,,,,,,,,,,,,,,,,,,,
2789.7999999821186,,shortestpath_phase,1695599,GW/dustpan.jpg,,,,50,GW/teeth.jpg,GW/jukebox.jpg,1,0.5641025641025641,,,,GW/jukebox.jpg,,,,,Three Edge Diff,Two Edge Five Edge,,,,,,,,,
null,,html-keyboard-response,1696602,<p></p>,,,,null,,,,,,,,,,,,,,,,,,,,,,,
1844.7999999821186,,shortestpath_phase,1698447,GW/wheelchair.jpg,,,,50,GW/paint.jpg,GW/barrel.jpg,0,0.5569620253164557,,,,GW/paint.jpg,,,,,One Edge Diff,Four Edge Five Edge,,,,,,,,,
null,,html-keyboard-response,1699450,<p></p>,,,,null,,,,,,,,,,,,,,,,,,,,,,,
1988.699999988079,,shortestpath_phase,1701439,GW/dustpan.jpg,,,,49,GW/snail.jpg,GW/globe.jpg,0,0.55,,,,GW/globe.jpg,,,,,Two Edge Diff,Two Edge Four Edge,,,,,,,,,
null,,html-keyboard-response,1702441,<p></p>,,,,null,,,,,,,,,,,,,,,,,,,,,,,
2509.5999999940395,,shortestpath_phase,1704951,GW/wheelchair.jpg,,,,50,GW/barrel.jpg,GW/jukebox.jpg,1,0.5555555555555556,,,,GW/jukebox.jpg,,,,,Two Edge Diff,Three Edge Five Edge,,,,,,,,,
null,,html-keyboard-response,1705952,<p></p>,,,,null,,,,,,,,,,,,,,,,,,,,,,,
1630.300000011921,,shortestpath_phase,1707583,GW/soldier.jpg,,,,49,GW/snail.jpg,GW/teeth.jpg,1,0.5609756097560976,,,,GW/snail.jpg,,,,,One Edge Diff,Four Edge Five Edge,,,,,,,,,
null,,html-keyboard-response,1708585,<p></p>,,,,null,,,,,,,,,,,,,,,,,,,,,,,
2941.7999999821186,,shortestpath_phase,1711527,GW/wheelchair.jpg,,,,49,GW/paint.jpg,GW/snail.jpg,1,0.5662650602409639,,,,GW/paint.jpg,,,,,One Edge Diff,Four Edge Five Edge,,,,,,,,,
null,,html-keyboard-response,1712529,<p></p>,,,,null,,,,,,,,,,,,,,,,,,,,,,,
2565,,shortestpath_phase,1715095,GW/camera.jpg,,,,49,GW/gong.jpg,GW/wheelchair.jpg,1,0.5714285714285714,,,,GW/gong.jpg,,,,,Two Edge Diff,Two Edge Four Edge,,,,,,,,,
null,,html-keyboard-response,1716097,<p></p>,,,,null,,,,,,,,,,,,,,,,,,,,,,,
1509,,shortestpath_phase,1717607,GW/barrel.jpg,,,,49,GW/globe.jpg,GW/wheelchair.jpg,0,0.5647058823529412,,,,GW/wheelchair.jpg,,,,,One Edge Diff,Five Edge Six Edge,,,,,,,,,
null,,html-keyboard-response,1718609,<p></p>,,,,null,,,,,,,,,,,,,,,,,,,,,,,
1421.7999999821186,,shortestpath_phase,1720031,GW/snail.jpg,,,,49,GW/soldier.jpg,GW/basket.jpg,0,0.5581395348837209,,,,GW/basket.jpg,,,,,One Edge Diff,Three Edge Four Edge,,,,,,,,,
null,,html-keyboard-response,1721033,<p></p>,,,,null,,,,,,,,,,,,,,,,,,,,,,,
2037.5,,shortestpath_phase,1723071,GW/wheelchair.jpg,,,,50,GW/globe.jpg,GW/barrel.jpg,0,0.5517241379310345,,,,GW/globe.jpg,,,,,Two Edge Diff,Three Edge Five Edge,,,,,,,,,
null,,html-keyboard-response,1724073,<p></p>,,,,null,,,,,,,,,,,,,,,,,,,,,,,
1653,,shortestpath_phase,1725727,GW/barrel.jpg,,,,50,GW/camera.jpg,GW/hat.jpg,0,0.5454545454545454,,,,GW/camera.jpg,,,,,One Edge Diff,Three Edge Four Edge,,,,,,,,,
null,,html-keyboard-response,1726728,<p></p>,,,,null,,,,,,,,,,,,,,,,,,,,,,,
1678,,shortestpath_phase,1728407,GW/soldier.jpg,,,,49,GW/barrel.jpg,GW/wheelchair.jpg,0,0.5393258426966292,,,,GW/wheelchair.jpg,,,,,Three Edge Diff,Three Edge Six Edge,,,,,,,,,
null,,html-keyboard-response,1729408,<p></p>,,,,null,,,,,,,,,,,,,,,,,,,,,,,
2078.0999999940395,,shortestpath_phase,1731487,GW/paint.jpg,,,,50,GW/dustpan.jpg,GW/teeth.jpg,1,0.5444444444444444,,,,GW/teeth.jpg,,,,,One Edge Diff,Two Edge Three Edge,,,,,,,,,
null,,html-keyboard-response,1732489,<p></p>,,,,null,,,,,,,,,,,,,,,,,,,,,,,
1045,,shortestpath_phase,1733535,GW/globe.jpg,,,,50,GW/wheelchair.jpg,GW/paint.jpg,0,0.5384615384615384,,,,GW/wheelchair.jpg,,,,,Two Edge Diff,Three Edge Five Edge,,,,,,,,,
null,,html-keyboard-response,1734537,<p></p>,,,,null,,,,,,,,,,,,,,,,,,,,,,,
1957.4000000059605,,shortestpath_phase,1736495,GW/barrel.jpg,,,,49,GW/teeth.jpg,GW/dustpan.jpg,1,0.5434782608695652,,,,GW/teeth.jpg,,,,,One Edge Diff,Three Edge Four Edge,,,,,,,,,
null,,html-keyboard-response,1737496,<p></p>,,,,null,,,,,,,,,,,,,,,,,,,,,,,
