rt,responses,trial_type,time_elapsed,sequence,stimulus,graphorder,button_pressed,response,key_press,stimulus_left,stimulus_right,accuracy,cumulative_accuracy,stimulus_down_left,stimulus_down_mid,stimulus_down_right,stimulus_correct,stimulus_short,stimulus_far,weighted_accuracy,missedtrial,condition,specific_pairs,imgL_ID,imgR_ID,linedress,linedressed,detour_trial,linedressed_detor,problems,smooth,distraction,strategies,easier,similar,comments
5895.5,{worker_id:65b92135e296f28cb1a093c3},id_enter,5896,blocked,replication,GW/boulder.png; GW/leesburg.png; GW/newhope.png; GW/hotsprings.png; GW/carmel.png; GW/cornwall.png; GW/racine.png; GW/shreveport.png; GW/peoria.png; GW/hanover.png; GW/huntsville.png; GW/gatlinburg.png; GW/westpalmbeach.png,,,,,,,,,,,,,,,,,,,,,,,,,,,,,,
11925.800000011921,,fullscreen,17826,,fullscreen,,0,,,,,,,,,,,,,,,,,,,,,,,,,,,,,
12240.100000023842,,intro_1,30067,,instruct,,0,,,,,,,,,,,,,,,,,,,,,,,,,,,,,
17033.400000035763,,intro_2,47102,,instruct,,1,Next,,,,,,,,,,,,,,,,,,,,,,,,,,,,
10112.400000035763,,intro_3,57215,,instruct,,1,Next,,,,,,,,,,,,,,,,,,,,,,,,,,,,
null,,learn_prac_1,60217,,lean_prac_1,,,,null,,,,,,,,,,,,,,,,,,,,,,,,,,,
null,,html-keyboard-response,61219,,<p></p>,,,,null,,,,,,,,,,,,,,,,,,,,,,,,,,,
6508.699999988079,,intro_1,67729,,instruct,,0,,,,,,,,,,,,,,,,,,,,,,,,,,,,,
4927.900000035763,,intro_2,72658,,instruct,,1,Next,,,,,,,,,,,,,,,,,,,,,,,,,,,,
null,,learn_prac_2,75660,,lean_prac_2,,,,null,,,,,,,,,,,,,,,,,,,,,,,,,,,
null,,html-keyboard-response,76661,,<p></p>,,,,null,,,,,,,,,,,,,,,,,,,,,,,,,,,
4172.899999976158,,intro_1,80835,,instruct,,0,,,,,,,,,,,,,,,,,,,,,,,,,,,,,
4263.400000035763,,intro_2,85100,,instruct,,1,Next,,,,,,,,,,,,,,,,,,,,,,,,,,,,
63873.10000002384,,intro_3,148974,,instruct,,1,Next,,,,,,,,,,,,,,,,,,,,,,,,,,,,
null,,prac_atten_color_black,149622,,black_plus_sign,,,,null,,,,,,,,,,,,,,,,,,,,,,,,,,,
null,,prac_atten_color,150387,,prac_stop_color,,,,null,,,,,,,,,,,,,,,,,,,,,,,,,,,
1667.800000011921,,prac_atten_color_black,152388,,black_plus_sign,,,,49,,,,,,,,,,,,,,,,,,,,,,,,,,,
null,,prac_atten_color_black,153029,,black_plus_sign,,,,null,,,,,,,,,,,,,,,,,,,,,,,,,,,
null,,prac_atten_color,153505,,prac_stop_color,,,,null,,,,,,,,,,,,,,,,,,,,,,,,,,,
1021.3000000119209,,prac_atten_color_black,155507,,black_plus_sign,,,,50,,,,,,,,,,,,,,,,,,,,,,,,,,,
null,,prac_atten_color_black,156435,,black_plus_sign,,,,null,,,,,,,,,,,,,,,,,,,,,,,,,,,
596.1000000238419,,prac_atten_color,157478,,prac_stop_color,,,,50,,,,,,,,,,,,,,,,,,,,,,,,,,,
null,,prac_atten_color_black,159480,,black_plus_sign,,,,null,,,,,,,,,,,,,,,,,,,,,,,,,,,
null,,prac_atten_color_black,159840,,black_plus_sign,,,,null,,,,,,,,,,,,,,,,,,,,,,,,,,,
431.89999997615814,,prac_atten_color,160488,,prac_stop_color,,,,49,,,,,,,,,,,,,,,,,,,,,,,,,,,
null,,prac_atten_color_black,162490,,black_plus_sign,,,,null,,,,,,,,,,,,,,,,,,,,,,,,,,,
null,,prac_atten_color_black,163246,,black_plus_sign,,,,null,,,,,,,,,,,,,,,,,,,,,,,,,,,
490,,prac_atten_color,163948,,prac_stop_color,,,,50,,,,,,,,,,,,,,,,,,,,,,,,,,,
null,,prac_atten_color_black,165951,,black_plus_sign,,,,null,,,,,,,,,,,,,,,,,,,,,,,,,,,
null,,prac_atten_color_black,166651,,black_plus_sign,,,,null,,,,,,,,,,,,,,,,,,,,,,,,,,,
453,,prac_atten_color,167715,,prac_stop_color,,,,50,,,,,,,,,,,,,,,,,,,,,,,,,,,
null,,prac_atten_color_black,169716,,black_plus_sign,,,,null,,,,,,,,,,,,,,,,,,,,,,,,,,,
null,,prac_atten_color_black,170054,,black_plus_sign,,,,null,,,,,,,,,,,,,,,,,,,,,,,,,,,
610.6999999880791,,prac_atten_color,170927,,prac_stop_color,,,,49,,,,,,,,,,,,,,,,,,,,,,,,,,,
null,,prac_atten_color_black,172928,,black_plus_sign,,,,null,,,,,,,,,,,,,,,,,,,,,,,,,,,
null,,prac_atten_color_black,173458,,black_plus_sign,,,,null,,,,,,,,,,,,,,,,,,,,,,,,,,,
639.5,,prac_atten_color,174369,,prac_stop_color,,,,50,,,,,,,,,,,,,,,,,,,,,,,,,,,
null,,prac_atten_color_black,176370,,black_plus_sign,,,,null,,,,,,,,,,,,,,,,,,,,,,,,,,,
null,,prac_atten_color_black,176863,,black_plus_sign,,,,null,,,,,,,,,,,,,,,,,,,,,,,,,,,
804.3000000119209,,prac_atten_color,177927,,prac_stop_color,,,,49,,,,,,,,,,,,,,,,,,,,,,,,,,,
null,,prac_atten_color_black,179929,,black_plus_sign,,,,null,,,,,,,,,,,,,,,,,,,,,,,,,,,
null,,prac_atten_color_black,180269,,black_plus_sign,,,,null,,,,,,,,,,,,,,,,,,,,,,,,,,,
null,,prac_atten_color,180778,,prac_stop_color,,,,null,,,,,,,,,,,,,,,,,,,,,,,,,,,
146.30000001192093,,prac_atten_color_black,182779,,black_plus_sign,,,,49,,,,,,,,,,,,,,,,,,,,,,,,,,,
10137.199999988079,,attentioncheck_feedback,192918,,cross_check_feedback,,0,,,,,,,,,,,,,,,,,,,,,,,,,,,,,
16690.69999998808,,last_instruct,209609,,instruct,,,,32,,,,,,,,,,,,,,,,,,,,,,,,,,,
null,,learn_phase(without_color),212610,,black_plus_sign,,,,null,GW/racine.png,GW/peoria.png,,,,,,,,,,,,,,,,,,,,,,,,,
null,,black_cross(without_color),213251,,blue,,,,null,GW/racine.png,GW/peoria.png,,,,,,,,,,,,,,,,,,,,,,,,,
null,,rt_plussign_withcolor,213753,,blue,,,,null,GW/racine.png,GW/peoria.png,,,,,,,,,,,,,,,,,,,,,,,,,
1090.1000000238419,,rt_thecrossant_black,215115,,black_plus_sign,,,,49,,,1,1,,,,,,,,,,,,,,,,,,,,,,,
null,,color_black,215218,,black_plus_sign,,,,null,,,,,,,,,,,,,,,,,,,,,,,,,,,
null,,learn_phase(without_color),218220,,black_plus_sign,,,,null,GW/hanover.png,GW/shreveport.png,,,,,,,,,,,,,,,,,,,,,,,,,
null,,black_cross(without_color),218802,,yellow,,,,null,GW/hanover.png,GW/shreveport.png,,,,,,,,,,,,,,,,,,,,,,,,,
479,,rt_plussign_withcolor,219304,,yellow,,,,50,GW/hanover.png,GW/shreveport.png,,,,,,,,,,,,,,,,,,,,,,,,,
null,,rt_thecrossant_black,220724,,black_plus_sign,,,,null,,,1,1,,,,,,,,,,,,,,,,,,,,,,,
null,,color_black,220826,,black_plus_sign,,,,null,,,,,,,,,,,,,,,,,,,,,,,,,,,
null,,learn_phase(without_color),223828,,black_plus_sign,,,,null,GW/gatlinburg.png,GW/hotsprings.png,,,,,,,,,,,,,,,,,,,,,,,,,
null,,black_cross(without_color),224847,,blue,,,,null,GW/gatlinburg.png,GW/hotsprings.png,,,,,,,,,,,,,,,,,,,,,,,,,
null,,rt_plussign_withcolor,225348,,blue,,,,null,GW/gatlinburg.png,GW/hotsprings.png,,,,,,,,,,,,,,,,,,,,,,,,,
831,,rt_thecrossant_black,226332,,black_plus_sign,,,,49,,,1,1,,,,,,,,,,,,,,,,,,,,,,,
null,,color_black,226433,,black_plus_sign,,,,null,,,,,,,,,,,,,,,,,,,,,,,,,,,
null,,learn_phase(without_color),229435,,black_plus_sign,,,,null,GW/peoria.png,GW/racine.png,,,,,,,,,,,,,,,,,,,,,,,,,
null,,black_cross(without_color),230288,,blue,,,,null,GW/peoria.png,GW/racine.png,,,,,,,,,,,,,,,,,,,,,,,,,
null,,rt_plussign_withcolor,230790,,blue,,,,null,GW/peoria.png,GW/racine.png,,,,,,,,,,,,,,,,,,,,,,,,,
1490.800000011921,,rt_thecrossant_black,231952,,black_plus_sign,,,,49,,,1,1,,,,,,,,,,,,,,,,,,,,,,,
null,,color_black,232055,,black_plus_sign,,,,null,,,,,,,,,,,,,,,,,,,,,,,,,,,
null,,learn_phase(without_color),235056,,black_plus_sign,,,,null,GW/huntsville.png,GW/newhope.png,,,,,,,,,,,,,,,,,,,,,,,,,
null,,black_cross(without_color),235708,,blue,,,,null,GW/huntsville.png,GW/newhope.png,,,,,,,,,,,,,,,,,,,,,,,,,
null,,rt_plussign_withcolor,236210,,blue,,,,null,GW/huntsville.png,GW/newhope.png,,,,,,,,,,,,,,,,,,,,,,,,,
1149.8999999761581,,rt_thecrossant_black,237561,,black_plus_sign,,,,49,,,1,1,,,,,,,,,,,,,,,,,,,,,,,
null,,color_black,237673,,black_plus_sign,,,,null,,,,,,,,,,,,,,,,,,,,,,,,,,,
null,,learn_phase(without_color),240675,,black_plus_sign,,,,null,GW/hanover.png,GW/shreveport.png,,,,,,,,,,,,,,,,,,,,,,,,,
null,,black_cross(without_color),241351,,blue,,,,null,GW/hanover.png,GW/shreveport.png,,,,,,,,,,,,,,,,,,,,,,,,,
null,,rt_plussign_withcolor,241864,,blue,,,,null,GW/hanover.png,GW/shreveport.png,,,,,,,,,,,,,,,,,,,,,,,,,
971,,rt_thecrossant_black,243204,,black_plus_sign,,,,49,,,1,1,,,,,,,,,,,,,,,,,,,,,,,
null,,color_black,243306,,black_plus_sign,,,,null,,,,,,,,,,,,,,,,,,,,,,,,,,,
null,,learn_phase(without_color),246308,,black_plus_sign,,,,null,GW/gatlinburg.png,GW/hotsprings.png,,,,,,,,,,,,,,,,,,,,,,,,,
null,,black_cross(without_color),246741,,blue,,,,null,GW/gatlinburg.png,GW/hotsprings.png,,,,,,,,,,,,,,,,,,,,,,,,,
null,,rt_plussign_withcolor,247243,,blue,,,,null,GW/gatlinburg.png,GW/hotsprings.png,,,,,,,,,,,,,,,,,,,,,,,,,
1036.7000000476837,,rt_thecrossant_black,248818,,black_plus_sign,,,,49,,,1,1,,,,,,,,,,,,,,,,,,,,,,,
null,,color_black,248920,,black_plus_sign,,,,null,,,,,,,,,,,,,,,,,,,,,,,,,,,
null,,learn_phase(without_color),251922,,black_plus_sign,,,,null,GW/newhope.png,GW/huntsville.png,,,,,,,,,,,,,,,,,,,,,,,,,
null,,black_cross(without_color),252798,,yellow,,,,null,GW/newhope.png,GW/huntsville.png,,,,,,,,,,,,,,,,,,,,,,,,,
null,,rt_plussign_withcolor,253300,,yellow,,,,null,GW/newhope.png,GW/huntsville.png,,,,,,,,,,,,,,,,,,,,,,,,,
1546.199999988079,,rt_thecrossant_black,254427,,black_plus_sign,,,,50,,,1,1,,,,,,,,,,,,,,,,,,,,,,,
null,,color_black,254529,,black_plus_sign,,,,null,,,,,,,,,,,,,,,,,,,,,,,,,,,
null,,learn_phase(without_color),257531,,black_plus_sign,,,,null,GW/racine.png,GW/peoria.png,,,,,,,,,,,,,,,,,,,,,,,,,
null,,black_cross(without_color),258379,,yellow,,,,null,GW/racine.png,GW/peoria.png,,,,,,,,,,,,,,,,,,,,,,,,,
null,,rt_plussign_withcolor,258882,,yellow,,,,null,GW/racine.png,GW/peoria.png,,,,,,,,,,,,,,,,,,,,,,,,,
1155.5,,rt_thecrossant_black,260038,,black_plus_sign,,,,50,,,1,1,,,,,,,,,,,,,,,,,,,,,,,
null,,color_black,260140,,black_plus_sign,,,,null,,,,,,,,,,,,,,,,,,,,,,,,,,,
null,,learn_phase(without_color),263142,,black_plus_sign,,,,null,GW/hotsprings.png,GW/gatlinburg.png,,,,,,,,,,,,,,,,,,,,,,,,,
null,,black_cross(without_color),264077,,blue,,,,null,GW/hotsprings.png,GW/gatlinburg.png,,,,,,,,,,,,,,,,,,,,,,,,,
null,,rt_plussign_withcolor,264578,,blue,,,,null,GW/hotsprings.png,GW/gatlinburg.png,,,,,,,,,,,,,,,,,,,,,,,,,
1127.800000011921,,rt_thecrossant_black,265654,,black_plus_sign,,,,49,,,1,1,,,,,,,,,,,,,,,,,,,,,,,
null,,color_black,265756,,black_plus_sign,,,,null,,,,,,,,,,,,,,,,,,,,,,,,,,,
null,,learn_phase(without_color),268758,,black_plus_sign,,,,null,GW/huntsville.png,GW/newhope.png,,,,,,,,,,,,,,,,,,,,,,,,,
null,,black_cross(without_color),269807,,yellow,,,,null,GW/huntsville.png,GW/newhope.png,,,,,,,,,,,,,,,,,,,,,,,,,
null,,rt_plussign_withcolor,270309,,yellow,,,,null,GW/huntsville.png,GW/newhope.png,,,,,,,,,,,,,,,,,,,,,,,,,
1245.5,,rt_thecrossant_black,271263,,black_plus_sign,,,,50,,,1,1,,,,,,,,,,,,,,,,,,,,,,,
null,,color_black,271365,,black_plus_sign,,,,null,,,,,,,,,,,,,,,,,,,,,,,,,,,
null,,learn_phase(without_color),274367,,black_plus_sign,,,,null,GW/racine.png,GW/peoria.png,,,,,,,,,,,,,,,,,,,,,,,,,
null,,black_cross(without_color),274836,,blue,,,,null,GW/racine.png,GW/peoria.png,,,,,,,,,,,,,,,,,,,,,,,,,
null,,rt_plussign_withcolor,275337,,blue,,,,null,GW/racine.png,GW/peoria.png,,,,,,,,,,,,,,,,,,,,,,,,,
1418.699999988079,,rt_thecrossant_black,276871,,black_plus_sign,,,,49,,,1,1,,,,,,,,,,,,,,,,,,,,,,,
null,,color_black,276976,,black_plus_sign,,,,null,,,,,,,,,,,,,,,,,,,,,,,,,,,
null,,learn_phase(without_color),279977,,black_plus_sign,,,,null,GW/gatlinburg.png,GW/hotsprings.png,,,,,,,,,,,,,,,,,,,,,,,,,
null,,black_cross(without_color),280635,,yellow,,,,null,GW/gatlinburg.png,GW/hotsprings.png,,,,,,,,,,,,,,,,,,,,,,,,,
null,,rt_plussign_withcolor,281138,,yellow,,,,null,GW/gatlinburg.png,GW/hotsprings.png,,,,,,,,,,,,,,,,,,,,,,,,,
792.4000000357628,,rt_thecrossant_black,282483,,black_plus_sign,,,,50,,,1,1,,,,,,,,,,,,,,,,,,,,,,,
null,,color_black,282584,,black_plus_sign,,,,null,,,,,,,,,,,,,,,,,,,,,,,,,,,
null,,learn_phase(without_color),285586,,black_plus_sign,,,,null,GW/peoria.png,GW/racine.png,,,,,,,,,,,,,,,,,,,,,,,,,
null,,black_cross(without_color),286500,,blue,,,,null,GW/peoria.png,GW/racine.png,,,,,,,,,,,,,,,,,,,,,,,,,
null,,rt_plussign_withcolor,287001,,blue,,,,null,GW/peoria.png,GW/racine.png,,,,,,,,,,,,,,,,,,,,,,,,,
1095.699999988079,,rt_thecrossant_black,288090,,black_plus_sign,,,,49,,,1,1,,,,,,,,,,,,,,,,,,,,,,,
null,,color_black,288202,,black_plus_sign,,,,null,,,,,,,,,,,,,,,,,,,,,,,,,,,
null,,learn_phase(without_color),291204,,black_plus_sign,,,,null,GW/huntsville.png,GW/newhope.png,,,,,,,,,,,,,,,,,,,,,,,,,
null,,black_cross(without_color),291878,,blue,,,,null,GW/huntsville.png,GW/newhope.png,,,,,,,,,,,,,,,,,,,,,,,,,
null,,rt_plussign_withcolor,292379,,blue,,,,null,GW/huntsville.png,GW/newhope.png,,,,,,,,,,,,,,,,,,,,,,,,,
1645.699999988079,,rt_thecrossant_black,293708,,black_plus_sign,,,,49,,,1,1,,,,,,,,,,,,,,,,,,,,,,,
null,,color_black,293810,,black_plus_sign,,,,null,,,,,,,,,,,,,,,,,,,,,,,,,,,
null,,learn_phase(without_color),296812,,black_plus_sign,,,,null,GW/shreveport.png,GW/hanover.png,,,,,,,,,,,,,,,,,,,,,,,,,
null,,black_cross(without_color),297810,,blue,,,,null,GW/shreveport.png,GW/hanover.png,,,,,,,,,,,,,,,,,,,,,,,,,
null,,rt_plussign_withcolor,298312,,blue,,,,null,GW/shreveport.png,GW/hanover.png,,,,,,,,,,,,,,,,,,,,,,,,,
1018.5,,rt_thecrossant_black,299317,,black_plus_sign,,,,49,,,1,1,,,,,,,,,,,,,,,,,,,,,,,
null,,color_black,299420,,black_plus_sign,,,,null,,,,,,,,,,,,,,,,,,,,,,,,,,,
null,,learn_phase(without_color),302422,,black_plus_sign,,,,null,GW/peoria.png,GW/racine.png,,,,,,,,,,,,,,,,,,,,,,,,,
null,,black_cross(without_color),303165,,yellow,,,,null,GW/peoria.png,GW/racine.png,,,,,,,,,,,,,,,,,,,,,,,,,
null,,rt_plussign_withcolor,303667,,yellow,,,,null,GW/peoria.png,GW/racine.png,,,,,,,,,,,,,,,,,,,,,,,,,
1292.4000000357628,,rt_thecrossant_black,304928,,black_plus_sign,,,,50,,,1,1,,,,,,,,,,,,,,,,,,,,,,,
null,,color_black,305029,,black_plus_sign,,,,null,,,,,,,,,,,,,,,,,,,,,,,,,,,
null,,learn_phase(without_color),308032,,black_plus_sign,,,,null,GW/shreveport.png,GW/hanover.png,,,,,,,,,,,,,,,,,,,,,,,,,
null,,black_cross(without_color),308895,,blue,,,,null,GW/shreveport.png,GW/hanover.png,,,,,,,,,,,,,,,,,,,,,,,,,
null,,rt_plussign_withcolor,309396,,blue,,,,null,GW/shreveport.png,GW/hanover.png,,,,,,,,,,,,,,,,,,,,,,,,,
972.0999999642372,,rt_thecrossant_black,310538,,black_plus_sign,,,,49,,,1,1,,,,,,,,,,,,,,,,,,,,,,,
null,,color_black,310641,,black_plus_sign,,,,null,,,,,,,,,,,,,,,,,,,,,,,,,,,
null,,learn_phase(without_color),313650,,black_plus_sign,,,,null,GW/huntsville.png,GW/newhope.png,,,,,,,,,,,,,,,,,,,,,,,,,
null,,black_cross(without_color),314098,,yellow,,,,null,GW/huntsville.png,GW/newhope.png,,,,,,,,,,,,,,,,,,,,,,,,,
null,,rt_plussign_withcolor,314606,,yellow,,,,null,GW/huntsville.png,GW/newhope.png,,,,,,,,,,,,,,,,,,,,,,,,,
1251,,rt_thecrossant_black,316162,,black_plus_sign,,,,50,,,1,1,,,,,,,,,,,,,,,,,,,,,,,
null,,color_black,316264,,black_plus_sign,,,,null,,,,,,,,,,,,,,,,,,,,,,,,,,,
null,,learn_phase(without_color),319266,,black_plus_sign,,,,null,GW/racine.png,GW/peoria.png,,,,,,,,,,,,,,,,,,,,,,,,,
null,,black_cross(without_color),320294,,blue,,,,null,GW/racine.png,GW/peoria.png,,,,,,,,,,,,,,,,,,,,,,,,,
null,,rt_plussign_withcolor,320796,,blue,,,,null,GW/racine.png,GW/peoria.png,,,,,,,,,,,,,,,,,,,,,,,,,
798.3000000119209,,rt_thecrossant_black,321773,,black_plus_sign,,,,49,,,1,1,,,,,,,,,,,,,,,,,,,,,,,
null,,color_black,321875,,black_plus_sign,,,,null,,,,,,,,,,,,,,,,,,,,,,,,,,,
null,,learn_phase(without_color),324876,,black_plus_sign,,,,null,GW/hotsprings.png,GW/gatlinburg.png,,,,,,,,,,,,,,,,,,,,,,,,,
null,,black_cross(without_color),325372,,blue,,,,null,GW/hotsprings.png,GW/gatlinburg.png,,,,,,,,,,,,,,,,,,,,,,,,,
null,,rt_plussign_withcolor,325874,,blue,,,,null,GW/hotsprings.png,GW/gatlinburg.png,,,,,,,,,,,,,,,,,,,,,,,,,
1390.199999988079,,rt_thecrossant_black,327381,,black_plus_sign,,,,49,,,1,1,,,,,,,,,,,,,,,,,,,,,,,
null,,color_black,327496,,black_plus_sign,,,,null,,,,,,,,,,,,,,,,,,,,,,,,,,,
null,,learn_phase(without_color),330497,,black_plus_sign,,,,null,GW/huntsville.png,GW/newhope.png,,,,,,,,,,,,,,,,,,,,,,,,,
null,,black_cross(without_color),331304,,yellow,,,,null,GW/huntsville.png,GW/newhope.png,,,,,,,,,,,,,,,,,,,,,,,,,
null,,rt_plussign_withcolor,331806,,yellow,,,,null,GW/huntsville.png,GW/newhope.png,,,,,,,,,,,,,,,,,,,,,,,,,
774.5999999642372,,rt_thecrossant_black,333002,,black_plus_sign,,,,50,,,1,1,,,,,,,,,,,,,,,,,,,,,,,
null,,color_black,333104,,black_plus_sign,,,,null,,,,,,,,,,,,,,,,,,,,,,,,,,,
null,,learn_phase(without_color),336106,,black_plus_sign,,,,null,GW/racine.png,GW/peoria.png,,,,,,,,,,,,,,,,,,,,,,,,,
null,,black_cross(without_color),336551,,yellow,,,,null,GW/racine.png,GW/peoria.png,,,,,,,,,,,,,,,,,,,,,,,,,
null,,rt_plussign_withcolor,337053,,yellow,,,,null,GW/racine.png,GW/peoria.png,,,,,,,,,,,,,,,,,,,,,,,,,
1281,,rt_thecrossant_black,338613,,black_plus_sign,,,,50,,,1,1,,,,,,,,,,,,,,,,,,,,,,,
null,,color_black,338714,,black_plus_sign,,,,null,,,,,,,,,,,,,,,,,,,,,,,,,,,
null,,learn_phase(without_color),341716,,black_plus_sign,,,,null,GW/shreveport.png,GW/hanover.png,,,,,,,,,,,,,,,,,,,,,,,,,
null,,black_cross(without_color),342691,,yellow,,,,null,GW/shreveport.png,GW/hanover.png,,,,,,,,,,,,,,,,,,,,,,,,,
null,,rt_plussign_withcolor,343193,,yellow,,,,null,GW/shreveport.png,GW/hanover.png,,,,,,,,,,,,,,,,,,,,,,,,,
745.1000000238419,,rt_thecrossant_black,344222,,black_plus_sign,,,,50,,,1,1,,,,,,,,,,,,,,,,,,,,,,,
null,,color_black,344324,,black_plus_sign,,,,null,,,,,,,,,,,,,,,,,,,,,,,,,,,
null,,learn_phase(without_color),347326,,black_plus_sign,,,,null,GW/newhope.png,GW/huntsville.png,,,,,,,,,,,,,,,,,,,,,,,,,
null,,black_cross(without_color),348403,,yellow,,,,null,GW/newhope.png,GW/huntsville.png,,,,,,,,,,,,,,,,,,,,,,,,,
null,,rt_plussign_withcolor,348905,,yellow,,,,null,GW/newhope.png,GW/huntsville.png,,,,,,,,,,,,,,,,,,,,,,,,,
1511.5,,rt_thecrossant_black,349831,,black_plus_sign,,,,50,,,1,1,,,,,,,,,,,,,,,,,,,,,,,
null,,color_black,349934,,black_plus_sign,,,,null,,,,,,,,,,,,,,,,,,,,,,,,,,,
null,,learn_phase(without_color),352935,,black_plus_sign,,,,null,GW/hotsprings.png,GW/gatlinburg.png,,,,,,,,,,,,,,,,,,,,,,,,,
null,,black_cross(without_color),353962,,yellow,,,,null,GW/hotsprings.png,GW/gatlinburg.png,,,,,,,,,,,,,,,,,,,,,,,,,
null,,rt_plussign_withcolor,354465,,yellow,,,,null,GW/hotsprings.png,GW/gatlinburg.png,,,,,,,,,,,,,,,,,,,,,,,,,
1294.199999988079,,rt_thecrossant_black,355441,,black_plus_sign,,,,50,,,1,1,,,,,,,,,,,,,,,,,,,,,,,
null,,color_black,355557,,black_plus_sign,,,,null,,,,,,,,,,,,,,,,,,,,,,,,,,,
null,,learn_phase(without_color),358560,,black_plus_sign,,,,null,GW/hanover.png,GW/shreveport.png,,,,,,,,,,,,,,,,,,,,,,,,,
null,,black_cross(without_color),359137,,blue,,,,null,GW/hanover.png,GW/shreveport.png,,,,,,,,,,,,,,,,,,,,,,,,,
null,,rt_plussign_withcolor,359653,,blue,,,,null,GW/hanover.png,GW/shreveport.png,,,,,,,,,,,,,,,,,,,,,,,,,
1545.2999999523163,,rt_thecrossant_black,361080,,black_plus_sign,,,,49,,,1,1,,,,,,,,,,,,,,,,,,,,,,,
null,,color_black,361181,,black_plus_sign,,,,null,,,,,,,,,,,,,,,,,,,,,,,,,,,
null,,learn_phase(without_color),364184,,black_plus_sign,,,,null,GW/huntsville.png,GW/newhope.png,,,,,,,,,,,,,,,,,,,,,,,,,
null,,black_cross(without_color),364780,,yellow,,,,null,GW/huntsville.png,GW/newhope.png,,,,,,,,,,,,,,,,,,,,,,,,,
null,,rt_plussign_withcolor,365282,,yellow,,,,null,GW/huntsville.png,GW/newhope.png,,,,,,,,,,,,,,,,,,,,,,,,,
1561.9000000357628,,rt_thecrossant_black,366690,,black_plus_sign,,,,50,,,1,1,,,,,,,,,,,,,,,,,,,,,,,
null,,color_black,366799,,black_plus_sign,,,,null,,,,,,,,,,,,,,,,,,,,,,,,,,,
null,,learn_phase(without_color),369800,,black_plus_sign,,,,null,GW/hanover.png,GW/shreveport.png,,,,,,,,,,,,,,,,,,,,,,,,,
null,,black_cross(without_color),370592,,blue,,,,null,GW/hanover.png,GW/shreveport.png,,,,,,,,,,,,,,,,,,,,,,,,,
null,,rt_plussign_withcolor,371094,,blue,,,,null,GW/hanover.png,GW/shreveport.png,,,,,,,,,,,,,,,,,,,,,,,,,
1185.4000000357628,,rt_thecrossant_black,372304,,black_plus_sign,,,,49,,,1,1,,,,,,,,,,,,,,,,,,,,,,,
null,,color_black,372406,,black_plus_sign,,,,null,,,,,,,,,,,,,,,,,,,,,,,,,,,
null,,learn_phase(without_color),375408,,black_plus_sign,,,,null,GW/hotsprings.png,GW/gatlinburg.png,,,,,,,,,,,,,,,,,,,,,,,,,
null,,black_cross(without_color),376336,,blue,,,,null,GW/hotsprings.png,GW/gatlinburg.png,,,,,,,,,,,,,,,,,,,,,,,,,
null,,rt_plussign_withcolor,376842,,blue,,,,null,GW/hotsprings.png,GW/gatlinburg.png,,,,,,,,,,,,,,,,,,,,,,,,,
970.6999999880791,,rt_thecrossant_black,377917,,black_plus_sign,,,,49,,,1,1,,,,,,,,,,,,,,,,,,,,,,,
null,,color_black,378019,,black_plus_sign,,,,null,,,,,,,,,,,,,,,,,,,,,,,,,,,
null,,learn_phase(without_color),381021,,black_plus_sign,,,,null,GW/gatlinburg.png,GW/hotsprings.png,,,,,,,,,,,,,,,,,,,,,,,,,
null,,black_cross(without_color),381772,,yellow,,,,null,GW/gatlinburg.png,GW/hotsprings.png,,,,,,,,,,,,,,,,,,,,,,,,,
null,,rt_plussign_withcolor,382274,,yellow,,,,null,GW/gatlinburg.png,GW/hotsprings.png,,,,,,,,,,,,,,,,,,,,,,,,,
1310,,rt_thecrossant_black,383533,,black_plus_sign,,,,50,,,1,1,,,,,,,,,,,,,,,,,,,,,,,
null,,color_black,383635,,black_plus_sign,,,,null,,,,,,,,,,,,,,,,,,,,,,,,,,,
null,,learn_phase(without_color),386637,,black_plus_sign,,,,null,GW/shreveport.png,GW/hanover.png,,,,,,,,,,,,,,,,,,,,,,,,,
null,,black_cross(without_color),387616,,yellow,,,,null,GW/shreveport.png,GW/hanover.png,,,,,,,,,,,,,,,,,,,,,,,,,
null,,rt_plussign_withcolor,388117,,yellow,,,,null,GW/shreveport.png,GW/hanover.png,,,,,,,,,,,,,,,,,,,,,,,,,
992.2000000476837,,rt_thecrossant_black,389142,,black_plus_sign,,,,50,,,1,1,,,,,,,,,,,,,,,,,,,,,,,
null,,color_black,389243,,black_plus_sign,,,,null,,,,,,,,,,,,,,,,,,,,,,,,,,,
null,,learn_phase(without_color),392246,,black_plus_sign,,,,null,GW/huntsville.png,GW/gatlinburg.png,,,,,,,,,,,,,,,,,,,,,,,,,
null,,black_cross(without_color),393199,,yellow,,,,null,GW/huntsville.png,GW/gatlinburg.png,,,,,,,,,,,,,,,,,,,,,,,,,
null,,rt_plussign_withcolor,393700,,yellow,,,,null,GW/huntsville.png,GW/gatlinburg.png,,,,,,,,,,,,,,,,,,,,,,,,,
1174.9000000357628,,rt_thecrossant_black,394750,,black_plus_sign,,,,50,,,1,1,,,,,,,,,,,,,,,,,,,,,,,
null,,color_black,394851,,black_plus_sign,,,,null,,,,,,,,,,,,,,,,,,,,,,,,,,,
null,,learn_phase(without_color),397853,,black_plus_sign,,,,null,GW/boulder.png,GW/leesburg.png,,,,,,,,,,,,,,,,,,,,,,,,,
null,,black_cross(without_color),398903,,blue,,,,null,GW/boulder.png,GW/leesburg.png,,,,,,,,,,,,,,,,,,,,,,,,,
null,,rt_plussign_withcolor,399404,,blue,,,,null,GW/boulder.png,GW/leesburg.png,,,,,,,,,,,,,,,,,,,,,,,,,
1342.5,,rt_thecrossant_black,400356,,black_plus_sign,,,,49,,,1,1,,,,,,,,,,,,,,,,,,,,,,,
null,,color_black,400458,,black_plus_sign,,,,null,,,,,,,,,,,,,,,,,,,,,,,,,,,
null,,learn_phase(without_color),403460,,black_plus_sign,,,,null,GW/peoria.png,GW/shreveport.png,,,,,,,,,,,,,,,,,,,,,,,,,
null,,black_cross(without_color),404333,,yellow,,,,null,GW/peoria.png,GW/shreveport.png,,,,,,,,,,,,,,,,,,,,,,,,,
null,,rt_plussign_withcolor,404834,,yellow,,,,null,GW/peoria.png,GW/shreveport.png,,,,,,,,,,,,,,,,,,,,,,,,,
1648.699999988079,,rt_thecrossant_black,405967,,black_plus_sign,,,,50,,,1,1,,,,,,,,,,,,,,,,,,,,,,,
null,,color_black,406069,,black_plus_sign,,,,null,,,,,,,,,,,,,,,,,,,,,,,,,,,
null,,learn_phase(without_color),409072,,black_plus_sign,,,,null,GW/cornwall.png,GW/racine.png,,,,,,,,,,,,,,,,,,,,,,,,,
null,,black_cross(without_color),410038,,blue,,,,null,GW/cornwall.png,GW/racine.png,,,,,,,,,,,,,,,,,,,,,,,,,
null,,rt_plussign_withcolor,410539,,blue,,,,null,GW/cornwall.png,GW/racine.png,,,,,,,,,,,,,,,,,,,,,,,,,
1511.0999999642372,,rt_thecrossant_black,411586,,black_plus_sign,,,,49,,,1,1,,,,,,,,,,,,,,,,,,,,,,,
null,,color_black,411688,,black_plus_sign,,,,null,,,,,,,,,,,,,,,,,,,,,,,,,,,
null,,learn_phase(without_color),414690,,black_plus_sign,,,,null,GW/boulder.png,GW/leesburg.png,,,,,,,,,,,,,,,,,,,,,,,,,
null,,black_cross(without_color),415685,,yellow,,,,null,GW/boulder.png,GW/leesburg.png,,,,,,,,,,,,,,,,,,,,,,,,,
null,,rt_plussign_withcolor,416187,,yellow,,,,null,GW/boulder.png,GW/leesburg.png,,,,,,,,,,,,,,,,,,,,,,,,,
1309.5,,rt_thecrossant_black,417195,,black_plus_sign,,,,50,,,1,1,,,,,,,,,,,,,,,,,,,,,,,
null,,color_black,417297,,black_plus_sign,,,,null,,,,,,,,,,,,,,,,,,,,,,,,,,,
null,,learn_phase(without_color),420299,,black_plus_sign,,,,null,GW/shreveport.png,GW/peoria.png,,,,,,,,,,,,,,,,,,,,,,,,,
null,,black_cross(without_color),420759,,blue,,,,null,GW/shreveport.png,GW/peoria.png,,,,,,,,,,,,,,,,,,,,,,,,,
null,,rt_plussign_withcolor,421261,,blue,,,,null,GW/shreveport.png,GW/peoria.png,,,,,,,,,,,,,,,,,,,,,,,,,
1450.699999988079,,rt_thecrossant_black,422804,,black_plus_sign,,,,49,,,1,1,,,,,,,,,,,,,,,,,,,,,,,
null,,color_black,422906,,black_plus_sign,,,,null,,,,,,,,,,,,,,,,,,,,,,,,,,,
null,,learn_phase(without_color),425908,,black_plus_sign,,,,null,GW/huntsville.png,GW/gatlinburg.png,,,,,,,,,,,,,,,,,,,,,,,,,
null,,black_cross(without_color),426667,,blue,,,,null,GW/huntsville.png,GW/gatlinburg.png,,,,,,,,,,,,,,,,,,,,,,,,,
null,,rt_plussign_withcolor,427180,,blue,,,,null,GW/huntsville.png,GW/gatlinburg.png,,,,,,,,,,,,,,,,,,,,,,,,,
651.2999999523163,,rt_thecrossant_black,428428,,black_plus_sign,,,,49,,,1,1,,,,,,,,,,,,,,,,,,,,,,,
null,,color_black,428530,,black_plus_sign,,,,null,,,,,,,,,,,,,,,,,,,,,,,,,,,
null,,learn_phase(without_color),431532,,black_plus_sign,,,,null,GW/shreveport.png,GW/peoria.png,,,,,,,,,,,,,,,,,,,,,,,,,
null,,black_cross(without_color),432354,,blue,,,,null,GW/shreveport.png,GW/peoria.png,,,,,,,,,,,,,,,,,,,,,,,,,
null,,rt_plussign_withcolor,432856,,blue,,,,null,GW/shreveport.png,GW/peoria.png,,,,,,,,,,,,,,,,,,,,,,,,,
1051.6000000238419,,rt_thecrossant_black,434049,,black_plus_sign,,,,49,,,1,1,,,,,,,,,,,,,,,,,,,,,,,
null,,color_black,434151,,black_plus_sign,,,,null,,,,,,,,,,,,,,,,,,,,,,,,,,,
null,,learn_phase(without_color),437154,,black_plus_sign,,,,null,GW/cornwall.png,GW/racine.png,,,,,,,,,,,,,,,,,,,,,,,,,
null,,black_cross(without_color),438086,,blue,,,,null,GW/cornwall.png,GW/racine.png,,,,,,,,,,,,,,,,,,,,,,,,,
null,,rt_plussign_withcolor,438589,,blue,,,,null,GW/cornwall.png,GW/racine.png,,,,,,,,,,,,,,,,,,,,,,,,,
1070.6000000238419,,rt_thecrossant_black,439660,,black_plus_sign,,,,49,,,1,1,,,,,,,,,,,,,,,,,,,,,,,
null,,color_black,439764,,black_plus_sign,,,,null,,,,,,,,,,,,,,,,,,,,,,,,,,,
null,,learn_phase(without_color),442767,,black_plus_sign,,,,null,GW/peoria.png,GW/shreveport.png,,,,,,,,,,,,,,,,,,,,,,,,,
null,,black_cross(without_color),443731,,yellow,,,,null,GW/peoria.png,GW/shreveport.png,,,,,,,,,,,,,,,,,,,,,,,,,
null,,rt_plussign_withcolor,444233,,yellow,,,,null,GW/peoria.png,GW/shreveport.png,,,,,,,,,,,,,,,,,,,,,,,,,
1835,,rt_thecrossant_black,445272,,black_plus_sign,,,,50,,,1,1,,,,,,,,,,,,,,,,,,,,,,,
null,,color_black,445374,,black_plus_sign,,,,null,,,,,,,,,,,,,,,,,,,,,,,,,,,
null,,learn_phase(without_color),448375,,black_plus_sign,,,,null,GW/racine.png,GW/cornwall.png,,,,,,,,,,,,,,,,,,,,,,,,,
null,,black_cross(without_color),449148,,blue,,,,null,GW/racine.png,GW/cornwall.png,,,,,,,,,,,,,,,,,,,,,,,,,
null,,rt_plussign_withcolor,449649,,blue,,,,null,GW/racine.png,GW/cornwall.png,,,,,,,,,,,,,,,,,,,,,,,,,
1355.699999988079,,rt_thecrossant_black,450886,,black_plus_sign,,,,49,,,1,1,,,,,,,,,,,,,,,,,,,,,,,
null,,color_black,450988,,black_plus_sign,,,,null,,,,,,,,,,,,,,,,,,,,,,,,,,,
null,,learn_phase(without_color),453989,,black_plus_sign,,,,null,GW/boulder.png,GW/leesburg.png,,,,,,,,,,,,,,,,,,,,,,,,,
null,,black_cross(without_color),454551,,yellow,,,,null,GW/boulder.png,GW/leesburg.png,,,,,,,,,,,,,,,,,,,,,,,,,
null,,rt_plussign_withcolor,455052,,yellow,,,,null,GW/boulder.png,GW/leesburg.png,,,,,,,,,,,,,,,,,,,,,,,,,
1474.5999999642372,,rt_thecrossant_black,456494,,black_plus_sign,,,,50,,,1,1,,,,,,,,,,,,,,,,,,,,,,,
null,,color_black,456596,,black_plus_sign,,,,null,,,,,,,,,,,,,,,,,,,,,,,,,,,
null,,learn_phase(without_color),459599,,black_plus_sign,,,,null,GW/racine.png,GW/cornwall.png,,,,,,,,,,,,,,,,,,,,,,,,,
null,,black_cross(without_color),460515,,blue,,,,null,GW/racine.png,GW/cornwall.png,,,,,,,,,,,,,,,,,,,,,,,,,
null,,rt_plussign_withcolor,461017,,blue,,,,null,GW/racine.png,GW/cornwall.png,,,,,,,,,,,,,,,,,,,,,,,,,
922.8999999761581,,rt_thecrossant_black,462104,,black_plus_sign,,,,49,,,1,1,,,,,,,,,,,,,,,,,,,,,,,
null,,color_black,462207,,black_plus_sign,,,,null,,,,,,,,,,,,,,,,,,,,,,,,,,,
null,,learn_phase(without_color),465209,,black_plus_sign,,,,null,GW/shreveport.png,GW/peoria.png,,,,,,,,,,,,,,,,,,,,,,,,,
null,,black_cross(without_color),465655,,blue,,,,null,GW/shreveport.png,GW/peoria.png,,,,,,,,,,,,,,,,,,,,,,,,,
null,,rt_plussign_withcolor,466157,,blue,,,,null,GW/shreveport.png,GW/peoria.png,,,,,,,,,,,,,,,,,,,,,,,,,
1233.5,,rt_thecrossant_black,467715,,black_plus_sign,,,,49,,,1,1,,,,,,,,,,,,,,,,,,,,,,,
null,,color_black,467817,,black_plus_sign,,,,null,,,,,,,,,,,,,,,,,,,,,,,,,,,
null,,learn_phase(without_color),470819,,black_plus_sign,,,,null,GW/boulder.png,GW/leesburg.png,,,,,,,,,,,,,,,,,,,,,,,,,
null,,black_cross(without_color),471741,,yellow,,,,null,GW/boulder.png,GW/leesburg.png,,,,,,,,,,,,,,,,,,,,,,,,,
null,,rt_plussign_withcolor,472244,,yellow,,,,null,GW/boulder.png,GW/leesburg.png,,,,,,,,,,,,,,,,,,,,,,,,,
884.8000000119209,,rt_thecrossant_black,473326,,black_plus_sign,,,,50,,,1,1,,,,,,,,,,,,,,,,,,,,,,,
null,,color_black,473428,,black_plus_sign,,,,null,,,,,,,,,,,,,,,,,,,,,,,,,,,
null,,learn_phase(without_color),476431,,black_plus_sign,,,,null,GW/cornwall.png,GW/racine.png,,,,,,,,,,,,,,,,,,,,,,,,,
null,,black_cross(without_color),477214,,yellow,,,,null,GW/cornwall.png,GW/racine.png,,,,,,,,,,,,,,,,,,,,,,,,,
null,,rt_plussign_withcolor,477715,,yellow,,,,null,GW/cornwall.png,GW/racine.png,,,,,,,,,,,,,,,,,,,,,,,,,
1771.5,,rt_thecrossant_black,478936,,black_plus_sign,,,,50,,,1,1,,,,,,,,,,,,,,,,,,,,,,,
null,,color_black,479037,,black_plus_sign,,,,null,,,,,,,,,,,,,,,,,,,,,,,,,,,
null,,learn_phase(without_color),482039,,black_plus_sign,,,,null,GW/peoria.png,GW/shreveport.png,,,,,,,,,,,,,,,,,,,,,,,,,
null,,black_cross(without_color),482461,,blue,,,,null,GW/peoria.png,GW/shreveport.png,,,,,,,,,,,,,,,,,,,,,,,,,
null,,rt_plussign_withcolor,482963,,blue,,,,null,GW/peoria.png,GW/shreveport.png,,,,,,,,,,,,,,,,,,,,,,,,,
1337.6000000238419,,rt_thecrossant_black,484544,,black_plus_sign,,,,49,,,1,1,,,,,,,,,,,,,,,,,,,,,,,
null,,color_black,484645,,black_plus_sign,,,,null,,,,,,,,,,,,,,,,,,,,,,,,,,,
null,,learn_phase(without_color),487647,,black_plus_sign,,,,null,GW/huntsville.png,GW/gatlinburg.png,,,,,,,,,,,,,,,,,,,,,,,,,
null,,black_cross(without_color),488361,,yellow,,,,null,GW/huntsville.png,GW/gatlinburg.png,,,,,,,,,,,,,,,,,,,,,,,,,
null,,rt_plussign_withcolor,488863,,yellow,,,,null,GW/huntsville.png,GW/gatlinburg.png,,,,,,,,,,,,,,,,,,,,,,,,,
772.8999999761581,,rt_thecrossant_black,490154,,black_plus_sign,,,,50,,,1,1,,,,,,,,,,,,,,,,,,,,,,,
null,,color_black,490255,,black_plus_sign,,,,null,,,,,,,,,,,,,,,,,,,,,,,,,,,
null,,learn_phase(without_color),493258,,black_plus_sign,,,,null,GW/peoria.png,GW/shreveport.png,,,,,,,,,,,,,,,,,,,,,,,,,
null,,black_cross(without_color),494283,,blue,,,,null,GW/peoria.png,GW/shreveport.png,,,,,,,,,,,,,,,,,,,,,,,,,
null,,rt_plussign_withcolor,494785,,blue,,,,null,GW/peoria.png,GW/shreveport.png,,,,,,,,,,,,,,,,,,,,,,,,,
1040,,rt_thecrossant_black,495764,,black_plus_sign,,,,49,,,1,1,,,,,,,,,,,,,,,,,,,,,,,
null,,color_black,495866,,black_plus_sign,,,,null,,,,,,,,,,,,,,,,,,,,,,,,,,,
null,,learn_phase(without_color),498868,,black_plus_sign,,,,null,GW/gatlinburg.png,GW/huntsville.png,,,,,,,,,,,,,,,,,,,,,,,,,
null,,black_cross(without_color),499911,,blue,,,,null,GW/gatlinburg.png,GW/huntsville.png,,,,,,,,,,,,,,,,,,,,,,,,,
null,,rt_plussign_withcolor,500413,,blue,,,,null,GW/gatlinburg.png,GW/huntsville.png,,,,,,,,,,,,,,,,,,,,,,,,,
1316.4000000357628,,rt_thecrossant_black,501374,,black_plus_sign,,,,49,,,1,1,,,,,,,,,,,,,,,,,,,,,,,
null,,color_black,501475,,black_plus_sign,,,,null,,,,,,,,,,,,,,,,,,,,,,,,,,,
null,,learn_phase(without_color),504477,,black_plus_sign,,,,null,GW/boulder.png,GW/leesburg.png,,,,,,,,,,,,,,,,,,,,,,,,,
null,,black_cross(without_color),505574,,yellow,,,,null,GW/boulder.png,GW/leesburg.png,,,,,,,,,,,,,,,,,,,,,,,,,
null,,rt_plussign_withcolor,506075,,yellow,,,,null,GW/boulder.png,GW/leesburg.png,,,,,,,,,,,,,,,,,,,,,,,,,
1760.5999999642372,,rt_thecrossant_black,506982,,black_plus_sign,,,,50,,,1,1,,,,,,,,,,,,,,,,,,,,,,,
null,,color_black,507084,,black_plus_sign,,,,null,,,,,,,,,,,,,,,,,,,,,,,,,,,
null,,learn_phase(without_color),510086,,black_plus_sign,,,,null,GW/cornwall.png,GW/racine.png,,,,,,,,,,,,,,,,,,,,,,,,,
null,,black_cross(without_color),510802,,blue,,,,null,GW/cornwall.png,GW/racine.png,,,,,,,,,,,,,,,,,,,,,,,,,
null,,rt_plussign_withcolor,511303,,blue,,,,null,GW/cornwall.png,GW/racine.png,,,,,,,,,,,,,,,,,,,,,,,,,
1436,,rt_thecrossant_black,512591,,black_plus_sign,,,,49,,,1,1,,,,,,,,,,,,,,,,,,,,,,,
null,,color_black,512693,,black_plus_sign,,,,null,,,,,,,,,,,,,,,,,,,,,,,,,,,
null,,learn_phase(without_color),515695,,black_plus_sign,,,,null,GW/leesburg.png,GW/boulder.png,,,,,,,,,,,,,,,,,,,,,,,,,
null,,black_cross(without_color),516108,,blue,,,,null,GW/leesburg.png,GW/boulder.png,,,,,,,,,,,,,,,,,,,,,,,,,
null,,rt_plussign_withcolor,516610,,blue,,,,null,GW/leesburg.png,GW/boulder.png,,,,,,,,,,,,,,,,,,,,,,,,,
940.4000000357628,,rt_thecrossant_black,518200,,black_plus_sign,,,,49,,,1,1,,,,,,,,,,,,,,,,,,,,,,,
null,,color_black,518301,,black_plus_sign,,,,null,,,,,,,,,,,,,,,,,,,,,,,,,,,
null,,learn_phase(without_color),521303,,black_plus_sign,,,,null,GW/racine.png,GW/cornwall.png,,,,,,,,,,,,,,,,,,,,,,,,,
null,,black_cross(without_color),522097,,blue,,,,null,GW/racine.png,GW/cornwall.png,,,,,,,,,,,,,,,,,,,,,,,,,
null,,rt_plussign_withcolor,522604,,blue,,,,null,GW/racine.png,GW/cornwall.png,,,,,,,,,,,,,,,,,,,,,,,,,
606.1000000238419,,rt_thecrossant_black,523814,,black_plus_sign,,,,49,,,1,1,,,,,,,,,,,,,,,,,,,,,,,
null,,color_black,523916,,black_plus_sign,,,,null,,,,,,,,,,,,,,,,,,,,,,,,,,,
null,,learn_phase(without_color),526918,,black_plus_sign,,,,null,GW/huntsville.png,GW/gatlinburg.png,,,,,,,,,,,,,,,,,,,,,,,,,
null,,black_cross(without_color),527661,,blue,,,,null,GW/huntsville.png,GW/gatlinburg.png,,,,,,,,,,,,,,,,,,,,,,,,,
494.89999997615814,,rt_plussign_withcolor,528162,,blue,,,,49,GW/huntsville.png,GW/gatlinburg.png,,,,,,,,,,,,,,,,,,,,,,,,,
null,,rt_thecrossant_black,529422,,black_plus_sign,,,,null,,,1,1,,,,,,,,,,,,,,,,,,,,,,,
null,,color_black,529524,,black_plus_sign,,,,null,,,,,,,,,,,,,,,,,,,,,,,,,,,
null,,learn_phase(without_color),532526,,black_plus_sign,,,,null,GW/cornwall.png,GW/racine.png,,,,,,,,,,,,,,,,,,,,,,,,,
null,,black_cross(without_color),532950,,blue,,,,null,GW/cornwall.png,GW/racine.png,,,,,,,,,,,,,,,,,,,,,,,,,
null,,rt_plussign_withcolor,533452,,blue,,,,null,GW/cornwall.png,GW/racine.png,,,,,,,,,,,,,,,,,,,,,,,,,
1032.2999999523163,,rt_thecrossant_black,535030,,black_plus_sign,,,,49,,,1,1,,,,,,,,,,,,,,,,,,,,,,,
null,,color_black,535132,,black_plus_sign,,,,null,,,,,,,,,,,,,,,,,,,,,,,,,,,
null,,learn_phase(without_color),538134,,black_plus_sign,,,,null,GW/leesburg.png,GW/boulder.png,,,,,,,,,,,,,,,,,,,,,,,,,
null,,black_cross(without_color),539000,,yellow,,,,null,GW/leesburg.png,GW/boulder.png,,,,,,,,,,,,,,,,,,,,,,,,,
null,,rt_plussign_withcolor,539501,,yellow,,,,null,GW/leesburg.png,GW/boulder.png,,,,,,,,,,,,,,,,,,,,,,,,,
1082,,rt_thecrossant_black,540639,,black_plus_sign,,,,50,,,1,1,,,,,,,,,,,,,,,,,,,,,,,
null,,color_black,540748,,black_plus_sign,,,,null,,,,,,,,,,,,,,,,,,,,,,,,,,,
null,,learn_phase(without_color),543750,,black_plus_sign,,,,null,GW/gatlinburg.png,GW/huntsville.png,,,,,,,,,,,,,,,,,,,,,,,,,
null,,black_cross(without_color),544450,,blue,,,,null,GW/gatlinburg.png,GW/huntsville.png,,,,,,,,,,,,,,,,,,,,,,,,,
null,,rt_plussign_withcolor,544952,,blue,,,,null,GW/gatlinburg.png,GW/huntsville.png,,,,,,,,,,,,,,,,,,,,,,,,,
1329.0999999642372,,rt_thecrossant_black,546254,,black_plus_sign,,,,49,,,1,1,,,,,,,,,,,,,,,,,,,,,,,
null,,color_black,546355,,black_plus_sign,,,,null,,,,,,,,,,,,,,,,,,,,,,,,,,,
null,,learn_phase(without_color),549357,,black_plus_sign,,,,null,GW/boulder.png,GW/leesburg.png,,,,,,,,,,,,,,,,,,,,,,,,,
null,,black_cross(without_color),550331,,yellow,,,,null,GW/boulder.png,GW/leesburg.png,,,,,,,,,,,,,,,,,,,,,,,,,
null,,rt_plussign_withcolor,550833,,yellow,,,,null,GW/boulder.png,GW/leesburg.png,,,,,,,,,,,,,,,,,,,,,,,,,
1020,,rt_thecrossant_black,551862,,black_plus_sign,,,,50,,,1,1,,,,,,,,,,,,,,,,,,,,,,,
null,,color_black,551964,,black_plus_sign,,,,null,,,,,,,,,,,,,,,,,,,,,,,,,,,
null,,learn_phase(without_color),554966,,black_plus_sign,,,,null,GW/peoria.png,GW/shreveport.png,,,,,,,,,,,,,,,,,,,,,,,,,
null,,black_cross(without_color),556012,,blue,,,,null,GW/peoria.png,GW/shreveport.png,,,,,,,,,,,,,,,,,,,,,,,,,
null,,rt_plussign_withcolor,556514,,blue,,,,null,GW/peoria.png,GW/shreveport.png,,,,,,,,,,,,,,,,,,,,,,,,,
null,,rt_thecrossant_black,557472,,black_plus_sign,,,,null,,,,1,,,,,,,,,,,,,,,,,,,,,,,
null,,color_black,557575,,black_plus_sign,,,,null,,,,,,,,,,,,,,,,,,,,,,,,,,,
null,,learn_phase(without_color),560576,,black_plus_sign,,,,null,GW/huntsville.png,GW/gatlinburg.png,,,,,,,,,,,,,,,,,,,,,,,,,
null,,black_cross(without_color),561270,,yellow,,,,null,GW/huntsville.png,GW/gatlinburg.png,,,,,,,,,,,,,,,,,,,,,,,,,
null,,rt_plussign_withcolor,561772,,yellow,,,,null,GW/huntsville.png,GW/gatlinburg.png,,,,,,,,,,,,,,,,,,,,,,,,,
1179.5,,rt_thecrossant_black,563089,,black_plus_sign,,,,50,,,1,1,,,,,,,,,,,,,,,,,,,,,,,
null,,color_black,563191,,black_plus_sign,,,,null,,,,,,,,,,,,,,,,,,,,,,,,,,,
null,,learn_phase(without_color),566192,,black_plus_sign,,,,null,GW/gatlinburg.png,GW/huntsville.png,,,,,,,,,,,,,,,,,,,,,,,,,
null,,black_cross(without_color),567209,,blue,,,,null,GW/gatlinburg.png,GW/huntsville.png,,,,,,,,,,,,,,,,,,,,,,,,,
null,,rt_plussign_withcolor,567710,,blue,,,,null,GW/gatlinburg.png,GW/huntsville.png,,,,,,,,,,,,,,,,,,,,,,,,,
787.5,,rt_thecrossant_black,568697,,black_plus_sign,,,,49,,,1,1,,,,,,,,,,,,,,,,,,,,,,,
null,,color_black,568799,,black_plus_sign,,,,null,,,,,,,,,,,,,,,,,,,,,,,,,,,
26717.899999976158,,learn_break,595518,,learn_break,,,,32,,,,,,,,,,,,,,,,,,,,,,,,,,,
null,,html-keyboard-response,596520,,<p></p>,,,,null,,,,,,,,,,,,,,,,,,,,,,,,,,,
null,,learn_phase(without_color),599522,,black_plus_sign,,,,null,GW/hotsprings.png,GW/leesburg.png,,,,,,,,,,,,,,,,,,,,,,,,,
null,,black_cross(without_color),600545,,blue,,,,null,GW/hotsprings.png,GW/leesburg.png,,,,,,,,,,,,,,,,,,,,,,,,,
null,,rt_plussign_withcolor,601046,,blue,,,,null,GW/hotsprings.png,GW/leesburg.png,,,,,,,,,,,,,,,,,,,,,,,,,
2082.399999976158,,rt_thecrossant_black,602027,,black_plus_sign,,,,49,,,1,1,,,,,,,,,,,,,,,,,,,,,,,
null,,color_black,602129,,black_plus_sign,,,,null,,,,,,,,,,,,,,,,,,,,,,,,,,,
null,,learn_phase(without_color),605133,,black_plus_sign,,,,null,GW/shreveport.png,GW/racine.png,,,,,,,,,,,,,,,,,,,,,,,,,
null,,black_cross(without_color),605876,,blue,,,,null,GW/shreveport.png,GW/racine.png,,,,,,,,,,,,,,,,,,,,,,,,,
null,,rt_plussign_withcolor,606389,,blue,,,,null,GW/shreveport.png,GW/racine.png,,,,,,,,,,,,,,,,,,,,,,,,,
1235,,rt_thecrossant_black,607649,,black_plus_sign,,,,49,,,1,1,,,,,,,,,,,,,,,,,,,,,,,
null,,color_black,607750,,black_plus_sign,,,,null,,,,,,,,,,,,,,,,,,,,,,,,,,,
null,,learn_phase(without_color),610753,,black_plus_sign,,,,null,GW/huntsville.png,GW/peoria.png,,,,,,,,,,,,,,,,,,,,,,,,,
null,,black_cross(without_color),611189,,blue,,,,null,GW/huntsville.png,GW/peoria.png,,,,,,,,,,,,,,,,,,,,,,,,,
null,,rt_plussign_withcolor,611690,,blue,,,,null,GW/huntsville.png,GW/peoria.png,,,,,,,,,,,,,,,,,,,,,,,,,
990.8999999761581,,rt_thecrossant_black,613257,,black_plus_sign,,,,49,,,1,1,,,,,,,,,,,,,,,,,,,,,,,
null,,color_black,613358,,black_plus_sign,,,,null,,,,,,,,,,,,,,,,,,,,,,,,,,,
null,,learn_phase(without_color),616361,,black_plus_sign,,,,null,GW/shreveport.png,GW/racine.png,,,,,,,,,,,,,,,,,,,,,,,,,
null,,black_cross(without_color),616824,,blue,,,,null,GW/shreveport.png,GW/racine.png,,,,,,,,,,,,,,,,,,,,,,,,,
null,,rt_plussign_withcolor,617325,,blue,,,,null,GW/shreveport.png,GW/racine.png,,,,,,,,,,,,,,,,,,,,,,,,,
666.5,,rt_thecrossant_black,618866,,black_plus_sign,,,,49,,,1,1,,,,,,,,,,,,,,,,,,,,,,,
null,,color_black,618969,,black_plus_sign,,,,null,,,,,,,,,,,,,,,,,,,,,,,,,,,
null,,learn_phase(without_color),621977,,black_plus_sign,,,,null,GW/newhope.png,GW/cornwall.png,,,,,,,,,,,,,,,,,,,,,,,,,
null,,black_cross(without_color),623041,,yellow,,,,null,GW/newhope.png,GW/cornwall.png,,,,,,,,,,,,,,,,,,,,,,,,,
null,,rt_plussign_withcolor,623544,,yellow,,,,null,GW/newhope.png,GW/cornwall.png,,,,,,,,,,,,,,,,,,,,,,,,,
824.9000000357628,,rt_thecrossant_black,624484,,black_plus_sign,,,,50,,,1,1,,,,,,,,,,,,,,,,,,,,,,,
null,,color_black,624586,,black_plus_sign,,,,null,,,,,,,,,,,,,,,,,,,,,,,,,,,
null,,learn_phase(without_color),627601,,black_plus_sign,,,,null,GW/hotsprings.png,GW/leesburg.png,,,,,,,,,,,,,,,,,,,,,,,,,
null,,black_cross(without_color),628006,,yellow,,,,null,GW/hotsprings.png,GW/leesburg.png,,,,,,,,,,,,,,,,,,,,,,,,,
null,,rt_plussign_withcolor,628508,,yellow,,,,null,GW/hotsprings.png,GW/leesburg.png,,,,,,,,,,,,,,,,,,,,,,,,,
1319.8999999761581,,rt_thecrossant_black,630105,,black_plus_sign,,,,50,,,1,1,,,,,,,,,,,,,,,,,,,,,,,
null,,color_black,630207,,black_plus_sign,,,,null,,,,,,,,,,,,,,,,,,,,,,,,,,,
null,,learn_phase(without_color),633210,,black_plus_sign,,,,null,GW/shreveport.png,GW/racine.png,,,,,,,,,,,,,,,,,,,,,,,,,
null,,black_cross(without_color),633971,,yellow,,,,null,GW/shreveport.png,GW/racine.png,,,,,,,,,,,,,,,,,,,,,,,,,
null,,rt_plussign_withcolor,634472,,yellow,,,,null,GW/shreveport.png,GW/racine.png,,,,,,,,,,,,,,,,,,,,,,,,,
587,,rt_thecrossant_black,635715,,black_plus_sign,,,,50,,,1,1,,,,,,,,,,,,,,,,,,,,,,,
null,,color_black,635817,,black_plus_sign,,,,null,,,,,,,,,,,,,,,,,,,,,,,,,,,
null,,learn_phase(without_color),638820,,black_plus_sign,,,,null,GW/leesburg.png,GW/hotsprings.png,,,,,,,,,,,,,,,,,,,,,,,,,
null,,black_cross(without_color),639555,,yellow,,,,null,GW/leesburg.png,GW/hotsprings.png,,,,,,,,,,,,,,,,,,,,,,,,,
null,,rt_plussign_withcolor,640056,,yellow,,,,null,GW/leesburg.png,GW/hotsprings.png,,,,,,,,,,,,,,,,,,,,,,,,,
1440.800000011921,,rt_thecrossant_black,641325,,black_plus_sign,,,,50,,,1,1,,,,,,,,,,,,,,,,,,,,,,,
null,,color_black,641428,,black_plus_sign,,,,null,,,,,,,,,,,,,,,,,,,,,,,,,,,
null,,learn_phase(without_color),644430,,black_plus_sign,,,,null,GW/peoria.png,GW/huntsville.png,,,,,,,,,,,,,,,,,,,,,,,,,
null,,black_cross(without_color),644888,,yellow,,,,null,GW/peoria.png,GW/huntsville.png,,,,,,,,,,,,,,,,,,,,,,,,,
null,,rt_plussign_withcolor,645390,,yellow,,,,null,GW/peoria.png,GW/huntsville.png,,,,,,,,,,,,,,,,,,,,,,,,,
976.6000000238419,,rt_thecrossant_black,646934,,black_plus_sign,,,,50,,,1,1,,,,,,,,,,,,,,,,,,,,,,,
null,,color_black,647036,,black_plus_sign,,,,null,,,,,,,,,,,,,,,,,,,,,,,,,,,
null,,learn_phase(without_color),650038,,black_plus_sign,,,,null,GW/cornwall.png,GW/newhope.png,,,,,,,,,,,,,,,,,,,,,,,,,
null,,black_cross(without_color),650776,,yellow,,,,null,GW/cornwall.png,GW/newhope.png,,,,,,,,,,,,,,,,,,,,,,,,,
null,,rt_plussign_withcolor,651278,,yellow,,,,null,GW/cornwall.png,GW/newhope.png,,,,,,,,,,,,,,,,,,,,,,,,,
773.1000000238419,,rt_thecrossant_black,652544,,black_plus_sign,,,,50,,,1,1,,,,,,,,,,,,,,,,,,,,,,,
null,,color_black,652646,,black_plus_sign,,,,null,,,,,,,,,,,,,,,,,,,,,,,,,,,
null,,learn_phase(without_color),655648,,black_plus_sign,,,,null,GW/leesburg.png,GW/hotsprings.png,,,,,,,,,,,,,,,,,,,,,,,,,
null,,black_cross(without_color),656176,,yellow,,,,null,GW/leesburg.png,GW/hotsprings.png,,,,,,,,,,,,,,,,,,,,,,,,,
null,,rt_plussign_withcolor,656677,,yellow,,,,null,GW/leesburg.png,GW/hotsprings.png,,,,,,,,,,,,,,,,,,,,,,,,,
893.3999999761581,,rt_thecrossant_black,658154,,black_plus_sign,,,,50,,,1,1,,,,,,,,,,,,,,,,,,,,,,,
null,,color_black,658257,,black_plus_sign,,,,null,,,,,,,,,,,,,,,,,,,,,,,,,,,
null,,learn_phase(without_color),661260,,black_plus_sign,,,,null,GW/peoria.png,GW/huntsville.png,,,,,,,,,,,,,,,,,,,,,,,,,
null,,black_cross(without_color),661836,,blue,,,,null,GW/peoria.png,GW/huntsville.png,,,,,,,,,,,,,,,,,,,,,,,,,
null,,rt_plussign_withcolor,662349,,blue,,,,null,GW/peoria.png,GW/huntsville.png,,,,,,,,,,,,,,,,,,,,,,,,,
749.3000000119209,,rt_thecrossant_black,663777,,black_plus_sign,,,,49,,,1,1,,,,,,,,,,,,,,,,,,,,,,,
null,,color_black,663879,,black_plus_sign,,,,null,,,,,,,,,,,,,,,,,,,,,,,,,,,
null,,learn_phase(without_color),666880,,black_plus_sign,,,,null,GW/cornwall.png,GW/newhope.png,,,,,,,,,,,,,,,,,,,,,,,,,
null,,black_cross(without_color),667800,,blue,,,,null,GW/cornwall.png,GW/newhope.png,,,,,,,,,,,,,,,,,,,,,,,,,
null,,rt_plussign_withcolor,668302,,blue,,,,null,GW/cornwall.png,GW/newhope.png,,,,,,,,,,,,,,,,,,,,,,,,,
716.6999999880791,,rt_thecrossant_black,669384,,black_plus_sign,,,,49,,,1,1,,,,,,,,,,,,,,,,,,,,,,,
null,,color_black,669486,,black_plus_sign,,,,null,,,,,,,,,,,,,,,,,,,,,,,,,,,
null,,learn_phase(without_color),672489,,black_plus_sign,,,,null,GW/huntsville.png,GW/peoria.png,,,,,,,,,,,,,,,,,,,,,,,,,
null,,black_cross(without_color),673344,,yellow,,,,null,GW/huntsville.png,GW/peoria.png,,,,,,,,,,,,,,,,,,,,,,,,,
null,,rt_plussign_withcolor,673846,,yellow,,,,null,GW/huntsville.png,GW/peoria.png,,,,,,,,,,,,,,,,,,,,,,,,,
1158.5,,rt_thecrossant_black,674995,,black_plus_sign,,,,50,,,1,1,,,,,,,,,,,,,,,,,,,,,,,
null,,color_black,675097,,black_plus_sign,,,,null,,,,,,,,,,,,,,,,,,,,,,,,,,,
null,,learn_phase(without_color),678100,,black_plus_sign,,,,null,GW/shreveport.png,GW/racine.png,,,,,,,,,,,,,,,,,,,,,,,,,
null,,black_cross(without_color),678655,,blue,,,,null,GW/shreveport.png,GW/racine.png,,,,,,,,,,,,,,,,,,,,,,,,,
null,,rt_plussign_withcolor,679157,,blue,,,,null,GW/shreveport.png,GW/racine.png,,,,,,,,,,,,,,,,,,,,,,,,,
1222.800000011921,,rt_thecrossant_black,680606,,black_plus_sign,,,,49,,,1,1,,,,,,,,,,,,,,,,,,,,,,,
null,,color_black,680709,,black_plus_sign,,,,null,,,,,,,,,,,,,,,,,,,,,,,,,,,
null,,learn_phase(without_color),683711,,black_plus_sign,,,,null,GW/peoria.png,GW/huntsville.png,,,,,,,,,,,,,,,,,,,,,,,,,
null,,black_cross(without_color),684729,,yellow,,,,null,GW/peoria.png,GW/huntsville.png,,,,,,,,,,,,,,,,,,,,,,,,,
null,,rt_plussign_withcolor,685230,,yellow,,,,null,GW/peoria.png,GW/huntsville.png,,,,,,,,,,,,,,,,,,,,,,,,,
1385.4000000357628,,rt_thecrossant_black,686222,,black_plus_sign,,,,50,,,1,1,,,,,,,,,,,,,,,,,,,,,,,
null,,color_black,686324,,black_plus_sign,,,,null,,,,,,,,,,,,,,,,,,,,,,,,,,,
null,,learn_phase(without_color),689327,,black_plus_sign,,,,null,GW/newhope.png,GW/cornwall.png,,,,,,,,,,,,,,,,,,,,,,,,,
null,,black_cross(without_color),690324,,yellow,,,,null,GW/newhope.png,GW/cornwall.png,,,,,,,,,,,,,,,,,,,,,,,,,
null,,rt_plussign_withcolor,690826,,yellow,,,,null,GW/newhope.png,GW/cornwall.png,,,,,,,,,,,,,,,,,,,,,,,,,
1333.300000011921,,rt_thecrossant_black,691832,,black_plus_sign,,,,50,,,1,1,,,,,,,,,,,,,,,,,,,,,,,
null,,color_black,691934,,black_plus_sign,,,,null,,,,,,,,,,,,,,,,,,,,,,,,,,,
null,,learn_phase(without_color),694937,,black_plus_sign,,,,null,GW/racine.png,GW/shreveport.png,,,,,,,,,,,,,,,,,,,,,,,,,
null,,black_cross(without_color),695757,,yellow,,,,null,GW/racine.png,GW/shreveport.png,,,,,,,,,,,,,,,,,,,,,,,,,
null,,rt_plussign_withcolor,696258,,yellow,,,,null,GW/racine.png,GW/shreveport.png,,,,,,,,,,,,,,,,,,,,,,,,,
1202.699999988079,,rt_thecrossant_black,697442,,black_plus_sign,,,,50,,,1,1,,,,,,,,,,,,,,,,,,,,,,,
null,,color_black,697544,,black_plus_sign,,,,null,,,,,,,,,,,,,,,,,,,,,,,,,,,
null,,learn_phase(without_color),700546,,black_plus_sign,,,,null,GW/hotsprings.png,GW/leesburg.png,,,,,,,,,,,,,,,,,,,,,,,,,
null,,black_cross(without_color),701555,,yellow,,,,null,GW/hotsprings.png,GW/leesburg.png,,,,,,,,,,,,,,,,,,,,,,,,,
null,,rt_plussign_withcolor,702057,,yellow,,,,null,GW/hotsprings.png,GW/leesburg.png,,,,,,,,,,,,,,,,,,,,,,,,,
1227.199999988079,,rt_thecrossant_black,703051,,black_plus_sign,,,,50,,,1,1,,,,,,,,,,,,,,,,,,,,,,,
null,,color_black,703156,,black_plus_sign,,,,null,,,,,,,,,,,,,,,,,,,,,,,,,,,
null,,learn_phase(without_color),706158,,black_plus_sign,,,,null,GW/newhope.png,GW/cornwall.png,,,,,,,,,,,,,,,,,,,,,,,,,
null,,black_cross(without_color),706990,,yellow,,,,null,GW/newhope.png,GW/cornwall.png,,,,,,,,,,,,,,,,,,,,,,,,,
null,,rt_plussign_withcolor,707492,,yellow,,,,null,GW/newhope.png,GW/cornwall.png,,,,,,,,,,,,,,,,,,,,,,,,,
1335,,rt_thecrossant_black,708663,,black_plus_sign,,,,50,,,1,1,,,,,,,,,,,,,,,,,,,,,,,
null,,color_black,708765,,black_plus_sign,,,,null,,,,,,,,,,,,,,,,,,,,,,,,,,,
null,,learn_phase(without_color),711766,,black_plus_sign,,,,null,GW/hotsprings.png,GW/leesburg.png,,,,,,,,,,,,,,,,,,,,,,,,,
null,,black_cross(without_color),712247,,yellow,,,,null,GW/hotsprings.png,GW/leesburg.png,,,,,,,,,,,,,,,,,,,,,,,,,
null,,rt_plussign_withcolor,712749,,yellow,,,,null,GW/hotsprings.png,GW/leesburg.png,,,,,,,,,,,,,,,,,,,,,,,,,
990.6999999880791,,rt_thecrossant_black,714272,,black_plus_sign,,,,50,,,1,1,,,,,,,,,,,,,,,,,,,,,,,
null,,color_black,714374,,black_plus_sign,,,,null,,,,,,,,,,,,,,,,,,,,,,,,,,,
null,,learn_phase(without_color),717378,,black_plus_sign,,,,null,GW/huntsville.png,GW/peoria.png,,,,,,,,,,,,,,,,,,,,,,,,,
null,,black_cross(without_color),718422,,yellow,,,,null,GW/huntsville.png,GW/peoria.png,,,,,,,,,,,,,,,,,,,,,,,,,
null,,rt_plussign_withcolor,718923,,yellow,,,,null,GW/huntsville.png,GW/peoria.png,,,,,,,,,,,,,,,,,,,,,,,,,
736.0999999642372,,rt_thecrossant_black,719883,,black_plus_sign,,,,50,,,1,1,,,,,,,,,,,,,,,,,,,,,,,
null,,color_black,719985,,black_plus_sign,,,,null,,,,,,,,,,,,,,,,,,,,,,,,,,,
null,,learn_phase(without_color),722987,,black_plus_sign,,,,null,GW/hotsprings.png,GW/leesburg.png,,,,,,,,,,,,,,,,,,,,,,,,,
null,,black_cross(without_color),723957,,blue,,,,null,GW/hotsprings.png,GW/leesburg.png,,,,,,,,,,,,,,,,,,,,,,,,,
null,,rt_plussign_withcolor,724459,,blue,,,,null,GW/hotsprings.png,GW/leesburg.png,,,,,,,,,,,,,,,,,,,,,,,,,
1413.3999999761581,,rt_thecrossant_black,725492,,black_plus_sign,,,,49,,,1,1,,,,,,,,,,,,,,,,,,,,,,,
null,,color_black,725594,,black_plus_sign,,,,null,,,,,,,,,,,,,,,,,,,,,,,,,,,
null,,learn_phase(without_color),728596,,black_plus_sign,,,,null,GW/newhope.png,GW/cornwall.png,,,,,,,,,,,,,,,,,,,,,,,,,
null,,black_cross(without_color),729477,,yellow,,,,null,GW/newhope.png,GW/cornwall.png,,,,,,,,,,,,,,,,,,,,,,,,,
null,,rt_plussign_withcolor,729980,,yellow,,,,null,GW/newhope.png,GW/cornwall.png,,,,,,,,,,,,,,,,,,,,,,,,,
1178.5,,rt_thecrossant_black,731106,,black_plus_sign,,,,50,,,1,1,,,,,,,,,,,,,,,,,,,,,,,
null,,color_black,731208,,black_plus_sign,,,,null,,,,,,,,,,,,,,,,,,,,,,,,,,,
null,,learn_phase(without_color),734211,,black_plus_sign,,,,null,GW/huntsville.png,GW/peoria.png,,,,,,,,,,,,,,,,,,,,,,,,,
null,,black_cross(without_color),735243,,yellow,,,,null,GW/huntsville.png,GW/peoria.png,,,,,,,,,,,,,,,,,,,,,,,,,
null,,rt_plussign_withcolor,735745,,yellow,,,,null,GW/huntsville.png,GW/peoria.png,,,,,,,,,,,,,,,,,,,,,,,,,
1469.6000000238419,,rt_thecrossant_black,736721,,black_plus_sign,,,,50,,,1,1,,,,,,,,,,,,,,,,,,,,,,,
null,,color_black,736824,,black_plus_sign,,,,null,,,,,,,,,,,,,,,,,,,,,,,,,,,
null,,learn_phase(without_color),739826,,black_plus_sign,,,,null,GW/hotsprings.png,GW/leesburg.png,,,,,,,,,,,,,,,,,,,,,,,,,
null,,black_cross(without_color),740447,,blue,,,,null,GW/hotsprings.png,GW/leesburg.png,,,,,,,,,,,,,,,,,,,,,,,,,
null,,rt_plussign_withcolor,740949,,blue,,,,null,GW/hotsprings.png,GW/leesburg.png,,,,,,,,,,,,,,,,,,,,,,,,,
1185,,rt_thecrossant_black,742337,,black_plus_sign,,,,49,,,1,1,,,,,,,,,,,,,,,,,,,,,,,
null,,color_black,742439,,black_plus_sign,,,,null,,,,,,,,,,,,,,,,,,,,,,,,,,,
null,,learn_phase(without_color),745442,,black_plus_sign,,,,null,GW/huntsville.png,GW/peoria.png,,,,,,,,,,,,,,,,,,,,,,,,,
null,,black_cross(without_color),746317,,yellow,,,,null,GW/huntsville.png,GW/peoria.png,,,,,,,,,,,,,,,,,,,,,,,,,
null,,rt_plussign_withcolor,746818,,yellow,,,,null,GW/huntsville.png,GW/peoria.png,,,,,,,,,,,,,,,,,,,,,,,,,
901.4000000357628,,rt_thecrossant_black,747946,,black_plus_sign,,,,50,,,1,1,,,,,,,,,,,,,,,,,,,,,,,
null,,color_black,748047,,black_plus_sign,,,,null,,,,,,,,,,,,,,,,,,,,,,,,,,,
null,,learn_phase(without_color),751049,,black_plus_sign,,,,null,GW/racine.png,GW/shreveport.png,,,,,,,,,,,,,,,,,,,,,,,,,
null,,black_cross(without_color),752068,,blue,,,,null,GW/racine.png,GW/shreveport.png,,,,,,,,,,,,,,,,,,,,,,,,,
null,,rt_plussign_withcolor,752570,,blue,,,,null,GW/racine.png,GW/shreveport.png,,,,,,,,,,,,,,,,,,,,,,,,,
1178.300000011921,,rt_thecrossant_black,753554,,black_plus_sign,,,,49,,,1,1,,,,,,,,,,,,,,,,,,,,,,,
null,,color_black,753656,,black_plus_sign,,,,null,,,,,,,,,,,,,,,,,,,,,,,,,,,
null,,learn_phase(without_color),756658,,black_plus_sign,,,,null,GW/shreveport.png,GW/racine.png,,,,,,,,,,,,,,,,,,,,,,,,,
null,,black_cross(without_color),757204,,blue,,,,null,GW/shreveport.png,GW/racine.png,,,,,,,,,,,,,,,,,,,,,,,,,
null,,rt_plussign_withcolor,757707,,blue,,,,null,GW/shreveport.png,GW/racine.png,,,,,,,,,,,,,,,,,,,,,,,,,
1394.0999999642372,,rt_thecrossant_black,759164,,black_plus_sign,,,,49,,,1,1,,,,,,,,,,,,,,,,,,,,,,,
null,,color_black,759265,,black_plus_sign,,,,null,,,,,,,,,,,,,,,,,,,,,,,,,,,
null,,learn_phase(without_color),762267,,black_plus_sign,,,,null,GW/cornwall.png,GW/newhope.png,,,,,,,,,,,,,,,,,,,,,,,,,
null,,black_cross(without_color),763061,,yellow,,,,null,GW/cornwall.png,GW/newhope.png,,,,,,,,,,,,,,,,,,,,,,,,,
null,,rt_plussign_withcolor,763562,,yellow,,,,null,GW/cornwall.png,GW/newhope.png,,,,,,,,,,,,,,,,,,,,,,,,,
1050.5999999642372,,rt_thecrossant_black,764772,,black_plus_sign,,,,50,,,1,1,,,,,,,,,,,,,,,,,,,,,,,
null,,color_black,764874,,black_plus_sign,,,,null,,,,,,,,,,,,,,,,,,,,,,,,,,,
null,,learn_phase(without_color),767876,,black_plus_sign,,,,null,GW/racine.png,GW/shreveport.png,,,,,,,,,,,,,,,,,,,,,,,,,
null,,black_cross(without_color),768558,,blue,,,,null,GW/racine.png,GW/shreveport.png,,,,,,,,,,,,,,,,,,,,,,,,,
null,,rt_plussign_withcolor,769060,,blue,,,,null,GW/racine.png,GW/shreveport.png,,,,,,,,,,,,,,,,,,,,,,,,,
960.8999999761581,,rt_thecrossant_black,770382,,black_plus_sign,,,,49,,,1,1,,,,,,,,,,,,,,,,,,,,,,,
null,,color_black,770484,,black_plus_sign,,,,null,,,,,,,,,,,,,,,,,,,,,,,,,,,
null,,learn_phase(without_color),773486,,black_plus_sign,,,,null,GW/newhope.png,GW/cornwall.png,,,,,,,,,,,,,,,,,,,,,,,,,
null,,black_cross(without_color),774041,,yellow,,,,null,GW/newhope.png,GW/cornwall.png,,,,,,,,,,,,,,,,,,,,,,,,,
null,,rt_plussign_withcolor,774544,,yellow,,,,null,GW/newhope.png,GW/cornwall.png,,,,,,,,,,,,,,,,,,,,,,,,,
1455.199999988079,,rt_thecrossant_black,776006,,black_plus_sign,,,,50,,,1,1,,,,,,,,,,,,,,,,,,,,,,,
null,,color_black,776109,,black_plus_sign,,,,null,,,,,,,,,,,,,,,,,,,,,,,,,,,
null,,learn_phase(without_color),779111,,black_plus_sign,,,,null,GW/peoria.png,GW/cornwall.png,,,,,,,,,,,,,,,,,,,,,,,,,
null,,black_cross(without_color),779989,,blue,,,,null,GW/peoria.png,GW/cornwall.png,,,,,,,,,,,,,,,,,,,,,,,,,
null,,rt_plussign_withcolor,780490,,blue,,,,null,GW/peoria.png,GW/cornwall.png,,,,,,,,,,,,,,,,,,,,,,,,,
750.8999999761581,,rt_thecrossant_black,781617,,black_plus_sign,,,,49,,,1,1,,,,,,,,,,,,,,,,,,,,,,,
null,,color_black,781719,,black_plus_sign,,,,null,,,,,,,,,,,,,,,,,,,,,,,,,,,
null,,learn_phase(without_color),784721,,black_plus_sign,,,,null,GW/racine.png,GW/westpalmbeach.png,,,,,,,,,,,,,,,,,,,,,,,,,
null,,black_cross(without_color),785551,,yellow,,,,null,GW/racine.png,GW/westpalmbeach.png,,,,,,,,,,,,,,,,,,,,,,,,,
null,,rt_plussign_withcolor,786053,,yellow,,,,null,GW/racine.png,GW/westpalmbeach.png,,,,,,,,,,,,,,,,,,,,,,,,,
1150.199999988079,,rt_thecrossant_black,787228,,black_plus_sign,,,,50,,,1,1,,,,,,,,,,,,,,,,,,,,,,,
null,,color_black,787330,,black_plus_sign,,,,null,,,,,,,,,,,,,,,,,,,,,,,,,,,
null,,learn_phase(without_color),790333,,black_plus_sign,,,,null,GW/peoria.png,GW/cornwall.png,,,,,,,,,,,,,,,,,,,,,,,,,
null,,black_cross(without_color),790841,,yellow,,,,null,GW/peoria.png,GW/cornwall.png,,,,,,,,,,,,,,,,,,,,,,,,,
null,,rt_plussign_withcolor,791342,,yellow,,,,null,GW/peoria.png,GW/cornwall.png,,,,,,,,,,,,,,,,,,,,,,,,,
1582.5,,rt_thecrossant_black,792837,,black_plus_sign,,,,50,,,1,1,,,,,,,,,,,,,,,,,,,,,,,
null,,color_black,792939,,black_plus_sign,,,,null,,,,,,,,,,,,,,,,,,,,,,,,,,,
null,,learn_phase(without_color),795941,,black_plus_sign,,,,null,GW/newhope.png,GW/leesburg.png,,,,,,,,,,,,,,,,,,,,,,,,,
null,,black_cross(without_color),796874,,blue,,,,null,GW/newhope.png,GW/leesburg.png,,,,,,,,,,,,,,,,,,,,,,,,,
null,,rt_plussign_withcolor,797377,,blue,,,,null,GW/newhope.png,GW/leesburg.png,,,,,,,,,,,,,,,,,,,,,,,,,
914.8999999761581,,rt_thecrossant_black,798447,,black_plus_sign,,,,49,,,1,1,,,,,,,,,,,,,,,,,,,,,,,
null,,color_black,798550,,black_plus_sign,,,,null,,,,,,,,,,,,,,,,,,,,,,,,,,,
null,,learn_phase(without_color),801552,,black_plus_sign,,,,null,GW/hotsprings.png,GW/carmel.png,,,,,,,,,,,,,,,,,,,,,,,,,
null,,black_cross(without_color),802451,,yellow,,,,null,GW/hotsprings.png,GW/carmel.png,,,,,,,,,,,,,,,,,,,,,,,,,
null,,rt_plussign_withcolor,802953,,yellow,,,,null,GW/hotsprings.png,GW/carmel.png,,,,,,,,,,,,,,,,,,,,,,,,,
1261.300000011921,,rt_thecrossant_black,804058,,black_plus_sign,,,,50,,,1,1,,,,,,,,,,,,,,,,,,,,,,,
null,,color_black,804160,,black_plus_sign,,,,null,,,,,,,,,,,,,,,,,,,,,,,,,,,
null,,learn_phase(without_color),807161,,black_plus_sign,,,,null,GW/racine.png,GW/westpalmbeach.png,,,,,,,,,,,,,,,,,,,,,,,,,
null,,black_cross(without_color),808205,,yellow,,,,null,GW/racine.png,GW/westpalmbeach.png,,,,,,,,,,,,,,,,,,,,,,,,,
null,,rt_plussign_withcolor,808707,,yellow,,,,null,GW/racine.png,GW/westpalmbeach.png,,,,,,,,,,,,,,,,,,,,,,,,,
1537.300000011921,,rt_thecrossant_black,809667,,black_plus_sign,,,,50,,,1,1,,,,,,,,,,,,,,,,,,,,,,,
null,,color_black,809769,,black_plus_sign,,,,null,,,,,,,,,,,,,,,,,,,,,,,,,,,
null,,learn_phase(without_color),812770,,black_plus_sign,,,,null,GW/newhope.png,GW/leesburg.png,,,,,,,,,,,,,,,,,,,,,,,,,
null,,black_cross(without_color),813581,,blue,,,,null,GW/newhope.png,GW/leesburg.png,,,,,,,,,,,,,,,,,,,,,,,,,
null,,rt_plussign_withcolor,814083,,blue,,,,null,GW/newhope.png,GW/leesburg.png,,,,,,,,,,,,,,,,,,,,,,,,,
1219.1000000238419,,rt_thecrossant_black,815276,,black_plus_sign,,,,49,,,1,1,,,,,,,,,,,,,,,,,,,,,,,
null,,color_black,815378,,black_plus_sign,,,,null,,,,,,,,,,,,,,,,,,,,,,,,,,,
null,,learn_phase(without_color),818380,,black_plus_sign,,,,null,GW/westpalmbeach.png,GW/racine.png,,,,,,,,,,,,,,,,,,,,,,,,,
null,,black_cross(without_color),818893,,blue,,,,null,GW/westpalmbeach.png,GW/racine.png,,,,,,,,,,,,,,,,,,,,,,,,,
null,,rt_plussign_withcolor,819395,,blue,,,,null,GW/westpalmbeach.png,GW/racine.png,,,,,,,,,,,,,,,,,,,,,,,,,
1258.199999988079,,rt_thecrossant_black,820885,,black_plus_sign,,,,49,,,1,1,,,,,,,,,,,,,,,,,,,,,,,
null,,color_black,820987,,black_plus_sign,,,,null,,,,,,,,,,,,,,,,,,,,,,,,,,,
null,,learn_phase(without_color),823990,,black_plus_sign,,,,null,GW/peoria.png,GW/cornwall.png,,,,,,,,,,,,,,,,,,,,,,,,,
null,,black_cross(without_color),824876,,yellow,,,,null,GW/peoria.png,GW/cornwall.png,,,,,,,,,,,,,,,,,,,,,,,,,
null,,rt_plussign_withcolor,825378,,yellow,,,,null,GW/peoria.png,GW/cornwall.png,,,,,,,,,,,,,,,,,,,,,,,,,
764.1000000238419,,rt_thecrossant_black,826494,,black_plus_sign,,,,50,,,1,1,,,,,,,,,,,,,,,,,,,,,,,
null,,color_black,826596,,black_plus_sign,,,,null,,,,,,,,,,,,,,,,,,,,,,,,,,,
null,,learn_phase(without_color),829598,,black_plus_sign,,,,null,GW/leesburg.png,GW/newhope.png,,,,,,,,,,,,,,,,,,,,,,,,,
null,,black_cross(without_color),830482,,blue,,,,null,GW/leesburg.png,GW/newhope.png,,,,,,,,,,,,,,,,,,,,,,,,,
null,,rt_plussign_withcolor,830983,,blue,,,,null,GW/leesburg.png,GW/newhope.png,,,,,,,,,,,,,,,,,,,,,,,,,
1228.3999999761581,,rt_thecrossant_black,832102,,black_plus_sign,,,,49,,,1,1,,,,,,,,,,,,,,,,,,,,,,,
null,,color_black,832204,,black_plus_sign,,,,null,,,,,,,,,,,,,,,,,,,,,,,,,,,
null,,learn_phase(without_color),835206,,black_plus_sign,,,,null,GW/cornwall.png,GW/peoria.png,,,,,,,,,,,,,,,,,,,,,,,,,
null,,black_cross(without_color),835637,,yellow,,,,null,GW/cornwall.png,GW/peoria.png,,,,,,,,,,,,,,,,,,,,,,,,,
null,,rt_plussign_withcolor,836139,,yellow,,,,null,GW/cornwall.png,GW/peoria.png,,,,,,,,,,,,,,,,,,,,,,,,,
1231.6000000238419,,rt_thecrossant_black,837711,,black_plus_sign,,,,50,,,1,1,,,,,,,,,,,,,,,,,,,,,,,
null,,color_black,837814,,black_plus_sign,,,,null,,,,,,,,,,,,,,,,,,,,,,,,,,,
null,,learn_phase(without_color),840816,,black_plus_sign,,,,null,GW/newhope.png,GW/leesburg.png,,,,,,,,,,,,,,,,,,,,,,,,,
null,,black_cross(without_color),841524,,blue,,,,null,GW/newhope.png,GW/leesburg.png,,,,,,,,,,,,,,,,,,,,,,,,,
null,,rt_plussign_withcolor,842026,,blue,,,,null,GW/newhope.png,GW/leesburg.png,,,,,,,,,,,,,,,,,,,,,,,,,
812.1999999880791,,rt_thecrossant_black,843323,,black_plus_sign,,,,49,,,1,1,,,,,,,,,,,,,,,,,,,,,,,
null,,color_black,843424,,black_plus_sign,,,,null,,,,,,,,,,,,,,,,,,,,,,,,,,,
null,,learn_phase(without_color),846426,,black_plus_sign,,,,null,GW/westpalmbeach.png,GW/racine.png,,,,,,,,,,,,,,,,,,,,,,,,,
null,,black_cross(without_color),847301,,yellow,,,,null,GW/westpalmbeach.png,GW/racine.png,,,,,,,,,,,,,,,,,,,,,,,,,
null,,rt_plussign_withcolor,847802,,yellow,,,,null,GW/westpalmbeach.png,GW/racine.png,,,,,,,,,,,,,,,,,,,,,,,,,
1048.2999999523163,,rt_thecrossant_black,848941,,black_plus_sign,,,,50,,,1,1,,,,,,,,,,,,,,,,,,,,,,,
null,,color_black,849044,,black_plus_sign,,,,null,,,,,,,,,,,,,,,,,,,,,,,,,,,
null,,learn_phase(without_color),852046,,black_plus_sign,,,,null,GW/newhope.png,GW/leesburg.png,,,,,,,,,,,,,,,,,,,,,,,,,
null,,black_cross(without_color),852890,,blue,,,,null,GW/newhope.png,GW/leesburg.png,,,,,,,,,,,,,,,,,,,,,,,,,
null,,rt_plussign_withcolor,853391,,blue,,,,null,GW/newhope.png,GW/leesburg.png,,,,,,,,,,,,,,,,,,,,,,,,,
1322.9000000357628,,rt_thecrossant_black,854552,,black_plus_sign,,,,49,,,1,1,,,,,,,,,,,,,,,,,,,,,,,
null,,color_black,854654,,black_plus_sign,,,,null,,,,,,,,,,,,,,,,,,,,,,,,,,,
null,,learn_phase(without_color),857655,,black_plus_sign,,,,null,GW/westpalmbeach.png,GW/racine.png,,,,,,,,,,,,,,,,,,,,,,,,,
null,,black_cross(without_color),858200,,blue,,,,null,GW/westpalmbeach.png,GW/racine.png,,,,,,,,,,,,,,,,,,,,,,,,,
null,,rt_plussign_withcolor,858701,,blue,,,,null,GW/westpalmbeach.png,GW/racine.png,,,,,,,,,,,,,,,,,,,,,,,,,
1390.300000011921,,rt_thecrossant_black,860161,,black_plus_sign,,,,49,,,1,1,,,,,,,,,,,,,,,,,,,,,,,
null,,color_black,860263,,black_plus_sign,,,,null,,,,,,,,,,,,,,,,,,,,,,,,,,,
null,,learn_phase(without_color),863265,,black_plus_sign,,,,null,GW/newhope.png,GW/leesburg.png,,,,,,,,,,,,,,,,,,,,,,,,,
null,,black_cross(without_color),864131,,yellow,,,,null,GW/newhope.png,GW/leesburg.png,,,,,,,,,,,,,,,,,,,,,,,,,
null,,rt_plussign_withcolor,864633,,yellow,,,,null,GW/newhope.png,GW/leesburg.png,,,,,,,,,,,,,,,,,,,,,,,,,
987.0999999642372,,rt_thecrossant_black,865778,,black_plus_sign,,,,50,,,1,1,,,,,,,,,,,,,,,,,,,,,,,
null,,color_black,865880,,black_plus_sign,,,,null,,,,,,,,,,,,,,,,,,,,,,,,,,,
null,,learn_phase(without_color),868883,,black_plus_sign,,,,null,GW/hotsprings.png,GW/carmel.png,,,,,,,,,,,,,,,,,,,,,,,,,
null,,black_cross(without_color),869514,,yellow,,,,null,GW/hotsprings.png,GW/carmel.png,,,,,,,,,,,,,,,,,,,,,,,,,
null,,rt_plussign_withcolor,870016,,yellow,,,,null,GW/hotsprings.png,GW/carmel.png,,,,,,,,,,,,,,,,,,,,,,,,,
1229.1000000238419,,rt_thecrossant_black,871390,,black_plus_sign,,,,50,,,1,1,,,,,,,,,,,,,,,,,,,,,,,
null,,color_black,871492,,black_plus_sign,,,,null,,,,,,,,,,,,,,,,,,,,,,,,,,,
null,,learn_phase(without_color),874495,,black_plus_sign,,,,null,GW/cornwall.png,GW/peoria.png,,,,,,,,,,,,,,,,,,,,,,,,,
null,,black_cross(without_color),874967,,yellow,,,,null,GW/cornwall.png,GW/peoria.png,,,,,,,,,,,,,,,,,,,,,,,,,
null,,rt_plussign_withcolor,875470,,yellow,,,,null,GW/cornwall.png,GW/peoria.png,,,,,,,,,,,,,,,,,,,,,,,,,
869,,rt_thecrossant_black,877000,,black_plus_sign,,,,50,,,1,1,,,,,,,,,,,,,,,,,,,,,,,
null,,color_black,877102,,black_plus_sign,,,,null,,,,,,,,,,,,,,,,,,,,,,,,,,,
null,,learn_phase(without_color),880104,,black_plus_sign,,,,null,GW/carmel.png,GW/hotsprings.png,,,,,,,,,,,,,,,,,,,,,,,,,
null,,black_cross(without_color),881065,,blue,,,,null,GW/carmel.png,GW/hotsprings.png,,,,,,,,,,,,,,,,,,,,,,,,,
null,,rt_plussign_withcolor,881568,,blue,,,,null,GW/carmel.png,GW/hotsprings.png,,,,,,,,,,,,,,,,,,,,,,,,,
725.8999999761581,,rt_thecrossant_black,882611,,black_plus_sign,,,,49,,,1,1,,,,,,,,,,,,,,,,,,,,,,,
null,,color_black,882713,,black_plus_sign,,,,null,,,,,,,,,,,,,,,,,,,,,,,,,,,
null,,learn_phase(without_color),885717,,black_plus_sign,,,,null,GW/peoria.png,GW/cornwall.png,,,,,,,,,,,,,,,,,,,,,,,,,
null,,black_cross(without_color),886249,,yellow,,,,null,GW/peoria.png,GW/cornwall.png,,,,,,,,,,,,,,,,,,,,,,,,,
null,,rt_plussign_withcolor,886751,,yellow,,,,null,GW/peoria.png,GW/cornwall.png,,,,,,,,,,,,,,,,,,,,,,,,,
1254.800000011921,,rt_thecrossant_black,888224,,black_plus_sign,,,,50,,,1,1,,,,,,,,,,,,,,,,,,,,,,,
null,,color_black,888326,,black_plus_sign,,,,null,,,,,,,,,,,,,,,,,,,,,,,,,,,
null,,learn_phase(without_color),891328,,black_plus_sign,,,,null,GW/westpalmbeach.png,GW/racine.png,,,,,,,,,,,,,,,,,,,,,,,,,
null,,black_cross(without_color),892337,,yellow,,,,null,GW/westpalmbeach.png,GW/racine.png,,,,,,,,,,,,,,,,,,,,,,,,,
null,,rt_plussign_withcolor,892847,,yellow,,,,null,GW/westpalmbeach.png,GW/racine.png,,,,,,,,,,,,,,,,,,,,,,,,,
684.1000000238419,,rt_thecrossant_black,893854,,black_plus_sign,,,,50,,,1,1,,,,,,,,,,,,,,,,,,,,,,,
null,,color_black,893955,,black_plus_sign,,,,null,,,,,,,,,,,,,,,,,,,,,,,,,,,
null,,learn_phase(without_color),896957,,black_plus_sign,,,,null,GW/carmel.png,GW/hotsprings.png,,,,,,,,,,,,,,,,,,,,,,,,,
null,,black_cross(without_color),898003,,yellow,,,,null,GW/carmel.png,GW/hotsprings.png,,,,,,,,,,,,,,,,,,,,,,,,,
null,,rt_plussign_withcolor,898506,,yellow,,,,null,GW/carmel.png,GW/hotsprings.png,,,,,,,,,,,,,,,,,,,,,,,,,
1214.699999988079,,rt_thecrossant_black,899465,,black_plus_sign,,,,50,,,1,1,,,,,,,,,,,,,,,,,,,,,,,
null,,color_black,899566,,black_plus_sign,,,,null,,,,,,,,,,,,,,,,,,,,,,,,,,,
null,,learn_phase(without_color),902568,,black_plus_sign,,,,null,GW/racine.png,GW/westpalmbeach.png,,,,,,,,,,,,,,,,,,,,,,,,,
null,,black_cross(without_color),903284,,yellow,,,,null,GW/racine.png,GW/westpalmbeach.png,,,,,,,,,,,,,,,,,,,,,,,,,
null,,rt_plussign_withcolor,903785,,yellow,,,,null,GW/racine.png,GW/westpalmbeach.png,,,,,,,,,,,,,,,,,,,,,,,,,
1251.5,,rt_thecrossant_black,905073,,black_plus_sign,,,,50,,,1,1,,,,,,,,,,,,,,,,,,,,,,,
null,,color_black,905174,,black_plus_sign,,,,null,,,,,,,,,,,,,,,,,,,,,,,,,,,
null,,learn_phase(without_color),908176,,black_plus_sign,,,,null,GW/carmel.png,GW/hotsprings.png,,,,,,,,,,,,,,,,,,,,,,,,,
null,,black_cross(without_color),909249,,blue,,,,null,GW/carmel.png,GW/hotsprings.png,,,,,,,,,,,,,,,,,,,,,,,,,
null,,rt_plussign_withcolor,909752,,blue,,,,null,GW/carmel.png,GW/hotsprings.png,,,,,,,,,,,,,,,,,,,,,,,,,
1486.699999988079,,rt_thecrossant_black,910681,,black_plus_sign,,,,49,,,1,1,,,,,,,,,,,,,,,,,,,,,,,
null,,color_black,910784,,black_plus_sign,,,,null,,,,,,,,,,,,,,,,,,,,,,,,,,,
null,,learn_phase(without_color),913786,,black_plus_sign,,,,null,GW/westpalmbeach.png,GW/racine.png,,,,,,,,,,,,,,,,,,,,,,,,,
null,,black_cross(without_color),914219,,yellow,,,,null,GW/westpalmbeach.png,GW/racine.png,,,,,,,,,,,,,,,,,,,,,,,,,
null,,rt_plussign_withcolor,914721,,yellow,,,,null,GW/westpalmbeach.png,GW/racine.png,,,,,,,,,,,,,,,,,,,,,,,,,
1307.7000000476837,,rt_thecrossant_black,916292,,black_plus_sign,,,,50,,,1,1,,,,,,,,,,,,,,,,,,,,,,,
null,,color_black,916394,,black_plus_sign,,,,null,,,,,,,,,,,,,,,,,,,,,,,,,,,
null,,learn_phase(without_color),919395,,black_plus_sign,,,,null,GW/cornwall.png,GW/peoria.png,,,,,,,,,,,,,,,,,,,,,,,,,
null,,black_cross(without_color),920176,,blue,,,,null,GW/cornwall.png,GW/peoria.png,,,,,,,,,,,,,,,,,,,,,,,,,
null,,rt_plussign_withcolor,920686,,blue,,,,null,GW/cornwall.png,GW/peoria.png,,,,,,,,,,,,,,,,,,,,,,,,,
558.0999999642372,,rt_thecrossant_black,921908,,black_plus_sign,,,,49,,,1,1,,,,,,,,,,,,,,,,,,,,,,,
null,,color_black,922010,,black_plus_sign,,,,null,,,,,,,,,,,,,,,,,,,,,,,,,,,
null,,learn_phase(without_color),925012,,black_plus_sign,,,,null,GW/carmel.png,GW/hotsprings.png,,,,,,,,,,,,,,,,,,,,,,,,,
null,,black_cross(without_color),925982,,blue,,,,null,GW/carmel.png,GW/hotsprings.png,,,,,,,,,,,,,,,,,,,,,,,,,
null,,rt_plussign_withcolor,926484,,blue,,,,null,GW/carmel.png,GW/hotsprings.png,,,,,,,,,,,,,,,,,,,,,,,,,
1036.699999988079,,rt_thecrossant_black,927518,,black_plus_sign,,,,49,,,1,1,,,,,,,,,,,,,,,,,,,,,,,
null,,color_black,927621,,black_plus_sign,,,,null,,,,,,,,,,,,,,,,,,,,,,,,,,,
null,,learn_phase(without_color),930624,,black_plus_sign,,,,null,GW/leesburg.png,GW/newhope.png,,,,,,,,,,,,,,,,,,,,,,,,,
null,,black_cross(without_color),931348,,blue,,,,null,GW/leesburg.png,GW/newhope.png,,,,,,,,,,,,,,,,,,,,,,,,,
null,,rt_plussign_withcolor,931850,,blue,,,,null,GW/leesburg.png,GW/newhope.png,,,,,,,,,,,,,,,,,,,,,,,,,
1150.4000000357628,,rt_thecrossant_black,933130,,black_plus_sign,,,,49,,,1,1,,,,,,,,,,,,,,,,,,,,,,,
null,,color_black,933232,,black_plus_sign,,,,null,,,,,,,,,,,,,,,,,,,,,,,,,,,
null,,learn_phase(without_color),936235,,black_plus_sign,,,,null,GW/hotsprings.png,GW/carmel.png,,,,,,,,,,,,,,,,,,,,,,,,,
null,,black_cross(without_color),937075,,blue,,,,null,GW/hotsprings.png,GW/carmel.png,,,,,,,,,,,,,,,,,,,,,,,,,
null,,rt_plussign_withcolor,937577,,blue,,,,null,GW/hotsprings.png,GW/carmel.png,,,,,,,,,,,,,,,,,,,,,,,,,
1033.0999999642372,,rt_thecrossant_black,938740,,black_plus_sign,,,,49,,,1,1,,,,,,,,,,,,,,,,,,,,,,,
null,,color_black,938841,,black_plus_sign,,,,null,,,,,,,,,,,,,,,,,,,,,,,,,,,
null,,learn_phase(without_color),941843,,black_plus_sign,,,,null,GW/peoria.png,GW/cornwall.png,,,,,,,,,,,,,,,,,,,,,,,,,
null,,black_cross(without_color),942708,,yellow,,,,null,GW/peoria.png,GW/cornwall.png,,,,,,,,,,,,,,,,,,,,,,,,,
null,,rt_plussign_withcolor,943210,,yellow,,,,null,GW/peoria.png,GW/cornwall.png,,,,,,,,,,,,,,,,,,,,,,,,,
1405.8999999761581,,rt_thecrossant_black,944349,,black_plus_sign,,,,50,,,1,1,,,,,,,,,,,,,,,,,,,,,,,
null,,color_black,944453,,black_plus_sign,,,,null,,,,,,,,,,,,,,,,,,,,,,,,,,,
null,,learn_phase(without_color),947456,,black_plus_sign,,,,null,GW/hotsprings.png,GW/carmel.png,,,,,,,,,,,,,,,,,,,,,,,,,
null,,black_cross(without_color),948532,,yellow,,,,null,GW/hotsprings.png,GW/carmel.png,,,,,,,,,,,,,,,,,,,,,,,,,
null,,rt_plussign_withcolor,949034,,yellow,,,,null,GW/hotsprings.png,GW/carmel.png,,,,,,,,,,,,,,,,,,,,,,,,,
1271.9000000357628,,rt_thecrossant_black,949962,,black_plus_sign,,,,50,,,1,1,,,,,,,,,,,,,,,,,,,,,,,
null,,color_black,950064,,black_plus_sign,,,,null,,,,,,,,,,,,,,,,,,,,,,,,,,,
null,,learn_phase(without_color),953066,,black_plus_sign,,,,null,GW/leesburg.png,GW/newhope.png,,,,,,,,,,,,,,,,,,,,,,,,,
null,,black_cross(without_color),954038,,yellow,,,,null,GW/leesburg.png,GW/newhope.png,,,,,,,,,,,,,,,,,,,,,,,,,
null,,rt_plussign_withcolor,954540,,yellow,,,,null,GW/leesburg.png,GW/newhope.png,,,,,,,,,,,,,,,,,,,,,,,,,
1377.1000000238419,,rt_thecrossant_black,955572,,black_plus_sign,,,,50,,,1,1,,,,,,,,,,,,,,,,,,,,,,,
null,,color_black,955674,,black_plus_sign,,,,null,,,,,,,,,,,,,,,,,,,,,,,,,,,
25489.100000023842,,learn_break,981164,,learn_break,,,,32,,,,,,,,,,,,,,,,,,,,,,,,,,,
77642.60000002384,,intro_1,1058808,,instruct,,0,Start,,,,,,,,,,,,,,,,,,,,,,,,,,,,
5232.099999964237,,directmemory_phase,1064041,,GW/cornwall.png,,,,50,,,1,1,GW/westpalmbeach.png,GW/racine.png,GW/boulder.png,GW/racine.png,GW/westpalmbeach.png,GW/boulder.png,1,,,,,,,,,,,,,,,,
null,,html-keyboard-response,1065044,,<p></p>,,,,null,,,,,,,,,,,,,,,,,,,,,,,,,,,
4293.699999988079,,directmemory_phase,1069339,,GW/boulder.png,,,,49,,,1,1,GW/leesburg.png,GW/carmel.png,GW/newhope.png,GW/leesburg.png,GW/newhope.png,GW/carmel.png,1,,,,,,,,,,,,,,,,
null,,html-keyboard-response,1070340,,<p></p>,,,,null,,,,,,,,,,,,,,,,,,,,,,,,,,,
5301.399999976158,,directmemory_phase,1075642,,GW/shreveport.png,,,,49,,,1,1,GW/racine.png,GW/gatlinburg.png,GW/huntsville.png,GW/racine.png,GW/huntsville.png,GW/gatlinburg.png,1,,,,,,,,,,,,,,,,
null,,html-keyboard-response,1076645,,<p></p>,,,,null,,,,,,,,,,,,,,,,,,,,,,,,,,,
null,,directmemory_phase,1083147,,GW/cornwall.png,,,,null,,,0,0.75,GW/leesburg.png,GW/newhope.png,GW/boulder.png,GW/newhope.png,GW/leesburg.png,GW/boulder.png,0,,,,,,,,,,,,,,,,
null,,warning_page,1086150,,warning,,,,null,,,,,,,,,,,,,,,,,,,,,,,,,,,
null,,html-keyboard-response,1087152,,<p></p>,,,,null,,,,,,,,,,,,,,,,,,,,,,,,,,,
2996.600000023842,,directmemory_phase,1090150,,GW/racine.png,,,,51,,,1,0.8,GW/leesburg.png,GW/hanover.png,GW/peoria.png,GW/peoria.png,GW/hanover.png,GW/leesburg.png,1,,,,,,,,,,,,,,,,
null,,html-keyboard-response,1091152,,<p></p>,,,,null,,,,,,,,,,,,,,,,,,,,,,,,,,,
1661.0999999642372,,directmemory_phase,1092814,,GW/leesburg.png,,,,49,,,0,0.6666666666666666,GW/shreveport.png,GW/cornwall.png,GW/newhope.png,GW/newhope.png,GW/cornwall.png,GW/shreveport.png,0.5,closer,,,,,,,,,,,,,,,
null,,html-keyboard-response,1093815,,<p></p>,,,,null,,,,,,,,,,,,,,,,,,,,,,,,,,,
2885.599999964237,,directmemory_phase,1096702,,GW/cornwall.png,,,,51,,,1,0.7142857142857143,GW/hanover.png,GW/huntsville.png,GW/peoria.png,GW/peoria.png,GW/huntsville.png,GW/hanover.png,1,,,,,,,,,,,,,,,,
null,,html-keyboard-response,1097705,,<p></p>,,,,null,,,,,,,,,,,,,,,,,,,,,,,,,,,
2252.600000023842,,directmemory_phase,1099959,,GW/huntsville.png,,,,49,,,1,0.75,GW/newhope.png,GW/westpalmbeach.png,GW/leesburg.png,GW/newhope.png,GW/leesburg.png,GW/westpalmbeach.png,1,,,,,,,,,,,,,,,,
null,,html-keyboard-response,1100960,,<p></p>,,,,null,,,,,,,,,,,,,,,,,,,,,,,,,,,
1382.0999999642372,,directmemory_phase,1102343,,GW/peoria.png,,,,49,,,1,0.7777777777777778,GW/racine.png,GW/boulder.png,GW/westpalmbeach.png,GW/racine.png,GW/westpalmbeach.png,GW/boulder.png,1,,,,,,,,,,,,,,,,
null,,html-keyboard-response,1103344,,<p></p>,,,,null,,,,,,,,,,,,,,,,,,,,,,,,,,,
1766.199999988079,,directmemory_phase,1105112,,GW/newhope.png,,,,51,,,1,0.8,GW/carmel.png,GW/gatlinburg.png,GW/cornwall.png,GW/cornwall.png,GW/gatlinburg.png,GW/carmel.png,1,,,,,,,,,,,,,,,,
null,,html-keyboard-response,1106114,,<p></p>,,,,null,,,,,,,,,,,,,,,,,,,,,,,,,,,
1974,,directmemory_phase,1108089,,GW/huntsville.png,,,,51,,,0,0.7272727272727273,GW/gatlinburg.png,GW/westpalmbeach.png,GW/cornwall.png,GW/gatlinburg.png,GW/cornwall.png,GW/westpalmbeach.png,0.5,closer,,,,,,,,,,,,,,,
null,,html-keyboard-response,1109091,,<p></p>,,,,null,,,,,,,,,,,,,,,,,,,,,,,,,,,
2027.800000011921,,directmemory_phase,1111120,,GW/racine.png,,,,50,,,1,0.75,GW/hanover.png,GW/shreveport.png,GW/gatlinburg.png,GW/shreveport.png,GW/hanover.png,GW/gatlinburg.png,1,,,,,,,,,,,,,,,,
null,,html-keyboard-response,1112122,,<p></p>,,,,null,,,,,,,,,,,,,,,,,,,,,,,,,,,
2422,,directmemory_phase,1114546,,GW/gatlinburg.png,,,,51,,,1,0.7692307692307693,GW/westpalmbeach.png,GW/leesburg.png,GW/hotsprings.png,GW/hotsprings.png,GW/leesburg.png,GW/westpalmbeach.png,1,,,,,,,,,,,,,,,,
null,,html-keyboard-response,1115547,,<p></p>,,,,null,,,,,,,,,,,,,,,,,,,,,,,,,,,
2725.2000000476837,,directmemory_phase,1118273,,GW/peoria.png,,,,51,,,1,0.7857142857142857,GW/hotsprings.png,GW/newhope.png,GW/huntsville.png,GW/huntsville.png,GW/newhope.png,GW/hotsprings.png,1,,,,,,,,,,,,,,,,
null,,html-keyboard-response,1119274,,<p></p>,,,,null,,,,,,,,,,,,,,,,,,,,,,,,,,,
1686.8999999761581,,directmemory_phase,1120962,,GW/carmel.png,,,,50,,,1,0.8,GW/leesburg.png,GW/hotsprings.png,GW/boulder.png,GW/hotsprings.png,GW/leesburg.png,GW/boulder.png,1,,,,,,,,,,,,,,,,
null,,html-keyboard-response,1121964,,<p></p>,,,,null,,,,,,,,,,,,,,,,,,,,,,,,,,,
2998.300000011921,,directmemory_phase,1124963,,GW/peoria.png,,,,49,,,0,0.75,GW/hotsprings.png,GW/westpalmbeach.png,GW/shreveport.png,GW/shreveport.png,GW/westpalmbeach.png,GW/hotsprings.png,0.5,closer,,,,,,,,,,,,,,,
null,,html-keyboard-response,1125965,,<p></p>,,,,null,,,,,,,,,,,,,,,,,,,,,,,,,,,
1668.5999999642372,,directmemory_phase,1127635,,GW/westpalmbeach.png,,,,49,,,1,0.7647058823529411,GW/racine.png,GW/gatlinburg.png,GW/peoria.png,GW/racine.png,GW/peoria.png,GW/gatlinburg.png,1,,,,,,,,,,,,,,,,
null,,html-keyboard-response,1128637,,<p></p>,,,,null,,,,,,,,,,,,,,,,,,,,,,,,,,,
1853.2000000476837,,directmemory_phase,1130492,,GW/shreveport.png,,,,49,,,0,0.7222222222222222,GW/leesburg.png,GW/cornwall.png,GW/hanover.png,GW/hanover.png,GW/cornwall.png,GW/leesburg.png,0.5,closer,,,,,,,,,,,,,,,
null,,html-keyboard-response,1131501,,<p></p>,,,,null,,,,,,,,,,,,,,,,,,,,,,,,,,,
2640,,directmemory_phase,1134142,,GW/racine.png,,,,50,,,0,0.6842105263157895,GW/cornwall.png,GW/leesburg.png,GW/newhope.png,GW/cornwall.png,GW/newhope.png,GW/leesburg.png,0.5,closer,,,,,,,,,,,,,,,
null,,html-keyboard-response,1135144,,<p></p>,,,,null,,,,,,,,,,,,,,,,,,,,,,,,,,,
2213.100000023842,,directmemory_phase,1137358,,GW/shreveport.png,,,,49,,,0,0.65,GW/leesburg.png,GW/huntsville.png,GW/peoria.png,GW/peoria.png,GW/huntsville.png,GW/leesburg.png,0.5,closer,,,,,,,,,,,,,,,
null,,html-keyboard-response,1138360,,<p></p>,,,,null,,,,,,,,,,,,,,,,,,,,,,,,,,,
1708,,directmemory_phase,1140069,,GW/hotsprings.png,,,,51,,,1,0.6666666666666666,GW/shreveport.png,GW/huntsville.png,GW/carmel.png,GW/carmel.png,GW/huntsville.png,GW/shreveport.png,1,,,,,,,,,,,,,,,,
null,,html-keyboard-response,1141071,,<p></p>,,,,null,,,,,,,,,,,,,,,,,,,,,,,,,,,
1974.699999988079,,directmemory_phase,1143047,,GW/hanover.png,,,,50,,,1,0.6818181818181818,GW/racine.png,GW/shreveport.png,GW/gatlinburg.png,GW/shreveport.png,GW/racine.png,GW/gatlinburg.png,1,,,,,,,,,,,,,,,,
null,,html-keyboard-response,1144055,,<p></p>,,,,null,,,,,,,,,,,,,,,,,,,,,,,,,,,
1959.199999988079,,directmemory_phase,1146015,,GW/leesburg.png,,,,49,,,1,0.6956521739130435,GW/boulder.png,GW/westpalmbeach.png,GW/huntsville.png,GW/boulder.png,GW/huntsville.png,GW/westpalmbeach.png,1,,,,,,,,,,,,,,,,
null,,html-keyboard-response,1147018,,<p></p>,,,,null,,,,,,,,,,,,,,,,,,,,,,,,,,,
1899.8999999761581,,directmemory_phase,1148919,,GW/peoria.png,,,,50,,,1,0.7083333333333334,GW/hanover.png,GW/cornwall.png,GW/boulder.png,GW/cornwall.png,GW/hanover.png,GW/boulder.png,1,,,,,,,,,,,,,,,,
null,,html-keyboard-response,1149921,,<p></p>,,,,null,,,,,,,,,,,,,,,,,,,,,,,,,,,
1973.199999988079,,directmemory_phase,1151895,,GW/gatlinburg.png,,,,49,,,1,0.72,GW/huntsville.png,GW/boulder.png,GW/peoria.png,GW/huntsville.png,GW/peoria.png,GW/boulder.png,1,,,,,,,,,,,,,,,,
null,,html-keyboard-response,1152896,,<p></p>,,,,null,,,,,,,,,,,,,,,,,,,,,,,,,,,
2758.300000011921,,directmemory_phase,1155656,,GW/leesburg.png,,,,51,,,1,0.7307692307692307,GW/westpalmbeach.png,GW/carmel.png,GW/hotsprings.png,GW/hotsprings.png,GW/carmel.png,GW/westpalmbeach.png,1,,,,,,,,,,,,,,,,
null,,html-keyboard-response,1156659,,<p></p>,,,,null,,,,,,,,,,,,,,,,,,,,,,,,,,,
2405.199999988079,,directmemory_phase,1159065,,GW/newhope.png,,,,49,,,1,0.7407407407407407,GW/huntsville.png,GW/shreveport.png,GW/gatlinburg.png,GW/huntsville.png,GW/gatlinburg.png,GW/shreveport.png,1,,,,,,,,,,,,,,,,
null,,html-keyboard-response,1160067,,<p></p>,,,,null,,,,,,,,,,,,,,,,,,,,,,,,,,,
2172.5,,directmemory_phase,1162240,,GW/hotsprings.png,,,,49,,,1,0.75,GW/leesburg.png,GW/peoria.png,GW/boulder.png,GW/leesburg.png,GW/boulder.png,GW/peoria.png,1,,,,,,,,,,,,,,,,
null,,html-keyboard-response,1163242,,<p></p>,,,,null,,,,,,,,,,,,,,,,,,,,,,,,,,,
1191,,directmemory_phase,1164434,,GW/huntsville.png,,,,51,,,1,0.7586206896551724,GW/hanover.png,GW/racine.png,GW/peoria.png,GW/peoria.png,GW/racine.png,GW/hanover.png,1,,,,,,,,,,,,,,,,
null,,html-keyboard-response,1165435,,<p></p>,,,,null,,,,,,,,,,,,,,,,,,,,,,,,,,,
1940.7999999523163,,directmemory_phase,1167377,,GW/newhope.png,,,,50,,,1,0.7666666666666667,GW/boulder.png,GW/leesburg.png,GW/shreveport.png,GW/leesburg.png,GW/boulder.png,GW/shreveport.png,1,,,,,,,,,,,,,,,,
null,,html-keyboard-response,1168379,,<p></p>,,,,null,,,,,,,,,,,,,,,,,,,,,,,,,,,
1133.199999988079,,directmemory_phase,1169514,,GW/hotsprings.png,,,,51,,,1,0.7741935483870968,GW/peoria.png,GW/huntsville.png,GW/gatlinburg.png,GW/gatlinburg.png,GW/huntsville.png,GW/peoria.png,1,,,,,,,,,,,,,,,,
null,,html-keyboard-response,1170515,,<p></p>,,,,null,,,,,,,,,,,,,,,,,,,,,,,,,,,
1429.800000011921,,directmemory_phase,1171946,,GW/racine.png,,,,51,,,1,0.78125,GW/leesburg.png,GW/newhope.png,GW/westpalmbeach.png,GW/westpalmbeach.png,GW/newhope.png,GW/leesburg.png,1,,,,,,,,,,,,,,,,
null,,html-keyboard-response,1172948,,<p></p>,,,,null,,,,,,,,,,,,,,,,,,,,,,,,,,,
29033.69999998808,,intro_1,1201983,,instruct,,0,,,,,,,,,,,,,,,,,,,,,,,,,,,,,
10543.899999976158,,intro_2,1212529,,instruct,,1,Next,,,,,,,,,,,,,,,,,,,,,,,,,,,,
4175,,intro_3,1216705,,instruct,,1,Next,,,,,,,,,,,,,,,,,,,,,,,,,,,,
3750.800000011921,,intro_4,1220458,,instruct,,1,Next,,,,,,,,,,,,,,,,,,,,,,,,,,,,
8735.100000023842,,intro_5,1229195,,instruct,,1,Next,,,,,,,,,,,,,,,,,,,,,,,,,,,,
6951.399999976158,,intro_6,1236148,,instruct,,1,Next,,,,,,,,,,,,,,,,,,,,,,,,,,,,
14585.299999952316,,intro_7,1250735,,instruct,,1,Next,,,,,,,,,,,,,,,,,,,,,,,,,,,,
10871.599999964237,,intro_8,1261608,,instruct,,1,Next,,,,,,,,,,,,,,,,,,,,,,,,,,,,
2511.899999976158,,shortestpath_phase,1264122,,GW/carmel.png,,,,49,GW/gatlinburg.png,GW/shreveport.png,1,1,,,,GW/gatlinburg.png,,,,,Three Edge Diff,Two Edge Five Edge,,,,,,,,,,,,,
null,,html-keyboard-response,1265124,,<p></p>,,,,null,,,,,,,,,,,,,,,,,,,,,,,,,,,
1708,,shortestpath_phase,1266834,,GW/boulder.png,,,,49,GW/hotsprings.png,GW/westpalmbeach.png,1,1,,,,GW/hotsprings.png,,,,,Three Edge Diff,Two Edge Five Edge,,,,,,,,,,,,,
null,,html-keyboard-response,1267837,,<p></p>,,,,null,,,,,,,,,,,,,,,,,,,,,,,,,,,
1771.5999999642372,,shortestpath_phase,1269610,,GW/gatlinburg.png,,,,50,GW/westpalmbeach.png,GW/newhope.png,1,1,,,,GW/newhope.png,,,,,Two Edge Diff,Two Edge Four Edge,,,,,,,,,,,,,
null,,html-keyboard-response,1270612,,<p></p>,,,,null,,,,,,,,,,,,,,,,,,,,,,,,,,,
1574.199999988079,,shortestpath_phase,1272187,,GW/shreveport.png,,,,49,GW/boulder.png,GW/westpalmbeach.png,0,0.75,,,,GW/westpalmbeach.png,,,,,Three Edge Diff,Three Edge Six Edge,,,,,,,,,,,,,
null,,html-keyboard-response,1273195,,<p></p>,,,,null,,,,,,,,,,,,,,,,,,,,,,,,,,,
2046.800000011921,,shortestpath_phase,1275242,,GW/boulder.png,,,,49,GW/newhope.png,GW/shreveport.png,1,0.8,,,,GW/newhope.png,,,,,Three Edge Diff,Three Edge Six Edge,,,,,,,,,,,,,
null,,html-keyboard-response,1276244,,<p></p>,,,,null,,,,,,,,,,,,,,,,,,,,,,,,,,,
1743.3999999761581,,shortestpath_phase,1277988,,GW/carmel.png,,,,49,GW/gatlinburg.png,GW/racine.png,1,0.8333333333333334,,,,GW/gatlinburg.png,,,,,Three Edge Diff,Three Edge Six Edge,,,,,,,,,,,,,
null,,html-keyboard-response,1278991,,<p></p>,,,,null,,,,,,,,,,,,,,,,,,,,,,,,,,,
1411.5999999642372,,shortestpath_phase,1280404,,GW/westpalmbeach.png,,,,50,GW/hanover.png,GW/boulder.png,0,0.7142857142857143,,,,GW/hanover.png,,,,,Two Edge Diff,Three Edge Five Edge,,,,,,,,,,,,,
null,,html-keyboard-response,1281406,,<p></p>,,,,null,,,,,,,,,,,,,,,,,,,,,,,,,,,
1509.699999988079,,shortestpath_phase,1282916,,GW/racine.png,,,,50,GW/huntsville.png,GW/carmel.png,0,0.625,,,,GW/huntsville.png,,,,,Three Edge Diff,Two Edge Five Edge,,,,,,,,,,,,,
null,,html-keyboard-response,1283918,,<p></p>,,,,null,,,,,,,,,,,,,,,,,,,,,,,,,,,
1711.1000000238419,,shortestpath_phase,1285630,,GW/westpalmbeach.png,,,,50,GW/hotsprings.png,GW/leesburg.png,1,0.6666666666666666,,,,GW/leesburg.png,,,,,One Edge Diff,Four Edge Five Edge,,,,,,,,,,,,,
null,,html-keyboard-response,1286634,,<p></p>,,,,null,,,,,,,,,,,,,,,,,,,,,,,,,,,
1186.5,,shortestpath_phase,1287822,,GW/hanover.png,,,,49,GW/leesburg.png,GW/gatlinburg.png,0,0.6,,,,GW/gatlinburg.png,,,,,One Edge Diff,Four Edge Five Edge,,,,,,,,,,,,,
null,,html-keyboard-response,1288824,,<p></p>,,,,null,,,,,,,,,,,,,,,,,,,,,,,,,,,
1555.699999988079,,shortestpath_phase,1290381,,GW/westpalmbeach.png,,,,49,GW/shreveport.png,GW/boulder.png,1,0.6363636363636364,,,,GW/shreveport.png,,,,,Three Edge Diff,Three Edge Six Edge,,,,,,,,,,,,,
null,,html-keyboard-response,1291383,,<p></p>,,,,null,,,,,,,,,,,,,,,,,,,,,,,,,,,
942.0999999642372,,shortestpath_phase,1292326,,GW/hanover.png,,,,50,GW/leesburg.png,GW/peoria.png,1,0.6666666666666666,,,,GW/peoria.png,,,,,Three Edge Diff,Two Edge Five Edge,,,,,,,,,,,,,
null,,html-keyboard-response,1293329,,<p></p>,,,,null,,,,,,,,,,,,,,,,,,,,,,,,,,,
1827.800000011921,,shortestpath_phase,1295158,,GW/hotsprings.png,,,,50,GW/boulder.png,GW/westpalmbeach.png,0,0.6153846153846154,,,,GW/boulder.png,,,,,Three Edge Diff,Three Edge Six Edge,,,,,,,,,,,,,
null,,html-keyboard-response,1296160,,<p></p>,,,,null,,,,,,,,,,,,,,,,,,,,,,,,,,,
1509.2000000476837,,shortestpath_phase,1297671,,GW/hanover.png,,,,50,GW/hotsprings.png,GW/gatlinburg.png,1,0.6428571428571429,,,,GW/gatlinburg.png,,,,,One Edge Diff,Four Edge Five Edge,,,,,,,,,,,,,
null,,html-keyboard-response,1298672,,<p></p>,,,,null,,,,,,,,,,,,,,,,,,,,,,,,,,,
1630.199999988079,,shortestpath_phase,1300304,,GW/racine.png,,,,49,GW/newhope.png,GW/carmel.png,1,0.6666666666666666,,,,GW/newhope.png,,,,,Three Edge Diff,Two Edge Five Edge,,,,,,,,,,,,,
null,,html-keyboard-response,1301305,,<p></p>,,,,null,,,,,,,,,,,,,,,,,,,,,,,,,,,
1620.199999988079,,shortestpath_phase,1302927,,GW/westpalmbeach.png,,,,50,GW/leesburg.png,GW/hanover.png,1,0.6875,,,,GW/hanover.png,,,,,One Edge Diff,Three Edge Four Edge,,,,,,,,,,,,,
null,,html-keyboard-response,1303928,,<p></p>,,,,null,,,,,,,,,,,,,,,,,,,,,,,,,,,
1829.8999999761581,,shortestpath_phase,1305759,,GW/shreveport.png,,,,50,GW/newhope.png,GW/leesburg.png,0,0.6470588235294118,,,,GW/newhope.png,,,,,One Edge Diff,Three Edge Four Edge,,,,,,,,,,,,,
null,,html-keyboard-response,1306761,,<p></p>,,,,null,,,,,,,,,,,,,,,,,,,,,,,,,,,
1118.199999988079,,shortestpath_phase,1307880,,GW/hanover.png,,,,50,GW/carmel.png,GW/racine.png,1,0.6666666666666666,,,,GW/racine.png,,,,,Four Edge Diff,Two Edge Six Edge,,,,,,,,,,,,,
null,,html-keyboard-response,1308883,,<p></p>,,,,null,,,,,,,,,,,,,,,,,,,,,,,,,,,
1468.800000011921,,shortestpath_phase,1310352,,GW/shreveport.png,,,,50,GW/gatlinburg.png,GW/carmel.png,0,0.631578947368421,,,,GW/gatlinburg.png,,,,,Two Edge Diff,Three Edge Five Edge,,,,,,,,,,,,,
null,,html-keyboard-response,1311355,,<p></p>,,,,null,,,,,,,,,,,,,,,,,,,,,,,,,,,
1829.7000000476837,,shortestpath_phase,1313185,,GW/hanover.png,,,,49,GW/peoria.png,GW/cornwall.png,1,0.65,,,,GW/peoria.png,,,,,One Edge Diff,Two Edge Three Edge,,,,,,,,,,,,,
null,,html-keyboard-response,1314187,,<p></p>,,,,null,,,,,,,,,,,,,,,,,,,,,,,,,,,
1541,,shortestpath_phase,1315729,,GW/boulder.png,,,,49,GW/hanover.png,GW/racine.png,0,0.6190476190476191,,,,GW/racine.png,,,,,Two Edge Diff,Four Edge Six Edge,,,,,,,,,,,,,
null,,html-keyboard-response,1316730,,<p></p>,,,,null,,,,,,,,,,,,,,,,,,,,,,,,,,,
1622.9000000357628,,shortestpath_phase,1318354,,GW/hanover.png,,,,49,GW/carmel.png,GW/peoria.png,0,0.5909090909090909,,,,GW/peoria.png,,,,,Four Edge Diff,Two Edge Six Edge,,,,,,,,,,,,,
null,,html-keyboard-response,1319356,,<p></p>,,,,null,,,,,,,,,,,,,,,,,,,,,,,,,,,
1476.4000000357628,,shortestpath_phase,1320834,,GW/shreveport.png,,,,49,GW/leesburg.png,GW/cornwall.png,0,0.5652173913043478,,,,GW/cornwall.png,,,,,Two Edge Diff,Two Edge Four Edge,,,,,,,,,,,,,
null,,html-keyboard-response,1321836,,<p></p>,,,,null,,,,,,,,,,,,,,,,,,,,,,,,,,,
1495.199999988079,,shortestpath_phase,1323332,,GW/hanover.png,,,,50,GW/carmel.png,GW/newhope.png,1,0.5833333333333334,,,,GW/newhope.png,,,,,Two Edge Diff,Four Edge Six Edge,,,,,,,,,,,,,
null,,html-keyboard-response,1324334,,<p></p>,,,,null,,,,,,,,,,,,,,,,,,,,,,,,,,,
1060,,shortestpath_phase,1325395,,GW/boulder.png,,,,49,GW/huntsville.png,GW/westpalmbeach.png,1,0.6,,,,GW/huntsville.png,,,,,Two Edge Diff,Three Edge Five Edge,,,,,,,,,,,,,
null,,html-keyboard-response,1326398,,<p></p>,,,,null,,,,,,,,,,,,,,,,,,,,,,,,,,,
1564.6000000238419,,shortestpath_phase,1327964,,GW/carmel.png,,,,49,GW/hanover.png,GW/leesburg.png,0,0.5769230769230769,,,,GW/leesburg.png,,,,,Four Edge Diff,Two Edge Six Edge,,,,,,,,,,,,,
null,,html-keyboard-response,1328965,,<p></p>,,,,null,,,,,,,,,,,,,,,,,,,,,,,,,,,
1895.199999988079,,shortestpath_phase,1330862,,GW/hotsprings.png,,,,50,GW/westpalmbeach.png,GW/boulder.png,1,0.5925925925925926,,,,GW/boulder.png,,,,,Three Edge Diff,Two Edge Five Edge,,,,,,,,,,,,,
null,,html-keyboard-response,1331865,,<p></p>,,,,null,,,,,,,,,,,,,,,,,,,,,,,,,,,
1376.7999999523163,,shortestpath_phase,1333244,,GW/racine.png,,,,49,GW/huntsville.png,GW/carmel.png,1,0.6071428571428571,,,,GW/huntsville.png,,,,,Three Edge Diff,Three Edge Six Edge,,,,,,,,,,,,,
null,,html-keyboard-response,1334246,,<p></p>,,,,null,,,,,,,,,,,,,,,,,,,,,,,,,,,
1262.6000000238419,,shortestpath_phase,1335509,,GW/newhope.png,,,,50,GW/carmel.png,GW/boulder.png,1,0.6206896551724138,,,,GW/boulder.png,,,,,One Edge Diff,Two Edge Three Edge,,,,,,,,,,,,,
null,,html-keyboard-response,1336511,,<p></p>,,,,null,,,,,,,,,,,,,,,,,,,,,,,,,,,
1717.6000000238419,,shortestpath_phase,1338230,,GW/carmel.png,,,,49,GW/hanover.png,GW/racine.png,0,0.6,,,,GW/racine.png,,,,,One Edge Diff,Five Edge Six Edge,,,,,,,,,,,,,
null,,html-keyboard-response,1339232,,<p></p>,,,,null,,,,,,,,,,,,,,,,,,,,,,,,,,,
1084.300000011921,,shortestpath_phase,1340318,,GW/gatlinburg.png,,,,49,GW/newhope.png,GW/hanover.png,1,0.6129032258064516,,,,GW/newhope.png,,,,,Two Edge Diff,Two Edge Four Edge,,,,,,,,,,,,,
null,,html-keyboard-response,1341320,,<p></p>,,,,null,,,,,,,,,,,,,,,,,,,,,,,,,,,
1068.199999988079,,shortestpath_phase,1342390,,GW/shreveport.png,,,,49,GW/boulder.png,GW/westpalmbeach.png,0,0.59375,,,,GW/westpalmbeach.png,,,,,Three Edge Diff,Two Edge Five Edge,,,,,,,,,,,,,
null,,html-keyboard-response,1343391,,<p></p>,,,,null,,,,,,,,,,,,,,,,,,,,,,,,,,,
2158.100000023842,,shortestpath_phase,1345550,,GW/carmel.png,,,,49,GW/racine.png,GW/leesburg.png,0,0.5757575757575758,,,,GW/leesburg.png,,,,,Three Edge Diff,Two Edge Five Edge,,,,,,,,,,,,,
null,,html-keyboard-response,1346551,,<p></p>,,,,null,,,,,,,,,,,,,,,,,,,,,,,,,,,
1470.9000000357628,,shortestpath_phase,1348023,,GW/peoria.png,,,,50,GW/carmel.png,GW/hanover.png,1,0.5882352941176471,,,,GW/hanover.png,,,,,Two Edge Diff,Two Edge Four Edge,,,,,,,,,,,,,
null,,html-keyboard-response,1349025,,<p></p>,,,,null,,,,,,,,,,,,,,,,,,,,,,,,,,,
2965.800000011921,,shortestpath_phase,1351992,,GW/westpalmbeach.png,,,,49,GW/hotsprings.png,GW/cornwall.png,0,0.5714285714285714,,,,GW/cornwall.png,,,,,Three Edge Diff,Three Edge Six Edge,,,,,,,,,,,,,
null,,html-keyboard-response,1352995,,<p></p>,,,,null,,,,,,,,,,,,,,,,,,,,,,,,,,,
1541.1000000238419,,shortestpath_phase,1354537,,GW/leesburg.png,,,,49,GW/peoria.png,GW/shreveport.png,1,0.5833333333333334,,,,GW/peoria.png,,,,,One Edge Diff,Three Edge Four Edge,,,,,,,,,,,,,
null,,html-keyboard-response,1355540,,<p></p>,,,,null,,,,,,,,,,,,,,,,,,,,,,,,,,,
1562.800000011921,,shortestpath_phase,1357104,,GW/boulder.png,,,,50,GW/westpalmbeach.png,GW/hanover.png,0,0.5675675675675675,,,,GW/westpalmbeach.png,,,,,One Edge Diff,Five Edge Six Edge,,,,,,,,,,,,,
null,,html-keyboard-response,1358106,,<p></p>,,,,null,,,,,,,,,,,,,,,,,,,,,,,,,,,
1429.6000000238419,,shortestpath_phase,1359537,,GW/newhope.png,,,,49,GW/hanover.png,GW/carmel.png,0,0.5526315789473685,,,,GW/carmel.png,,,,,One Edge Diff,Three Edge Four Edge,,,,,,,,,,,,,
null,,html-keyboard-response,1360540,,<p></p>,,,,null,,,,,,,,,,,,,,,,,,,,,,,,,,,
2099.600000023842,,shortestpath_phase,1362641,,GW/westpalmbeach.png,,,,49,GW/hanover.png,GW/gatlinburg.png,1,0.5641025641025641,,,,GW/hanover.png,,,,,One Edge Diff,Three Edge Four Edge,,,,,,,,,,,,,
null,,html-keyboard-response,1363643,,<p></p>,,,,null,,,,,,,,,,,,,,,,,,,,,,,,,,,
1030.300000011921,,shortestpath_phase,1364674,,GW/hotsprings.png,,,,49,GW/shreveport.png,GW/hanover.png,1,0.575,,,,GW/shreveport.png,,,,,One Edge Diff,Four Edge Five Edge,,,,,,,,,,,,,
null,,html-keyboard-response,1365676,,<p></p>,,,,null,,,,,,,,,,,,,,,,,,,,,,,,,,,
1075.699999988079,,shortestpath_phase,1366753,,GW/cornwall.png,,,,50,GW/westpalmbeach.png,GW/hotsprings.png,0,0.5609756097560976,,,,GW/westpalmbeach.png,,,,,One Edge Diff,Two Edge Three Edge,,,,,,,,,,,,,
null,,html-keyboard-response,1367755,,<p></p>,,,,null,,,,,,,,,,,,,,,,,,,,,,,,,,,
1358.5,,shortestpath_phase,1369114,,GW/boulder.png,,,,49,GW/peoria.png,GW/hanover.png,1,0.5714285714285714,,,,GW/peoria.png,,,,,Two Edge Diff,Four Edge Six Edge,,,,,,,,,,,,,
null,,html-keyboard-response,1370117,,<p></p>,,,,null,,,,,,,,,,,,,,,,,,,,,,,,,,,
1220.199999988079,,shortestpath_phase,1371339,,GW/westpalmbeach.png,,,,49,GW/shreveport.png,GW/boulder.png,1,0.5813953488372093,,,,GW/shreveport.png,,,,,Three Edge Diff,Two Edge Five Edge,,,,,,,,,,,,,
null,,html-keyboard-response,1372340,,<p></p>,,,,null,,,,,,,,,,,,,,,,,,,,,,,,,,,
1830,,shortestpath_phase,1374171,,GW/hotsprings.png,,,,49,GW/hanover.png,GW/boulder.png,0,0.5681818181818182,,,,GW/boulder.png,,,,,Three Edge Diff,Three Edge Six Edge,,,,,,,,,,,,,
null,,html-keyboard-response,1375173,,<p></p>,,,,null,,,,,,,,,,,,,,,,,,,,,,,,,,,
1524,,shortestpath_phase,1376699,,GW/carmel.png,,,,49,GW/westpalmbeach.png,GW/gatlinburg.png,0,0.5555555555555556,,,,GW/gatlinburg.png,,,,,Four Edge Diff,Two Edge Six Edge,,,,,,,,,,,,,
null,,html-keyboard-response,1377701,,<p></p>,,,,null,,,,,,,,,,,,,,,,,,,,,,,,,,,
1565.800000011921,,shortestpath_phase,1379267,,GW/boulder.png,,,,50,GW/shreveport.png,GW/hotsprings.png,1,0.5652173913043478,,,,GW/hotsprings.png,,,,,Three Edge Diff,Three Edge Six Edge,,,,,,,,,,,,,
null,,html-keyboard-response,1380269,,<p></p>,,,,null,,,,,,,,,,,,,,,,,,,,,,,,,,,
1342.199999988079,,shortestpath_phase,1381612,,GW/leesburg.png,,,,49,GW/huntsville.png,GW/hanover.png,1,0.574468085106383,,,,GW/huntsville.png,,,,,Three Edge Diff,Two Edge Five Edge,,,,,,,,,,,,,
null,,html-keyboard-response,1382613,,<p></p>,,,,null,,,,,,,,,,,,,,,,,,,,,,,,,,,
1517.800000011921,,shortestpath_phase,1384132,,GW/boulder.png,,,,49,GW/westpalmbeach.png,GW/carmel.png,0,0.5625,,,,GW/carmel.png,,,,,Two Edge Diff,Three Edge Five Edge,,,,,,,,,,,,,
null,,html-keyboard-response,1385135,,<p></p>,,,,null,,,,,,,,,,,,,,,,,,,,,,,,,,,
1885.1000000238419,,shortestpath_phase,1387022,,GW/hanover.png,,,,49,GW/leesburg.png,GW/carmel.png,1,0.5714285714285714,,,,GW/leesburg.png,,,,,One Edge Diff,Five Edge Six Edge,,,,,,,,,,,,,
null,,html-keyboard-response,1388024,,<p></p>,,,,null,,,,,,,,,,,,,,,,,,,,,,,,,,,
883.5,,shortestpath_phase,1388909,,GW/boulder.png,,,,49,GW/hotsprings.png,GW/hanover.png,1,0.58,,,,GW/hotsprings.png,,,,,Four Edge Diff,Two Edge Six Edge,,,,,,,,,,,,,
null,,html-keyboard-response,1389911,,<p></p>,,,,null,,,,,,,,,,,,,,,,,,,,,,,,,,,
1198.4000000357628,,shortestpath_phase,1391110,,GW/hanover.png,,,,49,GW/hotsprings.png,GW/westpalmbeach.png,0,0.5686274509803921,,,,GW/westpalmbeach.png,,,,,Two Edge Diff,Three Edge Five Edge,,,,,,,,,,,,,
null,,html-keyboard-response,1392112,,<p></p>,,,,null,,,,,,,,,,,,,,,,,,,,,,,,,,,
1476.9000000357628,,shortestpath_phase,1393590,,GW/carmel.png,,,,50,GW/westpalmbeach.png,GW/leesburg.png,1,0.5769230769230769,,,,GW/leesburg.png,,,,,Four Edge Diff,Two Edge Six Edge,,,,,,,,,,,,,
null,,html-keyboard-response,1394591,,<p></p>,,,,null,,,,,,,,,,,,,,,,,,,,,,,,,,,
1022.3999999761581,,shortestpath_phase,1395614,,GW/westpalmbeach.png,,,,49,GW/carmel.png,GW/peoria.png,0,0.5660377358490566,,,,GW/peoria.png,,,,,Four Edge Diff,Two Edge Six Edge,,,,,,,,,,,,,
null,,html-keyboard-response,1396616,,<p></p>,,,,null,,,,,,,,,,,,,,,,,,,,,,,,,,,
1046.300000011921,,shortestpath_phase,1397664,,GW/boulder.png,,,,50,GW/racine.png,GW/carmel.png,1,0.5740740740740741,,,,GW/carmel.png,,,,,One Edge Diff,Three Edge Four Edge,,,,,,,,,,,,,
null,,html-keyboard-response,1398667,,<p></p>,,,,null,,,,,,,,,,,,,,,,,,,,,,,,,,,
940.3999999761581,,shortestpath_phase,1399608,,GW/westpalmbeach.png,,,,50,GW/shreveport.png,GW/carmel.png,0,0.5636363636363636,,,,GW/shreveport.png,,,,,Four Edge Diff,Two Edge Six Edge,,,,,,,,,,,,,
null,,html-keyboard-response,1400612,,<p></p>,,,,null,,,,,,,,,,,,,,,,,,,,,,,,,,,
1099.5,,shortestpath_phase,1401712,,GW/carmel.png,,,,49,GW/hanover.png,GW/peoria.png,0,0.5535714285714286,,,,GW/peoria.png,,,,,Two Edge Diff,Four Edge Six Edge,,,,,,,,,,,,,
null,,html-keyboard-response,1402715,,<p></p>,,,,null,,,,,,,,,,,,,,,,,,,,,,,,,,,
1522.5999999642372,,shortestpath_phase,1404239,,GW/westpalmbeach.png,,,,49,GW/carmel.png,GW/gatlinburg.png,0,0.543859649122807,,,,GW/gatlinburg.png,,,,,Two Edge Diff,Four Edge Six Edge,,,,,,,,,,,,,
null,,html-keyboard-response,1405246,,<p></p>,,,,null,,,,,,,,,,,,,,,,,,,,,,,,,,,
1241.6000000238419,,shortestpath_phase,1406488,,GW/hanover.png,,,,49,GW/newhope.png,GW/racine.png,0,0.5344827586206896,,,,GW/racine.png,,,,,Two Edge Diff,Two Edge Four Edge,,,,,,,,,,,,,
null,,html-keyboard-response,1407490,,<p></p>,,,,null,,,,,,,,,,,,,,,,,,,,,,,,,,,
1030.4000000357628,,shortestpath_phase,1408522,,GW/westpalmbeach.png,,,,49,GW/hotsprings.png,GW/cornwall.png,0,0.5254237288135594,,,,GW/cornwall.png,,,,,Three Edge Diff,Two Edge Five Edge,,,,,,,,,,,,,
null,,html-keyboard-response,1409524,,<p></p>,,,,null,,,,,,,,,,,,,,,,,,,,,,,,,,,
1210.7000000476837,,shortestpath_phase,1410736,,GW/gatlinburg.png,,,,49,GW/newhope.png,GW/boulder.png,1,0.5333333333333333,,,,GW/newhope.png,,,,,One Edge Diff,Two Edge Three Edge,,,,,,,,,,,,,
null,,html-keyboard-response,1411739,,<p></p>,,,,null,,,,,,,,,,,,,,,,,,,,,,,,,,,
1893.5999999642372,,shortestpath_phase,1413634,,GW/carmel.png,,,,50,GW/cornwall.png,GW/westpalmbeach.png,0,0.5245901639344263,,,,GW/cornwall.png,,,,,Two Edge Diff,Four Edge Six Edge,,,,,,,,,,,,,
null,,html-keyboard-response,1414637,,<p></p>,,,,null,,,,,,,,,,,,,,,,,,,,,,,,,,,
1419.5999999642372,,shortestpath_phase,1416057,,GW/boulder.png,,,,49,GW/newhope.png,GW/westpalmbeach.png,1,0.532258064516129,,,,GW/newhope.png,,,,,Three Edge Diff,Three Edge Six Edge,,,,,,,,,,,,,
null,,html-keyboard-response,1417060,,<p></p>,,,,null,,,,,,,,,,,,,,,,,,,,,,,,,,,
1301.0999999642372,,shortestpath_phase,1418362,,GW/hanover.png,,,,50,GW/huntsville.png,GW/peoria.png,1,0.5396825396825397,,,,GW/peoria.png,,,,,One Edge Diff,Two Edge Three Edge,,,,,,,,,,,,,
null,,html-keyboard-response,1419364,,<p></p>,,,,null,,,,,,,,,,,,,,,,,,,,,,,,,,,
1102.3999999761581,,shortestpath_phase,1420467,,GW/boulder.png,,,,49,GW/newhope.png,GW/shreveport.png,1,0.546875,,,,GW/newhope.png,,,,,Three Edge Diff,Two Edge Five Edge,,,,,,,,,,,,,
null,,html-keyboard-response,1421469,,<p></p>,,,,null,,,,,,,,,,,,,,,,,,,,,,,,,,,
1036.1000000238419,,shortestpath_phase,1422506,,GW/carmel.png,,,,49,GW/westpalmbeach.png,GW/shreveport.png,0,0.5384615384615384,,,,GW/shreveport.png,,,,,One Edge Diff,Five Edge Six Edge,,,,,,,,,,,,,
null,,html-keyboard-response,1423508,,<p></p>,,,,null,,,,,,,,,,,,,,,,,,,,,,,,,,,
1085,,shortestpath_phase,1424595,,GW/hanover.png,,,,50,GW/newhope.png,GW/boulder.png,0,0.5303030303030303,,,,GW/newhope.png,,,,,Two Edge Diff,Four Edge Six Edge,,,,,,,,,,,,,
null,,html-keyboard-response,1425597,,<p></p>,,,,null,,,,,,,,,,,,,,,,,,,,,,,,,,,
1180.9000000357628,,shortestpath_phase,1426779,,GW/boulder.png,,,,50,GW/racine.png,GW/westpalmbeach.png,0,0.5223880597014925,,,,GW/racine.png,,,,,One Edge Diff,Four Edge Five Edge,,,,,,,,,,,,,
null,,html-keyboard-response,1427781,,<p></p>,,,,null,,,,,,,,,,,,,,,,,,,,,,,,,,,
1741.199999988079,,shortestpath_phase,1429524,,GW/carmel.png,,,,50,GW/peoria.png,GW/leesburg.png,1,0.5294117647058824,,,,GW/leesburg.png,,,,,Two Edge Diff,Two Edge Four Edge,,,,,,,,,,,,,
null,,html-keyboard-response,1430527,,<p></p>,,,,null,,,,,,,,,,,,,,,,,,,,,,,,,,,
