rt,responses,trial_type,time_elapsed,sequence,stimulus,graphorder,button_pressed,response,key_press,stimulus_left,stimulus_right,accuracy,cumulative_accuracy,stimulus_down_left,stimulus_down_mid,stimulus_down_right,stimulus_correct,stimulus_short,stimulus_far,weighted_accuracy,missedtrial,condition,specific_pairs,imgL_ID,imgR_ID,linedress,linedressed,detour_trial,linedressed_detor,problems,smooth,distraction,strategies,easier,similar,comments
13333.10000000149,{worker_id:5faefcc22be93b11829e84df},id_enter,13335,interleaved,replication,GW/hanover.png; GW/peoria.png; GW/newhope.png; GW/racine.png; GW/gatlinburg.png; GW/cornwall.png; GW/leesburg.png; GW/huntsville.png; GW/shreveport.png; GW/boulder.png; GW/hotsprings.png; GW/carmel.png; GW/westpalmbeach.png,,,,,,,,,,,,,,,,,,,,,,,,,,,,,,
5272.9000000059605,,fullscreen,18612,,fullscreen,,0,,,,,,,,,,,,,,,,,,,,,,,,,,,,,
26778.79999999702,,intro_1,45394,,instruct,,0,,,,,,,,,,,,,,,,,,,,,,,,,,,,,
22106.10000000149,,intro_2,67502,,instruct,,1,Next,,,,,,,,,,,,,,,,,,,,,,,,,,,,
12228.79999999702,,intro_3,79733,,instruct,,1,Next,,,,,,,,,,,,,,,,,,,,,,,,,,,,
null,,learn_prac_1,82737,,lean_prac_1,,,,null,,,,,,,,,,,,,,,,,,,,,,,,,,,
null,,html-keyboard-response,83741,,<p></p>,,,,null,,,,,,,,,,,,,,,,,,,,,,,,,,,
3021.4000000059605,,intro_1,86764,,instruct,,0,,,,,,,,,,,,,,,,,,,,,,,,,,,,,
10040.70000000298,,intro_2,96807,,instruct,,1,Next,,,,,,,,,,,,,,,,,,,,,,,,,,,,
null,,learn_prac_2,99810,,lean_prac_2,,,,null,,,,,,,,,,,,,,,,,,,,,,,,,,,
null,,html-keyboard-response,100813,,<p></p>,,,,null,,,,,,,,,,,,,,,,,,,,,,,,,,,
1783.8999999985099,,intro_1,102599,,instruct,,0,,,,,,,,,,,,,,,,,,,,,,,,,,,,,
2127,,intro_2,104727,,instruct,,1,Next,,,,,,,,,,,,,,,,,,,,,,,,,,,,
24147.20000000298,,intro_3,128877,,instruct,,1,Next,,,,,,,,,,,,,,,,,,,,,,,,,,,,
null,,prac_atten_color_black,129476,,black_plus_sign,,,,null,,,,,,,,,,,,,,,,,,,,,,,,,,,
702.2000000029802,,prac_atten_color,130283,,prac_stop_color,,,,49,,,,,,,,,,,,,,,,,,,,,,,,,,,
null,,prac_atten_color_black,132287,,black_plus_sign,,,,null,,,,,,,,,,,,,,,,,,,,,,,,,,,
null,,prac_atten_color_black,132886,,black_plus_sign,,,,null,,,,,,,,,,,,,,,,,,,,,,,,,,,
632.2999999970198,,prac_atten_color,133606,,prac_stop_color,,,,50,,,,,,,,,,,,,,,,,,,,,,,,,,,
null,,prac_atten_color_black,135610,,black_plus_sign,,,,null,,,,,,,,,,,,,,,,,,,,,,,,,,,
null,,prac_atten_color_black,136298,,black_plus_sign,,,,null,,,,,,,,,,,,,,,,,,,,,,,,,,,
474.59999999403954,,prac_atten_color,137178,,prac_stop_color,,,,50,,,,,,,,,,,,,,,,,,,,,,,,,,,
null,,prac_atten_color_black,139180,,black_plus_sign,,,,null,,,,,,,,,,,,,,,,,,,,,,,,,,,
null,,prac_atten_color_black,139708,,black_plus_sign,,,,null,,,,,,,,,,,,,,,,,,,,,,,,,,,
542.2999999970198,,prac_atten_color,140419,,prac_stop_color,,,,49,,,,,,,,,,,,,,,,,,,,,,,,,,,
null,,prac_atten_color_black,142423,,black_plus_sign,,,,null,,,,,,,,,,,,,,,,,,,,,,,,,,,
null,,prac_atten_color_black,143119,,black_plus_sign,,,,null,,,,,,,,,,,,,,,,,,,,,,,,,,,
462.3999999985099,,prac_atten_color,143948,,prac_stop_color,,,,50,,,,,,,,,,,,,,,,,,,,,,,,,,,
null,,prac_atten_color_black,145951,,black_plus_sign,,,,null,,,,,,,,,,,,,,,,,,,,,,,,,,,
null,,prac_atten_color_black,146530,,black_plus_sign,,,,null,,,,,,,,,,,,,,,,,,,,,,,,,,,
null,,prac_atten_color,147118,,prac_stop_color,,,,null,,,,,,,,,,,,,,,,,,,,,,,,,,,
41.100000001490116,,prac_atten_color_black,149121,,black_plus_sign,,,,50,,,,,,,,,,,,,,,,,,,,,,,,,,,
null,,prac_atten_color_black,149942,,black_plus_sign,,,,null,,,,,,,,,,,,,,,,,,,,,,,,,,,
411.79999999701977,,prac_atten_color,150368,,prac_stop_color,,,,49,,,,,,,,,,,,,,,,,,,,,,,,,,,
null,,prac_atten_color_black,152372,,black_plus_sign,,,,null,,,,,,,,,,,,,,,,,,,,,,,,,,,
null,,prac_atten_color_black,153352,,black_plus_sign,,,,null,,,,,,,,,,,,,,,,,,,,,,,,,,,
373.19999999552965,,prac_atten_color,153927,,prac_stop_color,,,,50,,,,,,,,,,,,,,,,,,,,,,,,,,,
null,,prac_atten_color_black,155931,,black_plus_sign,,,,null,,,,,,,,,,,,,,,,,,,,,,,,,,,
null,,prac_atten_color_black,156764,,black_plus_sign,,,,null,,,,,,,,,,,,,,,,,,,,,,,,,,,
null,,prac_atten_color,157216,,prac_stop_color,,,,null,,,,,,,,,,,,,,,,,,,,,,,,,,,
99.40000000596046,,prac_atten_color_black,159218,,black_plus_sign,,,,49,,,,,,,,,,,,,,,,,,,,,,,,,,,
null,,prac_atten_color_black,160174,,black_plus_sign,,,,null,,,,,,,,,,,,,,,,,,,,,,,,,,,
432.30000000447035,,prac_atten_color,160655,,prac_stop_color,,,,49,,,,,,,,,,,,,,,,,,,,,,,,,,,
null,,prac_atten_color_black,162658,,black_plus_sign,,,,null,,,,,,,,,,,,,,,,,,,,,,,,,,,
6007.89999999851,,attentioncheck_feedback,168669,,cross_check_feedback,,0,,,,,,,,,,,,,,,,,,,,,,,,,,,,,
13243.30000000447,,last_instruct,181914,,instruct,,,,32,,,,,,,,,,,,,,,,,,,,,,,,,,,
null,,learn_phase(without_color),184918,,black_plus_sign,,,,null,GW/leesburg.png,GW/shreveport.png,,,,,,,,,,,,,,,,,,,,,,,,,
null,,black_cross(without_color),185503,,yellow,,,,null,GW/leesburg.png,GW/shreveport.png,,,,,,,,,,,,,,,,,,,,,,,,,
null,,rt_plussign_withcolor,186006,,yellow,,,,null,GW/leesburg.png,GW/shreveport.png,,,,,,,,,,,,,,,,,,,,,,,,,
751.7000000029802,,rt_thecrossant_black,187428,,black_plus_sign,,,,50,,,1,1,,,,,,,,,,,,,,,,,,,,,,,
null,,color_black,187533,,black_plus_sign,,,,null,,,,,,,,,,,,,,,,,,,,,,,,,,,
null,,learn_phase(without_color),190537,,black_plus_sign,,,,null,GW/newhope.png,GW/hotsprings.png,,,,,,,,,,,,,,,,,,,,,,,,,
null,,black_cross(without_color),191511,,blue,,,,null,GW/newhope.png,GW/hotsprings.png,,,,,,,,,,,,,,,,,,,,,,,,,
null,,rt_plussign_withcolor,192013,,blue,,,,null,GW/newhope.png,GW/hotsprings.png,,,,,,,,,,,,,,,,,,,,,,,,,
730.3000000044703,,rt_thecrossant_black,193047,,black_plus_sign,,,,49,,,1,1,,,,,,,,,,,,,,,,,,,,,,,
null,,color_black,193151,,black_plus_sign,,,,null,,,,,,,,,,,,,,,,,,,,,,,,,,,
null,,learn_phase(without_color),196155,,black_plus_sign,,,,null,GW/shreveport.png,GW/cornwall.png,,,,,,,,,,,,,,,,,,,,,,,,,
null,,black_cross(without_color),196779,,yellow,,,,null,GW/shreveport.png,GW/cornwall.png,,,,,,,,,,,,,,,,,,,,,,,,,
397,,rt_plussign_withcolor,197282,,yellow,,,,50,GW/shreveport.png,GW/cornwall.png,,,,,,,,,,,,,,,,,,,,,,,,,
null,,rt_thecrossant_black,198664,,black_plus_sign,,,,null,,,1,1,,,,,,,,,,,,,,,,,,,,,,,
null,,color_black,198768,,black_plus_sign,,,,null,,,,,,,,,,,,,,,,,,,,,,,,,,,
null,,learn_phase(without_color),201773,,black_plus_sign,,,,null,GW/newhope.png,GW/cornwall.png,,,,,,,,,,,,,,,,,,,,,,,,,
null,,black_cross(without_color),202478,,yellow,,,,null,GW/newhope.png,GW/cornwall.png,,,,,,,,,,,,,,,,,,,,,,,,,
470.5,,rt_plussign_withcolor,202980,,yellow,,,,50,GW/newhope.png,GW/cornwall.png,,,,,,,,,,,,,,,,,,,,,,,,,
null,,rt_thecrossant_black,204282,,black_plus_sign,,,,null,,,1,1,,,,,,,,,,,,,,,,,,,,,,,
null,,color_black,204386,,black_plus_sign,,,,null,,,,,,,,,,,,,,,,,,,,,,,,,,,
null,,learn_phase(without_color),207390,,black_plus_sign,,,,null,GW/shreveport.png,GW/leesburg.png,,,,,,,,,,,,,,,,,,,,,,,,,
null,,black_cross(without_color),208197,,yellow,,,,null,GW/shreveport.png,GW/leesburg.png,,,,,,,,,,,,,,,,,,,,,,,,,
471.8999999985099,,rt_plussign_withcolor,208699,,yellow,,,,50,GW/shreveport.png,GW/leesburg.png,,,,,,,,,,,,,,,,,,,,,,,,,
null,,rt_thecrossant_black,209900,,black_plus_sign,,,,null,,,1,1,,,,,,,,,,,,,,,,,,,,,,,
null,,color_black,210003,,black_plus_sign,,,,null,,,,,,,,,,,,,,,,,,,,,,,,,,,
null,,learn_phase(without_color),213008,,black_plus_sign,,,,null,GW/westpalmbeach.png,GW/leesburg.png,,,,,,,,,,,,,,,,,,,,,,,,,
null,,black_cross(without_color),213629,,blue,,,,null,GW/westpalmbeach.png,GW/leesburg.png,,,,,,,,,,,,,,,,,,,,,,,,,
null,,rt_plussign_withcolor,214132,,blue,,,,null,GW/westpalmbeach.png,GW/leesburg.png,,,,,,,,,,,,,,,,,,,,,,,,,
942.6000000014901,,rt_thecrossant_black,215519,,black_plus_sign,,,,49,,,1,1,,,,,,,,,,,,,,,,,,,,,,,
null,,color_black,215622,,black_plus_sign,,,,null,,,,,,,,,,,,,,,,,,,,,,,,,,,
null,,learn_phase(without_color),218627,,black_plus_sign,,,,null,GW/carmel.png,GW/racine.png,,,,,,,,,,,,,,,,,,,,,,,,,
null,,black_cross(without_color),219544,,yellow,,,,null,GW/carmel.png,GW/racine.png,,,,,,,,,,,,,,,,,,,,,,,,,
399.29999999701977,,rt_plussign_withcolor,220047,,yellow,,,,50,GW/carmel.png,GW/racine.png,,,,,,,,,,,,,,,,,,,,,,,,,
null,,rt_thecrossant_black,221136,,black_plus_sign,,,,null,,,1,1,,,,,,,,,,,,,,,,,,,,,,,
null,,color_black,221240,,black_plus_sign,,,,null,,,,,,,,,,,,,,,,,,,,,,,,,,,
null,,learn_phase(without_color),224244,,black_plus_sign,,,,null,GW/gatlinburg.png,GW/racine.png,,,,,,,,,,,,,,,,,,,,,,,,,
null,,black_cross(without_color),224796,,blue,,,,null,GW/gatlinburg.png,GW/racine.png,,,,,,,,,,,,,,,,,,,,,,,,,
null,,rt_plussign_withcolor,225297,,blue,,,,null,GW/gatlinburg.png,GW/racine.png,,,,,,,,,,,,,,,,,,,,,,,,,
1044.7000000029802,,rt_thecrossant_black,226754,,black_plus_sign,,,,49,,,1,1,,,,,,,,,,,,,,,,,,,,,,,
null,,color_black,226858,,black_plus_sign,,,,null,,,,,,,,,,,,,,,,,,,,,,,,,,,
null,,learn_phase(without_color),229862,,black_plus_sign,,,,null,GW/shreveport.png,GW/huntsville.png,,,,,,,,,,,,,,,,,,,,,,,,,
null,,black_cross(without_color),230773,,yellow,,,,null,GW/shreveport.png,GW/huntsville.png,,,,,,,,,,,,,,,,,,,,,,,,,
453.3999999985099,,rt_plussign_withcolor,231276,,yellow,,,,50,GW/shreveport.png,GW/huntsville.png,,,,,,,,,,,,,,,,,,,,,,,,,
null,,rt_thecrossant_black,232373,,black_plus_sign,,,,null,,,1,1,,,,,,,,,,,,,,,,,,,,,,,
null,,color_black,232476,,black_plus_sign,,,,null,,,,,,,,,,,,,,,,,,,,,,,,,,,
null,,learn_phase(without_color),235481,,black_plus_sign,,,,null,GW/peoria.png,GW/newhope.png,,,,,,,,,,,,,,,,,,,,,,,,,
null,,black_cross(without_color),236214,,blue,,,,null,GW/peoria.png,GW/newhope.png,,,,,,,,,,,,,,,,,,,,,,,,,
null,,rt_plussign_withcolor,236717,,blue,,,,null,GW/peoria.png,GW/newhope.png,,,,,,,,,,,,,,,,,,,,,,,,,
1017.6999999955297,,rt_thecrossant_black,237991,,black_plus_sign,,,,50,,,0,0.9,,,,,,,,,,,,,,,,,,,,,,,
null,,color_black,238095,,black_plus_sign,,,,null,,,,,,,,,,,,,,,,,,,,,,,,,,,
null,,learn_phase(without_color),241100,,black_plus_sign,,,,null,GW/cornwall.png,GW/leesburg.png,,,,,,,,,,,,,,,,,,,,,,,,,
null,,black_cross(without_color),242149,,yellow,,,,null,GW/cornwall.png,GW/leesburg.png,,,,,,,,,,,,,,,,,,,,,,,,,
427.30000000447035,,rt_plussign_withcolor,242653,,yellow,,,,50,GW/cornwall.png,GW/leesburg.png,,,,,,,,,,,,,,,,,,,,,,,,,
null,,rt_thecrossant_black,243611,,black_plus_sign,,,,null,,,1,0.9090909090909091,,,,,,,,,,,,,,,,,,,,,,,
null,,color_black,243714,,black_plus_sign,,,,null,,,,,,,,,,,,,,,,,,,,,,,,,,,
null,,learn_phase(without_color),246719,,black_plus_sign,,,,null,GW/shreveport.png,GW/huntsville.png,,,,,,,,,,,,,,,,,,,,,,,,,
null,,black_cross(without_color),247158,,yellow,,,,null,GW/shreveport.png,GW/huntsville.png,,,,,,,,,,,,,,,,,,,,,,,,,
null,,rt_plussign_withcolor,247661,,yellow,,,,null,GW/shreveport.png,GW/huntsville.png,,,,,,,,,,,,,,,,,,,,,,,,,
1197.5,,rt_thecrossant_black,249230,,black_plus_sign,,,,50,,,1,0.9166666666666666,,,,,,,,,,,,,,,,,,,,,,,
null,,color_black,249333,,black_plus_sign,,,,null,,,,,,,,,,,,,,,,,,,,,,,,,,,
null,,learn_phase(without_color),252337,,black_plus_sign,,,,null,GW/shreveport.png,GW/cornwall.png,,,,,,,,,,,,,,,,,,,,,,,,,
null,,black_cross(without_color),252824,,yellow,,,,null,GW/shreveport.png,GW/cornwall.png,,,,,,,,,,,,,,,,,,,,,,,,,
null,,rt_plussign_withcolor,253327,,yellow,,,,null,GW/shreveport.png,GW/cornwall.png,,,,,,,,,,,,,,,,,,,,,,,,,
882.8999999985099,,rt_thecrossant_black,254847,,black_plus_sign,,,,50,,,1,0.9230769230769231,,,,,,,,,,,,,,,,,,,,,,,
null,,color_black,254949,,black_plus_sign,,,,null,,,,,,,,,,,,,,,,,,,,,,,,,,,
null,,learn_phase(without_color),257954,,black_plus_sign,,,,null,GW/shreveport.png,GW/huntsville.png,,,,,,,,,,,,,,,,,,,,,,,,,
null,,black_cross(without_color),258550,,yellow,,,,null,GW/shreveport.png,GW/huntsville.png,,,,,,,,,,,,,,,,,,,,,,,,,
350.8999999985099,,rt_plussign_withcolor,259053,,yellow,,,,50,GW/shreveport.png,GW/huntsville.png,,,,,,,,,,,,,,,,,,,,,,,,,
null,,rt_thecrossant_black,260464,,black_plus_sign,,,,null,,,1,0.9285714285714286,,,,,,,,,,,,,,,,,,,,,,,
null,,color_black,260567,,black_plus_sign,,,,null,,,,,,,,,,,,,,,,,,,,,,,,,,,
null,,learn_phase(without_color),263571,,black_plus_sign,,,,null,GW/huntsville.png,GW/boulder.png,,,,,,,,,,,,,,,,,,,,,,,,,
null,,black_cross(without_color),264382,,blue,,,,null,GW/huntsville.png,GW/boulder.png,,,,,,,,,,,,,,,,,,,,,,,,,
404.40000000596046,,rt_plussign_withcolor,264885,,blue,,,,49,GW/huntsville.png,GW/boulder.png,,,,,,,,,,,,,,,,,,,,,,,,,
null,,rt_thecrossant_black,266082,,black_plus_sign,,,,null,,,1,0.9333333333333333,,,,,,,,,,,,,,,,,,,,,,,
null,,color_black,266186,,black_plus_sign,,,,null,,,,,,,,,,,,,,,,,,,,,,,,,,,
null,,learn_phase(without_color),269191,,black_plus_sign,,,,null,GW/carmel.png,GW/hotsprings.png,,,,,,,,,,,,,,,,,,,,,,,,,
null,,black_cross(without_color),270012,,yellow,,,,null,GW/carmel.png,GW/hotsprings.png,,,,,,,,,,,,,,,,,,,,,,,,,
426.09999999403954,,rt_plussign_withcolor,270515,,yellow,,,,50,GW/carmel.png,GW/hotsprings.png,,,,,,,,,,,,,,,,,,,,,,,,,
null,,rt_thecrossant_black,271701,,black_plus_sign,,,,null,,,1,0.9375,,,,,,,,,,,,,,,,,,,,,,,
null,,color_black,271805,,black_plus_sign,,,,null,,,,,,,,,,,,,,,,,,,,,,,,,,,
null,,learn_phase(without_color),274810,,black_plus_sign,,,,null,GW/hotsprings.png,GW/newhope.png,,,,,,,,,,,,,,,,,,,,,,,,,
null,,black_cross(without_color),275683,,blue,,,,null,GW/hotsprings.png,GW/newhope.png,,,,,,,,,,,,,,,,,,,,,,,,,
453.5,,rt_plussign_withcolor,276185,,blue,,,,49,GW/hotsprings.png,GW/newhope.png,,,,,,,,,,,,,,,,,,,,,,,,,
null,,rt_thecrossant_black,277319,,black_plus_sign,,,,null,,,1,0.9411764705882353,,,,,,,,,,,,,,,,,,,,,,,
null,,color_black,277423,,black_plus_sign,,,,null,,,,,,,,,,,,,,,,,,,,,,,,,,,
null,,learn_phase(without_color),280428,,black_plus_sign,,,,null,GW/shreveport.png,GW/hotsprings.png,,,,,,,,,,,,,,,,,,,,,,,,,
null,,black_cross(without_color),281076,,yellow,,,,null,GW/shreveport.png,GW/hotsprings.png,,,,,,,,,,,,,,,,,,,,,,,,,
402.79999999701977,,rt_plussign_withcolor,281579,,yellow,,,,50,GW/shreveport.png,GW/hotsprings.png,,,,,,,,,,,,,,,,,,,,,,,,,
null,,rt_thecrossant_black,282939,,black_plus_sign,,,,null,,,1,0.9444444444444444,,,,,,,,,,,,,,,,,,,,,,,
null,,color_black,283043,,black_plus_sign,,,,null,,,,,,,,,,,,,,,,,,,,,,,,,,,
null,,learn_phase(without_color),286048,,black_plus_sign,,,,null,GW/peoria.png,GW/racine.png,,,,,,,,,,,,,,,,,,,,,,,,,
null,,black_cross(without_color),286714,,yellow,,,,null,GW/peoria.png,GW/racine.png,,,,,,,,,,,,,,,,,,,,,,,,,
499.6000000014901,,rt_plussign_withcolor,287216,,yellow,,,,50,GW/peoria.png,GW/racine.png,,,,,,,,,,,,,,,,,,,,,,,,,
null,,rt_thecrossant_black,288557,,black_plus_sign,,,,null,,,1,0.9473684210526315,,,,,,,,,,,,,,,,,,,,,,,
null,,color_black,288660,,black_plus_sign,,,,null,,,,,,,,,,,,,,,,,,,,,,,,,,,
null,,learn_phase(without_color),291665,,black_plus_sign,,,,null,GW/newhope.png,GW/cornwall.png,,,,,,,,,,,,,,,,,,,,,,,,,
null,,black_cross(without_color),292189,,yellow,,,,null,GW/newhope.png,GW/cornwall.png,,,,,,,,,,,,,,,,,,,,,,,,,
426.30000000447035,,rt_plussign_withcolor,292691,,yellow,,,,50,GW/newhope.png,GW/cornwall.png,,,,,,,,,,,,,,,,,,,,,,,,,
null,,rt_thecrossant_black,294174,,black_plus_sign,,,,null,,,1,0.95,,,,,,,,,,,,,,,,,,,,,,,
null,,color_black,294278,,black_plus_sign,,,,null,,,,,,,,,,,,,,,,,,,,,,,,,,,
null,,learn_phase(without_color),297282,,black_plus_sign,,,,null,GW/westpalmbeach.png,GW/leesburg.png,,,,,,,,,,,,,,,,,,,,,,,,,
null,,black_cross(without_color),297763,,blue,,,,null,GW/westpalmbeach.png,GW/leesburg.png,,,,,,,,,,,,,,,,,,,,,,,,,
null,,rt_plussign_withcolor,298266,,blue,,,,null,GW/westpalmbeach.png,GW/leesburg.png,,,,,,,,,,,,,,,,,,,,,,,,,
634.8999999985099,,rt_thecrossant_black,299793,,black_plus_sign,,,,49,,,1,0.9523809523809523,,,,,,,,,,,,,,,,,,,,,,,
null,,color_black,299896,,black_plus_sign,,,,null,,,,,,,,,,,,,,,,,,,,,,,,,,,
null,,learn_phase(without_color),302900,,black_plus_sign,,,,null,GW/hanover.png,GW/peoria.png,,,,,,,,,,,,,,,,,,,,,,,,,
null,,black_cross(without_color),303333,,blue,,,,null,GW/hanover.png,GW/peoria.png,,,,,,,,,,,,,,,,,,,,,,,,,
null,,rt_plussign_withcolor,303836,,blue,,,,null,GW/hanover.png,GW/peoria.png,,,,,,,,,,,,,,,,,,,,,,,,,
581.6999999955297,,rt_thecrossant_black,305411,,black_plus_sign,,,,49,,,1,0.9545454545454546,,,,,,,,,,,,,,,,,,,,,,,
null,,color_black,305515,,black_plus_sign,,,,null,,,,,,,,,,,,,,,,,,,,,,,,,,,
null,,learn_phase(without_color),308520,,black_plus_sign,,,,null,GW/carmel.png,GW/racine.png,,,,,,,,,,,,,,,,,,,,,,,,,
null,,black_cross(without_color),309115,,blue,,,,null,GW/carmel.png,GW/racine.png,,,,,,,,,,,,,,,,,,,,,,,,,
374.19999999552965,,rt_plussign_withcolor,309618,,blue,,,,49,GW/carmel.png,GW/racine.png,,,,,,,,,,,,,,,,,,,,,,,,,
null,,rt_thecrossant_black,311031,,black_plus_sign,,,,null,,,1,0.9565217391304348,,,,,,,,,,,,,,,,,,,,,,,
null,,color_black,311135,,black_plus_sign,,,,null,,,,,,,,,,,,,,,,,,,,,,,,,,,
null,,learn_phase(without_color),314139,,black_plus_sign,,,,null,GW/hotsprings.png,GW/newhope.png,,,,,,,,,,,,,,,,,,,,,,,,,
null,,black_cross(without_color),314969,,yellow,,,,null,GW/hotsprings.png,GW/newhope.png,,,,,,,,,,,,,,,,,,,,,,,,,
425.70000000298023,,rt_plussign_withcolor,315472,,yellow,,,,50,GW/hotsprings.png,GW/newhope.png,,,,,,,,,,,,,,,,,,,,,,,,,
null,,rt_thecrossant_black,316648,,black_plus_sign,,,,null,,,1,0.9583333333333334,,,,,,,,,,,,,,,,,,,,,,,
null,,color_black,316751,,black_plus_sign,,,,null,,,,,,,,,,,,,,,,,,,,,,,,,,,
null,,learn_phase(without_color),319756,,black_plus_sign,,,,null,GW/huntsville.png,GW/leesburg.png,,,,,,,,,,,,,,,,,,,,,,,,,
null,,black_cross(without_color),320268,,blue,,,,null,GW/huntsville.png,GW/leesburg.png,,,,,,,,,,,,,,,,,,,,,,,,,
null,,rt_plussign_withcolor,320771,,blue,,,,null,GW/huntsville.png,GW/leesburg.png,,,,,,,,,,,,,,,,,,,,,,,,,
957.6000000014901,,rt_thecrossant_black,322268,,black_plus_sign,,,,49,,,1,0.96,,,,,,,,,,,,,,,,,,,,,,,
null,,color_black,322371,,black_plus_sign,,,,null,,,,,,,,,,,,,,,,,,,,,,,,,,,
null,,learn_phase(without_color),325375,,black_plus_sign,,,,null,GW/leesburg.png,GW/westpalmbeach.png,,,,,,,,,,,,,,,,,,,,,,,,,
null,,black_cross(without_color),326218,,yellow,,,,null,GW/leesburg.png,GW/westpalmbeach.png,,,,,,,,,,,,,,,,,,,,,,,,,
348.79999999701977,,rt_plussign_withcolor,326721,,yellow,,,,50,GW/leesburg.png,GW/westpalmbeach.png,,,,,,,,,,,,,,,,,,,,,,,,,
null,,rt_thecrossant_black,327885,,black_plus_sign,,,,null,,,1,0.9615384615384616,,,,,,,,,,,,,,,,,,,,,,,
null,,color_black,327990,,black_plus_sign,,,,null,,,,,,,,,,,,,,,,,,,,,,,,,,,
null,,learn_phase(without_color),330994,,black_plus_sign,,,,null,GW/racine.png,GW/carmel.png,,,,,,,,,,,,,,,,,,,,,,,,,
null,,black_cross(without_color),331648,,blue,,,,null,GW/racine.png,GW/carmel.png,,,,,,,,,,,,,,,,,,,,,,,,,
456.6000000014901,,rt_plussign_withcolor,332151,,blue,,,,49,GW/racine.png,GW/carmel.png,,,,,,,,,,,,,,,,,,,,,,,,,
null,,rt_thecrossant_black,333504,,black_plus_sign,,,,null,,,1,0.9629629629629629,,,,,,,,,,,,,,,,,,,,,,,
null,,color_black,333608,,black_plus_sign,,,,null,,,,,,,,,,,,,,,,,,,,,,,,,,,
null,,learn_phase(without_color),336611,,black_plus_sign,,,,null,GW/huntsville.png,GW/shreveport.png,,,,,,,,,,,,,,,,,,,,,,,,,
null,,black_cross(without_color),337522,,blue,,,,null,GW/huntsville.png,GW/shreveport.png,,,,,,,,,,,,,,,,,,,,,,,,,
489.70000000298023,,rt_plussign_withcolor,338024,,blue,,,,49,GW/huntsville.png,GW/shreveport.png,,,,,,,,,,,,,,,,,,,,,,,,,
null,,rt_thecrossant_black,339121,,black_plus_sign,,,,null,,,1,0.9642857142857143,,,,,,,,,,,,,,,,,,,,,,,
null,,color_black,339225,,black_plus_sign,,,,null,,,,,,,,,,,,,,,,,,,,,,,,,,,
null,,learn_phase(without_color),342228,,black_plus_sign,,,,null,GW/hotsprings.png,GW/shreveport.png,,,,,,,,,,,,,,,,,,,,,,,,,
null,,black_cross(without_color),343055,,blue,,,,null,GW/hotsprings.png,GW/shreveport.png,,,,,,,,,,,,,,,,,,,,,,,,,
446.79999999701977,,rt_plussign_withcolor,343557,,blue,,,,49,GW/hotsprings.png,GW/shreveport.png,,,,,,,,,,,,,,,,,,,,,,,,,
null,,rt_thecrossant_black,344738,,black_plus_sign,,,,null,,,1,0.9655172413793104,,,,,,,,,,,,,,,,,,,,,,,
null,,color_black,344841,,black_plus_sign,,,,null,,,,,,,,,,,,,,,,,,,,,,,,,,,
null,,learn_phase(without_color),347846,,black_plus_sign,,,,null,GW/peoria.png,GW/hanover.png,,,,,,,,,,,,,,,,,,,,,,,,,
null,,black_cross(without_color),348816,,yellow,,,,null,GW/peoria.png,GW/hanover.png,,,,,,,,,,,,,,,,,,,,,,,,,
489.40000000596046,,rt_plussign_withcolor,349319,,yellow,,,,50,GW/peoria.png,GW/hanover.png,,,,,,,,,,,,,,,,,,,,,,,,,
null,,rt_thecrossant_black,350356,,black_plus_sign,,,,null,,,1,0.9666666666666667,,,,,,,,,,,,,,,,,,,,,,,
null,,color_black,350460,,black_plus_sign,,,,null,,,,,,,,,,,,,,,,,,,,,,,,,,,
null,,learn_phase(without_color),353464,,black_plus_sign,,,,null,GW/leesburg.png,GW/westpalmbeach.png,,,,,,,,,,,,,,,,,,,,,,,,,
null,,black_cross(without_color),353991,,blue,,,,null,GW/leesburg.png,GW/westpalmbeach.png,,,,,,,,,,,,,,,,,,,,,,,,,
null,,rt_plussign_withcolor,354494,,blue,,,,null,GW/leesburg.png,GW/westpalmbeach.png,,,,,,,,,,,,,,,,,,,,,,,,,
1101.6000000014901,,rt_thecrossant_black,355974,,black_plus_sign,,,,49,,,1,0.967741935483871,,,,,,,,,,,,,,,,,,,,,,,
null,,color_black,356078,,black_plus_sign,,,,null,,,,,,,,,,,,,,,,,,,,,,,,,,,
null,,learn_phase(without_color),359083,,black_plus_sign,,,,null,GW/racine.png,GW/gatlinburg.png,,,,,,,,,,,,,,,,,,,,,,,,,
null,,black_cross(without_color),359750,,yellow,,,,null,GW/racine.png,GW/gatlinburg.png,,,,,,,,,,,,,,,,,,,,,,,,,
347.6000000014901,,rt_plussign_withcolor,360252,,yellow,,,,50,GW/racine.png,GW/gatlinburg.png,,,,,,,,,,,,,,,,,,,,,,,,,
null,,rt_thecrossant_black,361592,,black_plus_sign,,,,null,,,1,0.96875,,,,,,,,,,,,,,,,,,,,,,,
null,,color_black,361695,,black_plus_sign,,,,null,,,,,,,,,,,,,,,,,,,,,,,,,,,
null,,learn_phase(without_color),364699,,black_plus_sign,,,,null,GW/shreveport.png,GW/leesburg.png,,,,,,,,,,,,,,,,,,,,,,,,,
null,,black_cross(without_color),365323,,yellow,,,,null,GW/shreveport.png,GW/leesburg.png,,,,,,,,,,,,,,,,,,,,,,,,,
496.69999999552965,,rt_plussign_withcolor,365825,,yellow,,,,50,GW/shreveport.png,GW/leesburg.png,,,,,,,,,,,,,,,,,,,,,,,,,
null,,rt_thecrossant_black,367208,,black_plus_sign,,,,null,,,1,0.9696969696969697,,,,,,,,,,,,,,,,,,,,,,,
null,,color_black,367312,,black_plus_sign,,,,null,,,,,,,,,,,,,,,,,,,,,,,,,,,
null,,learn_phase(without_color),370316,,black_plus_sign,,,,null,GW/shreveport.png,GW/leesburg.png,,,,,,,,,,,,,,,,,,,,,,,,,
null,,black_cross(without_color),370905,,yellow,,,,null,GW/shreveport.png,GW/leesburg.png,,,,,,,,,,,,,,,,,,,,,,,,,
350.09999999403954,,rt_plussign_withcolor,371408,,yellow,,,,50,GW/shreveport.png,GW/leesburg.png,,,,,,,,,,,,,,,,,,,,,,,,,
null,,rt_thecrossant_black,372827,,black_plus_sign,,,,null,,,1,0.9705882352941176,,,,,,,,,,,,,,,,,,,,,,,
null,,color_black,372930,,black_plus_sign,,,,null,,,,,,,,,,,,,,,,,,,,,,,,,,,
null,,learn_phase(without_color),375934,,black_plus_sign,,,,null,GW/huntsville.png,GW/boulder.png,,,,,,,,,,,,,,,,,,,,,,,,,
null,,black_cross(without_color),377004,,blue,,,,null,GW/huntsville.png,GW/boulder.png,,,,,,,,,,,,,,,,,,,,,,,,,
367.80000000447035,,rt_plussign_withcolor,377507,,blue,,,,49,GW/huntsville.png,GW/boulder.png,,,,,,,,,,,,,,,,,,,,,,,,,
null,,rt_thecrossant_black,378444,,black_plus_sign,,,,null,,,1,0.9714285714285714,,,,,,,,,,,,,,,,,,,,,,,
null,,color_black,378548,,black_plus_sign,,,,null,,,,,,,,,,,,,,,,,,,,,,,,,,,
null,,learn_phase(without_color),381552,,black_plus_sign,,,,null,GW/boulder.png,GW/huntsville.png,,,,,,,,,,,,,,,,,,,,,,,,,
null,,black_cross(without_color),382125,,blue,,,,null,GW/boulder.png,GW/huntsville.png,,,,,,,,,,,,,,,,,,,,,,,,,
null,,rt_plussign_withcolor,382628,,blue,,,,null,GW/boulder.png,GW/huntsville.png,,,,,,,,,,,,,,,,,,,,,,,,,
1214.2000000029802,,rt_thecrossant_black,384063,,black_plus_sign,,,,49,,,1,0.9722222222222222,,,,,,,,,,,,,,,,,,,,,,,
null,,color_black,384166,,black_plus_sign,,,,null,,,,,,,,,,,,,,,,,,,,,,,,,,,
null,,learn_phase(without_color),387171,,black_plus_sign,,,,null,GW/racine.png,GW/gatlinburg.png,,,,,,,,,,,,,,,,,,,,,,,,,
null,,black_cross(without_color),387597,,yellow,,,,null,GW/racine.png,GW/gatlinburg.png,,,,,,,,,,,,,,,,,,,,,,,,,
440.79999999701977,,rt_plussign_withcolor,388100,,yellow,,,,50,GW/racine.png,GW/gatlinburg.png,,,,,,,,,,,,,,,,,,,,,,,,,
null,,rt_thecrossant_black,389680,,black_plus_sign,,,,null,,,1,0.972972972972973,,,,,,,,,,,,,,,,,,,,,,,
null,,color_black,389783,,black_plus_sign,,,,null,,,,,,,,,,,,,,,,,,,,,,,,,,,
null,,learn_phase(without_color),392788,,black_plus_sign,,,,null,GW/hotsprings.png,GW/newhope.png,,,,,,,,,,,,,,,,,,,,,,,,,
null,,black_cross(without_color),393283,,blue,,,,null,GW/hotsprings.png,GW/newhope.png,,,,,,,,,,,,,,,,,,,,,,,,,
null,,rt_plussign_withcolor,393785,,blue,,,,null,GW/hotsprings.png,GW/newhope.png,,,,,,,,,,,,,,,,,,,,,,,,,
573,,rt_thecrossant_black,395298,,black_plus_sign,,,,49,,,1,0.9736842105263158,,,,,,,,,,,,,,,,,,,,,,,
null,,color_black,395402,,black_plus_sign,,,,null,,,,,,,,,,,,,,,,,,,,,,,,,,,
null,,learn_phase(without_color),398406,,black_plus_sign,,,,null,GW/westpalmbeach.png,GW/leesburg.png,,,,,,,,,,,,,,,,,,,,,,,,,
null,,black_cross(without_color),399011,,blue,,,,null,GW/westpalmbeach.png,GW/leesburg.png,,,,,,,,,,,,,,,,,,,,,,,,,
460.20000000298023,,rt_plussign_withcolor,399514,,blue,,,,49,GW/westpalmbeach.png,GW/leesburg.png,,,,,,,,,,,,,,,,,,,,,,,,,
null,,rt_thecrossant_black,400917,,black_plus_sign,,,,null,,,1,0.9743589743589743,,,,,,,,,,,,,,,,,,,,,,,
null,,color_black,401022,,black_plus_sign,,,,null,,,,,,,,,,,,,,,,,,,,,,,,,,,
null,,learn_phase(without_color),404026,,black_plus_sign,,,,null,GW/gatlinburg.png,GW/racine.png,,,,,,,,,,,,,,,,,,,,,,,,,
null,,black_cross(without_color),404781,,blue,,,,null,GW/gatlinburg.png,GW/racine.png,,,,,,,,,,,,,,,,,,,,,,,,,
433.20000000298023,,rt_plussign_withcolor,405284,,blue,,,,49,GW/gatlinburg.png,GW/racine.png,,,,,,,,,,,,,,,,,,,,,,,,,
null,,rt_thecrossant_black,406537,,black_plus_sign,,,,null,,,1,0.975,,,,,,,,,,,,,,,,,,,,,,,
null,,color_black,406641,,black_plus_sign,,,,null,,,,,,,,,,,,,,,,,,,,,,,,,,,
null,,learn_phase(without_color),409646,,black_plus_sign,,,,null,GW/hanover.png,GW/peoria.png,,,,,,,,,,,,,,,,,,,,,,,,,
null,,black_cross(without_color),410704,,blue,,,,null,GW/hanover.png,GW/peoria.png,,,,,,,,,,,,,,,,,,,,,,,,,
428.1000000014901,,rt_plussign_withcolor,411207,,blue,,,,49,GW/hanover.png,GW/peoria.png,,,,,,,,,,,,,,,,,,,,,,,,,
null,,rt_thecrossant_black,412157,,black_plus_sign,,,,null,,,1,0.975609756097561,,,,,,,,,,,,,,,,,,,,,,,
null,,color_black,412261,,black_plus_sign,,,,null,,,,,,,,,,,,,,,,,,,,,,,,,,,
null,,learn_phase(without_color),415265,,black_plus_sign,,,,null,GW/leesburg.png,GW/huntsville.png,,,,,,,,,,,,,,,,,,,,,,,,,
null,,black_cross(without_color),415851,,blue,,,,null,GW/leesburg.png,GW/huntsville.png,,,,,,,,,,,,,,,,,,,,,,,,,
null,,rt_plussign_withcolor,416354,,blue,,,,null,GW/leesburg.png,GW/huntsville.png,,,,,,,,,,,,,,,,,,,,,,,,,
1231.7000000029802,,rt_thecrossant_black,417775,,black_plus_sign,,,,49,,,1,0.9761904761904762,,,,,,,,,,,,,,,,,,,,,,,
null,,color_black,417880,,black_plus_sign,,,,null,,,,,,,,,,,,,,,,,,,,,,,,,,,
null,,learn_phase(without_color),420885,,black_plus_sign,,,,null,GW/shreveport.png,GW/cornwall.png,,,,,,,,,,,,,,,,,,,,,,,,,
null,,black_cross(without_color),421817,,blue,,,,null,GW/shreveport.png,GW/cornwall.png,,,,,,,,,,,,,,,,,,,,,,,,,
430.70000000298023,,rt_plussign_withcolor,422321,,blue,,,,49,GW/shreveport.png,GW/cornwall.png,,,,,,,,,,,,,,,,,,,,,,,,,
null,,rt_thecrossant_black,423396,,black_plus_sign,,,,null,,,1,0.9767441860465116,,,,,,,,,,,,,,,,,,,,,,,
null,,color_black,423499,,black_plus_sign,,,,null,,,,,,,,,,,,,,,,,,,,,,,,,,,
null,,learn_phase(without_color),426504,,black_plus_sign,,,,null,GW/peoria.png,GW/racine.png,,,,,,,,,,,,,,,,,,,,,,,,,
null,,black_cross(without_color),427189,,yellow,,,,null,GW/peoria.png,GW/racine.png,,,,,,,,,,,,,,,,,,,,,,,,,
377.20000000298023,,rt_plussign_withcolor,427692,,yellow,,,,50,GW/peoria.png,GW/racine.png,,,,,,,,,,,,,,,,,,,,,,,,,
null,,rt_thecrossant_black,429014,,black_plus_sign,,,,null,,,1,0.9772727272727273,,,,,,,,,,,,,,,,,,,,,,,
null,,color_black,429117,,black_plus_sign,,,,null,,,,,,,,,,,,,,,,,,,,,,,,,,,
null,,learn_phase(without_color),432123,,black_plus_sign,,,,null,GW/leesburg.png,GW/cornwall.png,,,,,,,,,,,,,,,,,,,,,,,,,
null,,black_cross(without_color),433029,,yellow,,,,null,GW/leesburg.png,GW/cornwall.png,,,,,,,,,,,,,,,,,,,,,,,,,
423.30000000447035,,rt_plussign_withcolor,433532,,yellow,,,,50,GW/leesburg.png,GW/cornwall.png,,,,,,,,,,,,,,,,,,,,,,,,,
null,,rt_thecrossant_black,434634,,black_plus_sign,,,,null,,,1,0.9777777777777777,,,,,,,,,,,,,,,,,,,,,,,
null,,color_black,434738,,black_plus_sign,,,,null,,,,,,,,,,,,,,,,,,,,,,,,,,,
null,,learn_phase(without_color),437743,,black_plus_sign,,,,null,GW/shreveport.png,GW/huntsville.png,,,,,,,,,,,,,,,,,,,,,,,,,
null,,black_cross(without_color),438696,,blue,,,,null,GW/shreveport.png,GW/huntsville.png,,,,,,,,,,,,,,,,,,,,,,,,,
358,,rt_plussign_withcolor,439199,,blue,,,,49,GW/shreveport.png,GW/huntsville.png,,,,,,,,,,,,,,,,,,,,,,,,,
null,,rt_thecrossant_black,440254,,black_plus_sign,,,,null,,,1,0.9782608695652174,,,,,,,,,,,,,,,,,,,,,,,
null,,color_black,440358,,black_plus_sign,,,,null,,,,,,,,,,,,,,,,,,,,,,,,,,,
null,,learn_phase(without_color),443363,,black_plus_sign,,,,null,GW/newhope.png,GW/peoria.png,,,,,,,,,,,,,,,,,,,,,,,,,
null,,black_cross(without_color),444094,,blue,,,,null,GW/newhope.png,GW/peoria.png,,,,,,,,,,,,,,,,,,,,,,,,,
485.79999999701977,,rt_plussign_withcolor,444597,,blue,,,,49,GW/newhope.png,GW/peoria.png,,,,,,,,,,,,,,,,,,,,,,,,,
null,,rt_thecrossant_black,445873,,black_plus_sign,,,,null,,,1,0.9787234042553191,,,,,,,,,,,,,,,,,,,,,,,
null,,color_black,445977,,black_plus_sign,,,,null,,,,,,,,,,,,,,,,,,,,,,,,,,,
null,,learn_phase(without_color),448982,,black_plus_sign,,,,null,GW/cornwall.png,GW/newhope.png,,,,,,,,,,,,,,,,,,,,,,,,,
null,,black_cross(without_color),449981,,yellow,,,,null,GW/cornwall.png,GW/newhope.png,,,,,,,,,,,,,,,,,,,,,,,,,
414.6000000014901,,rt_plussign_withcolor,450484,,yellow,,,,50,GW/cornwall.png,GW/newhope.png,,,,,,,,,,,,,,,,,,,,,,,,,
null,,rt_thecrossant_black,451493,,black_plus_sign,,,,null,,,1,0.9791666666666666,,,,,,,,,,,,,,,,,,,,,,,
null,,color_black,451597,,black_plus_sign,,,,null,,,,,,,,,,,,,,,,,,,,,,,,,,,
null,,learn_phase(without_color),454602,,black_plus_sign,,,,null,GW/carmel.png,GW/hotsprings.png,,,,,,,,,,,,,,,,,,,,,,,,,
null,,black_cross(without_color),455473,,blue,,,,null,GW/carmel.png,GW/hotsprings.png,,,,,,,,,,,,,,,,,,,,,,,,,
464.30000000447035,,rt_plussign_withcolor,455977,,blue,,,,49,GW/carmel.png,GW/hotsprings.png,,,,,,,,,,,,,,,,,,,,,,,,,
null,,rt_thecrossant_black,457112,,black_plus_sign,,,,null,,,1,0.9795918367346939,,,,,,,,,,,,,,,,,,,,,,,
null,,color_black,457217,,black_plus_sign,,,,null,,,,,,,,,,,,,,,,,,,,,,,,,,,
null,,learn_phase(without_color),460222,,black_plus_sign,,,,null,GW/newhope.png,GW/peoria.png,,,,,,,,,,,,,,,,,,,,,,,,,
null,,black_cross(without_color),460923,,yellow,,,,null,GW/newhope.png,GW/peoria.png,,,,,,,,,,,,,,,,,,,,,,,,,
null,,rt_plussign_withcolor,461426,,yellow,,,,null,GW/newhope.png,GW/peoria.png,,,,,,,,,,,,,,,,,,,,,,,,,
1009.3999999985099,,rt_thecrossant_black,462733,,black_plus_sign,,,,50,,,1,0.98,,,,,,,,,,,,,,,,,,,,,,,
null,,color_black,462837,,black_plus_sign,,,,null,,,,,,,,,,,,,,,,,,,,,,,,,,,
null,,learn_phase(without_color),465841,,black_plus_sign,,,,null,GW/hotsprings.png,GW/shreveport.png,,,,,,,,,,,,,,,,,,,,,,,,,
null,,black_cross(without_color),466739,,yellow,,,,null,GW/hotsprings.png,GW/shreveport.png,,,,,,,,,,,,,,,,,,,,,,,,,
461.8999999985099,,rt_plussign_withcolor,467241,,yellow,,,,50,GW/hotsprings.png,GW/shreveport.png,,,,,,,,,,,,,,,,,,,,,,,,,
null,,rt_thecrossant_black,468352,,black_plus_sign,,,,null,,,1,0.9803921568627451,,,,,,,,,,,,,,,,,,,,,,,
null,,color_black,468456,,black_plus_sign,,,,null,,,,,,,,,,,,,,,,,,,,,,,,,,,
null,,learn_phase(without_color),471461,,black_plus_sign,,,,null,GW/cornwall.png,GW/shreveport.png,,,,,,,,,,,,,,,,,,,,,,,,,
null,,black_cross(without_color),472006,,yellow,,,,null,GW/cornwall.png,GW/shreveport.png,,,,,,,,,,,,,,,,,,,,,,,,,
null,,rt_plussign_withcolor,472509,,yellow,,,,null,GW/cornwall.png,GW/shreveport.png,,,,,,,,,,,,,,,,,,,,,,,,,
1127.3999999985099,,rt_thecrossant_black,473971,,black_plus_sign,,,,50,,,1,0.9807692307692307,,,,,,,,,,,,,,,,,,,,,,,
null,,color_black,474074,,black_plus_sign,,,,null,,,,,,,,,,,,,,,,,,,,,,,,,,,
null,,learn_phase(without_color),477079,,black_plus_sign,,,,null,GW/hanover.png,GW/peoria.png,,,,,,,,,,,,,,,,,,,,,,,,,
null,,black_cross(without_color),477736,,yellow,,,,null,GW/hanover.png,GW/peoria.png,,,,,,,,,,,,,,,,,,,,,,,,,
361.30000000447035,,rt_plussign_withcolor,478240,,yellow,,,,50,GW/hanover.png,GW/peoria.png,,,,,,,,,,,,,,,,,,,,,,,,,
null,,rt_thecrossant_black,479590,,black_plus_sign,,,,null,,,1,0.9811320754716981,,,,,,,,,,,,,,,,,,,,,,,
null,,color_black,479694,,black_plus_sign,,,,null,,,,,,,,,,,,,,,,,,,,,,,,,,,
null,,learn_phase(without_color),482699,,black_plus_sign,,,,null,GW/hanover.png,GW/peoria.png,,,,,,,,,,,,,,,,,,,,,,,,,
null,,black_cross(without_color),483411,,blue,,,,null,GW/hanover.png,GW/peoria.png,,,,,,,,,,,,,,,,,,,,,,,,,
462.1000000014901,,rt_plussign_withcolor,483914,,blue,,,,49,GW/hanover.png,GW/peoria.png,,,,,,,,,,,,,,,,,,,,,,,,,
null,,rt_thecrossant_black,485210,,black_plus_sign,,,,null,,,1,0.9814814814814815,,,,,,,,,,,,,,,,,,,,,,,
null,,color_black,485315,,black_plus_sign,,,,null,,,,,,,,,,,,,,,,,,,,,,,,,,,
null,,learn_phase(without_color),488320,,black_plus_sign,,,,null,GW/racine.png,GW/gatlinburg.png,,,,,,,,,,,,,,,,,,,,,,,,,
null,,black_cross(without_color),488782,,yellow,,,,null,GW/racine.png,GW/gatlinburg.png,,,,,,,,,,,,,,,,,,,,,,,,,
490.29999999701977,,rt_plussign_withcolor,489284,,yellow,,,,50,GW/racine.png,GW/gatlinburg.png,,,,,,,,,,,,,,,,,,,,,,,,,
null,,rt_thecrossant_black,490829,,black_plus_sign,,,,null,,,1,0.9818181818181818,,,,,,,,,,,,,,,,,,,,,,,
null,,color_black,490933,,black_plus_sign,,,,null,,,,,,,,,,,,,,,,,,,,,,,,,,,
null,,learn_phase(without_color),493938,,black_plus_sign,,,,null,GW/leesburg.png,GW/cornwall.png,,,,,,,,,,,,,,,,,,,,,,,,,
null,,black_cross(without_color),495036,,blue,,,,null,GW/leesburg.png,GW/cornwall.png,,,,,,,,,,,,,,,,,,,,,,,,,
null,,rt_plussign_withcolor,495539,,blue,,,,null,GW/leesburg.png,GW/cornwall.png,,,,,,,,,,,,,,,,,,,,,,,,,
561.8999999985099,,rt_thecrossant_black,496448,,black_plus_sign,,,,49,,,1,0.9821428571428571,,,,,,,,,,,,,,,,,,,,,,,
null,,color_black,496552,,black_plus_sign,,,,null,,,,,,,,,,,,,,,,,,,,,,,,,,,
null,,learn_phase(without_color),499558,,black_plus_sign,,,,null,GW/newhope.png,GW/hotsprings.png,,,,,,,,,,,,,,,,,,,,,,,,,
null,,black_cross(without_color),500604,,yellow,,,,null,GW/newhope.png,GW/hotsprings.png,,,,,,,,,,,,,,,,,,,,,,,,,
431.1000000014901,,rt_plussign_withcolor,501107,,yellow,,,,50,GW/newhope.png,GW/hotsprings.png,,,,,,,,,,,,,,,,,,,,,,,,,
null,,rt_thecrossant_black,502070,,black_plus_sign,,,,null,,,1,0.9824561403508771,,,,,,,,,,,,,,,,,,,,,,,
null,,color_black,502174,,black_plus_sign,,,,null,,,,,,,,,,,,,,,,,,,,,,,,,,,
null,,learn_phase(without_color),505179,,black_plus_sign,,,,null,GW/huntsville.png,GW/leesburg.png,,,,,,,,,,,,,,,,,,,,,,,,,
null,,black_cross(without_color),506039,,yellow,,,,null,GW/huntsville.png,GW/leesburg.png,,,,,,,,,,,,,,,,,,,,,,,,,
430.5,,rt_plussign_withcolor,506542,,yellow,,,,50,GW/huntsville.png,GW/leesburg.png,,,,,,,,,,,,,,,,,,,,,,,,,
null,,rt_thecrossant_black,507690,,black_plus_sign,,,,null,,,1,0.9827586206896551,,,,,,,,,,,,,,,,,,,,,,,
null,,color_black,507794,,black_plus_sign,,,,null,,,,,,,,,,,,,,,,,,,,,,,,,,,
null,,learn_phase(without_color),510799,,black_plus_sign,,,,null,GW/shreveport.png,GW/hotsprings.png,,,,,,,,,,,,,,,,,,,,,,,,,
null,,black_cross(without_color),511591,,yellow,,,,null,GW/shreveport.png,GW/hotsprings.png,,,,,,,,,,,,,,,,,,,,,,,,,
300.20000000298023,,rt_plussign_withcolor,512093,,yellow,,,,50,GW/shreveport.png,GW/hotsprings.png,,,,,,,,,,,,,,,,,,,,,,,,,
null,,rt_thecrossant_black,513309,,black_plus_sign,,,,null,,,1,0.9830508474576272,,,,,,,,,,,,,,,,,,,,,,,
null,,color_black,513412,,black_plus_sign,,,,null,,,,,,,,,,,,,,,,,,,,,,,,,,,
null,,learn_phase(without_color),516416,,black_plus_sign,,,,null,GW/hotsprings.png,GW/carmel.png,,,,,,,,,,,,,,,,,,,,,,,,,
null,,black_cross(without_color),517148,,yellow,,,,null,GW/hotsprings.png,GW/carmel.png,,,,,,,,,,,,,,,,,,,,,,,,,
347.1000000014901,,rt_plussign_withcolor,517650,,yellow,,,,50,GW/hotsprings.png,GW/carmel.png,,,,,,,,,,,,,,,,,,,,,,,,,
null,,rt_thecrossant_black,518925,,black_plus_sign,,,,null,,,1,0.9833333333333333,,,,,,,,,,,,,,,,,,,,,,,
null,,color_black,519029,,black_plus_sign,,,,null,,,,,,,,,,,,,,,,,,,,,,,,,,,
null,,learn_phase(without_color),522033,,black_plus_sign,,,,null,GW/shreveport.png,GW/huntsville.png,,,,,,,,,,,,,,,,,,,,,,,,,
null,,black_cross(without_color),523084,,blue,,,,null,GW/shreveport.png,GW/huntsville.png,,,,,,,,,,,,,,,,,,,,,,,,,
null,,rt_plussign_withcolor,523588,,blue,,,,null,GW/shreveport.png,GW/huntsville.png,,,,,,,,,,,,,,,,,,,,,,,,,
847.2999999970198,,rt_thecrossant_black,524544,,black_plus_sign,,,,49,,,1,0.9836065573770492,,,,,,,,,,,,,,,,,,,,,,,
null,,color_black,524648,,black_plus_sign,,,,null,,,,,,,,,,,,,,,,,,,,,,,,,,,
null,,learn_phase(without_color),527654,,black_plus_sign,,,,null,GW/racine.png,GW/carmel.png,,,,,,,,,,,,,,,,,,,,,,,,,
null,,black_cross(without_color),528371,,yellow,,,,null,GW/racine.png,GW/carmel.png,,,,,,,,,,,,,,,,,,,,,,,,,
374.79999999701977,,rt_plussign_withcolor,528874,,yellow,,,,50,GW/racine.png,GW/carmel.png,,,,,,,,,,,,,,,,,,,,,,,,,
null,,rt_thecrossant_black,530165,,black_plus_sign,,,,null,,,1,0.9838709677419355,,,,,,,,,,,,,,,,,,,,,,,
null,,color_black,530268,,black_plus_sign,,,,null,,,,,,,,,,,,,,,,,,,,,,,,,,,
null,,learn_phase(without_color),533273,,black_plus_sign,,,,null,GW/huntsville.png,GW/leesburg.png,,,,,,,,,,,,,,,,,,,,,,,,,
null,,black_cross(without_color),534125,,yellow,,,,null,GW/huntsville.png,GW/leesburg.png,,,,,,,,,,,,,,,,,,,,,,,,,
373.29999999701977,,rt_plussign_withcolor,534628,,yellow,,,,50,GW/huntsville.png,GW/leesburg.png,,,,,,,,,,,,,,,,,,,,,,,,,
null,,rt_thecrossant_black,535784,,black_plus_sign,,,,null,,,1,0.9841269841269841,,,,,,,,,,,,,,,,,,,,,,,
null,,color_black,535887,,black_plus_sign,,,,null,,,,,,,,,,,,,,,,,,,,,,,,,,,
null,,learn_phase(without_color),538892,,black_plus_sign,,,,null,GW/hotsprings.png,GW/newhope.png,,,,,,,,,,,,,,,,,,,,,,,,,
null,,black_cross(without_color),539795,,yellow,,,,null,GW/hotsprings.png,GW/newhope.png,,,,,,,,,,,,,,,,,,,,,,,,,
412.5,,rt_plussign_withcolor,540298,,yellow,,,,50,GW/hotsprings.png,GW/newhope.png,,,,,,,,,,,,,,,,,,,,,,,,,
null,,rt_thecrossant_black,541404,,black_plus_sign,,,,null,,,1,0.984375,,,,,,,,,,,,,,,,,,,,,,,
null,,color_black,541508,,black_plus_sign,,,,null,,,,,,,,,,,,,,,,,,,,,,,,,,,
12974.39999999851,,learn_break,554485,,learn_break,,,,32,,,,,,,,,,,,,,,,,,,,,,,,,,,
null,,html-keyboard-response,555488,,<p></p>,,,,null,,,,,,,,,,,,,,,,,,,,,,,,,,,
null,,learn_phase(without_color),558492,,black_plus_sign,,,,null,GW/huntsville.png,GW/leesburg.png,,,,,,,,,,,,,,,,,,,,,,,,,
null,,black_cross(without_color),559498,,blue,,,,null,GW/huntsville.png,GW/leesburg.png,,,,,,,,,,,,,,,,,,,,,,,,,
409,,rt_plussign_withcolor,560002,,blue,,,,49,GW/huntsville.png,GW/leesburg.png,,,,,,,,,,,,,,,,,,,,,,,,,
null,,rt_thecrossant_black,561003,,black_plus_sign,,,,null,,,1,0.9846153846153847,,,,,,,,,,,,,,,,,,,,,,,
null,,color_black,561107,,black_plus_sign,,,,null,,,,,,,,,,,,,,,,,,,,,,,,,,,
null,,learn_phase(without_color),564113,,black_plus_sign,,,,null,GW/leesburg.png,GW/shreveport.png,,,,,,,,,,,,,,,,,,,,,,,,,
null,,black_cross(without_color),564761,,yellow,,,,null,GW/leesburg.png,GW/shreveport.png,,,,,,,,,,,,,,,,,,,,,,,,,
372.5,,rt_plussign_withcolor,565264,,yellow,,,,50,GW/leesburg.png,GW/shreveport.png,,,,,,,,,,,,,,,,,,,,,,,,,
null,,rt_thecrossant_black,566623,,black_plus_sign,,,,null,,,1,0.9848484848484849,,,,,,,,,,,,,,,,,,,,,,,
null,,color_black,566728,,black_plus_sign,,,,null,,,,,,,,,,,,,,,,,,,,,,,,,,,
null,,learn_phase(without_color),569732,,black_plus_sign,,,,null,GW/cornwall.png,GW/leesburg.png,,,,,,,,,,,,,,,,,,,,,,,,,
null,,black_cross(without_color),570279,,blue,,,,null,GW/cornwall.png,GW/leesburg.png,,,,,,,,,,,,,,,,,,,,,,,,,
null,,rt_plussign_withcolor,570782,,blue,,,,null,GW/cornwall.png,GW/leesburg.png,,,,,,,,,,,,,,,,,,,,,,,,,
783.6000000014901,,rt_thecrossant_black,572244,,black_plus_sign,,,,49,,,1,0.9850746268656716,,,,,,,,,,,,,,,,,,,,,,,
null,,color_black,572348,,black_plus_sign,,,,null,,,,,,,,,,,,,,,,,,,,,,,,,,,
null,,learn_phase(without_color),575354,,black_plus_sign,,,,null,GW/shreveport.png,GW/leesburg.png,,,,,,,,,,,,,,,,,,,,,,,,,
null,,black_cross(without_color),576219,,blue,,,,null,GW/shreveport.png,GW/leesburg.png,,,,,,,,,,,,,,,,,,,,,,,,,
396,,rt_plussign_withcolor,576722,,blue,,,,49,GW/shreveport.png,GW/leesburg.png,,,,,,,,,,,,,,,,,,,,,,,,,
null,,rt_thecrossant_black,577865,,black_plus_sign,,,,null,,,1,0.9852941176470589,,,,,,,,,,,,,,,,,,,,,,,
null,,color_black,577970,,black_plus_sign,,,,null,,,,,,,,,,,,,,,,,,,,,,,,,,,
null,,learn_phase(without_color),580975,,black_plus_sign,,,,null,GW/huntsville.png,GW/leesburg.png,,,,,,,,,,,,,,,,,,,,,,,,,
null,,black_cross(without_color),581779,,yellow,,,,null,GW/huntsville.png,GW/leesburg.png,,,,,,,,,,,,,,,,,,,,,,,,,
417.29999999701977,,rt_plussign_withcolor,582282,,yellow,,,,50,GW/huntsville.png,GW/leesburg.png,,,,,,,,,,,,,,,,,,,,,,,,,
null,,rt_thecrossant_black,583487,,black_plus_sign,,,,null,,,1,0.9855072463768116,,,,,,,,,,,,,,,,,,,,,,,
null,,color_black,583591,,black_plus_sign,,,,null,,,,,,,,,,,,,,,,,,,,,,,,,,,
null,,learn_phase(without_color),586595,,black_plus_sign,,,,null,GW/huntsville.png,GW/leesburg.png,,,,,,,,,,,,,,,,,,,,,,,,,
null,,black_cross(without_color),587499,,yellow,,,,null,GW/huntsville.png,GW/leesburg.png,,,,,,,,,,,,,,,,,,,,,,,,,
422,,rt_plussign_withcolor,588002,,yellow,,,,50,GW/huntsville.png,GW/leesburg.png,,,,,,,,,,,,,,,,,,,,,,,,,
null,,rt_thecrossant_black,589107,,black_plus_sign,,,,null,,,1,0.9857142857142858,,,,,,,,,,,,,,,,,,,,,,,
null,,color_black,589211,,black_plus_sign,,,,null,,,,,,,,,,,,,,,,,,,,,,,,,,,
null,,learn_phase(without_color),592216,,black_plus_sign,,,,null,GW/peoria.png,GW/racine.png,,,,,,,,,,,,,,,,,,,,,,,,,
null,,black_cross(without_color),593172,,blue,,,,null,GW/peoria.png,GW/racine.png,,,,,,,,,,,,,,,,,,,,,,,,,
461.1000000014901,,rt_plussign_withcolor,593675,,blue,,,,49,GW/peoria.png,GW/racine.png,,,,,,,,,,,,,,,,,,,,,,,,,
null,,rt_thecrossant_black,594728,,black_plus_sign,,,,null,,,1,0.9859154929577465,,,,,,,,,,,,,,,,,,,,,,,
null,,color_black,594831,,black_plus_sign,,,,null,,,,,,,,,,,,,,,,,,,,,,,,,,,
null,,learn_phase(without_color),597836,,black_plus_sign,,,,null,GW/leesburg.png,GW/cornwall.png,,,,,,,,,,,,,,,,,,,,,,,,,
null,,black_cross(without_color),598526,,yellow,,,,null,GW/leesburg.png,GW/cornwall.png,,,,,,,,,,,,,,,,,,,,,,,,,
385.19999999552965,,rt_plussign_withcolor,599028,,yellow,,,,50,GW/leesburg.png,GW/cornwall.png,,,,,,,,,,,,,,,,,,,,,,,,,
null,,rt_thecrossant_black,600346,,black_plus_sign,,,,null,,,1,0.9861111111111112,,,,,,,,,,,,,,,,,,,,,,,
null,,color_black,600450,,black_plus_sign,,,,null,,,,,,,,,,,,,,,,,,,,,,,,,,,
null,,learn_phase(without_color),603455,,black_plus_sign,,,,null,GW/leesburg.png,GW/westpalmbeach.png,,,,,,,,,,,,,,,,,,,,,,,,,
null,,black_cross(without_color),604287,,blue,,,,null,GW/leesburg.png,GW/westpalmbeach.png,,,,,,,,,,,,,,,,,,,,,,,,,
null,,rt_plussign_withcolor,604790,,blue,,,,null,GW/leesburg.png,GW/westpalmbeach.png,,,,,,,,,,,,,,,,,,,,,,,,,
885.4000000059605,,rt_thecrossant_black,605967,,black_plus_sign,,,,49,,,1,0.9863013698630136,,,,,,,,,,,,,,,,,,,,,,,
null,,color_black,606071,,black_plus_sign,,,,null,,,,,,,,,,,,,,,,,,,,,,,,,,,
null,,learn_phase(without_color),609074,,black_plus_sign,,,,null,GW/newhope.png,GW/cornwall.png,,,,,,,,,,,,,,,,,,,,,,,,,
null,,black_cross(without_color),610010,,blue,,,,null,GW/newhope.png,GW/cornwall.png,,,,,,,,,,,,,,,,,,,,,,,,,
431.70000000298023,,rt_plussign_withcolor,610513,,blue,,,,49,GW/newhope.png,GW/cornwall.png,,,,,,,,,,,,,,,,,,,,,,,,,
null,,rt_thecrossant_black,611585,,black_plus_sign,,,,null,,,1,0.9864864864864865,,,,,,,,,,,,,,,,,,,,,,,
null,,color_black,611690,,black_plus_sign,,,,null,,,,,,,,,,,,,,,,,,,,,,,,,,,
null,,learn_phase(without_color),614695,,black_plus_sign,,,,null,GW/racine.png,GW/gatlinburg.png,,,,,,,,,,,,,,,,,,,,,,,,,
null,,black_cross(without_color),615258,,yellow,,,,null,GW/racine.png,GW/gatlinburg.png,,,,,,,,,,,,,,,,,,,,,,,,,
468.5,,rt_plussign_withcolor,615761,,yellow,,,,50,GW/racine.png,GW/gatlinburg.png,,,,,,,,,,,,,,,,,,,,,,,,,
null,,rt_thecrossant_black,617206,,black_plus_sign,,,,null,,,1,0.9866666666666667,,,,,,,,,,,,,,,,,,,,,,,
null,,color_black,617310,,black_plus_sign,,,,null,,,,,,,,,,,,,,,,,,,,,,,,,,,
null,,learn_phase(without_color),620316,,black_plus_sign,,,,null,GW/shreveport.png,GW/hotsprings.png,,,,,,,,,,,,,,,,,,,,,,,,,
null,,black_cross(without_color),621213,,blue,,,,null,GW/shreveport.png,GW/hotsprings.png,,,,,,,,,,,,,,,,,,,,,,,,,
null,,rt_plussign_withcolor,621717,,blue,,,,null,GW/shreveport.png,GW/hotsprings.png,,,,,,,,,,,,,,,,,,,,,,,,,
662.7999999970198,,rt_thecrossant_black,622828,,black_plus_sign,,,,49,,,1,0.9868421052631579,,,,,,,,,,,,,,,,,,,,,,,
null,,color_black,622932,,black_plus_sign,,,,null,,,,,,,,,,,,,,,,,,,,,,,,,,,
null,,learn_phase(without_color),625937,,black_plus_sign,,,,null,GW/leesburg.png,GW/cornwall.png,,,,,,,,,,,,,,,,,,,,,,,,,
null,,black_cross(without_color),626426,,blue,,,,null,GW/leesburg.png,GW/cornwall.png,,,,,,,,,,,,,,,,,,,,,,,,,
null,,rt_plussign_withcolor,626929,,blue,,,,null,GW/leesburg.png,GW/cornwall.png,,,,,,,,,,,,,,,,,,,,,,,,,
1032.5999999940395,,rt_thecrossant_black,628447,,black_plus_sign,,,,49,,,1,0.987012987012987,,,,,,,,,,,,,,,,,,,,,,,
null,,color_black,628551,,black_plus_sign,,,,null,,,,,,,,,,,,,,,,,,,,,,,,,,,
null,,learn_phase(without_color),631557,,black_plus_sign,,,,null,GW/newhope.png,GW/cornwall.png,,,,,,,,,,,,,,,,,,,,,,,,,
null,,black_cross(without_color),632002,,yellow,,,,null,GW/newhope.png,GW/cornwall.png,,,,,,,,,,,,,,,,,,,,,,,,,
null,,rt_plussign_withcolor,632506,,yellow,,,,null,GW/newhope.png,GW/cornwall.png,,,,,,,,,,,,,,,,,,,,,,,,,
707.3999999985099,,rt_thecrossant_black,634068,,black_plus_sign,,,,50,,,1,0.9871794871794872,,,,,,,,,,,,,,,,,,,,,,,
null,,color_black,634172,,black_plus_sign,,,,null,,,,,,,,,,,,,,,,,,,,,,,,,,,
null,,learn_phase(without_color),637177,,black_plus_sign,,,,null,GW/racine.png,GW/gatlinburg.png,,,,,,,,,,,,,,,,,,,,,,,,,
null,,black_cross(without_color),637858,,yellow,,,,null,GW/racine.png,GW/gatlinburg.png,,,,,,,,,,,,,,,,,,,,,,,,,
null,,rt_plussign_withcolor,638362,,yellow,,,,null,GW/racine.png,GW/gatlinburg.png,,,,,,,,,,,,,,,,,,,,,,,,,
649,,rt_thecrossant_black,639687,,black_plus_sign,,,,50,,,1,0.9873417721518988,,,,,,,,,,,,,,,,,,,,,,,
null,,color_black,639791,,black_plus_sign,,,,null,,,,,,,,,,,,,,,,,,,,,,,,,,,
null,,learn_phase(without_color),642797,,black_plus_sign,,,,null,GW/huntsville.png,GW/shreveport.png,,,,,,,,,,,,,,,,,,,,,,,,,
null,,black_cross(without_color),643847,,blue,,,,null,GW/huntsville.png,GW/shreveport.png,,,,,,,,,,,,,,,,,,,,,,,,,
366,,rt_plussign_withcolor,644351,,blue,,,,49,GW/huntsville.png,GW/shreveport.png,,,,,,,,,,,,,,,,,,,,,,,,,
null,,rt_thecrossant_black,645309,,black_plus_sign,,,,null,,,1,0.9875,,,,,,,,,,,,,,,,,,,,,,,
null,,color_black,645413,,black_plus_sign,,,,null,,,,,,,,,,,,,,,,,,,,,,,,,,,
null,,learn_phase(without_color),648418,,black_plus_sign,,,,null,GW/peoria.png,GW/newhope.png,,,,,,,,,,,,,,,,,,,,,,,,,
null,,black_cross(without_color),649295,,yellow,,,,null,GW/peoria.png,GW/newhope.png,,,,,,,,,,,,,,,,,,,,,,,,,
479.80000000447035,,rt_plussign_withcolor,649799,,yellow,,,,50,GW/peoria.png,GW/newhope.png,,,,,,,,,,,,,,,,,,,,,,,,,
null,,rt_thecrossant_black,650929,,black_plus_sign,,,,null,,,1,0.9876543209876543,,,,,,,,,,,,,,,,,,,,,,,
null,,color_black,651034,,black_plus_sign,,,,null,,,,,,,,,,,,,,,,,,,,,,,,,,,
null,,learn_phase(without_color),654039,,black_plus_sign,,,,null,GW/carmel.png,GW/racine.png,,,,,,,,,,,,,,,,,,,,,,,,,
null,,black_cross(without_color),654449,,blue,,,,null,GW/carmel.png,GW/racine.png,,,,,,,,,,,,,,,,,,,,,,,,,
null,,rt_plussign_withcolor,654953,,blue,,,,null,GW/carmel.png,GW/racine.png,,,,,,,,,,,,,,,,,,,,,,,,,
1018.6000000014901,,rt_thecrossant_black,656552,,black_plus_sign,,,,49,,,1,0.9878048780487805,,,,,,,,,,,,,,,,,,,,,,,
null,,color_black,656655,,black_plus_sign,,,,null,,,,,,,,,,,,,,,,,,,,,,,,,,,
null,,learn_phase(without_color),659661,,black_plus_sign,,,,null,GW/cornwall.png,GW/leesburg.png,,,,,,,,,,,,,,,,,,,,,,,,,
null,,black_cross(without_color),660750,,yellow,,,,null,GW/cornwall.png,GW/leesburg.png,,,,,,,,,,,,,,,,,,,,,,,,,
314,,rt_plussign_withcolor,661253,,yellow,,,,50,GW/cornwall.png,GW/leesburg.png,,,,,,,,,,,,,,,,,,,,,,,,,
null,,rt_thecrossant_black,662172,,black_plus_sign,,,,null,,,1,0.9879518072289156,,,,,,,,,,,,,,,,,,,,,,,
null,,color_black,662277,,black_plus_sign,,,,null,,,,,,,,,,,,,,,,,,,,,,,,,,,
null,,learn_phase(without_color),665282,,black_plus_sign,,,,null,GW/peoria.png,GW/hanover.png,,,,,,,,,,,,,,,,,,,,,,,,,
null,,black_cross(without_color),666000,,yellow,,,,null,GW/peoria.png,GW/hanover.png,,,,,,,,,,,,,,,,,,,,,,,,,
null,,rt_plussign_withcolor,666504,,yellow,,,,null,GW/peoria.png,GW/hanover.png,,,,,,,,,,,,,,,,,,,,,,,,,
1257.8999999985099,,rt_thecrossant_black,667794,,black_plus_sign,,,,50,,,1,0.9880952380952381,,,,,,,,,,,,,,,,,,,,,,,
null,,color_black,667898,,black_plus_sign,,,,null,,,,,,,,,,,,,,,,,,,,,,,,,,,
null,,learn_phase(without_color),670903,,black_plus_sign,,,,null,GW/shreveport.png,GW/leesburg.png,,,,,,,,,,,,,,,,,,,,,,,,,
null,,black_cross(without_color),671933,,yellow,,,,null,GW/shreveport.png,GW/leesburg.png,,,,,,,,,,,,,,,,,,,,,,,,,
397.3999999985099,,rt_plussign_withcolor,672436,,yellow,,,,50,GW/shreveport.png,GW/leesburg.png,,,,,,,,,,,,,,,,,,,,,,,,,
null,,rt_thecrossant_black,673415,,black_plus_sign,,,,null,,,1,0.9882352941176471,,,,,,,,,,,,,,,,,,,,,,,
null,,color_black,673519,,black_plus_sign,,,,null,,,,,,,,,,,,,,,,,,,,,,,,,,,
null,,learn_phase(without_color),676524,,black_plus_sign,,,,null,GW/huntsville.png,GW/boulder.png,,,,,,,,,,,,,,,,,,,,,,,,,
null,,black_cross(without_color),677375,,blue,,,,null,GW/huntsville.png,GW/boulder.png,,,,,,,,,,,,,,,,,,,,,,,,,
424.20000000298023,,rt_plussign_withcolor,677879,,blue,,,,49,GW/huntsville.png,GW/boulder.png,,,,,,,,,,,,,,,,,,,,,,,,,
null,,rt_thecrossant_black,679036,,black_plus_sign,,,,null,,,1,0.9883720930232558,,,,,,,,,,,,,,,,,,,,,,,
null,,color_black,679141,,black_plus_sign,,,,null,,,,,,,,,,,,,,,,,,,,,,,,,,,
null,,learn_phase(without_color),682146,,black_plus_sign,,,,null,GW/huntsville.png,GW/boulder.png,,,,,,,,,,,,,,,,,,,,,,,,,
null,,black_cross(without_color),683101,,blue,,,,null,GW/huntsville.png,GW/boulder.png,,,,,,,,,,,,,,,,,,,,,,,,,
null,,rt_plussign_withcolor,683605,,blue,,,,null,GW/huntsville.png,GW/boulder.png,,,,,,,,,,,,,,,,,,,,,,,,,
1014.7999999970198,,rt_thecrossant_black,684658,,black_plus_sign,,,,49,,,1,0.9885057471264368,,,,,,,,,,,,,,,,,,,,,,,
null,,color_black,684762,,black_plus_sign,,,,null,,,,,,,,,,,,,,,,,,,,,,,,,,,
null,,learn_phase(without_color),687768,,black_plus_sign,,,,null,GW/newhope.png,GW/cornwall.png,,,,,,,,,,,,,,,,,,,,,,,,,
null,,black_cross(without_color),688871,,yellow,,,,null,GW/newhope.png,GW/cornwall.png,,,,,,,,,,,,,,,,,,,,,,,,,
328.80000000447035,,rt_plussign_withcolor,689375,,yellow,,,,50,GW/newhope.png,GW/cornwall.png,,,,,,,,,,,,,,,,,,,,,,,,,
null,,rt_thecrossant_black,690281,,black_plus_sign,,,,null,,,1,0.9886363636363636,,,,,,,,,,,,,,,,,,,,,,,
null,,color_black,690385,,black_plus_sign,,,,null,,,,,,,,,,,,,,,,,,,,,,,,,,,
null,,learn_phase(without_color),693390,,black_plus_sign,,,,null,GW/hotsprings.png,GW/shreveport.png,,,,,,,,,,,,,,,,,,,,,,,,,
null,,black_cross(without_color),694164,,yellow,,,,null,GW/hotsprings.png,GW/shreveport.png,,,,,,,,,,,,,,,,,,,,,,,,,
366.1000000014901,,rt_plussign_withcolor,694667,,yellow,,,,50,GW/hotsprings.png,GW/shreveport.png,,,,,,,,,,,,,,,,,,,,,,,,,
null,,rt_thecrossant_black,695902,,black_plus_sign,,,,null,,,1,0.9887640449438202,,,,,,,,,,,,,,,,,,,,,,,
null,,color_black,696006,,black_plus_sign,,,,null,,,,,,,,,,,,,,,,,,,,,,,,,,,
null,,learn_phase(without_color),699012,,black_plus_sign,,,,null,GW/peoria.png,GW/racine.png,,,,,,,,,,,,,,,,,,,,,,,,,
null,,black_cross(without_color),699740,,blue,,,,null,GW/peoria.png,GW/racine.png,,,,,,,,,,,,,,,,,,,,,,,,,
null,,rt_plussign_withcolor,700242,,blue,,,,null,GW/peoria.png,GW/racine.png,,,,,,,,,,,,,,,,,,,,,,,,,
936.2000000029802,,rt_thecrossant_black,701523,,black_plus_sign,,,,49,,,1,0.9888888888888889,,,,,,,,,,,,,,,,,,,,,,,
null,,color_black,701628,,black_plus_sign,,,,null,,,,,,,,,,,,,,,,,,,,,,,,,,,
null,,learn_phase(without_color),704634,,black_plus_sign,,,,null,GW/hotsprings.png,GW/carmel.png,,,,,,,,,,,,,,,,,,,,,,,,,
null,,black_cross(without_color),705525,,yellow,,,,null,GW/hotsprings.png,GW/carmel.png,,,,,,,,,,,,,,,,,,,,,,,,,
361.20000000298023,,rt_plussign_withcolor,706029,,yellow,,,,50,GW/hotsprings.png,GW/carmel.png,,,,,,,,,,,,,,,,,,,,,,,,,
null,,rt_thecrossant_black,707146,,black_plus_sign,,,,null,,,1,0.989010989010989,,,,,,,,,,,,,,,,,,,,,,,
null,,color_black,707251,,black_plus_sign,,,,null,,,,,,,,,,,,,,,,,,,,,,,,,,,
null,,learn_phase(without_color),710257,,black_plus_sign,,,,null,GW/newhope.png,GW/peoria.png,,,,,,,,,,,,,,,,,,,,,,,,,
null,,black_cross(without_color),711138,,yellow,,,,null,GW/newhope.png,GW/peoria.png,,,,,,,,,,,,,,,,,,,,,,,,,
450.19999999552965,,rt_plussign_withcolor,711641,,yellow,,,,50,GW/newhope.png,GW/peoria.png,,,,,,,,,,,,,,,,,,,,,,,,,
null,,rt_thecrossant_black,712769,,black_plus_sign,,,,null,,,1,0.9891304347826086,,,,,,,,,,,,,,,,,,,,,,,
null,,color_black,712872,,black_plus_sign,,,,null,,,,,,,,,,,,,,,,,,,,,,,,,,,
null,,learn_phase(without_color),715878,,black_plus_sign,,,,null,GW/racine.png,GW/carmel.png,,,,,,,,,,,,,,,,,,,,,,,,,
null,,black_cross(without_color),716632,,yellow,,,,null,GW/racine.png,GW/carmel.png,,,,,,,,,,,,,,,,,,,,,,,,,
372.6000000014901,,rt_plussign_withcolor,717136,,yellow,,,,50,GW/racine.png,GW/carmel.png,,,,,,,,,,,,,,,,,,,,,,,,,
null,,rt_thecrossant_black,718390,,black_plus_sign,,,,null,,,1,0.989247311827957,,,,,,,,,,,,,,,,,,,,,,,
null,,color_black,718495,,black_plus_sign,,,,null,,,,,,,,,,,,,,,,,,,,,,,,,,,
null,,learn_phase(without_color),721501,,black_plus_sign,,,,null,GW/hotsprings.png,GW/carmel.png,,,,,,,,,,,,,,,,,,,,,,,,,
null,,black_cross(without_color),721957,,yellow,,,,null,GW/hotsprings.png,GW/carmel.png,,,,,,,,,,,,,,,,,,,,,,,,,
443.29999999701977,,rt_plussign_withcolor,722460,,yellow,,,,50,GW/hotsprings.png,GW/carmel.png,,,,,,,,,,,,,,,,,,,,,,,,,
null,,rt_thecrossant_black,724011,,black_plus_sign,,,,null,,,1,0.9893617021276596,,,,,,,,,,,,,,,,,,,,,,,
null,,color_black,724116,,black_plus_sign,,,,null,,,,,,,,,,,,,,,,,,,,,,,,,,,
null,,learn_phase(without_color),727121,,black_plus_sign,,,,null,GW/peoria.png,GW/racine.png,,,,,,,,,,,,,,,,,,,,,,,,,
null,,black_cross(without_color),728124,,blue,,,,null,GW/peoria.png,GW/racine.png,,,,,,,,,,,,,,,,,,,,,,,,,
null,,rt_plussign_withcolor,728627,,blue,,,,null,GW/peoria.png,GW/racine.png,,,,,,,,,,,,,,,,,,,,,,,,,
627.2999999970198,,rt_thecrossant_black,729634,,black_plus_sign,,,,50,,,0,0.9789473684210527,,,,,,,,,,,,,,,,,,,,,,,
null,,color_black,729737,,black_plus_sign,,,,null,,,,,,,,,,,,,,,,,,,,,,,,,,,
null,,learn_phase(without_color),732743,,black_plus_sign,,,,null,GW/newhope.png,GW/cornwall.png,,,,,,,,,,,,,,,,,,,,,,,,,
null,,black_cross(without_color),733317,,blue,,,,null,GW/newhope.png,GW/cornwall.png,,,,,,,,,,,,,,,,,,,,,,,,,
472.19999999552965,,rt_plussign_withcolor,733820,,blue,,,,49,GW/newhope.png,GW/cornwall.png,,,,,,,,,,,,,,,,,,,,,,,,,
null,,rt_thecrossant_black,735254,,black_plus_sign,,,,null,,,1,0.9791666666666666,,,,,,,,,,,,,,,,,,,,,,,
null,,color_black,735358,,black_plus_sign,,,,null,,,,,,,,,,,,,,,,,,,,,,,,,,,
null,,learn_phase(without_color),738363,,black_plus_sign,,,,null,GW/peoria.png,GW/newhope.png,,,,,,,,,,,,,,,,,,,,,,,,,
null,,black_cross(without_color),739103,,blue,,,,null,GW/peoria.png,GW/newhope.png,,,,,,,,,,,,,,,,,,,,,,,,,
null,,rt_plussign_withcolor,739606,,blue,,,,null,GW/peoria.png,GW/newhope.png,,,,,,,,,,,,,,,,,,,,,,,,,
1172.6000000014901,,rt_thecrossant_black,740874,,black_plus_sign,,,,49,,,1,0.979381443298969,,,,,,,,,,,,,,,,,,,,,,,
null,,color_black,740979,,black_plus_sign,,,,null,,,,,,,,,,,,,,,,,,,,,,,,,,,
null,,learn_phase(without_color),743985,,black_plus_sign,,,,null,GW/racine.png,GW/carmel.png,,,,,,,,,,,,,,,,,,,,,,,,,
null,,black_cross(without_color),744701,,blue,,,,null,GW/racine.png,GW/carmel.png,,,,,,,,,,,,,,,,,,,,,,,,,
446.70000000298023,,rt_plussign_withcolor,745204,,blue,,,,49,GW/racine.png,GW/carmel.png,,,,,,,,,,,,,,,,,,,,,,,,,
null,,rt_thecrossant_black,746495,,black_plus_sign,,,,null,,,1,0.9795918367346939,,,,,,,,,,,,,,,,,,,,,,,
null,,color_black,746600,,black_plus_sign,,,,null,,,,,,,,,,,,,,,,,,,,,,,,,,,
null,,learn_phase(without_color),749605,,black_plus_sign,,,,null,GW/boulder.png,GW/huntsville.png,,,,,,,,,,,,,,,,,,,,,,,,,
null,,black_cross(without_color),750326,,blue,,,,null,GW/boulder.png,GW/huntsville.png,,,,,,,,,,,,,,,,,,,,,,,,,
null,,rt_plussign_withcolor,750830,,blue,,,,null,GW/boulder.png,GW/huntsville.png,,,,,,,,,,,,,,,,,,,,,,,,,
887.2999999970198,,rt_thecrossant_black,752118,,black_plus_sign,,,,49,,,1,0.9797979797979798,,,,,,,,,,,,,,,,,,,,,,,
null,,color_black,752221,,black_plus_sign,,,,null,,,,,,,,,,,,,,,,,,,,,,,,,,,
null,,learn_phase(without_color),755227,,black_plus_sign,,,,null,GW/hanover.png,GW/peoria.png,,,,,,,,,,,,,,,,,,,,,,,,,
null,,black_cross(without_color),755739,,yellow,,,,null,GW/hanover.png,GW/peoria.png,,,,,,,,,,,,,,,,,,,,,,,,,
null,,rt_plussign_withcolor,756243,,yellow,,,,null,GW/hanover.png,GW/peoria.png,,,,,,,,,,,,,,,,,,,,,,,,,
877.1999999955297,,rt_thecrossant_black,757739,,black_plus_sign,,,,50,,,1,0.98,,,,,,,,,,,,,,,,,,,,,,,
null,,color_black,757843,,black_plus_sign,,,,null,,,,,,,,,,,,,,,,,,,,,,,,,,,
null,,learn_phase(without_color),760849,,black_plus_sign,,,,null,GW/cornwall.png,GW/shreveport.png,,,,,,,,,,,,,,,,,,,,,,,,,
null,,black_cross(without_color),761758,,yellow,,,,null,GW/cornwall.png,GW/shreveport.png,,,,,,,,,,,,,,,,,,,,,,,,,
417.8999999985099,,rt_plussign_withcolor,762262,,yellow,,,,50,GW/cornwall.png,GW/shreveport.png,,,,,,,,,,,,,,,,,,,,,,,,,
null,,rt_thecrossant_black,763362,,black_plus_sign,,,,null,,,1,0.9801980198019802,,,,,,,,,,,,,,,,,,,,,,,
null,,color_black,763465,,black_plus_sign,,,,null,,,,,,,,,,,,,,,,,,,,,,,,,,,
null,,learn_phase(without_color),766469,,black_plus_sign,,,,null,GW/racine.png,GW/peoria.png,,,,,,,,,,,,,,,,,,,,,,,,,
null,,black_cross(without_color),767465,,blue,,,,null,GW/racine.png,GW/peoria.png,,,,,,,,,,,,,,,,,,,,,,,,,
null,,rt_plussign_withcolor,767969,,blue,,,,null,GW/racine.png,GW/peoria.png,,,,,,,,,,,,,,,,,,,,,,,,,
1071,,rt_thecrossant_black,768983,,black_plus_sign,,,,49,,,1,0.9803921568627451,,,,,,,,,,,,,,,,,,,,,,,
null,,color_black,769087,,black_plus_sign,,,,null,,,,,,,,,,,,,,,,,,,,,,,,,,,
null,,learn_phase(without_color),772093,,black_plus_sign,,,,null,GW/shreveport.png,GW/cornwall.png,,,,,,,,,,,,,,,,,,,,,,,,,
null,,black_cross(without_color),772861,,yellow,,,,null,GW/shreveport.png,GW/cornwall.png,,,,,,,,,,,,,,,,,,,,,,,,,
null,,rt_plussign_withcolor,773365,,yellow,,,,null,GW/shreveport.png,GW/cornwall.png,,,,,,,,,,,,,,,,,,,,,,,,,
1263.5,,rt_thecrossant_black,774605,,black_plus_sign,,,,50,,,1,0.9805825242718447,,,,,,,,,,,,,,,,,,,,,,,
null,,color_black,774709,,black_plus_sign,,,,null,,,,,,,,,,,,,,,,,,,,,,,,,,,
null,,learn_phase(without_color),777714,,black_plus_sign,,,,null,GW/newhope.png,GW/hotsprings.png,,,,,,,,,,,,,,,,,,,,,,,,,
null,,black_cross(without_color),778626,,blue,,,,null,GW/newhope.png,GW/hotsprings.png,,,,,,,,,,,,,,,,,,,,,,,,,
null,,rt_plussign_withcolor,779129,,blue,,,,null,GW/newhope.png,GW/hotsprings.png,,,,,,,,,,,,,,,,,,,,,,,,,
874.5,,rt_thecrossant_black,780226,,black_plus_sign,,,,49,,,1,0.9807692307692307,,,,,,,,,,,,,,,,,,,,,,,
null,,color_black,780330,,black_plus_sign,,,,null,,,,,,,,,,,,,,,,,,,,,,,,,,,
null,,learn_phase(without_color),783335,,black_plus_sign,,,,null,GW/cornwall.png,GW/shreveport.png,,,,,,,,,,,,,,,,,,,,,,,,,
null,,black_cross(without_color),784252,,yellow,,,,null,GW/cornwall.png,GW/shreveport.png,,,,,,,,,,,,,,,,,,,,,,,,,
null,,rt_plussign_withcolor,784757,,yellow,,,,null,GW/cornwall.png,GW/shreveport.png,,,,,,,,,,,,,,,,,,,,,,,,,
1016,,rt_thecrossant_black,785847,,black_plus_sign,,,,50,,,1,0.9809523809523809,,,,,,,,,,,,,,,,,,,,,,,
null,,color_black,785951,,black_plus_sign,,,,null,,,,,,,,,,,,,,,,,,,,,,,,,,,
null,,learn_phase(without_color),788956,,black_plus_sign,,,,null,GW/leesburg.png,GW/shreveport.png,,,,,,,,,,,,,,,,,,,,,,,,,
null,,black_cross(without_color),789593,,yellow,,,,null,GW/leesburg.png,GW/shreveport.png,,,,,,,,,,,,,,,,,,,,,,,,,
null,,rt_plussign_withcolor,790097,,yellow,,,,null,GW/leesburg.png,GW/shreveport.png,,,,,,,,,,,,,,,,,,,,,,,,,
1107.2000000029802,,rt_thecrossant_black,791469,,black_plus_sign,,,,50,,,1,0.9811320754716981,,,,,,,,,,,,,,,,,,,,,,,
null,,color_black,791574,,black_plus_sign,,,,null,,,,,,,,,,,,,,,,,,,,,,,,,,,
null,,learn_phase(without_color),794579,,black_plus_sign,,,,null,GW/carmel.png,GW/hotsprings.png,,,,,,,,,,,,,,,,,,,,,,,,,
null,,black_cross(without_color),795276,,blue,,,,null,GW/carmel.png,GW/hotsprings.png,,,,,,,,,,,,,,,,,,,,,,,,,
null,,rt_plussign_withcolor,795779,,blue,,,,null,GW/carmel.png,GW/hotsprings.png,,,,,,,,,,,,,,,,,,,,,,,,,
808.6999999955297,,rt_thecrossant_black,797090,,black_plus_sign,,,,49,,,1,0.9813084112149533,,,,,,,,,,,,,,,,,,,,,,,
null,,color_black,797194,,black_plus_sign,,,,null,,,,,,,,,,,,,,,,,,,,,,,,,,,
null,,learn_phase(without_color),800200,,black_plus_sign,,,,null,GW/racine.png,GW/peoria.png,,,,,,,,,,,,,,,,,,,,,,,,,
null,,black_cross(without_color),801057,,blue,,,,null,GW/racine.png,GW/peoria.png,,,,,,,,,,,,,,,,,,,,,,,,,
null,,rt_plussign_withcolor,801561,,blue,,,,null,GW/racine.png,GW/peoria.png,,,,,,,,,,,,,,,,,,,,,,,,,
953,,rt_thecrossant_black,802713,,black_plus_sign,,,,49,,,1,0.9814814814814815,,,,,,,,,,,,,,,,,,,,,,,
null,,color_black,802817,,black_plus_sign,,,,null,,,,,,,,,,,,,,,,,,,,,,,,,,,
null,,learn_phase(without_color),805823,,black_plus_sign,,,,null,GW/shreveport.png,GW/huntsville.png,,,,,,,,,,,,,,,,,,,,,,,,,
null,,black_cross(without_color),806366,,yellow,,,,null,GW/shreveport.png,GW/huntsville.png,,,,,,,,,,,,,,,,,,,,,,,,,
475.8999999985099,,rt_plussign_withcolor,806870,,yellow,,,,50,GW/shreveport.png,GW/huntsville.png,,,,,,,,,,,,,,,,,,,,,,,,,
null,,rt_thecrossant_black,808335,,black_plus_sign,,,,null,,,1,0.981651376146789,,,,,,,,,,,,,,,,,,,,,,,
null,,color_black,808440,,black_plus_sign,,,,null,,,,,,,,,,,,,,,,,,,,,,,,,,,
null,,learn_phase(without_color),811445,,black_plus_sign,,,,null,GW/racine.png,GW/gatlinburg.png,,,,,,,,,,,,,,,,,,,,,,,,,
null,,black_cross(without_color),812235,,blue,,,,null,GW/racine.png,GW/gatlinburg.png,,,,,,,,,,,,,,,,,,,,,,,,,
null,,rt_plussign_withcolor,812738,,blue,,,,null,GW/racine.png,GW/gatlinburg.png,,,,,,,,,,,,,,,,,,,,,,,,,
741.2999999970198,,rt_thecrossant_black,813957,,black_plus_sign,,,,49,,,1,0.9818181818181818,,,,,,,,,,,,,,,,,,,,,,,
null,,color_black,814060,,black_plus_sign,,,,null,,,,,,,,,,,,,,,,,,,,,,,,,,,
null,,learn_phase(without_color),817066,,black_plus_sign,,,,null,GW/cornwall.png,GW/leesburg.png,,,,,,,,,,,,,,,,,,,,,,,,,
null,,black_cross(without_color),817776,,yellow,,,,null,GW/cornwall.png,GW/leesburg.png,,,,,,,,,,,,,,,,,,,,,,,,,
null,,rt_plussign_withcolor,818279,,yellow,,,,null,GW/cornwall.png,GW/leesburg.png,,,,,,,,,,,,,,,,,,,,,,,,,
976.3999999985099,,rt_thecrossant_black,819579,,black_plus_sign,,,,50,,,1,0.9819819819819819,,,,,,,,,,,,,,,,,,,,,,,
null,,color_black,819683,,black_plus_sign,,,,null,,,,,,,,,,,,,,,,,,,,,,,,,,,
null,,learn_phase(without_color),822688,,black_plus_sign,,,,null,GW/racine.png,GW/carmel.png,,,,,,,,,,,,,,,,,,,,,,,,,
null,,black_cross(without_color),823648,,blue,,,,null,GW/racine.png,GW/carmel.png,,,,,,,,,,,,,,,,,,,,,,,,,
null,,rt_plussign_withcolor,824152,,blue,,,,null,GW/racine.png,GW/carmel.png,,,,,,,,,,,,,,,,,,,,,,,,,
892.3000000044703,,rt_thecrossant_black,825201,,black_plus_sign,,,,49,,,1,0.9821428571428571,,,,,,,,,,,,,,,,,,,,,,,
null,,color_black,825306,,black_plus_sign,,,,null,,,,,,,,,,,,,,,,,,,,,,,,,,,
null,,learn_phase(without_color),828312,,black_plus_sign,,,,null,GW/hotsprings.png,GW/newhope.png,,,,,,,,,,,,,,,,,,,,,,,,,
null,,black_cross(without_color),829326,,blue,,,,null,GW/hotsprings.png,GW/newhope.png,,,,,,,,,,,,,,,,,,,,,,,,,
null,,rt_plussign_withcolor,829829,,blue,,,,null,GW/hotsprings.png,GW/newhope.png,,,,,,,,,,,,,,,,,,,,,,,,,
1272.1000000014901,,rt_thecrossant_black,830824,,black_plus_sign,,,,49,,,1,0.9823008849557522,,,,,,,,,,,,,,,,,,,,,,,
null,,color_black,830928,,black_plus_sign,,,,null,,,,,,,,,,,,,,,,,,,,,,,,,,,
null,,learn_phase(without_color),833934,,black_plus_sign,,,,null,GW/peoria.png,GW/hanover.png,,,,,,,,,,,,,,,,,,,,,,,,,
null,,black_cross(without_color),834549,,blue,,,,null,GW/peoria.png,GW/hanover.png,,,,,,,,,,,,,,,,,,,,,,,,,
421.20000000298023,,rt_plussign_withcolor,835053,,blue,,,,49,GW/peoria.png,GW/hanover.png,,,,,,,,,,,,,,,,,,,,,,,,,
null,,rt_thecrossant_black,836446,,black_plus_sign,,,,null,,,1,0.9824561403508771,,,,,,,,,,,,,,,,,,,,,,,
null,,color_black,836551,,black_plus_sign,,,,null,,,,,,,,,,,,,,,,,,,,,,,,,,,
null,,learn_phase(without_color),839556,,black_plus_sign,,,,null,GW/boulder.png,GW/huntsville.png,,,,,,,,,,,,,,,,,,,,,,,,,
null,,black_cross(without_color),840496,,yellow,,,,null,GW/boulder.png,GW/huntsville.png,,,,,,,,,,,,,,,,,,,,,,,,,
null,,rt_plussign_withcolor,840999,,yellow,,,,null,GW/boulder.png,GW/huntsville.png,,,,,,,,,,,,,,,,,,,,,,,,,
731.6999999955297,,rt_thecrossant_black,842068,,black_plus_sign,,,,50,,,1,0.9826086956521739,,,,,,,,,,,,,,,,,,,,,,,
null,,color_black,842172,,black_plus_sign,,,,null,,,,,,,,,,,,,,,,,,,,,,,,,,,
null,,learn_phase(without_color),845178,,black_plus_sign,,,,null,GW/hotsprings.png,GW/shreveport.png,,,,,,,,,,,,,,,,,,,,,,,,,
null,,black_cross(without_color),845782,,yellow,,,,null,GW/hotsprings.png,GW/shreveport.png,,,,,,,,,,,,,,,,,,,,,,,,,
496.40000000596046,,rt_plussign_withcolor,846285,,yellow,,,,50,GW/hotsprings.png,GW/shreveport.png,,,,,,,,,,,,,,,,,,,,,,,,,
null,,rt_thecrossant_black,847690,,black_plus_sign,,,,null,,,1,0.9827586206896551,,,,,,,,,,,,,,,,,,,,,,,
null,,color_black,847794,,black_plus_sign,,,,null,,,,,,,,,,,,,,,,,,,,,,,,,,,
null,,learn_phase(without_color),850800,,black_plus_sign,,,,null,GW/peoria.png,GW/newhope.png,,,,,,,,,,,,,,,,,,,,,,,,,
null,,black_cross(without_color),851272,,blue,,,,null,GW/peoria.png,GW/newhope.png,,,,,,,,,,,,,,,,,,,,,,,,,
null,,rt_plussign_withcolor,851776,,blue,,,,null,GW/peoria.png,GW/newhope.png,,,,,,,,,,,,,,,,,,,,,,,,,
767.2999999970198,,rt_thecrossant_black,853312,,black_plus_sign,,,,49,,,1,0.9829059829059829,,,,,,,,,,,,,,,,,,,,,,,
null,,color_black,853415,,black_plus_sign,,,,null,,,,,,,,,,,,,,,,,,,,,,,,,,,
null,,learn_phase(without_color),856420,,black_plus_sign,,,,null,GW/peoria.png,GW/racine.png,,,,,,,,,,,,,,,,,,,,,,,,,
null,,black_cross(without_color),857074,,blue,,,,null,GW/peoria.png,GW/racine.png,,,,,,,,,,,,,,,,,,,,,,,,,
null,,rt_plussign_withcolor,857578,,blue,,,,null,GW/peoria.png,GW/racine.png,,,,,,,,,,,,,,,,,,,,,,,,,
593.2000000029802,,rt_thecrossant_black,858933,,black_plus_sign,,,,49,,,1,0.9830508474576272,,,,,,,,,,,,,,,,,,,,,,,
null,,color_black,859038,,black_plus_sign,,,,null,,,,,,,,,,,,,,,,,,,,,,,,,,,
null,,learn_phase(without_color),862044,,black_plus_sign,,,,null,GW/huntsville.png,GW/leesburg.png,,,,,,,,,,,,,,,,,,,,,,,,,
null,,black_cross(without_color),862492,,blue,,,,null,GW/huntsville.png,GW/leesburg.png,,,,,,,,,,,,,,,,,,,,,,,,,
null,,rt_plussign_withcolor,862995,,blue,,,,null,GW/huntsville.png,GW/leesburg.png,,,,,,,,,,,,,,,,,,,,,,,,,
872.2000000029802,,rt_thecrossant_black,864555,,black_plus_sign,,,,49,,,1,0.9831932773109243,,,,,,,,,,,,,,,,,,,,,,,
null,,color_black,864659,,black_plus_sign,,,,null,,,,,,,,,,,,,,,,,,,,,,,,,,,
null,,learn_phase(without_color),867665,,black_plus_sign,,,,null,GW/carmel.png,GW/hotsprings.png,,,,,,,,,,,,,,,,,,,,,,,,,
null,,black_cross(without_color),868294,,yellow,,,,null,GW/carmel.png,GW/hotsprings.png,,,,,,,,,,,,,,,,,,,,,,,,,
432.8999999985099,,rt_plussign_withcolor,868797,,yellow,,,,50,GW/carmel.png,GW/hotsprings.png,,,,,,,,,,,,,,,,,,,,,,,,,
null,,rt_thecrossant_black,870177,,black_plus_sign,,,,null,,,1,0.9833333333333333,,,,,,,,,,,,,,,,,,,,,,,
null,,color_black,870282,,black_plus_sign,,,,null,,,,,,,,,,,,,,,,,,,,,,,,,,,
null,,learn_phase(without_color),873287,,black_plus_sign,,,,null,GW/hotsprings.png,GW/shreveport.png,,,,,,,,,,,,,,,,,,,,,,,,,
null,,black_cross(without_color),874059,,yellow,,,,null,GW/hotsprings.png,GW/shreveport.png,,,,,,,,,,,,,,,,,,,,,,,,,
485.40000000596046,,rt_plussign_withcolor,874562,,yellow,,,,50,GW/hotsprings.png,GW/shreveport.png,,,,,,,,,,,,,,,,,,,,,,,,,
null,,rt_thecrossant_black,875798,,black_plus_sign,,,,null,,,1,0.9834710743801653,,,,,,,,,,,,,,,,,,,,,,,
null,,color_black,875902,,black_plus_sign,,,,null,,,,,,,,,,,,,,,,,,,,,,,,,,,
null,,learn_phase(without_color),878908,,black_plus_sign,,,,null,GW/peoria.png,GW/newhope.png,,,,,,,,,,,,,,,,,,,,,,,,,
null,,black_cross(without_color),879963,,blue,,,,null,GW/peoria.png,GW/newhope.png,,,,,,,,,,,,,,,,,,,,,,,,,
null,,rt_plussign_withcolor,880467,,blue,,,,null,GW/peoria.png,GW/newhope.png,,,,,,,,,,,,,,,,,,,,,,,,,
1207.2000000029802,,rt_thecrossant_black,881420,,black_plus_sign,,,,49,,,1,0.9836065573770492,,,,,,,,,,,,,,,,,,,,,,,
null,,color_black,881524,,black_plus_sign,,,,null,,,,,,,,,,,,,,,,,,,,,,,,,,,
null,,learn_phase(without_color),884529,,black_plus_sign,,,,null,GW/carmel.png,GW/hotsprings.png,,,,,,,,,,,,,,,,,,,,,,,,,
null,,black_cross(without_color),885274,,yellow,,,,null,GW/carmel.png,GW/hotsprings.png,,,,,,,,,,,,,,,,,,,,,,,,,
456.8999999985099,,rt_plussign_withcolor,885777,,yellow,,,,50,GW/carmel.png,GW/hotsprings.png,,,,,,,,,,,,,,,,,,,,,,,,,
null,,rt_thecrossant_black,887041,,black_plus_sign,,,,null,,,1,0.983739837398374,,,,,,,,,,,,,,,,,,,,,,,
null,,color_black,887145,,black_plus_sign,,,,null,,,,,,,,,,,,,,,,,,,,,,,,,,,
null,,learn_phase(without_color),890151,,black_plus_sign,,,,null,GW/westpalmbeach.png,GW/leesburg.png,,,,,,,,,,,,,,,,,,,,,,,,,
null,,black_cross(without_color),890595,,yellow,,,,null,GW/westpalmbeach.png,GW/leesburg.png,,,,,,,,,,,,,,,,,,,,,,,,,
null,,rt_plussign_withcolor,891098,,yellow,,,,null,GW/westpalmbeach.png,GW/leesburg.png,,,,,,,,,,,,,,,,,,,,,,,,,
923.2999999970198,,rt_thecrossant_black,892664,,black_plus_sign,,,,49,,,0,0.9758064516129032,,,,,,,,,,,,,,,,,,,,,,,
null,,color_black,892768,,black_plus_sign,,,,null,,,,,,,,,,,,,,,,,,,,,,,,,,,
null,,learn_phase(without_color),895773,,black_plus_sign,,,,null,GW/westpalmbeach.png,GW/leesburg.png,,,,,,,,,,,,,,,,,,,,,,,,,
null,,black_cross(without_color),896755,,yellow,,,,null,GW/westpalmbeach.png,GW/leesburg.png,,,,,,,,,,,,,,,,,,,,,,,,,
417,,rt_plussign_withcolor,897259,,yellow,,,,50,GW/westpalmbeach.png,GW/leesburg.png,,,,,,,,,,,,,,,,,,,,,,,,,
null,,rt_thecrossant_black,898287,,black_plus_sign,,,,null,,,1,0.976,,,,,,,,,,,,,,,,,,,,,,,
null,,color_black,898391,,black_plus_sign,,,,null,,,,,,,,,,,,,,,,,,,,,,,,,,,
null,,learn_phase(without_color),901396,,black_plus_sign,,,,null,GW/huntsville.png,GW/boulder.png,,,,,,,,,,,,,,,,,,,,,,,,,
null,,black_cross(without_color),901962,,blue,,,,null,GW/huntsville.png,GW/boulder.png,,,,,,,,,,,,,,,,,,,,,,,,,
null,,rt_plussign_withcolor,902465,,blue,,,,null,GW/huntsville.png,GW/boulder.png,,,,,,,,,,,,,,,,,,,,,,,,,
1254.1000000014901,,rt_thecrossant_black,903908,,black_plus_sign,,,,49,,,1,0.9761904761904762,,,,,,,,,,,,,,,,,,,,,,,
null,,color_black,904011,,black_plus_sign,,,,null,,,,,,,,,,,,,,,,,,,,,,,,,,,
null,,learn_phase(without_color),907017,,black_plus_sign,,,,null,GW/shreveport.png,GW/cornwall.png,,,,,,,,,,,,,,,,,,,,,,,,,
null,,black_cross(without_color),907962,,yellow,,,,null,GW/shreveport.png,GW/cornwall.png,,,,,,,,,,,,,,,,,,,,,,,,,
435.1000000014901,,rt_plussign_withcolor,908465,,yellow,,,,50,GW/shreveport.png,GW/cornwall.png,,,,,,,,,,,,,,,,,,,,,,,,,
null,,rt_thecrossant_black,909529,,black_plus_sign,,,,null,,,1,0.9763779527559056,,,,,,,,,,,,,,,,,,,,,,,
null,,color_black,909634,,black_plus_sign,,,,null,,,,,,,,,,,,,,,,,,,,,,,,,,,
null,,learn_phase(without_color),912639,,black_plus_sign,,,,null,GW/newhope.png,GW/cornwall.png,,,,,,,,,,,,,,,,,,,,,,,,,
null,,black_cross(without_color),913634,,blue,,,,null,GW/newhope.png,GW/cornwall.png,,,,,,,,,,,,,,,,,,,,,,,,,
null,,rt_plussign_withcolor,914138,,blue,,,,null,GW/newhope.png,GW/cornwall.png,,,,,,,,,,,,,,,,,,,,,,,,,
1277.8999999985099,,rt_thecrossant_black,915152,,black_plus_sign,,,,49,,,1,0.9765625,,,,,,,,,,,,,,,,,,,,,,,
null,,color_black,915257,,black_plus_sign,,,,null,,,,,,,,,,,,,,,,,,,,,,,,,,,
19270.70000000298,,learn_break,934531,,learn_break,,,,32,,,,,,,,,,,,,,,,,,,,,,,,,,,
23214.70000000298,,intro_1,957748,,instruct,,0,Start,,,,,,,,,,,,,,,,,,,,,,,,,,,,
2541.0999999940395,,directmemory_phase,960293,,GW/racine.png,,,,51,,,1,1,GW/leesburg.png,GW/hanover.png,GW/gatlinburg.png,GW/gatlinburg.png,GW/hanover.png,GW/leesburg.png,1,,,,,,,,,,,,,,,,
null,,html-keyboard-response,961297,,<p></p>,,,,null,,,,,,,,,,,,,,,,,,,,,,,,,,,
1934.5,,directmemory_phase,963234,,GW/newhope.png,,,,51,,,1,1,GW/westpalmbeach.png,GW/leesburg.png,GW/cornwall.png,GW/cornwall.png,GW/leesburg.png,GW/westpalmbeach.png,1,,,,,,,,,,,,,,,,
null,,html-keyboard-response,964239,,<p></p>,,,,null,,,,,,,,,,,,,,,,,,,,,,,,,,,
2211,,directmemory_phase,966453,,GW/racine.png,,,,51,,,1,1,GW/leesburg.png,GW/hanover.png,GW/peoria.png,GW/peoria.png,GW/hanover.png,GW/leesburg.png,1,,,,,,,,,,,,,,,,
null,,html-keyboard-response,967457,,<p></p>,,,,null,,,,,,,,,,,,,,,,,,,,,,,,,,,
2466,,directmemory_phase,969926,,GW/hotsprings.png,,,,49,,,1,1,GW/newhope.png,GW/gatlinburg.png,GW/huntsville.png,GW/newhope.png,GW/huntsville.png,GW/gatlinburg.png,1,,,,,,,,,,,,,,,,
null,,html-keyboard-response,970929,,<p></p>,,,,null,,,,,,,,,,,,,,,,,,,,,,,,,,,
1382.6999999955297,,directmemory_phase,972315,,GW/shreveport.png,,,,50,,,1,1,GW/westpalmbeach.png,GW/cornwall.png,GW/gatlinburg.png,GW/cornwall.png,GW/westpalmbeach.png,GW/gatlinburg.png,1,,,,,,,,,,,,,,,,
null,,html-keyboard-response,973319,,<p></p>,,,,null,,,,,,,,,,,,,,,,,,,,,,,,,,,
1378.7999999970198,,directmemory_phase,974700,,GW/carmel.png,,,,51,,,1,1,GW/hanover.png,GW/gatlinburg.png,GW/racine.png,GW/racine.png,GW/gatlinburg.png,GW/hanover.png,1,,,,,,,,,,,,,,,,
null,,html-keyboard-response,975702,,<p></p>,,,,null,,,,,,,,,,,,,,,,,,,,,,,,,,,
1701.7000000029802,,directmemory_phase,977407,,GW/shreveport.png,,,,51,,,1,1,GW/peoria.png,GW/boulder.png,GW/hotsprings.png,GW/hotsprings.png,GW/boulder.png,GW/peoria.png,1,,,,,,,,,,,,,,,,
null,,html-keyboard-response,978411,,<p></p>,,,,null,,,,,,,,,,,,,,,,,,,,,,,,,,,
1060.8000000044703,,directmemory_phase,979474,,GW/peoria.png,,,,49,,,1,1,GW/hanover.png,GW/huntsville.png,GW/gatlinburg.png,GW/hanover.png,GW/gatlinburg.png,GW/huntsville.png,1,,,,,,,,,,,,,,,,
null,,html-keyboard-response,980478,,<p></p>,,,,null,,,,,,,,,,,,,,,,,,,,,,,,,,,
2150.2000000029802,,directmemory_phase,982631,,GW/huntsville.png,,,,51,,,1,1,GW/carmel.png,GW/cornwall.png,GW/boulder.png,GW/boulder.png,GW/cornwall.png,GW/carmel.png,1,,,,,,,,,,,,,,,,
null,,html-keyboard-response,983636,,<p></p>,,,,null,,,,,,,,,,,,,,,,,,,,,,,,,,,
1006.6999999955297,,directmemory_phase,984646,,GW/gatlinburg.png,,,,51,,,1,1,GW/newhope.png,GW/peoria.png,GW/racine.png,GW/racine.png,GW/peoria.png,GW/newhope.png,1,,,,,,,,,,,,,,,,
null,,html-keyboard-response,985650,,<p></p>,,,,null,,,,,,,,,,,,,,,,,,,,,,,,,,,
3335.89999999851,,directmemory_phase,988988,,GW/peoria.png,,,,49,,,0,0.9090909090909091,GW/hotsprings.png,GW/newhope.png,GW/huntsville.png,GW/newhope.png,GW/hotsprings.png,GW/huntsville.png,0.5,closer,,,,,,,,,,,,,,,
null,,html-keyboard-response,989994,,<p></p>,,,,null,,,,,,,,,,,,,,,,,,,,,,,,,,,
2206.10000000149,,directmemory_phase,992203,,GW/hotsprings.png,,,,49,,,1,0.9166666666666666,GW/shreveport.png,GW/boulder.png,GW/racine.png,GW/shreveport.png,GW/racine.png,GW/boulder.png,1,,,,,,,,,,,,,,,,
null,,html-keyboard-response,993207,,<p></p>,,,,null,,,,,,,,,,,,,,,,,,,,,,,,,,,
1890.1000000014901,,directmemory_phase,995099,,GW/cornwall.png,,,,49,,,1,0.9230769230769231,GW/newhope.png,GW/boulder.png,GW/hotsprings.png,GW/newhope.png,GW/hotsprings.png,GW/boulder.png,1,,,,,,,,,,,,,,,,
null,,html-keyboard-response,996104,,<p></p>,,,,null,,,,,,,,,,,,,,,,,,,,,,,,,,,
4300,,directmemory_phase,1000407,,GW/huntsville.png,,,,51,,,1,0.9285714285714286,GW/racine.png,GW/hotsprings.png,GW/leesburg.png,GW/leesburg.png,GW/hotsprings.png,GW/racine.png,1,,,,,,,,,,,,,,,,
null,,html-keyboard-response,1001412,,<p></p>,,,,null,,,,,,,,,,,,,,,,,,,,,,,,,,,
1046.9000000059605,,directmemory_phase,1002461,,GW/hanover.png,,,,50,,,1,0.9333333333333333,GW/newhope.png,GW/peoria.png,GW/gatlinburg.png,GW/peoria.png,GW/newhope.png,GW/gatlinburg.png,1,,,,,,,,,,,,,,,,
null,,html-keyboard-response,1003465,,<p></p>,,,,null,,,,,,,,,,,,,,,,,,,,,,,,,,,
2705.39999999851,,directmemory_phase,1006173,,GW/boulder.png,,,,51,,,1,0.9375,GW/westpalmbeach.png,GW/leesburg.png,GW/huntsville.png,GW/huntsville.png,GW/leesburg.png,GW/westpalmbeach.png,1,,,,,,,,,,,,,,,,
null,,html-keyboard-response,1007177,,<p></p>,,,,null,,,,,,,,,,,,,,,,,,,,,,,,,,,
1253.1000000014901,,directmemory_phase,1008433,,GW/cornwall.png,,,,49,,,1,0.9411764705882353,GW/shreveport.png,GW/boulder.png,GW/hotsprings.png,GW/shreveport.png,GW/hotsprings.png,GW/boulder.png,1,,,,,,,,,,,,,,,,
null,,html-keyboard-response,1009437,,<p></p>,,,,null,,,,,,,,,,,,,,,,,,,,,,,,,,,
2944.5,,directmemory_phase,1012384,,GW/leesburg.png,,,,51,,,1,0.9444444444444444,GW/racine.png,GW/hotsprings.png,GW/huntsville.png,GW/huntsville.png,GW/hotsprings.png,GW/racine.png,1,,,,,,,,,,,,,,,,
null,,html-keyboard-response,1013388,,<p></p>,,,,null,,,,,,,,,,,,,,,,,,,,,,,,,,,
1687.2999999970198,,directmemory_phase,1015079,,GW/peoria.png,,,,50,,,1,0.9473684210526315,GW/gatlinburg.png,GW/racine.png,GW/huntsville.png,GW/racine.png,GW/gatlinburg.png,GW/huntsville.png,1,,,,,,,,,,,,,,,,
null,,html-keyboard-response,1016084,,<p></p>,,,,null,,,,,,,,,,,,,,,,,,,,,,,,,,,
3696.89999999851,,directmemory_phase,1019784,,GW/shreveport.png,,,,49,,,1,0.95,GW/leesburg.png,GW/racine.png,GW/westpalmbeach.png,GW/leesburg.png,GW/westpalmbeach.png,GW/racine.png,1,,,,,,,,,,,,,,,,
null,,html-keyboard-response,1020787,,<p></p>,,,,null,,,,,,,,,,,,,,,,,,,,,,,,,,,
1060.1000000014901,,directmemory_phase,1021850,,GW/racine.png,,,,51,,,1,0.9523809523809523,GW/huntsville.png,GW/newhope.png,GW/carmel.png,GW/carmel.png,GW/newhope.png,GW/huntsville.png,1,,,,,,,,,,,,,,,,
null,,html-keyboard-response,1022854,,<p></p>,,,,null,,,,,,,,,,,,,,,,,,,,,,,,,,,
1834,,directmemory_phase,1024691,,GW/leesburg.png,,,,49,,,1,0.9545454545454546,GW/shreveport.png,GW/hanover.png,GW/boulder.png,GW/shreveport.png,GW/boulder.png,GW/hanover.png,1,,,,,,,,,,,,,,,,
null,,html-keyboard-response,1025696,,<p></p>,,,,null,,,,,,,,,,,,,,,,,,,,,,,,,,,
1103.3999999985099,,directmemory_phase,1026803,,GW/newhope.png,,,,49,,,1,0.9565217391304348,GW/hotsprings.png,GW/huntsville.png,GW/shreveport.png,GW/hotsprings.png,GW/shreveport.png,GW/huntsville.png,1,,,,,,,,,,,,,,,,
null,,html-keyboard-response,1027808,,<p></p>,,,,null,,,,,,,,,,,,,,,,,,,,,,,,,,,
3479.0999999940395,,directmemory_phase,1031290,,GW/huntsville.png,,,,51,,,1,0.9583333333333334,GW/carmel.png,GW/cornwall.png,GW/shreveport.png,GW/shreveport.png,GW/cornwall.png,GW/carmel.png,1,,,,,,,,,,,,,,,,
null,,html-keyboard-response,1032293,,<p></p>,,,,null,,,,,,,,,,,,,,,,,,,,,,,,,,,
2868.0999999940395,,directmemory_phase,1035164,,GW/cornwall.png,,,,49,,,1,0.96,GW/leesburg.png,GW/racine.png,GW/hotsprings.png,GW/leesburg.png,GW/hotsprings.png,GW/racine.png,1,,,,,,,,,,,,,,,,
null,,html-keyboard-response,1036169,,<p></p>,,,,null,,,,,,,,,,,,,,,,,,,,,,,,,,,
1998.9000000059605,,directmemory_phase,1038171,,GW/hotsprings.png,,,,49,,,1,0.9615384615384616,GW/carmel.png,GW/westpalmbeach.png,GW/racine.png,GW/carmel.png,GW/racine.png,GW/westpalmbeach.png,1,,,,,,,,,,,,,,,,
null,,html-keyboard-response,1039175,,<p></p>,,,,null,,,,,,,,,,,,,,,,,,,,,,,,,,,
2862.60000000149,,directmemory_phase,1042041,,GW/westpalmbeach.png,,,,50,,,1,0.9629629629629629,GW/cornwall.png,GW/leesburg.png,GW/hotsprings.png,GW/leesburg.png,GW/cornwall.png,GW/hotsprings.png,1,,,,,,,,,,,,,,,,
null,,html-keyboard-response,1043044,,<p></p>,,,,null,,,,,,,,,,,,,,,,,,,,,,,,,,,
1394.2000000029802,,directmemory_phase,1044441,,GW/newhope.png,,,,49,,,1,0.9642857142857143,GW/peoria.png,GW/huntsville.png,GW/carmel.png,GW/peoria.png,GW/carmel.png,GW/huntsville.png,1,,,,,,,,,,,,,,,,
null,,html-keyboard-response,1045446,,<p></p>,,,,null,,,,,,,,,,,,,,,,,,,,,,,,,,,
2805.2000000029802,,directmemory_phase,1048254,,GW/leesburg.png,,,,49,,,1,0.9655172413793104,GW/cornwall.png,GW/hanover.png,GW/hotsprings.png,GW/cornwall.png,GW/hotsprings.png,GW/hanover.png,1,,,,,,,,,,,,,,,,
null,,html-keyboard-response,1049259,,<p></p>,,,,null,,,,,,,,,,,,,,,,,,,,,,,,,,,
2326.7999999970198,,directmemory_phase,1051589,,GW/shreveport.png,,,,49,,,1,0.9666666666666667,GW/huntsville.png,GW/gatlinburg.png,GW/newhope.png,GW/huntsville.png,GW/newhope.png,GW/gatlinburg.png,1,,,,,,,,,,,,,,,,
null,,html-keyboard-response,1052593,,<p></p>,,,,null,,,,,,,,,,,,,,,,,,,,,,,,,,,
2232.4000000059605,,directmemory_phase,1054828,,GW/leesburg.png,,,,51,,,1,0.967741935483871,GW/racine.png,GW/hotsprings.png,GW/westpalmbeach.png,GW/westpalmbeach.png,GW/hotsprings.png,GW/racine.png,1,,,,,,,,,,,,,,,,
null,,html-keyboard-response,1055833,,<p></p>,,,,null,,,,,,,,,,,,,,,,,,,,,,,,,,,
792.2999999970198,,directmemory_phase,1056628,,GW/carmel.png,,,,50,,,1,0.96875,GW/gatlinburg.png,GW/hotsprings.png,GW/hanover.png,GW/hotsprings.png,GW/gatlinburg.png,GW/hanover.png,1,,,,,,,,,,,,,,,,
null,,html-keyboard-response,1057632,,<p></p>,,,,null,,,,,,,,,,,,,,,,,,,,,,,,,,,
23671.39999999851,,intro_1,1081306,,instruct,,0,,,,,,,,,,,,,,,,,,,,,,,,,,,,,
8037.89999999851,,intro_2,1089348,,instruct,,1,Next,,,,,,,,,,,,,,,,,,,,,,,,,,,,
4713.20000000298,,intro_3,1094065,,instruct,,1,Next,,,,,,,,,,,,,,,,,,,,,,,,,,,,
9875.80000000447,,intro_4,1103944,,instruct,,1,Next,,,,,,,,,,,,,,,,,,,,,,,,,,,,
11124.39999999851,,intro_5,1115071,,instruct,,1,Next,,,,,,,,,,,,,,,,,,,,,,,,,,,,
6803.60000000149,,intro_6,1121877,,instruct,,1,Next,,,,,,,,,,,,,,,,,,,,,,,,,,,,
5817.30000000447,,intro_7,1127698,,instruct,,1,Next,,,,,,,,,,,,,,,,,,,,,,,,,,,,
8142.10000000149,,intro_8,1135844,,instruct,,1,Next,,,,,,,,,,,,,,,,,,,,,,,,,,,,
null,,shortestpath_phase,1143347,,GW/gatlinburg.png,,,,null,GW/shreveport.png,GW/boulder.png,0,0,,,,GW/shreveport.png,,,,,Two Edge Diff,Four Edge Six Edge,,,,,,,,,,,,,
null,,warning_page,1146350,,warning,,,,null,,,,,,,,,,,,,,,,,,,,,,,,,,,
null,,html-keyboard-response,1147353,,<p></p>,,,,null,,,,,,,,,,,,,,,,,,,,,,,,,,,
2106.39999999851,,shortestpath_phase,1149462,,GW/racine.png,,,,49,GW/leesburg.png,GW/westpalmbeach.png,1,0.5,,,,GW/leesburg.png,,,,,One Edge Diff,Four Edge Five Edge,,,,,,,,,,,,,
null,,html-keyboard-response,1150468,,<p></p>,,,,null,,,,,,,,,,,,,,,,,,,,,,,,,,,
2926.1999999955297,,shortestpath_phase,1153397,,GW/gatlinburg.png,,,,49,GW/leesburg.png,GW/carmel.png,0,0.3333333333333333,,,,GW/carmel.png,,,,,Three Edge Diff,Three Edge Six Edge,,,,,,,,,,,,,
null,,html-keyboard-response,1154401,,<p></p>,,,,null,,,,,,,,,,,,,,,,,,,,,,,,,,,
3078.89999999851,,shortestpath_phase,1157483,,GW/westpalmbeach.png,,,,50,GW/gatlinburg.png,GW/hanover.png,1,0.5,,,,GW/hanover.png,,,,,One Edge Diff,Five Edge Six Edge,,,,,,,,,,,,,
null,,html-keyboard-response,1158488,,<p></p>,,,,null,,,,,,,,,,,,,,,,,,,,,,,,,,,
2531.4000000059605,,shortestpath_phase,1161023,,GW/leesburg.png,,,,50,GW/peoria.png,GW/hotsprings.png,1,0.6,,,,GW/hotsprings.png,,,,,One Edge Diff,Two Edge Three Edge,,,,,,,,,,,,,
null,,html-keyboard-response,1162026,,<p></p>,,,,null,,,,,,,,,,,,,,,,,,,,,,,,,,,
1803,,shortestpath_phase,1163832,,GW/gatlinburg.png,,,,50,GW/carmel.png,GW/boulder.png,0,0.5,,,,GW/carmel.png,,,,,Four Edge Diff,Two Edge Six Edge,,,,,,,,,,,,,
null,,html-keyboard-response,1164838,,<p></p>,,,,null,,,,,,,,,,,,,,,,,,,,,,,,,,,
1619,,shortestpath_phase,1166460,,GW/hanover.png,,,,50,GW/cornwall.png,GW/westpalmbeach.png,0,0.42857142857142855,,,,GW/cornwall.png,,,,,Two Edge Diff,Three Edge Five Edge,,,,,,,,,,,,,
null,,html-keyboard-response,1167465,,<p></p>,,,,null,,,,,,,,,,,,,,,,,,,,,,,,,,,
2473.5,,shortestpath_phase,1169941,,GW/boulder.png,,,,49,GW/leesburg.png,GW/hanover.png,1,0.5,,,,GW/leesburg.png,,,,,Four Edge Diff,Two Edge Six Edge,,,,,,,,,,,,,
null,,html-keyboard-response,1170944,,<p></p>,,,,null,,,,,,,,,,,,,,,,,,,,,,,,,,,
2086.60000000149,,shortestpath_phase,1173033,,GW/westpalmbeach.png,,,,49,GW/huntsville.png,GW/gatlinburg.png,1,0.5555555555555556,,,,GW/huntsville.png,,,,,Four Edge Diff,Two Edge Six Edge,,,,,,,,,,,,,
null,,html-keyboard-response,1174039,,<p></p>,,,,null,,,,,,,,,,,,,,,,,,,,,,,,,,,
2366,,shortestpath_phase,1176408,,GW/leesburg.png,,,,50,GW/gatlinburg.png,GW/newhope.png,1,0.6,,,,GW/newhope.png,,,,,Three Edge Diff,Three Edge Six Edge,,,,,,,,,,,,,
null,,html-keyboard-response,1177413,,<p></p>,,,,null,,,,,,,,,,,,,,,,,,,,,,,,,,,
2345.60000000149,,shortestpath_phase,1179762,,GW/boulder.png,,,,50,GW/carmel.png,GW/peoria.png,0,0.5454545454545454,,,,GW/carmel.png,,,,,One Edge Diff,Four Edge Five Edge,,,,,,,,,,,,,
null,,html-keyboard-response,1180766,,<p></p>,,,,null,,,,,,,,,,,,,,,,,,,,,,,,,,,
2039.2000000029802,,shortestpath_phase,1182808,,GW/leesburg.png,,,,50,GW/racine.png,GW/gatlinburg.png,0,0.5,,,,GW/racine.png,,,,,One Edge Diff,Four Edge Five Edge,,,,,,,,,,,,,
null,,html-keyboard-response,1183813,,<p></p>,,,,null,,,,,,,,,,,,,,,,,,,,,,,,,,,
2433.8000000044703,,shortestpath_phase,1186250,,GW/gatlinburg.png,,,,49,GW/leesburg.png,GW/cornwall.png,0,0.46153846153846156,,,,GW/cornwall.png,,,,,One Edge Diff,Four Edge Five Edge,,,,,,,,,,,,,
null,,html-keyboard-response,1187255,,<p></p>,,,,null,,,,,,,,,,,,,,,,,,,,,,,,,,,
2650,,shortestpath_phase,1189908,,GW/huntsville.png,,,,50,GW/gatlinburg.png,GW/westpalmbeach.png,1,0.5,,,,GW/westpalmbeach.png,,,,,Three Edge Diff,Three Edge Six Edge,,,,,,,,,,,,,
null,,html-keyboard-response,1190913,,<p></p>,,,,null,,,,,,,,,,,,,,,,,,,,,,,,,,,
2216.4000000059605,,shortestpath_phase,1193132,,GW/peoria.png,,,,50,GW/hotsprings.png,GW/huntsville.png,0,0.4666666666666667,,,,GW/hotsprings.png,,,,,Two Edge Diff,Two Edge Four Edge,,,,,,,,,,,,,
null,,html-keyboard-response,1194137,,<p></p>,,,,null,,,,,,,,,,,,,,,,,,,,,,,,,,,
2275.39999999851,,shortestpath_phase,1196414,,GW/boulder.png,,,,50,GW/shreveport.png,GW/racine.png,0,0.4375,,,,GW/shreveport.png,,,,,Three Edge Diff,Three Edge Six Edge,,,,,,,,,,,,,
null,,html-keyboard-response,1197419,,<p></p>,,,,null,,,,,,,,,,,,,,,,,,,,,,,,,,,
1990.7999999970198,,shortestpath_phase,1199413,,GW/peoria.png,,,,50,GW/boulder.png,GW/huntsville.png,1,0.47058823529411764,,,,GW/huntsville.png,,,,,One Edge Diff,Four Edge Five Edge,,,,,,,,,,,,,
null,,html-keyboard-response,1200416,,<p></p>,,,,null,,,,,,,,,,,,,,,,,,,,,,,,,,,
1751.5,,shortestpath_phase,1202171,,GW/boulder.png,,,,50,GW/gatlinburg.png,GW/carmel.png,1,0.5,,,,GW/carmel.png,,,,,Two Edge Diff,Four Edge Six Edge,,,,,,,,,,,,,
null,,html-keyboard-response,1203175,,<p></p>,,,,null,,,,,,,,,,,,,,,,,,,,,,,,,,,
1532.5999999940395,,shortestpath_phase,1204711,,GW/westpalmbeach.png,,,,49,GW/hanover.png,GW/cornwall.png,0,0.47368421052631576,,,,GW/cornwall.png,,,,,Three Edge Diff,Three Edge Six Edge,,,,,,,,,,,,,
null,,html-keyboard-response,1205717,,<p></p>,,,,null,,,,,,,,,,,,,,,,,,,,,,,,,,,
2148.39999999851,,shortestpath_phase,1207868,,GW/huntsville.png,,,,50,GW/carmel.png,GW/racine.png,0,0.45,,,,GW/carmel.png,,,,,One Edge Diff,Three Edge Four Edge,,,,,,,,,,,,,
null,,html-keyboard-response,1208872,,<p></p>,,,,null,,,,,,,,,,,,,,,,,,,,,,,,,,,
1870.6999999955297,,shortestpath_phase,1210745,,GW/boulder.png,,,,50,GW/gatlinburg.png,GW/leesburg.png,1,0.47619047619047616,,,,GW/leesburg.png,,,,,Four Edge Diff,Two Edge Six Edge,,,,,,,,,,,,,
null,,html-keyboard-response,1211750,,<p></p>,,,,null,,,,,,,,,,,,,,,,,,,,,,,,,,,
1785.3999999985099,,shortestpath_phase,1213538,,GW/westpalmbeach.png,,,,50,GW/hanover.png,GW/carmel.png,1,0.5,,,,GW/carmel.png,,,,,One Edge Diff,Four Edge Five Edge,,,,,,,,,,,,,
null,,html-keyboard-response,1214543,,<p></p>,,,,null,,,,,,,,,,,,,,,,,,,,,,,,,,,
1941.3999999985099,,shortestpath_phase,1216487,,GW/leesburg.png,,,,50,GW/racine.png,GW/boulder.png,1,0.5217391304347826,,,,GW/boulder.png,,,,,Two Edge Diff,Two Edge Four Edge,,,,,,,,,,,,,
null,,html-keyboard-response,1217491,,<p></p>,,,,null,,,,,,,,,,,,,,,,,,,,,,,,,,,
1912.7999999970198,,shortestpath_phase,1219407,,GW/carmel.png,,,,50,GW/leesburg.png,GW/newhope.png,1,0.5416666666666666,,,,GW/newhope.png,,,,,One Edge Diff,Two Edge Three Edge,,,,,,,,,,,,,
null,,html-keyboard-response,1220412,,<p></p>,,,,null,,,,,,,,,,,,,,,,,,,,,,,,,,,
1688.1000000014901,,shortestpath_phase,1222103,,GW/westpalmbeach.png,,,,49,GW/gatlinburg.png,GW/shreveport.png,0,0.52,,,,GW/shreveport.png,,,,,Four Edge Diff,Two Edge Six Edge,,,,,,,,,,,,,
null,,html-keyboard-response,1223108,,<p></p>,,,,null,,,,,,,,,,,,,,,,,,,,,,,,,,,
2040.4000000059605,,shortestpath_phase,1225151,,GW/boulder.png,,,,50,GW/carmel.png,GW/hanover.png,0,0.5,,,,GW/carmel.png,,,,,Two Edge Diff,Four Edge Six Edge,,,,,,,,,,,,,
null,,html-keyboard-response,1226155,,<p></p>,,,,null,,,,,,,,,,,,,,,,,,,,,,,,,,,
1746.7000000029802,,shortestpath_phase,1227904,,GW/hanover.png,,,,49,GW/newhope.png,GW/huntsville.png,1,0.5185185185185185,,,,GW/newhope.png,,,,,Three Edge Diff,Three Edge Six Edge,,,,,,,,,,,,,
null,,html-keyboard-response,1228909,,<p></p>,,,,null,,,,,,,,,,,,,,,,,,,,,,,,,,,
2086.7999999970198,,shortestpath_phase,1230999,,GW/westpalmbeach.png,,,,49,GW/hanover.png,GW/huntsville.png,0,0.5,,,,GW/huntsville.png,,,,,Three Edge Diff,Two Edge Five Edge,,,,,,,,,,,,,
null,,html-keyboard-response,1232004,,<p></p>,,,,null,,,,,,,,,,,,,,,,,,,,,,,,,,,
2081.89999999851,,shortestpath_phase,1234089,,GW/hanover.png,,,,49,GW/shreveport.png,GW/carmel.png,0,0.4827586206896552,,,,GW/carmel.png,,,,,One Edge Diff,Three Edge Four Edge,,,,,,,,,,,,,
null,,html-keyboard-response,1235094,,<p></p>,,,,null,,,,,,,,,,,,,,,,,,,,,,,,,,,
1660.6000000014901,,shortestpath_phase,1236758,,GW/racine.png,,,,50,GW/huntsville.png,GW/newhope.png,1,0.5,,,,GW/newhope.png,,,,,Two Edge Diff,Two Edge Four Edge,,,,,,,,,,,,,
null,,html-keyboard-response,1237763,,<p></p>,,,,null,,,,,,,,,,,,,,,,,,,,,,,,,,,
1881.5,,shortestpath_phase,1239648,,GW/gatlinburg.png,,,,50,GW/westpalmbeach.png,GW/carmel.png,1,0.5161290322580645,,,,GW/carmel.png,,,,,Four Edge Diff,Two Edge Six Edge,,,,,,,,,,,,,
null,,html-keyboard-response,1240652,,<p></p>,,,,null,,,,,,,,,,,,,,,,,,,,,,,,,,,
1963.2000000029802,,shortestpath_phase,1242619,,GW/westpalmbeach.png,,,,50,GW/racine.png,GW/shreveport.png,1,0.53125,,,,GW/shreveport.png,,,,,Three Edge Diff,Two Edge Five Edge,,,,,,,,,,,,,
null,,html-keyboard-response,1243623,,<p></p>,,,,null,,,,,,,,,,,,,,,,,,,,,,,,,,,
2285.10000000149,,shortestpath_phase,1245911,,GW/carmel.png,,,,49,GW/newhope.png,GW/boulder.png,1,0.5454545454545454,,,,GW/newhope.png,,,,,Two Edge Diff,Two Edge Four Edge,,,,,,,,,,,,,
null,,html-keyboard-response,1246917,,<p></p>,,,,null,,,,,,,,,,,,,,,,,,,,,,,,,,,
2017.8999999985099,,shortestpath_phase,1248937,,GW/cornwall.png,,,,50,GW/peoria.png,GW/gatlinburg.png,0,0.5294117647058824,,,,GW/peoria.png,,,,,Two Edge Diff,Two Edge Four Edge,,,,,,,,,,,,,
null,,html-keyboard-response,1249942,,<p></p>,,,,null,,,,,,,,,,,,,,,,,,,,,,,,,,,
1861.7000000029802,,shortestpath_phase,1251807,,GW/westpalmbeach.png,,,,50,GW/gatlinburg.png,GW/carmel.png,1,0.5428571428571428,,,,GW/carmel.png,,,,,Two Edge Diff,Four Edge Six Edge,,,,,,,,,,,,,
null,,html-keyboard-response,1252810,,<p></p>,,,,null,,,,,,,,,,,,,,,,,,,,,,,,,,,
2205.89999999851,,shortestpath_phase,1255018,,GW/boulder.png,,,,49,GW/peoria.png,GW/gatlinburg.png,1,0.5555555555555556,,,,GW/peoria.png,,,,,One Edge Diff,Five Edge Six Edge,,,,,,,,,,,,,
null,,html-keyboard-response,1256024,,<p></p>,,,,null,,,,,,,,,,,,,,,,,,,,,,,,,,,
2292,,shortestpath_phase,1258319,,GW/newhope.png,,,,50,GW/gatlinburg.png,GW/boulder.png,0,0.5405405405405406,,,,GW/gatlinburg.png,,,,,One Edge Diff,Three Edge Four Edge,,,,,,,,,,,,,
null,,html-keyboard-response,1259322,,<p></p>,,,,null,,,,,,,,,,,,,,,,,,,,,,,,,,,
1952.1000000014901,,shortestpath_phase,1261278,,GW/westpalmbeach.png,,,,49,GW/peoria.png,GW/gatlinburg.png,1,0.5526315789473685,,,,GW/peoria.png,,,,,Two Edge Diff,Four Edge Six Edge,,,,,,,,,,,,,
null,,html-keyboard-response,1262281,,<p></p>,,,,null,,,,,,,,,,,,,,,,,,,,,,,,,,,
2248.7999999970198,,shortestpath_phase,1264533,,GW/gatlinburg.png,,,,49,GW/cornwall.png,GW/boulder.png,1,0.5641025641025641,,,,GW/cornwall.png,,,,,Two Edge Diff,Four Edge Six Edge,,,,,,,,,,,,,
null,,html-keyboard-response,1265538,,<p></p>,,,,null,,,,,,,,,,,,,,,,,,,,,,,,,,,
1501.1000000014901,,shortestpath_phase,1267042,,GW/racine.png,,,,50,GW/hanover.png,GW/westpalmbeach.png,0,0.55,,,,GW/hanover.png,,,,,Three Edge Diff,Two Edge Five Edge,,,,,,,,,,,,,
null,,html-keyboard-response,1268047,,<p></p>,,,,null,,,,,,,,,,,,,,,,,,,,,,,,,,,
2427.3000000044703,,shortestpath_phase,1270477,,GW/peoria.png,,,,50,GW/westpalmbeach.png,GW/cornwall.png,1,0.5609756097560976,,,,GW/cornwall.png,,,,,Two Edge Diff,Two Edge Four Edge,,,,,,,,,,,,,
null,,html-keyboard-response,1271481,,<p></p>,,,,null,,,,,,,,,,,,,,,,,,,,,,,,,,,
2015.1999999955297,,shortestpath_phase,1273500,,GW/racine.png,,,,49,GW/boulder.png,GW/newhope.png,0,0.5476190476190477,,,,GW/newhope.png,,,,,Three Edge Diff,Three Edge Six Edge,,,,,,,,,,,,,
null,,html-keyboard-response,1274505,,<p></p>,,,,null,,,,,,,,,,,,,,,,,,,,,,,,,,,
1559.6000000014901,,shortestpath_phase,1276067,,GW/boulder.png,,,,50,GW/peoria.png,GW/leesburg.png,1,0.5581395348837209,,,,GW/leesburg.png,,,,,Three Edge Diff,Two Edge Five Edge,,,,,,,,,,,,,
null,,html-keyboard-response,1277072,,<p></p>,,,,null,,,,,,,,,,,,,,,,,,,,,,,,,,,
2112.10000000149,,shortestpath_phase,1279187,,GW/gatlinburg.png,,,,49,GW/shreveport.png,GW/westpalmbeach.png,1,0.5681818181818182,,,,GW/shreveport.png,,,,,Two Edge Diff,Four Edge Six Edge,,,,,,,,,,,,,
null,,html-keyboard-response,1280191,,<p></p>,,,,null,,,,,,,,,,,,,,,,,,,,,,,,,,,
2099.7000000029802,,shortestpath_phase,1282293,,GW/leesburg.png,,,,49,GW/gatlinburg.png,GW/boulder.png,0,0.5555555555555556,,,,GW/boulder.png,,,,,Three Edge Diff,Two Edge Five Edge,,,,,,,,,,,,,
null,,html-keyboard-response,1283299,,<p></p>,,,,null,,,,,,,,,,,,,,,,,,,,,,,,,,,
1783.2000000029802,,shortestpath_phase,1285085,,GW/huntsville.png,,,,50,GW/westpalmbeach.png,GW/racine.png,0,0.5434782608695652,,,,GW/westpalmbeach.png,,,,,Two Edge Diff,Two Edge Four Edge,,,,,,,,,,,,,
null,,html-keyboard-response,1286090,,<p></p>,,,,null,,,,,,,,,,,,,,,,,,,,,,,,,,,
2000.1000000014901,,shortestpath_phase,1288093,,GW/peoria.png,,,,50,GW/boulder.png,GW/carmel.png,1,0.5531914893617021,,,,GW/carmel.png,,,,,Three Edge Diff,Three Edge Six Edge,,,,,,,,,,,,,
null,,html-keyboard-response,1289097,,<p></p>,,,,null,,,,,,,,,,,,,,,,,,,,,,,,,,,
2173.60000000149,,shortestpath_phase,1291273,,GW/boulder.png,,,,49,GW/shreveport.png,GW/hanover.png,1,0.5625,,,,GW/shreveport.png,,,,,Four Edge Diff,Two Edge Six Edge,,,,,,,,,,,,,
null,,html-keyboard-response,1292278,,<p></p>,,,,null,,,,,,,,,,,,,,,,,,,,,,,,,,,
2057.39999999851,,shortestpath_phase,1294339,,GW/cornwall.png,,,,49,GW/gatlinburg.png,GW/carmel.png,0,0.5510204081632653,,,,GW/carmel.png,,,,,One Edge Diff,Three Edge Four Edge,,,,,,,,,,,,,
null,,html-keyboard-response,1295344,,<p></p>,,,,null,,,,,,,,,,,,,,,,,,,,,,,,,,,
2150.6999999955297,,shortestpath_phase,1297497,,GW/peoria.png,,,,50,GW/shreveport.png,GW/boulder.png,0,0.54,,,,GW/shreveport.png,,,,,Two Edge Diff,Three Edge Five Edge,,,,,,,,,,,,,
null,,html-keyboard-response,1298500,,<p></p>,,,,null,,,,,,,,,,,,,,,,,,,,,,,,,,,
1818.4000000059605,,shortestpath_phase,1300321,,GW/hanover.png,,,,50,GW/gatlinburg.png,GW/huntsville.png,0,0.5294117647058824,,,,GW/gatlinburg.png,,,,,Two Edge Diff,Three Edge Five Edge,,,,,,,,,,,,,
null,,html-keyboard-response,1301326,,<p></p>,,,,null,,,,,,,,,,,,,,,,,,,,,,,,,,,
2069.10000000149,,shortestpath_phase,1303397,,GW/boulder.png,,,,50,GW/gatlinburg.png,GW/shreveport.png,1,0.5384615384615384,,,,GW/shreveport.png,,,,,Four Edge Diff,Two Edge Six Edge,,,,,,,,,,,,,
null,,html-keyboard-response,1304401,,<p></p>,,,,null,,,,,,,,,,,,,,,,,,,,,,,,,,,
1875,,shortestpath_phase,1306279,,GW/hanover.png,,,,49,GW/westpalmbeach.png,GW/boulder.png,1,0.5471698113207547,,,,GW/westpalmbeach.png,,,,,One Edge Diff,Five Edge Six Edge,,,,,,,,,,,,,
null,,html-keyboard-response,1307283,,<p></p>,,,,null,,,,,,,,,,,,,,,,,,,,,,,,,,,
2042.3000000044703,,shortestpath_phase,1309328,,GW/boulder.png,,,,49,GW/hotsprings.png,GW/newhope.png,1,0.5555555555555556,,,,GW/hotsprings.png,,,,,One Edge Diff,Three Edge Four Edge,,,,,,,,,,,,,
null,,html-keyboard-response,1310334,,<p></p>,,,,null,,,,,,,,,,,,,,,,,,,,,,,,,,,
2350,,shortestpath_phase,1312686,,GW/westpalmbeach.png,,,,50,GW/gatlinburg.png,GW/cornwall.png,1,0.5636363636363636,,,,GW/cornwall.png,,,,,Four Edge Diff,Two Edge Six Edge,,,,,,,,,,,,,
null,,html-keyboard-response,1313692,,<p></p>,,,,null,,,,,,,,,,,,,,,,,,,,,,,,,,,
1755,,shortestpath_phase,1315450,,GW/peoria.png,,,,49,GW/boulder.png,GW/gatlinburg.png,0,0.5535714285714286,,,,GW/gatlinburg.png,,,,,Three Edge Diff,Two Edge Five Edge,,,,,,,,,,,,,
null,,html-keyboard-response,1316455,,<p></p>,,,,null,,,,,,,,,,,,,,,,,,,,,,,,,,,
2352.10000000149,,shortestpath_phase,1318810,,GW/westpalmbeach.png,,,,49,GW/shreveport.png,GW/hanover.png,1,0.5614035087719298,,,,GW/shreveport.png,,,,,Three Edge Diff,Two Edge Five Edge,,,,,,,,,,,,,
null,,html-keyboard-response,1319815,,<p></p>,,,,null,,,,,,,,,,,,,,,,,,,,,,,,,,,
2385,,shortestpath_phase,1322203,,GW/gatlinburg.png,,,,50,GW/huntsville.png,GW/boulder.png,0,0.5517241379310345,,,,GW/huntsville.png,,,,,One Edge Diff,Five Edge Six Edge,,,,,,,,,,,,,
null,,html-keyboard-response,1323208,,<p></p>,,,,null,,,,,,,,,,,,,,,,,,,,,,,,,,,
2142.6999999955297,,shortestpath_phase,1325353,,GW/boulder.png,,,,49,GW/shreveport.png,GW/hotsprings.png,1,0.559322033898305,,,,GW/shreveport.png,,,,,One Edge Diff,Two Edge Three Edge,,,,,,,,,,,,,
null,,html-keyboard-response,1326357,,<p></p>,,,,null,,,,,,,,,,,,,,,,,,,,,,,,,,,
2428.7000000029802,,shortestpath_phase,1328789,,GW/gatlinburg.png,,,,49,GW/huntsville.png,GW/westpalmbeach.png,1,0.5666666666666667,,,,GW/huntsville.png,,,,,One Edge Diff,Five Edge Six Edge,,,,,,,,,,,,,
null,,html-keyboard-response,1329795,,<p></p>,,,,null,,,,,,,,,,,,,,,,,,,,,,,,,,,
2438.10000000149,,shortestpath_phase,1332236,,GW/hanover.png,,,,49,GW/racine.png,GW/westpalmbeach.png,1,0.5737704918032787,,,,GW/racine.png,,,,,Three Edge Diff,Two Edge Five Edge,,,,,,,,,,,,,
null,,html-keyboard-response,1333241,,<p></p>,,,,null,,,,,,,,,,,,,,,,,,,,,,,,,,,
